"trial_type","trial_index","time_elapsed","internal_node_id","subject_id","task_version","interactions","blur_events","focus_events","fullscreenenter_events","fullscreenexit_events","success","timeout","failed_images","failed_audio","failed_video","rt","stimulus","response","button_pressed","task_part","key_press","answer","correct"
"pavlovia","0","5","0.0-0.0","4258","approach_avoid_sv1","""event"",""trial"",""time""
""fullscreenenter"",""1"",""4162""
","
","
","""event"",""trial"",""time""
""fullscreenenter"",""1"",""4162""
","
","","","","","","","","","","","","",""
"fullscreen","1","5153","0.0-1.0","4258","approach_avoid_sv1","""event"",""trial"",""time""
""fullscreenenter"",""1"",""4162""
","
","
","""event"",""trial"",""time""
""fullscreenenter"",""1"",""4162""
","
","true","","","","","","","","","","","",""
"preload","2","6579","0.0-2.0","4258","approach_avoid_sv1","""event"",""trial"",""time""
""fullscreenenter"",""1"",""4162""
","
","
","""event"",""trial"",""time""
""fullscreenenter"",""1"",""4162""
","
","true","false","[]","[]","[]","","","","","","","",""
"preload","3","7705","0.0-3.0","4258","approach_avoid_sv1","""event"",""trial"",""time""
""fullscreenenter"",""1"",""4162""
","
","
","""event"",""trial"",""time""
""fullscreenenter"",""1"",""4162""
","
","true","false","[]","[]","[]","","","","","","","",""
"preload","4","7905","0.0-4.0","4258","approach_avoid_sv1","""event"",""trial"",""time""
""fullscreenenter"",""1"",""4162""
","
","
","""event"",""trial"",""time""
""fullscreenenter"",""1"",""4162""
","
","true","false","[]","[]","[]","","","","","","","",""
"audio-keyboard-response","5","21760","0.0-5.0","4258","approach_avoid_sv1","""event"",""trial"",""time""
""fullscreenenter"",""1"",""4162""
","
","
","""event"",""trial"",""time""
""fullscreenenter"",""1"",""4162""
","
","","","","","","13856.507936507936","audio/beep_loop.wav"," ","","","","",""
"audio-button-response","6","25156","0.0-6.0","4258","approach_avoid_sv1","""event"",""trial"",""time""
""fullscreenenter"",""1"",""4162""
","
","
","""event"",""trial"",""time""
""fullscreenenter"",""1"",""4162""
","
","","","","","","3396","audio/turtle.wav","3","","","","",""
"audio-button-response","7","27530","0.0-7.0","4258","approach_avoid_sv1","""event"",""trial"",""time""
""fullscreenenter"",""1"",""4162""
","
","
","""event"",""trial"",""time""
""fullscreenenter"",""1"",""4162""
","
","","","","","","1370","audio/shark.wav","2","","","","",""
"preload","8","30205","0.0-8.0","4258","approach_avoid_sv1","""event"",""trial"",""time""
""fullscreenenter"",""1"",""4162""
","
","
","""event"",""trial"",""time""
""fullscreenenter"",""1"",""4162""
","
","true","false","[]","[]","[]","","","","","","","",""
"learning-instructions","9","37962","0.0-9.0-0.0","4258","approach_avoid_sv1","""event"",""trial"",""time""
""fullscreenenter"",""1"",""4162""
","
","
","""event"",""trial"",""time""
""fullscreenenter"",""1"",""4162""
","
","","","","","","3279.699999999255","<p> Welcome back! </p><p> Last week, you had to make choices about lots of different items.  </p>","","0","instructions","","",""
"learning-instructions","10","42636","0.0-9.0-0.1","4258","approach_avoid_sv1","""event"",""trial"",""time""
""fullscreenenter"",""1"",""4162""
","
","
","""event"",""trial"",""time""
""fullscreenenter"",""1"",""4162""
","
","","","","","","559.1999999992549","<p> Today, we are going to ask you to try to remember all the items. </p>","","0","instructions","","",""
"learning-instructions","11","53770","0.0-9.0-0.2","4258","approach_avoid_sv1","""event"",""trial"",""time""
""fullscreenenter"",""1"",""4162""
","
","
","""event"",""trial"",""time""
""fullscreenenter"",""1"",""4162""
","
","","","","","","999.8000000007451","<p> On every trial, you will see an image. </p><p> The image may be an OLD image you saw during the games last week or it may be a NEW image that was not presented. </p>","","0","instructions","","",""
"learning-instructions","12","63860","0.0-9.0-0.3","4258","approach_avoid_sv1","""event"",""trial"",""time""
""fullscreenenter"",""1"",""4162""
","
","
","""event"",""trial"",""time""
""fullscreenenter"",""1"",""4162""
","
","","","","","","1593.300000000745","<p> You need to select whether the image is:  </p><p>  'Definitely old', 'Maybe old', 'Maybe new', or 'Definitely new.'  </p><div class=""mem-choice-instructions-grid""><div class=""choice-option"" id=""choice-option-1"" ><img src=""images/definitely_old_1.png"" id=""choice-option-img-1"" class=""choice-option-img"" stage=""1""></div><div class=""choice-option"" id=""choice-option-2"" ><img src=""images/maybe_old_1.png"" id=""choice-option-img-2"" class=""choice-option-img"" stage=""1""></div><div class=""choice-option"" id=""choice-option-3"" ><img src=""images/maybe_new_1.png"" id=""choice-option-img-3"" class=""choice-option-img"" stage=""1""></div><div class=""choice-option"" id=""choice-option-4"" > <img src=""images/definitely_new_1.png"" id=""choice-option-img-4"" class=""choice-option-img"" stage=""1""></div></div>","","0","instructions","","",""
"learning-instructions","13","72061","0.0-9.0-0.4","4258","approach_avoid_sv1","""event"",""trial"",""time""
""fullscreenenter"",""1"",""4162""
","
","
","""event"",""trial"",""time""
""fullscreenenter"",""1"",""4162""
","
","","","","","","1689.9000000022352","<p> You should use the 1, 2, 3, and 4 keys to make your responses.  </p><div class=""mem-choice-instructions-grid""><div class=""choice-option"" id=""choice-option-1"" ><img src=""images/definitely_old.png"" id=""choice-option-img-1"" class=""choice-option-img"" stage=""1""></div><div class=""choice-option"" id=""choice-option-2"" ><img src=""images/maybe_old.png"" id=""choice-option-img-2"" class=""choice-option-img"" stage=""1""></div><div class=""choice-option"" id=""choice-option-3"" ><img src=""images/maybe_new.png"" id=""choice-option-img-3"" class=""choice-option-img"" stage=""1""></div><div class=""choice-option"" id=""choice-option-4"" > <img src=""images/definitely_new.png"" id=""choice-option-img-4"" class=""choice-option-img"" stage=""1""></div></div>","","0","instructions","","",""
"learning-instructions","14","80148","0.0-9.0-0.5","4258","approach_avoid_sv1","""event"",""trial"",""time""
""fullscreenenter"",""1"",""4162""
","
","
","""event"",""trial"",""time""
""fullscreenenter"",""1"",""4162""
","
","","","","","","1760.800000000745","<p> You will have 10 seconds to make each response.  </p><p>  Make sure to respond before time runs out! </p>","","0","instructions","","",""
"learning-instructions","15","87939","0.0-9.0-0.6","4258","approach_avoid_sv1","""event"",""trial"",""time""
""fullscreenenter"",""1"",""4162""
","
","
","""event"",""trial"",""time""
""fullscreenenter"",""1"",""4162""
","
","","","","","","716.5999999977648","<p> Today, you will see each image ONCE only.  </p><p>  That means none of the images will repeat. </p>","","0","instructions","","",""
"learning-instructions","16","101713","0.0-9.0-0.7","4258","approach_avoid_sv1","""event"",""trial"",""time""
""fullscreenenter"",""1"",""4162""
","
","
","""event"",""trial"",""time""
""fullscreenenter"",""1"",""4162""
","
","","","","","","1110.5","<p> Before you play the real game, it is time to practice. </p><p>  Just like in the real game, some of the images in the practice will be ones you have seen before. </p><p>  Others will be entirely new. </p>","","0","instructions","","",""
"html-button-response","17","105244","0.0-10.0","4258","approach_avoid_sv1","""event"",""trial"",""time""
""fullscreenenter"",""1"",""4162""
","
","
","""event"",""trial"",""time""
""fullscreenenter"",""1"",""4162""
","
","","","","","","3428.300000000745","<p> Ready to practice? </p><p> Remember, use the 1, 2, 3, and 4 keys to make your responses. </p>","0","","instructions","","",""
"html-keyboard-response","18","105850","0.0-11.0-0.0","4258","approach_avoid_sv1","""event"",""trial"",""time""
""fullscreenenter"",""1"",""4162""
","
","
","""event"",""trial"",""time""
""fullscreenenter"",""1"",""4162""
","
","","","","","","null","<div style=""font-size:60px;"">+</div>","null","","fixation","","",""
"memory-trial","19","109745","0.0-11.0-1.0","4258","approach_avoid_sv1","""event"",""trial"",""time""
""fullscreenenter"",""1"",""4162""
","
","
","""event"",""trial"",""time""
""fullscreenenter"",""1"",""4162""
","
","","","","","","2889","images/ball1.png","","","practice","4","definitely_new",""
"html-keyboard-response","20","110250","0.0-11.0-0.1","4258","approach_avoid_sv1","""event"",""trial"",""time""
""fullscreenenter"",""1"",""4162""
","
","
","""event"",""trial"",""time""
""fullscreenenter"",""1"",""4162""
","
","","","","","","null","<div style=""font-size:60px;"">+</div>","null","","fixation","","",""
"memory-trial","21","114406","0.0-11.0-1.1","4258","approach_avoid_sv1","""event"",""trial"",""time""
""fullscreenenter"",""1"",""4162""
","
","
","""event"",""trial"",""time""
""fullscreenenter"",""1"",""4162""
","
","","","","","","3154.400000002235","images/racket5.png","","","practice","1","definitely_old",""
"html-keyboard-response","22","114909","0.0-11.0-0.2","4258","approach_avoid_sv1","""event"",""trial"",""time""
""fullscreenenter"",""1"",""4162""
","
","
","""event"",""trial"",""time""
""fullscreenenter"",""1"",""4162""
","
","","","","","","null","<div style=""font-size:60px;"">+</div>","null","","fixation","","",""
"memory-trial","23","119240","0.0-11.0-1.2","4258","approach_avoid_sv1","""event"",""trial"",""time""
""fullscreenenter"",""1"",""4162""
","
","
","""event"",""trial"",""time""
""fullscreenenter"",""1"",""4162""
","
","","","","","","3324.599999997765","images/ball3.png","","","practice","4","definitely_new",""
"html-keyboard-response","24","119742","0.0-11.0-0.3","4258","approach_avoid_sv1","""event"",""trial"",""time""
""fullscreenenter"",""1"",""4162""
","
","
","""event"",""trial"",""time""
""fullscreenenter"",""1"",""4162""
","
","","","","","","null","<div style=""font-size:60px;"">+</div>","null","","fixation","","",""
"memory-trial","25","123218","0.0-11.0-1.3","4258","approach_avoid_sv1","""event"",""trial"",""time""
""fullscreenenter"",""1"",""4162""
","
","
","""event"",""trial"",""time""
""fullscreenenter"",""1"",""4162""
","
","","","","","","2471.300000000745","images/racket2.png","","","practice","2","maybe_old",""
"html-keyboard-response","26","123723","0.0-11.0-0.4","4258","approach_avoid_sv1","""event"",""trial"",""time""
""fullscreenenter"",""1"",""4162""
","
","
","""event"",""trial"",""time""
""fullscreenenter"",""1"",""4162""
","
","","","","","","null","<div style=""font-size:60px;"">+</div>","null","","fixation","","",""
"memory-trial","27","128092","0.0-11.0-1.4","4258","approach_avoid_sv1","""event"",""trial"",""time""
""fullscreenenter"",""1"",""4162""
","
","
","""event"",""trial"",""time""
""fullscreenenter"",""1"",""4162""
","
","","","","","","3362.400000002235","images/racket3.png","","","practice","1","definitely_old",""
"html-keyboard-response","28","128593","0.0-11.0-0.5","4258","approach_avoid_sv1","""event"",""trial"",""time""
""fullscreenenter"",""1"",""4162""
","
","
","""event"",""trial"",""time""
""fullscreenenter"",""1"",""4162""
","
","","","","","","null","<div style=""font-size:60px;"">+</div>","null","","fixation","","",""
"memory-trial","29","132281","0.0-11.0-1.5","4258","approach_avoid_sv1","""event"",""trial"",""time""
""fullscreenenter"",""1"",""4162""
","
","
","""event"",""trial"",""time""
""fullscreenenter"",""1"",""4162""
","
","","","","","","2685","images/ball5.png","","","practice","1","definitely_old",""
"html-keyboard-response","30","132786","0.0-11.0-0.6","4258","approach_avoid_sv1","""event"",""trial"",""time""
""fullscreenenter"",""1"",""4162""
","
","
","""event"",""trial"",""time""
""fullscreenenter"",""1"",""4162""
","
","","","","","","null","<div style=""font-size:60px;"">+</div>","null","","fixation","","",""
"memory-trial","31","135295","0.0-11.0-1.6","4258","approach_avoid_sv1","""event"",""trial"",""time""
""fullscreenenter"",""1"",""4162""
","
","
","""event"",""trial"",""time""
""fullscreenenter"",""1"",""4162""
","
","","","","","","1506","images/ball2.png","","","practice","1","definitely_old",""
"html-keyboard-response","32","135798","0.0-11.0-0.7","4258","approach_avoid_sv1","""event"",""trial"",""time""
""fullscreenenter"",""1"",""4162""
","
","
","""event"",""trial"",""time""
""fullscreenenter"",""1"",""4162""
","
","","","","","","null","<div style=""font-size:60px;"">+</div>","null","","fixation","","",""
"memory-trial","33","140390","0.0-11.0-1.7","4258","approach_avoid_sv1","""event"",""trial"",""time""
""fullscreenenter"",""1"",""4162""
","
","
","""event"",""trial"",""time""
""fullscreenenter"",""1"",""4162""
","
","","","","","","3585.300000000745","images/racket1.png","","","practice","4","definitely_new",""
"learning-instructions","34","149840","0.0-12.0-0.0","4258","approach_avoid_sv1","""event"",""trial"",""time""
""fullscreenenter"",""1"",""4162""
","
","
","""event"",""trial"",""time""
""fullscreenenter"",""1"",""4162""
","
","","","","","","2007.7999999970198","<p> Great! You have completed the practice. </p><p> Before you start, we're going to ask you a few questions about how the game works.  </p>","","0","instructions","","",""
"preload","35","151183","0.0-13.0","4258","approach_avoid_sv1","""event"",""trial"",""time""
""fullscreenenter"",""1"",""4162""
","
","
","""event"",""trial"",""time""
""fullscreenenter"",""1"",""4162""
","
","true","false","[]","[]","[]","","","","","","","",""
"comp-q","36","158565","0.0-14.0-0.0","4258","approach_avoid_sv1","""event"",""trial"",""time""
""fullscreenenter"",""1"",""4162""
","
","
","""event"",""trial"",""time""
""fullscreenenter"",""1"",""4162""
","
","","","","","","1555.199999999255","<p> <b> True or False? </b> </p><p> In this game, you will only see each image once. </p>","","0","comp_question","","","true"
"comp-q","37","168022","0.0-14.0-1.0","4258","approach_avoid_sv1","""event"",""trial"",""time""
""fullscreenenter"",""1"",""4162""
","
","
","""event"",""trial"",""time""
""fullscreenenter"",""1"",""4162""
","
","","","","","","3124.099999997765","<p> <b> That's right! </b> You will see many different images <i> one time each </i> in this game. </p>","","0","comp_answer","","",""
"comp-q","38","176329","0.0-15.0-0.0","4258","approach_avoid_sv1","""event"",""trial"",""time""
""fullscreenenter"",""1"",""4162""
","
","
","""event"",""trial"",""time""
""fullscreenenter"",""1"",""4162""
","
","","","","","","3297.699999999255","<p> <b> True or False? </b> </p><p> You should use the mouse and click to make your response. </p>","","1","comp_question","","","true"
"comp-q","39","184644","0.0-15.0-1.0","4258","approach_avoid_sv1","""event"",""trial"",""time""
""fullscreenenter"",""1"",""4162""
","
","
","""event"",""trial"",""time""
""fullscreenenter"",""1"",""4162""
","
","","","","","","1814.2000000029802","<p><b> That's right! </b> You should use the '1', '2', '3', and '4' keys to make your response. </p>","","0","comp_answer","","",""
"comp-q","40","192776","0.0-16.0-0.0","4258","approach_avoid_sv1","""event"",""trial"",""time""
""fullscreenenter"",""1"",""4162""
","
","
","""event"",""trial"",""time""
""fullscreenenter"",""1"",""4162""
","
","","","","","","2457.300000000745","<p> <b> True or False? </b> </p><p> You will have as much time as you want to make each choice. </p>","","1","comp_question","","","true"
"comp-q","41","199054","0.0-16.0-1.0","4258","approach_avoid_sv1","""event"",""trial"",""time""
""fullscreenenter"",""1"",""4162""
","
","
","""event"",""trial"",""time""
""fullscreenenter"",""1"",""4162""
","
","","","","","","1584.2999999970198","<p> <b> That's right! </b> You will only have 10 seconds to make each choice. </p>","","0","comp_answer","","",""
"learning-instructions","42","211003","0.0-17.0","4258","approach_avoid_sv1","""event"",""trial"",""time""
""fullscreenenter"",""1"",""4162""
","
","
","""event"",""trial"",""time""
""fullscreenenter"",""1"",""4162""
","
","","","","","","3275.89999999851","<p> Great! You are now ready to begin the game. </p><p> Remember, use the 1, 2, 3, and 4 keys to make your responses. </p>","","0","instructions","","",""
"html-keyboard-response","43","211610","0.0-18.0-0.0","4258","approach_avoid_sv1","""event"",""trial"",""time""
""fullscreenenter"",""1"",""4162""
","
","
","""event"",""trial"",""time""
""fullscreenenter"",""1"",""4162""
","
","","","","","","null","<div style=""font-size:60px;"">+</div>","null","","fixation","","",""
"memory-trial","44","215107","0.0-18.0-1.0","4258","approach_avoid_sv1","""event"",""trial"",""time""
""fullscreenenter"",""1"",""4162""
","
","
","""event"",""trial"",""time""
""fullscreenenter"",""1"",""4162""
","
","","","","","","2493.10000000149","images/cat6.png","","","memory_trial","4","definitely_new",""
"html-keyboard-response","45","215610","0.0-18.0-0.1","4258","approach_avoid_sv1","""event"",""trial"",""time""
""fullscreenenter"",""1"",""4162""
","
","
","""event"",""trial"",""time""
""fullscreenenter"",""1"",""4162""
","
","","","","","","null","<div style=""font-size:60px;"">+</div>","null","","fixation","","",""
"memory-trial","46","218448","0.0-18.0-1.1","4258","approach_avoid_sv1","""event"",""trial"",""time""
""fullscreenenter"",""1"",""4162""
","
","
","""event"",""trial"",""time""
""fullscreenenter"",""1"",""4162""
","
","","","","","","1831.5","images/dog1.png","","","memory_trial","1","definitely_old",""
"html-keyboard-response","47","218953","0.0-18.0-0.2","4258","approach_avoid_sv1","""event"",""trial"",""time""
""fullscreenenter"",""1"",""4162""
","
","
","""event"",""trial"",""time""
""fullscreenenter"",""1"",""4162""
","
","","","","","","null","<div style=""font-size:60px;"">+</div>","null","","fixation","","",""
"memory-trial","48","221255","0.0-18.0-1.2","4258","approach_avoid_sv1","""event"",""trial"",""time""
""fullscreenenter"",""1"",""4162""
","
","
","""event"",""trial"",""time""
""fullscreenenter"",""1"",""4162""
","
","","","","","","1298.300000000745","images/rabbit2.png","","","memory_trial","1","definitely_old",""
"html-keyboard-response","49","221757","0.0-18.0-0.3","4258","approach_avoid_sv1","""event"",""trial"",""time""
""fullscreenenter"",""1"",""4162""
","
","
","""event"",""trial"",""time""
""fullscreenenter"",""1"",""4162""
","
","","","","","","null","<div style=""font-size:60px;"">+</div>","null","","fixation","","",""
"memory-trial","50","223702","0.0-18.0-1.3","4258","approach_avoid_sv1","""event"",""trial"",""time""
""fullscreenenter"",""1"",""4162""
","
","
","""event"",""trial"",""time""
""fullscreenenter"",""1"",""4162""
","
","","","","","","938.5","images/dog2.png","","","memory_trial","1","definitely_old",""
"html-keyboard-response","51","224207","0.0-18.0-0.4","4258","approach_avoid_sv1","""event"",""trial"",""time""
""fullscreenenter"",""1"",""4162""
","
","
","""event"",""trial"",""time""
""fullscreenenter"",""1"",""4162""
","
","","","","","","null","<div style=""font-size:60px;"">+</div>","null","","fixation","","",""
"memory-trial","52","226279","0.0-18.0-1.4","4258","approach_avoid_sv1","""event"",""trial"",""time""
""fullscreenenter"",""1"",""4162""
","
","
","""event"",""trial"",""time""
""fullscreenenter"",""1"",""4162""
","
","","","","","","1068.0999999977648","images/rabbit5.png","","","memory_trial","1","definitely_old",""
"html-keyboard-response","53","226784","0.0-18.0-0.5","4258","approach_avoid_sv1","""event"",""trial"",""time""
""fullscreenenter"",""1"",""4162""
","
","
","""event"",""trial"",""time""
""fullscreenenter"",""1"",""4162""
","
","","","","","","null","<div style=""font-size:60px;"">+</div>","null","","fixation","","",""
"memory-trial","54","228688","0.0-18.0-1.5","4258","approach_avoid_sv1","""event"",""trial"",""time""
""fullscreenenter"",""1"",""4162""
","
","
","""event"",""trial"",""time""
""fullscreenenter"",""1"",""4162""
","
","","","","","","899.3000000007451","images/rodent6.png","","","memory_trial","1","definitely_old",""
"html-keyboard-response","55","229193","0.0-18.0-0.6","4258","approach_avoid_sv1","""event"",""trial"",""time""
""fullscreenenter"",""1"",""4162""
","
","
","""event"",""trial"",""time""
""fullscreenenter"",""1"",""4162""
","
","","","","","","null","<div style=""font-size:60px;"">+</div>","null","","fixation","","",""
"memory-trial","56","231358","0.0-18.0-1.6","4258","approach_avoid_sv1","""event"",""trial"",""time""
""fullscreenenter"",""1"",""4162""
","
","
","""event"",""trial"",""time""
""fullscreenenter"",""1"",""4162""
","
","","","","","","1161.5","images/chair6.png","","","memory_trial","1","definitely_old",""
"html-keyboard-response","57","231863","0.0-18.0-0.7","4258","approach_avoid_sv1","""event"",""trial"",""time""
""fullscreenenter"",""1"",""4162""
","
","
","""event"",""trial"",""time""
""fullscreenenter"",""1"",""4162""
","
","","","","","","null","<div style=""font-size:60px;"">+</div>","null","","fixation","","",""
"memory-trial","58","234077","0.0-18.0-1.7","4258","approach_avoid_sv1","""event"",""trial"",""time""
""fullscreenenter"",""1"",""4162""
","
","
","""event"",""trial"",""time""
""fullscreenenter"",""1"",""4162""
","
","","","","","","1208.699999999255","images/cat4.png","","","memory_trial","4","definitely_new",""
"html-keyboard-response","59","234581","0.0-18.0-0.8","4258","approach_avoid_sv1","""event"",""trial"",""time""
""fullscreenenter"",""1"",""4162""
","
","
","""event"",""trial"",""time""
""fullscreenenter"",""1"",""4162""
","
","","","","","","null","<div style=""font-size:60px;"">+</div>","null","","fixation","","",""
"memory-trial","60","236751","0.0-18.0-1.8","4258","approach_avoid_sv1","""event"",""trial"",""time""
""fullscreenenter"",""1"",""4162""
","
","
","""event"",""trial"",""time""
""fullscreenenter"",""1"",""4162""
","
","","","","","","1164.7000000029802","images/cat2.png","","","memory_trial","4","definitely_new",""
"html-keyboard-response","61","237255","0.0-18.0-0.9","4258","approach_avoid_sv1","""event"",""trial"",""time""
""fullscreenenter"",""1"",""4162""
","
","
","""event"",""trial"",""time""
""fullscreenenter"",""1"",""4162""
","
","","","","","","null","<div style=""font-size:60px;"">+</div>","null","","fixation","","",""
"memory-trial","62","239394","0.0-18.0-1.9","4258","approach_avoid_sv1","""event"",""trial"",""time""
""fullscreenenter"",""1"",""4162""
","
","
","""event"",""trial"",""time""
""fullscreenenter"",""1"",""4162""
","
","","","","","","1132.8999999985099","images/sofa2.png","","","memory_trial","4","definitely_new",""
"html-keyboard-response","63","239898","0.0-18.0-0.10","4258","approach_avoid_sv1","""event"",""trial"",""time""
""fullscreenenter"",""1"",""4162""
","
","
","""event"",""trial"",""time""
""fullscreenenter"",""1"",""4162""
","
","","","","","","null","<div style=""font-size:60px;"">+</div>","null","","fixation","","",""
"memory-trial","64","244438","0.0-18.0-1.10","4258","approach_avoid_sv1","""event"",""trial"",""time""
""fullscreenenter"",""1"",""4162""
","
","
","""event"",""trial"",""time""
""fullscreenenter"",""1"",""4162""
","
","","","","","","3533","images/bush1.png","","","memory_trial","3","maybe_new",""
"html-keyboard-response","65","244943","0.0-18.0-0.11","4258","approach_avoid_sv1","""event"",""trial"",""time""
""fullscreenenter"",""1"",""4162""
","
","
","""event"",""trial"",""time""
""fullscreenenter"",""1"",""4162""
","
","","","","","","null","<div style=""font-size:60px;"">+</div>","null","","fixation","","",""
"memory-trial","66","248356","0.0-18.0-1.11","4258","approach_avoid_sv1","""event"",""trial"",""time""
""fullscreenenter"",""1"",""4162""
","
","
","""event"",""trial"",""time""
""fullscreenenter"",""1"",""4162""
","
","","","","","","2409.2000000029802","images/sheep1.png","","","memory_trial","4","definitely_new",""
"html-keyboard-response","67","248861","0.0-18.0-0.12","4258","approach_avoid_sv1","""event"",""trial"",""time""
""fullscreenenter"",""1"",""4162""
","
","
","""event"",""trial"",""time""
""fullscreenenter"",""1"",""4162""
","
","","","","","","null","<div style=""font-size:60px;"">+</div>","null","","fixation","","",""
"memory-trial","68","251218","0.0-18.0-1.12","4258","approach_avoid_sv1","""event"",""trial"",""time""
""fullscreenenter"",""1"",""4162""
","
","
","""event"",""trial"",""time""
""fullscreenenter"",""1"",""4162""
","
","","","","","","1349.6000000014901","images/rodent7.png","","","memory_trial","1","definitely_old",""
"html-keyboard-response","69","251723","0.0-18.0-0.13","4258","approach_avoid_sv1","""event"",""trial"",""time""
""fullscreenenter"",""1"",""4162""
","
","
","""event"",""trial"",""time""
""fullscreenenter"",""1"",""4162""
","
","","","","","","null","<div style=""font-size:60px;"">+</div>","null","","fixation","","",""
"memory-trial","70","253687","0.0-18.0-1.13","4258","approach_avoid_sv1","""event"",""trial"",""time""
""fullscreenenter"",""1"",""4162""
","
","
","""event"",""trial"",""time""
""fullscreenenter"",""1"",""4162""
","
","","","","","","960.6000000014901","images/rabbit8.png","","","memory_trial","1","definitely_old",""
"html-keyboard-response","71","254190","0.0-18.0-0.14","4258","approach_avoid_sv1","""event"",""trial"",""time""
""fullscreenenter"",""1"",""4162""
","
","
","""event"",""trial"",""time""
""fullscreenenter"",""1"",""4162""
","
","","","","","","null","<div style=""font-size:60px;"">+</div>","null","","fixation","","",""
"memory-trial","72","256867","0.0-18.0-1.14","4258","approach_avoid_sv1","""event"",""trial"",""time""
""fullscreenenter"",""1"",""4162""
","
","
","""event"",""trial"",""time""
""fullscreenenter"",""1"",""4162""
","
","","","","","","1670","images/goat1.png","","","memory_trial","4","definitely_new",""
"html-keyboard-response","73","257371","0.0-18.0-0.15","4258","approach_avoid_sv1","""event"",""trial"",""time""
""fullscreenenter"",""1"",""4162""
","
","
","""event"",""trial"",""time""
""fullscreenenter"",""1"",""4162""
","
","","","","","","null","<div style=""font-size:60px;"">+</div>","null","","fixation","","",""
"memory-trial","74","259897","0.0-18.0-1.15","4258","approach_avoid_sv1","""event"",""trial"",""time""
""fullscreenenter"",""1"",""4162""
","
","
","""event"",""trial"",""time""
""fullscreenenter"",""1"",""4162""
","
","","","","","","1520.199999999255","images/cactus1.png","","","memory_trial","1","definitely_old",""
"html-keyboard-response","75","260402","0.0-18.0-0.16","4258","approach_avoid_sv1","""event"",""trial"",""time""
""fullscreenenter"",""1"",""4162""
","
","
","""event"",""trial"",""time""
""fullscreenenter"",""1"",""4162""
","
","","","","","","null","<div style=""font-size:60px;"">+</div>","null","","fixation","","",""
"memory-trial","76","264372","0.0-18.0-1.16","4258","approach_avoid_sv1","""event"",""trial"",""time""
""fullscreenenter"",""1"",""4162""
","
","
","""event"",""trial"",""time""
""fullscreenenter"",""1"",""4162""
","
","","","","","","2965","images/cat7.png","","","memory_trial","4","definitely_new",""
"html-keyboard-response","77","264877","0.0-18.0-0.17","4258","approach_avoid_sv1","""event"",""trial"",""time""
""fullscreenenter"",""1"",""4162""
","
","
","""event"",""trial"",""time""
""fullscreenenter"",""1"",""4162""
","
","","","","","","null","<div style=""font-size:60px;"">+</div>","null","","fixation","","",""
"memory-trial","78","267356","0.0-18.0-1.17","4258","approach_avoid_sv1","""event"",""trial"",""time""
""fullscreenenter"",""1"",""4162""
","
","
","""event"",""trial"",""time""
""fullscreenenter"",""1"",""4162""
","
","","","","","","1474.0999999977648","images/bed7.png","","","memory_trial","4","definitely_new",""
"html-keyboard-response","79","267861","0.0-18.0-0.18","4258","approach_avoid_sv1","""event"",""trial"",""time""
""fullscreenenter"",""1"",""4162""
","
","
","""event"",""trial"",""time""
""fullscreenenter"",""1"",""4162""
","
","","","","","","null","<div style=""font-size:60px;"">+</div>","null","","fixation","","",""
"memory-trial","80","270073","0.0-18.0-1.18","4258","approach_avoid_sv1","""event"",""trial"",""time""
""fullscreenenter"",""1"",""4162""
","
","
","""event"",""trial"",""time""
""fullscreenenter"",""1"",""4162""
","
","","","","","","1208.7999999970198","images/goat2.png","","","memory_trial","4","definitely_new",""
"html-keyboard-response","81","270578","0.0-18.0-0.19","4258","approach_avoid_sv1","""event"",""trial"",""time""
""fullscreenenter"",""1"",""4162""
","
","
","""event"",""trial"",""time""
""fullscreenenter"",""1"",""4162""
","
","","","","","","null","<div style=""font-size:60px;"">+</div>","null","","fixation","","",""
"memory-trial","82","273869","0.0-18.0-1.19","4258","approach_avoid_sv1","""event"",""trial"",""time""
""fullscreenenter"",""1"",""4162""
","
","
","""event"",""trial"",""time""
""fullscreenenter"",""1"",""4162""
","
","","","","","","2285.800000000745","images/straw2.png","","","memory_trial","4","definitely_new",""
"html-keyboard-response","83","274374","0.0-18.0-0.20","4258","approach_avoid_sv1","""event"",""trial"",""time""
""fullscreenenter"",""1"",""4162""
","
","
","""event"",""trial"",""time""
""fullscreenenter"",""1"",""4162""
","
","","","","","","null","<div style=""font-size:60px;"">+</div>","null","","fixation","","",""
"memory-trial","84","276847","0.0-18.0-1.20","4258","approach_avoid_sv1","""event"",""trial"",""time""
""fullscreenenter"",""1"",""4162""
","
","
","""event"",""trial"",""time""
""fullscreenenter"",""1"",""4162""
","
","","","","","","1470.699999999255","images/apple8.png","","","memory_trial","4","definitely_new",""
"html-keyboard-response","85","277352","0.0-18.0-0.21","4258","approach_avoid_sv1","""event"",""trial"",""time""
""fullscreenenter"",""1"",""4162""
","
","
","""event"",""trial"",""time""
""fullscreenenter"",""1"",""4162""
","
","","","","","","null","<div style=""font-size:60px;"">+</div>","null","","fixation","","",""
"memory-trial","86","279546","0.0-18.0-1.21","4258","approach_avoid_sv1","""event"",""trial"",""time""
""fullscreenenter"",""1"",""4162""
","
","
","""event"",""trial"",""time""
""fullscreenenter"",""1"",""4162""
","
","","","","","","1191.3999999985099","images/plane3.png","","","memory_trial","1","definitely_old",""
"html-keyboard-response","87","280051","0.0-18.0-0.22","4258","approach_avoid_sv1","""event"",""trial"",""time""
""fullscreenenter"",""1"",""4162""
","
","
","""event"",""trial"",""time""
""fullscreenenter"",""1"",""4162""
","
","","","","","","null","<div style=""font-size:60px;"">+</div>","null","","fixation","","",""
"memory-trial","88","283122","0.0-18.0-1.22","4258","approach_avoid_sv1","""event"",""trial"",""time""
""fullscreenenter"",""1"",""4162""
","
","
","""event"",""trial"",""time""
""fullscreenenter"",""1"",""4162""
","
","","","","","","2064.400000002235","images/rodent3.png","","","memory_trial","4","definitely_new",""
"html-keyboard-response","89","283627","0.0-18.0-0.23","4258","approach_avoid_sv1","""event"",""trial"",""time""
""fullscreenenter"",""1"",""4162""
","
","
","""event"",""trial"",""time""
""fullscreenenter"",""1"",""4162""
","
","","","","","","null","<div style=""font-size:60px;"">+</div>","null","","fixation","","",""
"memory-trial","90","287476","0.0-18.0-1.23","4258","approach_avoid_sv1","""event"",""trial"",""time""
""fullscreenenter"",""1"",""4162""
","
","
","""event"",""trial"",""time""
""fullscreenenter"",""1"",""4162""
","
","","","","","","2846.599999997765","images/straw4.png","","","memory_trial","1","definitely_old",""
"html-keyboard-response","91","287981","0.0-18.0-0.24","4258","approach_avoid_sv1","""event"",""trial"",""time""
""fullscreenenter"",""1"",""4162""
","
","
","""event"",""trial"",""time""
""fullscreenenter"",""1"",""4162""
","
","","","","","","null","<div style=""font-size:60px;"">+</div>","null","","fixation","","",""
"memory-trial","92","290181","0.0-18.0-1.24","4258","approach_avoid_sv1","""event"",""trial"",""time""
""fullscreenenter"",""1"",""4162""
","
","
","""event"",""trial"",""time""
""fullscreenenter"",""1"",""4162""
","
","","","","","","1193.5","images/bed5.png","","","memory_trial","1","definitely_old",""
"html-keyboard-response","93","290686","0.0-18.0-0.25","4258","approach_avoid_sv1","""event"",""trial"",""time""
""fullscreenenter"",""1"",""4162""
","
","
","""event"",""trial"",""time""
""fullscreenenter"",""1"",""4162""
","
","","","","","","null","<div style=""font-size:60px;"">+</div>","null","","fixation","","",""
"memory-trial","94","292950","0.0-18.0-1.25","4258","approach_avoid_sv1","""event"",""trial"",""time""
""fullscreenenter"",""1"",""4162""
","
","
","""event"",""trial"",""time""
""fullscreenenter"",""1"",""4162""
","
","","","","","","1260.300000000745","images/flower8.png","","","memory_trial","4","definitely_new",""
"html-keyboard-response","95","293455","0.0-18.0-0.26","4258","approach_avoid_sv1","""event"",""trial"",""time""
""fullscreenenter"",""1"",""4162""
","
","
","""event"",""trial"",""time""
""fullscreenenter"",""1"",""4162""
","
","","","","","","null","<div style=""font-size:60px;"">+</div>","null","","fixation","","",""
"memory-trial","96","296027","0.0-18.0-1.26","4258","approach_avoid_sv1","""event"",""trial"",""time""
""fullscreenenter"",""1"",""4162""
","
","
","""event"",""trial"",""time""
""fullscreenenter"",""1"",""4162""
","
","","","","","","1567.5","images/cow5.png","","","memory_trial","4","definitely_new",""
"html-keyboard-response","97","296532","0.0-18.0-0.27","4258","approach_avoid_sv1","""event"",""trial"",""time""
""fullscreenenter"",""1"",""4162""
","
","
","""event"",""trial"",""time""
""fullscreenenter"",""1"",""4162""
","
","","","","","","null","<div style=""font-size:60px;"">+</div>","null","","fixation","","",""
"memory-trial","98","299492","0.0-18.0-1.27","4258","approach_avoid_sv1","""event"",""trial"",""time""
""fullscreenenter"",""1"",""4162""
","
","
","""event"",""trial"",""time""
""fullscreenenter"",""1"",""4162""
","
","","","","","","1954.199999999255","images/train5.png","","","memory_trial","4","definitely_new",""
"html-keyboard-response","99","299996","0.0-18.0-0.28","4258","approach_avoid_sv1","""event"",""trial"",""time""
""fullscreenenter"",""1"",""4162""
","
","
","""event"",""trial"",""time""
""fullscreenenter"",""1"",""4162""
","
","","","","","","null","<div style=""font-size:60px;"">+</div>","null","","fixation","","",""
"memory-trial","100","301982","0.0-18.0-1.28","4258","approach_avoid_sv1","""event"",""trial"",""time""
""fullscreenenter"",""1"",""4162""
","
","
","""event"",""trial"",""time""
""fullscreenenter"",""1"",""4162""
","
","","","","","","982.6999999992549","images/table2.png","","","memory_trial","1","definitely_old",""
"html-keyboard-response","101","302487","0.0-18.0-0.29","4258","approach_avoid_sv1","""event"",""trial"",""time""
""fullscreenenter"",""1"",""4162""
","
","
","""event"",""trial"",""time""
""fullscreenenter"",""1"",""4162""
","
","","","","","","null","<div style=""font-size:60px;"">+</div>","null","","fixation","","",""
"memory-trial","102","304816","0.0-18.0-1.29","4258","approach_avoid_sv1","""event"",""trial"",""time""
""fullscreenenter"",""1"",""4162""
","
","
","""event"",""trial"",""time""
""fullscreenenter"",""1"",""4162""
","
","","","","","","1322.6000000014901","images/straw6.png","","","memory_trial","4","definitely_new",""
"html-keyboard-response","103","305320","0.0-18.0-0.30","4258","approach_avoid_sv1","""event"",""trial"",""time""
""fullscreenenter"",""1"",""4162""
","
","
","""event"",""trial"",""time""
""fullscreenenter"",""1"",""4162""
","
","","","","","","null","<div style=""font-size:60px;"">+</div>","null","","fixation","","",""
"memory-trial","104","307652","0.0-18.0-1.30","4258","approach_avoid_sv1","""event"",""trial"",""time""
""fullscreenenter"",""1"",""4162""
","
","
","""event"",""trial"",""time""
""fullscreenenter"",""1"",""4162""
","
","","","","","","1326.0999999977648","images/rabbit7.png","","","memory_trial","4","definitely_new",""
"html-keyboard-response","105","308153","0.0-18.0-0.31","4258","approach_avoid_sv1","""event"",""trial"",""time""
""fullscreenenter"",""1"",""4162""
","
","
","""event"",""trial"",""time""
""fullscreenenter"",""1"",""4162""
","
","","","","","","null","<div style=""font-size:60px;"">+</div>","null","","fixation","","",""
"memory-trial","106","310259","0.0-18.0-1.31","4258","approach_avoid_sv1","""event"",""trial"",""time""
""fullscreenenter"",""1"",""4162""
","
","
","""event"",""trial"",""time""
""fullscreenenter"",""1"",""4162""
","
","","","","","","1100","images/dog5.png","","","memory_trial","4","definitely_new",""
"html-keyboard-response","107","310761","0.0-18.0-0.32","4258","approach_avoid_sv1","""event"",""trial"",""time""
""fullscreenenter"",""1"",""4162""
","
","
","""event"",""trial"",""time""
""fullscreenenter"",""1"",""4162""
","
","","","","","","null","<div style=""font-size:60px;"">+</div>","null","","fixation","","",""
"memory-trial","108","312704","0.0-18.0-1.32","4258","approach_avoid_sv1","""event"",""trial"",""time""
""fullscreenenter"",""1"",""4162""
","
","
","""event"",""trial"",""time""
""fullscreenenter"",""1"",""4162""
","
","","","","","","941.1000000014901","images/sheep5.png","","","memory_trial","4","definitely_new",""
"html-keyboard-response","109","313209","0.0-18.0-0.33","4258","approach_avoid_sv1","""event"",""trial"",""time""
""fullscreenenter"",""1"",""4162""
","
","
","""event"",""trial"",""time""
""fullscreenenter"",""1"",""4162""
","
","","","","","","null","<div style=""font-size:60px;"">+</div>","null","","fixation","","",""
"memory-trial","110","315433","0.0-18.0-1.33","4258","approach_avoid_sv1","""event"",""trial"",""time""
""fullscreenenter"",""1"",""4162""
","
","
","""event"",""trial"",""time""
""fullscreenenter"",""1"",""4162""
","
","","","","","","1220.300000000745","images/apple4.png","","","memory_trial","1","definitely_old",""
"html-keyboard-response","111","315937","0.0-18.0-0.34","4258","approach_avoid_sv1","""event"",""trial"",""time""
""fullscreenenter"",""1"",""4162""
","
","
","""event"",""trial"",""time""
""fullscreenenter"",""1"",""4162""
","
","","","","","","null","<div style=""font-size:60px;"">+</div>","null","","fixation","","",""
"memory-trial","112","318654","0.0-18.0-1.34","4258","approach_avoid_sv1","""event"",""trial"",""time""
""fullscreenenter"",""1"",""4162""
","
","
","""event"",""trial"",""time""
""fullscreenenter"",""1"",""4162""
","
","","","","","","1711.6000000014901","images/apple7.png","","","memory_trial","4","definitely_new",""
"html-keyboard-response","113","319159","0.0-18.0-0.35","4258","approach_avoid_sv1","""event"",""trial"",""time""
""fullscreenenter"",""1"",""4162""
","
","
","""event"",""trial"",""time""
""fullscreenenter"",""1"",""4162""
","
","","","","","","null","<div style=""font-size:60px;"">+</div>","null","","fixation","","",""
"memory-trial","114","321545","0.0-18.0-1.35","4258","approach_avoid_sv1","""event"",""trial"",""time""
""fullscreenenter"",""1"",""4162""
","
","
","""event"",""trial"",""time""
""fullscreenenter"",""1"",""4162""
","
","","","","","","1381.9000000022352","images/tree4.png","","","memory_trial","4","definitely_new",""
"html-keyboard-response","115","322050","0.0-18.0-0.36","4258","approach_avoid_sv1","""event"",""trial"",""time""
""fullscreenenter"",""1"",""4162""
","
","
","""event"",""trial"",""time""
""fullscreenenter"",""1"",""4162""
","
","","","","","","null","<div style=""font-size:60px;"">+</div>","null","","fixation","","",""
"memory-trial","116","324987","0.0-18.0-1.36","4258","approach_avoid_sv1","""event"",""trial"",""time""
""fullscreenenter"",""1"",""4162""
","
","
","""event"",""trial"",""time""
""fullscreenenter"",""1"",""4162""
","
","","","","","","1930.5999999977648","images/apple2.png","","","memory_trial","1","definitely_old",""
"html-keyboard-response","117","325492","0.0-18.0-0.37","4258","approach_avoid_sv1","""event"",""trial"",""time""
""fullscreenenter"",""1"",""4162""
","
","
","""event"",""trial"",""time""
""fullscreenenter"",""1"",""4162""
","
","","","","","","null","<div style=""font-size:60px;"">+</div>","null","","fixation","","",""
"memory-trial","118","328546","0.0-18.0-1.37","4258","approach_avoid_sv1","""event"",""trial"",""time""
""fullscreenenter"",""1"",""4162""
","
","
","""event"",""trial"",""time""
""fullscreenenter"",""1"",""4162""
","
","","","","","","2048.5","images/orange5.png","","","memory_trial","4","definitely_new",""
"html-keyboard-response","119","329051","0.0-18.0-0.38","4258","approach_avoid_sv1","""event"",""trial"",""time""
""fullscreenenter"",""1"",""4162""
","
","
","""event"",""trial"",""time""
""fullscreenenter"",""1"",""4162""
","
","","","","","","null","<div style=""font-size:60px;"">+</div>","null","","fixation","","",""
"memory-trial","120","332522","0.0-18.0-1.38","4258","approach_avoid_sv1","""event"",""trial"",""time""
""fullscreenenter"",""1"",""4162""
","
","
","""event"",""trial"",""time""
""fullscreenenter"",""1"",""4162""
","
","","","","","","2465.199999999255","images/horse4.png","","","memory_trial","4","definitely_new",""
"html-keyboard-response","121","333027","0.0-18.0-0.39","4258","approach_avoid_sv1","""event"",""trial"",""time""
""fullscreenenter"",""1"",""4162""
","
","
","""event"",""trial"",""time""
""fullscreenenter"",""1"",""4162""
","
","","","","","","null","<div style=""font-size:60px;"">+</div>","null","","fixation","","",""
"memory-trial","122","337776","0.0-18.0-1.39","4258","approach_avoid_sv1","""event"",""trial"",""time""
""fullscreenenter"",""1"",""4162""
","
","
","""event"",""trial"",""time""
""fullscreenenter"",""1"",""4162""
","
","","","","","","3745.5","images/banana1.png","","","memory_trial","4","definitely_new",""
"html-keyboard-response","123","338281","0.0-18.0-0.40","4258","approach_avoid_sv1","""event"",""trial"",""time""
""fullscreenenter"",""1"",""4162""
","
","
","""event"",""trial"",""time""
""fullscreenenter"",""1"",""4162""
","
","","","","","","null","<div style=""font-size:60px;"">+</div>","null","","fixation","","",""
"memory-trial","124","340760","0.0-18.0-1.40","4258","approach_avoid_sv1","""event"",""trial"",""time""
""fullscreenenter"",""1"",""4162""
","
","
","""event"",""trial"",""time""
""fullscreenenter"",""1"",""4162""
","
","","","","","","1472.800000000745","images/banana5.png","","","memory_trial","1","definitely_old",""
"html-keyboard-response","125","341264","0.0-18.0-0.41","4258","approach_avoid_sv1","""event"",""trial"",""time""
""fullscreenenter"",""1"",""4162""
","
","
","""event"",""trial"",""time""
""fullscreenenter"",""1"",""4162""
","
","","","","","","null","<div style=""font-size:60px;"">+</div>","null","","fixation","","",""
"memory-trial","126","343824","0.0-18.0-1.41","4258","approach_avoid_sv1","""event"",""trial"",""time""
""fullscreenenter"",""1"",""4162""
","
","
","""event"",""trial"",""time""
""fullscreenenter"",""1"",""4162""
","
","","","","","","1553.5999999977648","images/plane1.png","","","memory_trial","1","definitely_old",""
"html-button-response","127","347212","0.0-18.0-2.41-0.41","4258","approach_avoid_sv1","""event"",""trial"",""time""
""fullscreenenter"",""1"",""4162""
","
","
","""event"",""trial"",""time""
""fullscreenenter"",""1"",""4162""
","
","","","","","","3386.5","<p> Take a break! </p><p> Click the button to continue. </p>","0","","break","","",""
"html-keyboard-response","128","347714","0.0-18.0-0.42","4258","approach_avoid_sv1","""event"",""trial"",""time""
""fullscreenenter"",""1"",""4162""
","
","
","""event"",""trial"",""time""
""fullscreenenter"",""1"",""4162""
","
","","","","","","null","<div style=""font-size:60px;"">+</div>","null","","fixation","","",""
"memory-trial","129","351818","0.0-18.0-1.42","4258","approach_avoid_sv1","""event"",""trial"",""time""
""fullscreenenter"",""1"",""4162""
","
","
","""event"",""trial"",""time""
""fullscreenenter"",""1"",""4162""
","
","","","","","","3098.599999997765","images/bush8.png","","","memory_trial","1","definitely_old",""
"html-keyboard-response","130","352323","0.0-18.0-0.43","4258","approach_avoid_sv1","""event"",""trial"",""time""
""fullscreenenter"",""1"",""4162""
","
","
","""event"",""trial"",""time""
""fullscreenenter"",""1"",""4162""
","
","","","","","","null","<div style=""font-size:60px;"">+</div>","null","","fixation","","",""
"memory-trial","131","356253","0.0-18.0-1.43","4258","approach_avoid_sv1","""event"",""trial"",""time""
""fullscreenenter"",""1"",""4162""
","
","
","""event"",""trial"",""time""
""fullscreenenter"",""1"",""4162""
","
","","","","","","2925.800000000745","images/tree1.png","","","memory_trial","4","definitely_new",""
"html-keyboard-response","132","356758","0.0-18.0-0.44","4258","approach_avoid_sv1","""event"",""trial"",""time""
""fullscreenenter"",""1"",""4162""
","
","
","""event"",""trial"",""time""
""fullscreenenter"",""1"",""4162""
","
","","","","","","null","<div style=""font-size:60px;"">+</div>","null","","fixation","","",""
"memory-trial","133","359655","0.0-18.0-1.44","4258","approach_avoid_sv1","""event"",""trial"",""time""
""fullscreenenter"",""1"",""4162""
","
","
","""event"",""trial"",""time""
""fullscreenenter"",""1"",""4162""
","
","","","","","","1894","images/cat1.png","","","memory_trial","4","definitely_new",""
"html-keyboard-response","134","360159","0.0-18.0-0.45","4258","approach_avoid_sv1","""event"",""trial"",""time""
""fullscreenenter"",""1"",""4162""
","
","
","""event"",""trial"",""time""
""fullscreenenter"",""1"",""4162""
","
","","","","","","null","<div style=""font-size:60px;"">+</div>","null","","fixation","","",""
"memory-trial","135","362580","0.0-18.0-1.45","4258","approach_avoid_sv1","""event"",""trial"",""time""
""fullscreenenter"",""1"",""4162""
","
","
","""event"",""trial"",""time""
""fullscreenenter"",""1"",""4162""
","
","","","","","","1418","images/sofa4.png","","","memory_trial","4","definitely_new",""
"html-keyboard-response","136","363085","0.0-18.0-0.46","4258","approach_avoid_sv1","""event"",""trial"",""time""
""fullscreenenter"",""1"",""4162""
","
","
","""event"",""trial"",""time""
""fullscreenenter"",""1"",""4162""
","
","","","","","","null","<div style=""font-size:60px;"">+</div>","null","","fixation","","",""
"memory-trial","137","365169","0.0-18.0-1.46","4258","approach_avoid_sv1","""event"",""trial"",""time""
""fullscreenenter"",""1"",""4162""
","
","
","""event"",""trial"",""time""
""fullscreenenter"",""1"",""4162""
","
","","","","","","1081.300000000745","images/chair1.png","","","memory_trial","1","definitely_old",""
"html-keyboard-response","138","365674","0.0-18.0-0.47","4258","approach_avoid_sv1","""event"",""trial"",""time""
""fullscreenenter"",""1"",""4162""
","
","
","""event"",""trial"",""time""
""fullscreenenter"",""1"",""4162""
","
","","","","","","null","<div style=""font-size:60px;"">+</div>","null","","fixation","","",""
"memory-trial","139","368623","0.0-18.0-1.47","4258","approach_avoid_sv1","""event"",""trial"",""time""
""fullscreenenter"",""1"",""4162""
","
","
","""event"",""trial"",""time""
""fullscreenenter"",""1"",""4162""
","
","","","","","","1945.8999999985099","images/straw8.png","","","memory_trial","4","definitely_new",""
"html-keyboard-response","140","369128","0.0-18.0-0.48","4258","approach_avoid_sv1","""event"",""trial"",""time""
""fullscreenenter"",""1"",""4162""
","
","
","""event"",""trial"",""time""
""fullscreenenter"",""1"",""4162""
","
","","","","","","null","<div style=""font-size:60px;"">+</div>","null","","fixation","","",""
"memory-trial","141","372048","0.0-18.0-1.48","4258","approach_avoid_sv1","""event"",""trial"",""time""
""fullscreenenter"",""1"",""4162""
","
","
","""event"",""trial"",""time""
""fullscreenenter"",""1"",""4162""
","
","","","","","","1914.3999999985099","images/cactus7.png","","","memory_trial","1","definitely_old",""
"html-keyboard-response","142","372553","0.0-18.0-0.49","4258","approach_avoid_sv1","""event"",""trial"",""time""
""fullscreenenter"",""1"",""4162""
","
","
","""event"",""trial"",""time""
""fullscreenenter"",""1"",""4162""
","
","","","","","","null","<div style=""font-size:60px;"">+</div>","null","","fixation","","",""
"memory-trial","143","374759","0.0-18.0-1.49","4258","approach_avoid_sv1","""event"",""trial"",""time""
""fullscreenenter"",""1"",""4162""
","
","
","""event"",""trial"",""time""
""fullscreenenter"",""1"",""4162""
","
","","","","","","1200","images/sofa6.png","","","memory_trial","4","definitely_new",""
"html-keyboard-response","144","375264","0.0-18.0-0.50","4258","approach_avoid_sv1","""event"",""trial"",""time""
""fullscreenenter"",""1"",""4162""
","
","
","""event"",""trial"",""time""
""fullscreenenter"",""1"",""4162""
","
","","","","","","null","<div style=""font-size:60px;"">+</div>","null","","fixation","","",""
"memory-trial","145","377274","0.0-18.0-1.50","4258","approach_avoid_sv1","""event"",""trial"",""time""
""fullscreenenter"",""1"",""4162""
","
","
","""event"",""trial"",""time""
""fullscreenenter"",""1"",""4162""
","
","","","","","","1008.3000000007451","images/bush6.png","","","memory_trial","4","definitely_new",""
"html-keyboard-response","146","377777","0.0-18.0-0.51","4258","approach_avoid_sv1","""event"",""trial"",""time""
""fullscreenenter"",""1"",""4162""
","
","
","""event"",""trial"",""time""
""fullscreenenter"",""1"",""4162""
","
","","","","","","null","<div style=""font-size:60px;"">+</div>","null","","fixation","","",""
"memory-trial","147","380280","0.0-18.0-1.51","4258","approach_avoid_sv1","""event"",""trial"",""time""
""fullscreenenter"",""1"",""4162""
","
","
","""event"",""trial"",""time""
""fullscreenenter"",""1"",""4162""
","
","","","","","","1497","images/train2.png","","","memory_trial","1","definitely_old",""
"html-keyboard-response","148","380784","0.0-18.0-0.52","4258","approach_avoid_sv1","""event"",""trial"",""time""
""fullscreenenter"",""1"",""4162""
","
","
","""event"",""trial"",""time""
""fullscreenenter"",""1"",""4162""
","
","","","","","","null","<div style=""font-size:60px;"">+</div>","null","","fixation","","",""
"memory-trial","149","382845","0.0-18.0-1.52","4258","approach_avoid_sv1","""event"",""trial"",""time""
""fullscreenenter"",""1"",""4162""
","
","
","""event"",""trial"",""time""
""fullscreenenter"",""1"",""4162""
","
","","","","","","1057.0999999977648","images/train1.png","","","memory_trial","1","definitely_old",""
"html-keyboard-response","150","383350","0.0-18.0-0.53","4258","approach_avoid_sv1","""event"",""trial"",""time""
""fullscreenenter"",""1"",""4162""
","
","
","""event"",""trial"",""time""
""fullscreenenter"",""1"",""4162""
","
","","","","","","null","<div style=""font-size:60px;"">+</div>","null","","fixation","","",""
"memory-trial","151","385533","0.0-18.0-1.53","4258","approach_avoid_sv1","""event"",""trial"",""time""
""fullscreenenter"",""1"",""4162""
","
","
","""event"",""trial"",""time""
""fullscreenenter"",""1"",""4162""
","
","","","","","","1178.8999999985099","images/cow7.png","","","memory_trial","1","definitely_old",""
"html-keyboard-response","152","386038","0.0-18.0-0.54","4258","approach_avoid_sv1","""event"",""trial"",""time""
""fullscreenenter"",""1"",""4162""
","
","
","""event"",""trial"",""time""
""fullscreenenter"",""1"",""4162""
","
","","","","","","null","<div style=""font-size:60px;"">+</div>","null","","fixation","","",""
"memory-trial","153","388105","0.0-18.0-1.54","4258","approach_avoid_sv1","""event"",""trial"",""time""
""fullscreenenter"",""1"",""4162""
","
","
","""event"",""trial"",""time""
""fullscreenenter"",""1"",""4162""
","
","","","","","","1063","images/goat7.png","","","memory_trial","4","definitely_new",""
"html-keyboard-response","154","388610","0.0-18.0-0.55","4258","approach_avoid_sv1","""event"",""trial"",""time""
""fullscreenenter"",""1"",""4162""
","
","
","""event"",""trial"",""time""
""fullscreenenter"",""1"",""4162""
","
","","","","","","null","<div style=""font-size:60px;"">+</div>","null","","fixation","","",""
"memory-trial","155","390839","0.0-18.0-1.55","4258","approach_avoid_sv1","""event"",""trial"",""time""
""fullscreenenter"",""1"",""4162""
","
","
","""event"",""trial"",""time""
""fullscreenenter"",""1"",""4162""
","
","","","","","","1224.2000000029802","images/truck4.png","","","memory_trial","4","definitely_new",""
"html-keyboard-response","156","391343","0.0-18.0-0.56","4258","approach_avoid_sv1","""event"",""trial"",""time""
""fullscreenenter"",""1"",""4162""
","
","
","""event"",""trial"",""time""
""fullscreenenter"",""1"",""4162""
","
","","","","","","null","<div style=""font-size:60px;"">+</div>","null","","fixation","","",""
"memory-trial","157","394252","0.0-18.0-1.56","4258","approach_avoid_sv1","""event"",""trial"",""time""
""fullscreenenter"",""1"",""4162""
","
","
","""event"",""trial"",""time""
""fullscreenenter"",""1"",""4162""
","
","","","","","","1904.800000000745","images/table7.png","","","memory_trial","4","definitely_new",""
"html-keyboard-response","158","394757","0.0-18.0-0.57","4258","approach_avoid_sv1","""event"",""trial"",""time""
""fullscreenenter"",""1"",""4162""
","
","
","""event"",""trial"",""time""
""fullscreenenter"",""1"",""4162""
","
","","","","","","null","<div style=""font-size:60px;"">+</div>","null","","fixation","","",""
"memory-trial","159","398245","0.0-18.0-1.57","4258","approach_avoid_sv1","""event"",""trial"",""time""
""fullscreenenter"",""1"",""4162""
","
","
","""event"",""trial"",""time""
""fullscreenenter"",""1"",""4162""
","
","","","","","","2484.800000000745","images/truck2.png","","","memory_trial","1","definitely_old",""
"html-keyboard-response","160","398751","0.0-18.0-0.58","4258","approach_avoid_sv1","""event"",""trial"",""time""
""fullscreenenter"",""1"",""4162""
","
","
","""event"",""trial"",""time""
""fullscreenenter"",""1"",""4162""
","
","","","","","","null","<div style=""font-size:60px;"">+</div>","null","","fixation","","",""
"memory-trial","161","400887","0.0-18.0-1.58","4258","approach_avoid_sv1","""event"",""trial"",""time""
""fullscreenenter"",""1"",""4162""
","
","
","""event"",""trial"",""time""
""fullscreenenter"",""1"",""4162""
","
","","","","","","1129.8999999985099","images/flower3.png","","","memory_trial","4","definitely_new",""
"html-keyboard-response","162","401392","0.0-18.0-0.59","4258","approach_avoid_sv1","""event"",""trial"",""time""
""fullscreenenter"",""1"",""4162""
","
","
","""event"",""trial"",""time""
""fullscreenenter"",""1"",""4162""
","
","","","","","","null","<div style=""font-size:60px;"">+</div>","null","","fixation","","",""
"memory-trial","163","403579","0.0-18.0-1.59","4258","approach_avoid_sv1","""event"",""trial"",""time""
""fullscreenenter"",""1"",""4162""
","
","
","""event"",""trial"",""time""
""fullscreenenter"",""1"",""4162""
","
","","","","","","1181.699999999255","images/banana6.png","","","memory_trial","4","definitely_new",""
"html-keyboard-response","164","404085","0.0-18.0-0.60","4258","approach_avoid_sv1","""event"",""trial"",""time""
""fullscreenenter"",""1"",""4162""
","
","
","""event"",""trial"",""time""
""fullscreenenter"",""1"",""4162""
","
","","","","","","null","<div style=""font-size:60px;"">+</div>","null","","fixation","","",""
"memory-trial","165","406425","0.0-18.0-1.60","4258","approach_avoid_sv1","""event"",""trial"",""time""
""fullscreenenter"",""1"",""4162""
","
","
","""event"",""trial"",""time""
""fullscreenenter"",""1"",""4162""
","
","","","","","","1335","images/cow8.png","","","memory_trial","4","definitely_new",""
"html-keyboard-response","166","406930","0.0-18.0-0.61","4258","approach_avoid_sv1","""event"",""trial"",""time""
""fullscreenenter"",""1"",""4162""
","
","
","""event"",""trial"",""time""
""fullscreenenter"",""1"",""4162""
","
","","","","","","null","<div style=""font-size:60px;"">+</div>","null","","fixation","","",""
"memory-trial","167","409620","0.0-18.0-1.61","4258","approach_avoid_sv1","""event"",""trial"",""time""
""fullscreenenter"",""1"",""4162""
","
","
","""event"",""trial"",""time""
""fullscreenenter"",""1"",""4162""
","
","","","","","","1686.3999999985099","images/cactus4.png","","","memory_trial","1","definitely_old",""
"html-keyboard-response","168","410123","0.0-18.0-0.62","4258","approach_avoid_sv1","""event"",""trial"",""time""
""fullscreenenter"",""1"",""4162""
","
","
","""event"",""trial"",""time""
""fullscreenenter"",""1"",""4162""
","
","","","","","","null","<div style=""font-size:60px;"">+</div>","null","","fixation","","",""
"memory-trial","169","413367","0.0-18.0-1.62","4258","approach_avoid_sv1","""event"",""trial"",""time""
""fullscreenenter"",""1"",""4162""
","
","
","""event"",""trial"",""time""
""fullscreenenter"",""1"",""4162""
","
","","","","","","2241.699999999255","images/horse2.png","","","memory_trial","4","definitely_new",""
"html-keyboard-response","170","413873","0.0-18.0-0.63","4258","approach_avoid_sv1","""event"",""trial"",""time""
""fullscreenenter"",""1"",""4162""
","
","
","""event"",""trial"",""time""
""fullscreenenter"",""1"",""4162""
","
","","","","","","null","<div style=""font-size:60px;"">+</div>","null","","fixation","","",""
"memory-trial","171","416212","0.0-18.0-1.63","4258","approach_avoid_sv1","""event"",""trial"",""time""
""fullscreenenter"",""1"",""4162""
","
","
","""event"",""trial"",""time""
""fullscreenenter"",""1"",""4162""
","
","","","","","","1337.5999999977648","images/rodent5.png","","","memory_trial","1","definitely_old",""
"html-keyboard-response","172","416717","0.0-18.0-0.64","4258","approach_avoid_sv1","""event"",""trial"",""time""
""fullscreenenter"",""1"",""4162""
","
","
","""event"",""trial"",""time""
""fullscreenenter"",""1"",""4162""
","
","","","","","","null","<div style=""font-size:60px;"">+</div>","null","","fixation","","",""
"memory-trial","173","419997","0.0-18.0-1.64","4258","approach_avoid_sv1","""event"",""trial"",""time""
""fullscreenenter"",""1"",""4162""
","
","
","""event"",""trial"",""time""
""fullscreenenter"",""1"",""4162""
","
","","","","","","2274.699999999255","images/orange4.png","","","memory_trial","4","definitely_new",""
"html-keyboard-response","174","420502","0.0-18.0-0.65","4258","approach_avoid_sv1","""event"",""trial"",""time""
""fullscreenenter"",""1"",""4162""
","
","
","""event"",""trial"",""time""
""fullscreenenter"",""1"",""4162""
","
","","","","","","null","<div style=""font-size:60px;"">+</div>","null","","fixation","","",""
"memory-trial","175","423515","0.0-18.0-1.65","4258","approach_avoid_sv1","""event"",""trial"",""time""
""fullscreenenter"",""1"",""4162""
","
","
","""event"",""trial"",""time""
""fullscreenenter"",""1"",""4162""
","
","","","","","","2011","images/sofa7.png","","","memory_trial","1","definitely_old",""
"html-keyboard-response","176","424020","0.0-18.0-0.66","4258","approach_avoid_sv1","""event"",""trial"",""time""
""fullscreenenter"",""1"",""4162""
","
","
","""event"",""trial"",""time""
""fullscreenenter"",""1"",""4162""
","
","","","","","","null","<div style=""font-size:60px;"">+</div>","null","","fixation","","",""
"memory-trial","177","426243","0.0-18.0-1.66","4258","approach_avoid_sv1","""event"",""trial"",""time""
""fullscreenenter"",""1"",""4162""
","
","
","""event"",""trial"",""time""
""fullscreenenter"",""1"",""4162""
","
","","","","","","1216.6000000014901","images/sheep7.png","","","memory_trial","4","definitely_new",""
"html-keyboard-response","178","426748","0.0-18.0-0.67","4258","approach_avoid_sv1","""event"",""trial"",""time""
""fullscreenenter"",""1"",""4162""
","
","
","""event"",""trial"",""time""
""fullscreenenter"",""1"",""4162""
","
","","","","","","null","<div style=""font-size:60px;"">+</div>","null","","fixation","","",""
"memory-trial","179","428826","0.0-18.0-1.67","4258","approach_avoid_sv1","""event"",""trial"",""time""
""fullscreenenter"",""1"",""4162""
","
","
","""event"",""trial"",""time""
""fullscreenenter"",""1"",""4162""
","
","","","","","","1072.699999999255","images/orange3.png","","","memory_trial","1","definitely_old",""
"html-keyboard-response","180","429331","0.0-18.0-0.68","4258","approach_avoid_sv1","""event"",""trial"",""time""
""fullscreenenter"",""1"",""4162""
","
","
","""event"",""trial"",""time""
""fullscreenenter"",""1"",""4162""
","
","","","","","","null","<div style=""font-size:60px;"">+</div>","null","","fixation","","",""
"memory-trial","181","431984","0.0-18.0-1.68","4258","approach_avoid_sv1","""event"",""trial"",""time""
""fullscreenenter"",""1"",""4162""
","
","
","""event"",""trial"",""time""
""fullscreenenter"",""1"",""4162""
","
","","","","","","1650","images/boat4.png","","","memory_trial","4","definitely_new",""
"html-keyboard-response","182","432489","0.0-18.0-0.69","4258","approach_avoid_sv1","""event"",""trial"",""time""
""fullscreenenter"",""1"",""4162""
","
","
","""event"",""trial"",""time""
""fullscreenenter"",""1"",""4162""
","
","","","","","","null","<div style=""font-size:60px;"">+</div>","null","","fixation","","",""
"memory-trial","183","435107","0.0-18.0-1.69","4258","approach_avoid_sv1","""event"",""trial"",""time""
""fullscreenenter"",""1"",""4162""
","
","
","""event"",""trial"",""time""
""fullscreenenter"",""1"",""4162""
","
","","","","","","1611.300000000745","images/cow3.png","","","memory_trial","1","definitely_old",""
"html-keyboard-response","184","435612","0.0-18.0-0.70","4258","approach_avoid_sv1","""event"",""trial"",""time""
""fullscreenenter"",""1"",""4162""
","
","
","""event"",""trial"",""time""
""fullscreenenter"",""1"",""4162""
","
","","","","","","null","<div style=""font-size:60px;"">+</div>","null","","fixation","","",""
"memory-trial","185","437969","0.0-18.0-1.70","4258","approach_avoid_sv1","""event"",""trial"",""time""
""fullscreenenter"",""1"",""4162""
","
","
","""event"",""trial"",""time""
""fullscreenenter"",""1"",""4162""
","
","","","","","","1351","images/plane7.png","","","memory_trial","4","definitely_new",""
"html-keyboard-response","186","438474","0.0-18.0-0.71","4258","approach_avoid_sv1","""event"",""trial"",""time""
""fullscreenenter"",""1"",""4162""
","
","
","""event"",""trial"",""time""
""fullscreenenter"",""1"",""4162""
","
","","","","","","null","<div style=""font-size:60px;"">+</div>","null","","fixation","","",""
"memory-trial","187","440941","0.0-18.0-1.71","4258","approach_avoid_sv1","""event"",""trial"",""time""
""fullscreenenter"",""1"",""4162""
","
","
","""event"",""trial"",""time""
""fullscreenenter"",""1"",""4162""
","
","","","","","","1461.699999999255","images/orange7.png","","","memory_trial","4","definitely_new",""
"html-keyboard-response","188","441446","0.0-18.0-0.72","4258","approach_avoid_sv1","""event"",""trial"",""time""
""fullscreenenter"",""1"",""4162""
","
","
","""event"",""trial"",""time""
""fullscreenenter"",""1"",""4162""
","
","","","","","","null","<div style=""font-size:60px;"">+</div>","null","","fixation","","",""
"memory-trial","189","443548","0.0-18.0-1.72","4258","approach_avoid_sv1","""event"",""trial"",""time""
""fullscreenenter"",""1"",""4162""
","
","
","""event"",""trial"",""time""
""fullscreenenter"",""1"",""4162""
","
","","","","","","1099.2000000029802","images/cow6.png","","","memory_trial","4","definitely_new",""
"html-keyboard-response","190","444052","0.0-18.0-0.73","4258","approach_avoid_sv1","""event"",""trial"",""time""
""fullscreenenter"",""1"",""4162""
","
","
","""event"",""trial"",""time""
""fullscreenenter"",""1"",""4162""
","
","","","","","","null","<div style=""font-size:60px;"">+</div>","null","","fixation","","",""
"memory-trial","191","446920","0.0-18.0-1.73","4258","approach_avoid_sv1","""event"",""trial"",""time""
""fullscreenenter"",""1"",""4162""
","
","
","""event"",""trial"",""time""
""fullscreenenter"",""1"",""4162""
","
","","","","","","1864.199999999255","images/train6.png","","","memory_trial","4","definitely_new",""
"html-keyboard-response","192","447425","0.0-18.0-0.74","4258","approach_avoid_sv1","""event"",""trial"",""time""
""fullscreenenter"",""1"",""4162""
","
","
","""event"",""trial"",""time""
""fullscreenenter"",""1"",""4162""
","
","","","","","","null","<div style=""font-size:60px;"">+</div>","null","","fixation","","",""
"memory-trial","193","449296","0.0-18.0-1.74","4258","approach_avoid_sv1","""event"",""trial"",""time""
""fullscreenenter"",""1"",""4162""
","
","
","""event"",""trial"",""time""
""fullscreenenter"",""1"",""4162""
","
","","","","","","868.1999999992549","images/flower5.png","","","memory_trial","4","definitely_new",""
"html-keyboard-response","194","449800","0.0-18.0-0.75","4258","approach_avoid_sv1","""event"",""trial"",""time""
""fullscreenenter"",""1"",""4162""
","
","
","""event"",""trial"",""time""
""fullscreenenter"",""1"",""4162""
","
","","","","","","null","<div style=""font-size:60px;"">+</div>","null","","fixation","","",""
"memory-trial","195","451825","0.0-18.0-1.75","4258","approach_avoid_sv1","""event"",""trial"",""time""
""fullscreenenter"",""1"",""4162""
","
","
","""event"",""trial"",""time""
""fullscreenenter"",""1"",""4162""
","
","","","","","","1022.1999999992549","images/table5.png","","","memory_trial","4","definitely_new",""
"html-keyboard-response","196","452330","0.0-18.0-0.76","4258","approach_avoid_sv1","""event"",""trial"",""time""
""fullscreenenter"",""1"",""4162""
","
","
","""event"",""trial"",""time""
""fullscreenenter"",""1"",""4162""
","
","","","","","","null","<div style=""font-size:60px;"">+</div>","null","","fixation","","",""
"memory-trial","197","454403","0.0-18.0-1.76","4258","approach_avoid_sv1","""event"",""trial"",""time""
""fullscreenenter"",""1"",""4162""
","
","
","""event"",""trial"",""time""
""fullscreenenter"",""1"",""4162""
","
","","","","","","1069.4000000022352","images/dog8.png","","","memory_trial","1","definitely_old",""
"html-keyboard-response","198","454907","0.0-18.0-0.77","4258","approach_avoid_sv1","""event"",""trial"",""time""
""fullscreenenter"",""1"",""4162""
","
","
","""event"",""trial"",""time""
""fullscreenenter"",""1"",""4162""
","
","","","","","","null","<div style=""font-size:60px;"">+</div>","null","","fixation","","",""
"memory-trial","199","456951","0.0-18.0-1.77","4258","approach_avoid_sv1","""event"",""trial"",""time""
""fullscreenenter"",""1"",""4162""
","
","
","""event"",""trial"",""time""
""fullscreenenter"",""1"",""4162""
","
","","","","","","1039.7999999970198","images/orange6.png","","","memory_trial","4","definitely_new",""
"html-keyboard-response","200","457456","0.0-18.0-0.78","4258","approach_avoid_sv1","""event"",""trial"",""time""
""fullscreenenter"",""1"",""4162""
","
","
","""event"",""trial"",""time""
""fullscreenenter"",""1"",""4162""
","
","","","","","","null","<div style=""font-size:60px;"">+</div>","null","","fixation","","",""
"memory-trial","201","459412","0.0-18.0-1.78","4258","approach_avoid_sv1","""event"",""trial"",""time""
""fullscreenenter"",""1"",""4162""
","
","
","""event"",""trial"",""time""
""fullscreenenter"",""1"",""4162""
","
","","","","","","954.5","images/cactus8.png","","","memory_trial","1","definitely_old",""
"html-keyboard-response","202","459917","0.0-18.0-0.79","4258","approach_avoid_sv1","""event"",""trial"",""time""
""fullscreenenter"",""1"",""4162""
","
","
","""event"",""trial"",""time""
""fullscreenenter"",""1"",""4162""
","
","","","","","","null","<div style=""font-size:60px;"">+</div>","null","","fixation","","",""
"memory-trial","203","462196","0.0-18.0-1.79","4258","approach_avoid_sv1","""event"",""trial"",""time""
""fullscreenenter"",""1"",""4162""
","
","
","""event"",""trial"",""time""
""fullscreenenter"",""1"",""4162""
","
","","","","","","1273.800000000745","images/bed2.png","","","memory_trial","4","definitely_new",""
"html-keyboard-response","204","462701","0.0-18.0-0.80","4258","approach_avoid_sv1","""event"",""trial"",""time""
""fullscreenenter"",""1"",""4162""
","
","
","""event"",""trial"",""time""
""fullscreenenter"",""1"",""4162""
","
","","","","","","null","<div style=""font-size:60px;"">+</div>","null","","fixation","","",""
"memory-trial","205","465328","0.0-18.0-1.80","4258","approach_avoid_sv1","""event"",""trial"",""time""
""fullscreenenter"",""1"",""4162""
","
","
","""event"",""trial"",""time""
""fullscreenenter"",""1"",""4162""
","
","","","","","","1624.8999999985099","images/dog7.png","","","memory_trial","4","definitely_new",""
"html-keyboard-response","206","465832","0.0-18.0-0.81","4258","approach_avoid_sv1","""event"",""trial"",""time""
""fullscreenenter"",""1"",""4162""
","
","
","""event"",""trial"",""time""
""fullscreenenter"",""1"",""4162""
","
","","","","","","null","<div style=""font-size:60px;"">+</div>","null","","fixation","","",""
"memory-trial","207","468131","0.0-18.0-1.81","4258","approach_avoid_sv1","""event"",""trial"",""time""
""fullscreenenter"",""1"",""4162""
","
","
","""event"",""trial"",""time""
""fullscreenenter"",""1"",""4162""
","
","","","","","","1296.199999999255","images/horse8.png","","","memory_trial","1","definitely_old",""
"html-keyboard-response","208","468636","0.0-18.0-0.82","4258","approach_avoid_sv1","""event"",""trial"",""time""
""fullscreenenter"",""1"",""4162""
","
","
","""event"",""trial"",""time""
""fullscreenenter"",""1"",""4162""
","
","","","","","","null","<div style=""font-size:60px;"">+</div>","null","","fixation","","",""
"memory-trial","209","472642","0.0-18.0-1.82","4258","approach_avoid_sv1","""event"",""trial"",""time""
""fullscreenenter"",""1"",""4162""
","
","
","""event"",""trial"",""time""
""fullscreenenter"",""1"",""4162""
","
","","","","","","3003.10000000149","images/goat3.png","","","memory_trial","4","definitely_new",""
"html-keyboard-response","210","473147","0.0-18.0-0.83","4258","approach_avoid_sv1","""event"",""trial"",""time""
""fullscreenenter"",""1"",""4162""
","
","
","""event"",""trial"",""time""
""fullscreenenter"",""1"",""4162""
","
","","","","","","null","<div style=""font-size:60px;"">+</div>","null","","fixation","","",""
"memory-trial","211","475174","0.0-18.0-1.83","4258","approach_avoid_sv1","""event"",""trial"",""time""
""fullscreenenter"",""1"",""4162""
","
","
","""event"",""trial"",""time""
""fullscreenenter"",""1"",""4162""
","
","","","","","","1024.300000000745","images/banana8.png","","","memory_trial","4","definitely_new",""
"html-keyboard-response","212","475678","0.0-18.0-0.84","4258","approach_avoid_sv1","""event"",""trial"",""time""
""fullscreenenter"",""1"",""4162""
","
","
","""event"",""trial"",""time""
""fullscreenenter"",""1"",""4162""
","
","","","","","","null","<div style=""font-size:60px;"">+</div>","null","","fixation","","",""
"memory-trial","213","477837","0.0-18.0-1.84","4258","approach_avoid_sv1","""event"",""trial"",""time""
""fullscreenenter"",""1"",""4162""
","
","
","""event"",""trial"",""time""
""fullscreenenter"",""1"",""4162""
","
","","","","","","1156.800000000745","images/straw5.png","","","memory_trial","1","definitely_old",""
"html-keyboard-response","214","478342","0.0-18.0-0.85","4258","approach_avoid_sv1","""event"",""trial"",""time""
""fullscreenenter"",""1"",""4162""
","
","
","""event"",""trial"",""time""
""fullscreenenter"",""1"",""4162""
","
","","","","","","null","<div style=""font-size:60px;"">+</div>","null","","fixation","","",""
"memory-trial","215","480879","0.0-18.0-1.85","4258","approach_avoid_sv1","""event"",""trial"",""time""
""fullscreenenter"",""1"",""4162""
","
","
","""event"",""trial"",""time""
""fullscreenenter"",""1"",""4162""
","
","","","","","","1532","images/tree8.png","","","memory_trial","1","definitely_old",""
"html-keyboard-response","216","481384","0.0-18.0-0.86","4258","approach_avoid_sv1","""event"",""trial"",""time""
""fullscreenenter"",""1"",""4162""
","
","
","""event"",""trial"",""time""
""fullscreenenter"",""1"",""4162""
","
","","","","","","null","<div style=""font-size:60px;"">+</div>","null","","fixation","","",""
"memory-trial","217","484773","0.0-18.0-1.86","4258","approach_avoid_sv1","""event"",""trial"",""time""
""fullscreenenter"",""1"",""4162""
","
","
","""event"",""trial"",""time""
""fullscreenenter"",""1"",""4162""
","
","","","","","","2383","images/boat5.png","","","memory_trial","4","definitely_new",""
"html-keyboard-response","218","485279","0.0-18.0-0.87","4258","approach_avoid_sv1","""event"",""trial"",""time""
""fullscreenenter"",""1"",""4162""
","
","
","""event"",""trial"",""time""
""fullscreenenter"",""1"",""4162""
","
","","","","","","null","<div style=""font-size:60px;"">+</div>","null","","fixation","","",""
"memory-trial","219","487276","0.0-18.0-1.87","4258","approach_avoid_sv1","""event"",""trial"",""time""
""fullscreenenter"",""1"",""4162""
","
","
","""event"",""trial"",""time""
""fullscreenenter"",""1"",""4162""
","
","","","","","","994.4000000022352","images/train3.png","","","memory_trial","1","definitely_old",""
"html-keyboard-response","220","487781","0.0-18.0-0.88","4258","approach_avoid_sv1","""event"",""trial"",""time""
""fullscreenenter"",""1"",""4162""
","
","
","""event"",""trial"",""time""
""fullscreenenter"",""1"",""4162""
","
","","","","","","null","<div style=""font-size:60px;"">+</div>","null","","fixation","","",""
"memory-trial","221","491199","0.0-18.0-1.88","4258","approach_avoid_sv1","""event"",""trial"",""time""
""fullscreenenter"",""1"",""4162""
","
","
","""event"",""trial"",""time""
""fullscreenenter"",""1"",""4162""
","
","","","","","","2412","images/dog3.png","","","memory_trial","4","definitely_new",""
"html-keyboard-response","222","491705","0.0-18.0-0.89","4258","approach_avoid_sv1","""event"",""trial"",""time""
""fullscreenenter"",""1"",""4162""
","
","
","""event"",""trial"",""time""
""fullscreenenter"",""1"",""4162""
","
","","","","","","null","<div style=""font-size:60px;"">+</div>","null","","fixation","","",""
"memory-trial","223","494289","0.0-18.0-1.89","4258","approach_avoid_sv1","""event"",""trial"",""time""
""fullscreenenter"",""1"",""4162""
","
","
","""event"",""trial"",""time""
""fullscreenenter"",""1"",""4162""
","
","","","","","","1577.4000000022352","images/chair7.png","","","memory_trial","1","definitely_old",""
"html-keyboard-response","224","494793","0.0-18.0-0.90","4258","approach_avoid_sv1","""event"",""trial"",""time""
""fullscreenenter"",""1"",""4162""
","
","
","""event"",""trial"",""time""
""fullscreenenter"",""1"",""4162""
","
","","","","","","null","<div style=""font-size:60px;"">+</div>","null","","fixation","","",""
"memory-trial","225","498242","0.0-18.0-1.90","4258","approach_avoid_sv1","""event"",""trial"",""time""
""fullscreenenter"",""1"",""4162""
","
","
","""event"",""trial"",""time""
""fullscreenenter"",""1"",""4162""
","
","","","","","","2442.699999999255","images/table3.png","","","memory_trial","4","definitely_new",""
"html-keyboard-response","226","498747","0.0-18.0-0.91","4258","approach_avoid_sv1","""event"",""trial"",""time""
""fullscreenenter"",""1"",""4162""
","
","
","""event"",""trial"",""time""
""fullscreenenter"",""1"",""4162""
","
","","","","","","null","<div style=""font-size:60px;"">+</div>","null","","fixation","","",""
"memory-trial","227","501139","0.0-18.0-1.91","4258","approach_avoid_sv1","""event"",""trial"",""time""
""fullscreenenter"",""1"",""4162""
","
","
","""event"",""trial"",""time""
""fullscreenenter"",""1"",""4162""
","
","","","","","","1386.199999999255","images/cat5.png","","","memory_trial","4","definitely_new",""
"html-button-response","228","502771","0.0-18.0-2.91-0.91","4258","approach_avoid_sv1","""event"",""trial"",""time""
""fullscreenenter"",""1"",""4162""
","
","
","""event"",""trial"",""time""
""fullscreenenter"",""1"",""4162""
","
","","","","","","1632","<p> Take a break! </p><p> Click the button to continue. </p>","0","","break","","",""
"html-keyboard-response","229","503275","0.0-18.0-0.92","4258","approach_avoid_sv1","""event"",""trial"",""time""
""fullscreenenter"",""1"",""4162""
","
","
","""event"",""trial"",""time""
""fullscreenenter"",""1"",""4162""
","
","","","","","","null","<div style=""font-size:60px;"">+</div>","null","","fixation","","",""
"memory-trial","230","506327","0.0-18.0-1.92","4258","approach_avoid_sv1","""event"",""trial"",""time""
""fullscreenenter"",""1"",""4162""
","
","
","""event"",""trial"",""time""
""fullscreenenter"",""1"",""4162""
","
","","","","","","2049","images/boat8.png","","","memory_trial","4","definitely_new",""
"html-keyboard-response","231","506833","0.0-18.0-0.93","4258","approach_avoid_sv1","""event"",""trial"",""time""
""fullscreenenter"",""1"",""4162""
","
","
","""event"",""trial"",""time""
""fullscreenenter"",""1"",""4162""
","
","","","","","","null","<div style=""font-size:60px;"">+</div>","null","","fixation","","",""
"memory-trial","232","509310","0.0-18.0-1.93","4258","approach_avoid_sv1","""event"",""trial"",""time""
""fullscreenenter"",""1"",""4162""
","
","
","""event"",""trial"",""time""
""fullscreenenter"",""1"",""4162""
","
","","","","","","1471.3999999985099","images/cactus6.png","","","memory_trial","4","definitely_new",""
"html-keyboard-response","233","509815","0.0-18.0-0.94","4258","approach_avoid_sv1","""event"",""trial"",""time""
""fullscreenenter"",""1"",""4162""
","
","
","""event"",""trial"",""time""
""fullscreenenter"",""1"",""4162""
","
","","","","","","null","<div style=""font-size:60px;"">+</div>","null","","fixation","","",""
"memory-trial","234","512162","0.0-18.0-1.94","4258","approach_avoid_sv1","""event"",""trial"",""time""
""fullscreenenter"",""1"",""4162""
","
","
","""event"",""trial"",""time""
""fullscreenenter"",""1"",""4162""
","
","","","","","","1345.5","images/goat8.png","","","memory_trial","1","definitely_old",""
"html-keyboard-response","235","512666","0.0-18.0-0.95","4258","approach_avoid_sv1","""event"",""trial"",""time""
""fullscreenenter"",""1"",""4162""
","
","
","""event"",""trial"",""time""
""fullscreenenter"",""1"",""4162""
","
","","","","","","null","<div style=""font-size:60px;"">+</div>","null","","fixation","","",""
"memory-trial","236","517113","0.0-18.0-1.95","4258","approach_avoid_sv1","""event"",""trial"",""time""
""fullscreenenter"",""1"",""4162""
","
","
","""event"",""trial"",""time""
""fullscreenenter"",""1"",""4162""
","
","","","","","","3439.699999999255","images/rodent2.png","","","memory_trial","1","definitely_old",""
"html-keyboard-response","237","517619","0.0-18.0-0.96","4258","approach_avoid_sv1","""event"",""trial"",""time""
""fullscreenenter"",""1"",""4162""
","
","
","""event"",""trial"",""time""
""fullscreenenter"",""1"",""4162""
","
","","","","","","null","<div style=""font-size:60px;"">+</div>","null","","fixation","","",""
"memory-trial","238","521520","0.0-18.0-1.96","4258","approach_avoid_sv1","""event"",""trial"",""time""
""fullscreenenter"",""1"",""4162""
","
","
","""event"",""trial"",""time""
""fullscreenenter"",""1"",""4162""
","
","","","","","","2897.599999997765","images/boat7.png","","","memory_trial","1","definitely_old",""
"html-keyboard-response","239","522024","0.0-18.0-0.97","4258","approach_avoid_sv1","""event"",""trial"",""time""
""fullscreenenter"",""1"",""4162""
","
","
","""event"",""trial"",""time""
""fullscreenenter"",""1"",""4162""
","
","","","","","","null","<div style=""font-size:60px;"">+</div>","null","","fixation","","",""
"memory-trial","240","524880","0.0-18.0-1.97","4258","approach_avoid_sv1","""event"",""trial"",""time""
""fullscreenenter"",""1"",""4162""
","
","
","""event"",""trial"",""time""
""fullscreenenter"",""1"",""4162""
","
","","","","","","1850.300000000745","images/sheep2.png","","","memory_trial","4","definitely_new",""
"html-keyboard-response","241","525386","0.0-18.0-0.98","4258","approach_avoid_sv1","""event"",""trial"",""time""
""fullscreenenter"",""1"",""4162""
","
","
","""event"",""trial"",""time""
""fullscreenenter"",""1"",""4162""
","
","","","","","","null","<div style=""font-size:60px;"">+</div>","null","","fixation","","",""
"memory-trial","242","528364","0.0-18.0-1.98","4258","approach_avoid_sv1","""event"",""trial"",""time""
""fullscreenenter"",""1"",""4162""
","
","
","""event"",""trial"",""time""
""fullscreenenter"",""1"",""4162""
","
","","","","","","1972.5","images/train4.png","","","memory_trial","4","definitely_new",""
"html-keyboard-response","243","528869","0.0-18.0-0.99","4258","approach_avoid_sv1","""event"",""trial"",""time""
""fullscreenenter"",""1"",""4162""
","
","
","""event"",""trial"",""time""
""fullscreenenter"",""1"",""4162""
","
","","","","","","null","<div style=""font-size:60px;"">+</div>","null","","fixation","","",""
"memory-trial","244","531323","0.0-18.0-1.99","4258","approach_avoid_sv1","""event"",""trial"",""time""
""fullscreenenter"",""1"",""4162""
","
","
","""event"",""trial"",""time""
""fullscreenenter"",""1"",""4162""
","
","","","","","","1450.8999999985099","images/flower2.png","","","memory_trial","4","definitely_new",""
"html-keyboard-response","245","531829","0.0-18.0-0.100","4258","approach_avoid_sv1","""event"",""trial"",""time""
""fullscreenenter"",""1"",""4162""
","
","
","""event"",""trial"",""time""
""fullscreenenter"",""1"",""4162""
","
","","","","","","null","<div style=""font-size:60px;"">+</div>","null","","fixation","","",""
"memory-trial","246","533913","0.0-18.0-1.100","4258","approach_avoid_sv1","""event"",""trial"",""time""
""fullscreenenter"",""1"",""4162""
","
","
","""event"",""trial"",""time""
""fullscreenenter"",""1"",""4162""
","
","","","","","","1079.9000000022352","images/bush7.png","","","memory_trial","1","definitely_old",""
"html-keyboard-response","247","534418","0.0-18.0-0.101","4258","approach_avoid_sv1","""event"",""trial"",""time""
""fullscreenenter"",""1"",""4162""
","
","
","""event"",""trial"",""time""
""fullscreenenter"",""1"",""4162""
","
","","","","","","null","<div style=""font-size:60px;"">+</div>","null","","fixation","","",""
"memory-trial","248","536496","0.0-18.0-1.101","4258","approach_avoid_sv1","""event"",""trial"",""time""
""fullscreenenter"",""1"",""4162""
","
","
","""event"",""trial"",""time""
""fullscreenenter"",""1"",""4162""
","
","","","","","","1072.9000000022352","images/chair8.png","","","memory_trial","4","definitely_new",""
"html-keyboard-response","249","537001","0.0-18.0-0.102","4258","approach_avoid_sv1","""event"",""trial"",""time""
""fullscreenenter"",""1"",""4162""
","
","
","""event"",""trial"",""time""
""fullscreenenter"",""1"",""4162""
","
","","","","","","null","<div style=""font-size:60px;"">+</div>","null","","fixation","","",""
"memory-trial","250","539283","0.0-18.0-1.102","4258","approach_avoid_sv1","""event"",""trial"",""time""
""fullscreenenter"",""1"",""4162""
","
","
","""event"",""trial"",""time""
""fullscreenenter"",""1"",""4162""
","
","","","","","","1279.699999999255","images/apple3.png","","","memory_trial","1","definitely_old",""
"html-keyboard-response","251","539788","0.0-18.0-0.103","4258","approach_avoid_sv1","""event"",""trial"",""time""
""fullscreenenter"",""1"",""4162""
","
","
","""event"",""trial"",""time""
""fullscreenenter"",""1"",""4162""
","
","","","","","","null","<div style=""font-size:60px;"">+</div>","null","","fixation","","",""
"memory-trial","252","542036","0.0-18.0-1.103","4258","approach_avoid_sv1","""event"",""trial"",""time""
""fullscreenenter"",""1"",""4162""
","
","
","""event"",""trial"",""time""
""fullscreenenter"",""1"",""4162""
","
","","","","","","1242.7999999970198","images/chair4.png","","","memory_trial","1","definitely_old",""
"html-keyboard-response","253","542539","0.0-18.0-0.104","4258","approach_avoid_sv1","""event"",""trial"",""time""
""fullscreenenter"",""1"",""4162""
","
","
","""event"",""trial"",""time""
""fullscreenenter"",""1"",""4162""
","
","","","","","","null","<div style=""font-size:60px;"">+</div>","null","","fixation","","",""
"memory-trial","254","544623","0.0-18.0-1.104","4258","approach_avoid_sv1","""event"",""trial"",""time""
""fullscreenenter"",""1"",""4162""
","
","
","""event"",""trial"",""time""
""fullscreenenter"",""1"",""4162""
","
","","","","","","1078.5","images/goat5.png","","","memory_trial","1","definitely_old",""
"html-keyboard-response","255","545128","0.0-18.0-0.105","4258","approach_avoid_sv1","""event"",""trial"",""time""
""fullscreenenter"",""1"",""4162""
","
","
","""event"",""trial"",""time""
""fullscreenenter"",""1"",""4162""
","
","","","","","","null","<div style=""font-size:60px;"">+</div>","null","","fixation","","",""
"memory-trial","256","547334","0.0-18.0-1.105","4258","approach_avoid_sv1","""event"",""trial"",""time""
""fullscreenenter"",""1"",""4162""
","
","
","""event"",""trial"",""time""
""fullscreenenter"",""1"",""4162""
","
","","","","","","1199.800000000745","images/sofa5.png","","","memory_trial","4","definitely_new",""
"html-keyboard-response","257","547839","0.0-18.0-0.106","4258","approach_avoid_sv1","""event"",""trial"",""time""
""fullscreenenter"",""1"",""4162""
","
","
","""event"",""trial"",""time""
""fullscreenenter"",""1"",""4162""
","
","","","","","","null","<div style=""font-size:60px;"">+</div>","null","","fixation","","",""
"memory-trial","258","550225","0.0-18.0-1.106","4258","approach_avoid_sv1","""event"",""trial"",""time""
""fullscreenenter"",""1"",""4162""
","
","
","""event"",""trial"",""time""
""fullscreenenter"",""1"",""4162""
","
","","","","","","1383.5","images/straw7.png","","","memory_trial","4","definitely_new",""
"html-keyboard-response","259","550730","0.0-18.0-0.107","4258","approach_avoid_sv1","""event"",""trial"",""time""
""fullscreenenter"",""1"",""4162""
","
","
","""event"",""trial"",""time""
""fullscreenenter"",""1"",""4162""
","
","","","","","","null","<div style=""font-size:60px;"">+</div>","null","","fixation","","",""
"memory-trial","260","552901","0.0-18.0-1.107","4258","approach_avoid_sv1","""event"",""trial"",""time""
""fullscreenenter"",""1"",""4162""
","
","
","""event"",""trial"",""time""
""fullscreenenter"",""1"",""4162""
","
","","","","","","1164.2999999970198","images/flower4.png","","","memory_trial","4","definitely_new",""
"html-keyboard-response","261","553406","0.0-18.0-0.108","4258","approach_avoid_sv1","""event"",""trial"",""time""
""fullscreenenter"",""1"",""4162""
","
","
","""event"",""trial"",""time""
""fullscreenenter"",""1"",""4162""
","
","","","","","","null","<div style=""font-size:60px;"">+</div>","null","","fixation","","",""
"memory-trial","262","555419","0.0-18.0-1.108","4258","approach_avoid_sv1","""event"",""trial"",""time""
""fullscreenenter"",""1"",""4162""
","
","
","""event"",""trial"",""time""
""fullscreenenter"",""1"",""4162""
","
","","","","","","1010.5","images/banana2.png","","","memory_trial","4","definitely_new",""
"html-keyboard-response","263","555926","0.0-18.0-0.109","4258","approach_avoid_sv1","""event"",""trial"",""time""
""fullscreenenter"",""1"",""4162""
","
","
","""event"",""trial"",""time""
""fullscreenenter"",""1"",""4162""
","
","","","","","","null","<div style=""font-size:60px;"">+</div>","null","","fixation","","",""
"memory-trial","264","558836","0.0-18.0-1.109","4258","approach_avoid_sv1","""event"",""trial"",""time""
""fullscreenenter"",""1"",""4162""
","
","
","""event"",""trial"",""time""
""fullscreenenter"",""1"",""4162""
","
","","","","","","1906.8999999985099","images/cactus5.png","","","memory_trial","4","definitely_new",""
"html-keyboard-response","265","559339","0.0-18.0-0.110","4258","approach_avoid_sv1","""event"",""trial"",""time""
""fullscreenenter"",""1"",""4162""
","
","
","""event"",""trial"",""time""
""fullscreenenter"",""1"",""4162""
","
","","","","","","null","<div style=""font-size:60px;"">+</div>","null","","fixation","","",""
"memory-trial","266","561591","0.0-18.0-1.110","4258","approach_avoid_sv1","""event"",""trial"",""time""
""fullscreenenter"",""1"",""4162""
","
","
","""event"",""trial"",""time""
""fullscreenenter"",""1"",""4162""
","
","","","","","","1246.699999999255","images/horse1.png","","","memory_trial","1","definitely_old",""
"html-keyboard-response","267","562093","0.0-18.0-0.111","4258","approach_avoid_sv1","""event"",""trial"",""time""
""fullscreenenter"",""1"",""4162""
","
","
","""event"",""trial"",""time""
""fullscreenenter"",""1"",""4162""
","
","","","","","","null","<div style=""font-size:60px;"">+</div>","null","","fixation","","",""
"memory-trial","268","564615","0.0-18.0-1.111","4258","approach_avoid_sv1","""event"",""trial"",""time""
""fullscreenenter"",""1"",""4162""
","
","
","""event"",""trial"",""time""
""fullscreenenter"",""1"",""4162""
","
","","","","","","1517.800000000745","images/dog6.png","","","memory_trial","4","definitely_new",""
"html-keyboard-response","269","565120","0.0-18.0-0.112","4258","approach_avoid_sv1","""event"",""trial"",""time""
""fullscreenenter"",""1"",""4162""
","
","
","""event"",""trial"",""time""
""fullscreenenter"",""1"",""4162""
","
","","","","","","null","<div style=""font-size:60px;"">+</div>","null","","fixation","","",""
"memory-trial","270","567309","0.0-18.0-1.112","4258","approach_avoid_sv1","""event"",""trial"",""time""
""fullscreenenter"",""1"",""4162""
","
","
","""event"",""trial"",""time""
""fullscreenenter"",""1"",""4162""
","
","","","","","","1186.199999999255","images/rodent8.png","","","memory_trial","4","definitely_new",""
"html-keyboard-response","271","567814","0.0-18.0-0.113","4258","approach_avoid_sv1","""event"",""trial"",""time""
""fullscreenenter"",""1"",""4162""
","
","
","""event"",""trial"",""time""
""fullscreenenter"",""1"",""4162""
","
","","","","","","null","<div style=""font-size:60px;"">+</div>","null","","fixation","","",""
"memory-trial","272","569817","0.0-18.0-1.113","4258","approach_avoid_sv1","""event"",""trial"",""time""
""fullscreenenter"",""1"",""4162""
","
","
","""event"",""trial"",""time""
""fullscreenenter"",""1"",""4162""
","
","","","","","","1000.5999999977648","images/sofa3.png","","","memory_trial","4","definitely_new",""
"html-keyboard-response","273","570322","0.0-18.0-0.114","4258","approach_avoid_sv1","""event"",""trial"",""time""
""fullscreenenter"",""1"",""4162""
","
","
","""event"",""trial"",""time""
""fullscreenenter"",""1"",""4162""
","
","","","","","","null","<div style=""font-size:60px;"">+</div>","null","","fixation","","",""
"memory-trial","274","572684","0.0-18.0-1.114","4258","approach_avoid_sv1","""event"",""trial"",""time""
""fullscreenenter"",""1"",""4162""
","
","
","""event"",""trial"",""time""
""fullscreenenter"",""1"",""4162""
","
","","","","","","1358.3999999985099","images/tree7.png","","","memory_trial","1","definitely_old",""
"html-keyboard-response","275","573189","0.0-18.0-0.115","4258","approach_avoid_sv1","""event"",""trial"",""time""
""fullscreenenter"",""1"",""4162""
","
","
","""event"",""trial"",""time""
""fullscreenenter"",""1"",""4162""
","
","","","","","","null","<div style=""font-size:60px;"">+</div>","null","","fixation","","",""
"memory-trial","276","575587","0.0-18.0-1.115","4258","approach_avoid_sv1","""event"",""trial"",""time""
""fullscreenenter"",""1"",""4162""
","
","
","""event"",""trial"",""time""
""fullscreenenter"",""1"",""4162""
","
","","","","","","1391.800000000745","images/horse3.png","","","memory_trial","4","definitely_new",""
"html-keyboard-response","277","576092","0.0-18.0-0.116","4258","approach_avoid_sv1","""event"",""trial"",""time""
""fullscreenenter"",""1"",""4162""
","
","
","""event"",""trial"",""time""
""fullscreenenter"",""1"",""4162""
","
","","","","","","null","<div style=""font-size:60px;"">+</div>","null","","fixation","","",""
"memory-trial","278","578385","0.0-18.0-1.116","4258","approach_avoid_sv1","""event"",""trial"",""time""
""fullscreenenter"",""1"",""4162""
","
","
","""event"",""trial"",""time""
""fullscreenenter"",""1"",""4162""
","
","","","","","","1290.3999999985099","images/goat6.png","","","memory_trial","4","definitely_new",""
"html-keyboard-response","279","578890","0.0-18.0-0.117","4258","approach_avoid_sv1","""event"",""trial"",""time""
""fullscreenenter"",""1"",""4162""
","
","
","""event"",""trial"",""time""
""fullscreenenter"",""1"",""4162""
","
","","","","","","null","<div style=""font-size:60px;"">+</div>","null","","fixation","","",""
"memory-trial","280","580718","0.0-18.0-1.117","4258","approach_avoid_sv1","""event"",""trial"",""time""
""fullscreenenter"",""1"",""4162""
","
","
","""event"",""trial"",""time""
""fullscreenenter"",""1"",""4162""
","
","","","","","","822.8000000007451","images/truck7.png","","","memory_trial","4","definitely_new",""
"html-keyboard-response","281","581223","0.0-18.0-0.118","4258","approach_avoid_sv1","""event"",""trial"",""time""
""fullscreenenter"",""1"",""4162""
","
","
","""event"",""trial"",""time""
""fullscreenenter"",""1"",""4162""
","
","","","","","","null","<div style=""font-size:60px;"">+</div>","null","","fixation","","",""
"memory-trial","282","583801","0.0-18.0-1.118","4258","approach_avoid_sv1","""event"",""trial"",""time""
""fullscreenenter"",""1"",""4162""
","
","
","""event"",""trial"",""time""
""fullscreenenter"",""1"",""4162""
","
","","","","","","1570.800000000745","images/banana7.png","","","memory_trial","1","definitely_old",""
"html-keyboard-response","283","584306","0.0-18.0-0.119","4258","approach_avoid_sv1","""event"",""trial"",""time""
""fullscreenenter"",""1"",""4162""
","
","
","""event"",""trial"",""time""
""fullscreenenter"",""1"",""4162""
","
","","","","","","null","<div style=""font-size:60px;"">+</div>","null","","fixation","","",""
"memory-trial","284","586324","0.0-18.0-1.119","4258","approach_avoid_sv1","""event"",""trial"",""time""
""fullscreenenter"",""1"",""4162""
","
","
","""event"",""trial"",""time""
""fullscreenenter"",""1"",""4162""
","
","","","","","","1014.6999999992549","images/flower1.png","","","memory_trial","4","definitely_new",""
"html-keyboard-response","285","586825","0.0-18.0-0.120","4258","approach_avoid_sv1","""event"",""trial"",""time""
""fullscreenenter"",""1"",""4162""
","
","
","""event"",""trial"",""time""
""fullscreenenter"",""1"",""4162""
","
","","","","","","null","<div style=""font-size:60px;"">+</div>","null","","fixation","","",""
"memory-trial","286","589252","0.0-18.0-1.120","4258","approach_avoid_sv1","""event"",""trial"",""time""
""fullscreenenter"",""1"",""4162""
","
","
","""event"",""trial"",""time""
""fullscreenenter"",""1"",""4162""
","
","","","","","","1424.199999999255","images/dog4.png","","","memory_trial","4","definitely_new",""
"html-keyboard-response","287","589757","0.0-18.0-0.121","4258","approach_avoid_sv1","""event"",""trial"",""time""
""fullscreenenter"",""1"",""4162""
","
","
","""event"",""trial"",""time""
""fullscreenenter"",""1"",""4162""
","
","","","","","","null","<div style=""font-size:60px;"">+</div>","null","","fixation","","",""
"memory-trial","288","591980","0.0-18.0-1.121","4258","approach_avoid_sv1","""event"",""trial"",""time""
""fullscreenenter"",""1"",""4162""
","
","
","""event"",""trial"",""time""
""fullscreenenter"",""1"",""4162""
","
","","","","","","1221.5","images/cactus2.png","","","memory_trial","4","definitely_new",""
"html-keyboard-response","289","592485","0.0-18.0-0.122","4258","approach_avoid_sv1","""event"",""trial"",""time""
""fullscreenenter"",""1"",""4162""
","
","
","""event"",""trial"",""time""
""fullscreenenter"",""1"",""4162""
","
","","","","","","null","<div style=""font-size:60px;"">+</div>","null","","fixation","","",""
"memory-trial","290","594437","0.0-18.0-1.122","4258","approach_avoid_sv1","""event"",""trial"",""time""
""fullscreenenter"",""1"",""4162""
","
","
","""event"",""trial"",""time""
""fullscreenenter"",""1"",""4162""
","
","","","","","","948.8000000007451","images/banana3.png","","","memory_trial","4","definitely_new",""
"html-keyboard-response","291","594940","0.0-18.0-0.123","4258","approach_avoid_sv1","""event"",""trial"",""time""
""fullscreenenter"",""1"",""4162""
","
","
","""event"",""trial"",""time""
""fullscreenenter"",""1"",""4162""
","
","","","","","","null","<div style=""font-size:60px;"">+</div>","null","","fixation","","",""
"memory-trial","292","597001","0.0-18.0-1.123","4258","approach_avoid_sv1","""event"",""trial"",""time""
""fullscreenenter"",""1"",""4162""
","
","
","""event"",""trial"",""time""
""fullscreenenter"",""1"",""4162""
","
","","","","","","1056.1000000014901","images/apple5.png","","","memory_trial","4","definitely_new",""
"html-keyboard-response","293","597506","0.0-18.0-0.124","4258","approach_avoid_sv1","""event"",""trial"",""time""
""fullscreenenter"",""1"",""4162""
","
","
","""event"",""trial"",""time""
""fullscreenenter"",""1"",""4162""
","
","","","","","","null","<div style=""font-size:60px;"">+</div>","null","","fixation","","",""
"memory-trial","294","599898","0.0-18.0-1.124","4258","approach_avoid_sv1","""event"",""trial"",""time""
""fullscreenenter"",""1"",""4162""
","
","
","""event"",""trial"",""time""
""fullscreenenter"",""1"",""4162""
","
","","","","","","1385.8999999985099","images/straw1.png","","","memory_trial","1","definitely_old",""
"html-keyboard-response","295","600403","0.0-18.0-0.125","4258","approach_avoid_sv1","""event"",""trial"",""time""
""fullscreenenter"",""1"",""4162""
","
","
","""event"",""trial"",""time""
""fullscreenenter"",""1"",""4162""
","
","","","","","","null","<div style=""font-size:60px;"">+</div>","null","","fixation","","",""
"memory-trial","296","603015","0.0-18.0-1.125","4258","approach_avoid_sv1","""event"",""trial"",""time""
""fullscreenenter"",""1"",""4162""
","
","
","""event"",""trial"",""time""
""fullscreenenter"",""1"",""4162""
","
","","","","","","1605.5","images/horse6.png","","","memory_trial","4","definitely_new",""
