"trial_type","trial_index","time_elapsed","internal_node_id","subject_id","task_version","interactions","blur_events","focus_events","fullscreenenter_events","fullscreenexit_events","success","timeout","failed_images","failed_audio","failed_video","rt","stimulus","response","button_pressed","task_part","key_press","answer","correct"
"pavlovia","0","2","0.0-0.0","7704","approach_avoid_sv1","""event"",""trial"",""time""
""fullscreenenter"",""1"",""3944""
","
","
","""event"",""trial"",""time""
""fullscreenenter"",""1"",""3944""
","
","","","","","","","","","","","","",""
"fullscreen","1","4938","0.0-1.0","7704","approach_avoid_sv1","""event"",""trial"",""time""
""fullscreenenter"",""1"",""3944""
","
","
","""event"",""trial"",""time""
""fullscreenenter"",""1"",""3944""
","
","true","","","","","","","","","","","",""
"preload","2","6472","0.0-2.0","7704","approach_avoid_sv1","""event"",""trial"",""time""
""fullscreenenter"",""1"",""3944""
","
","
","""event"",""trial"",""time""
""fullscreenenter"",""1"",""3944""
","
","true","false","[]","[]","[]","","","","","","","",""
"preload","3","7465","0.0-3.0","7704","approach_avoid_sv1","""event"",""trial"",""time""
""fullscreenenter"",""1"",""3944""
","
","
","""event"",""trial"",""time""
""fullscreenenter"",""1"",""3944""
","
","true","false","[]","[]","[]","","","","","","","",""
"preload","4","7801","0.0-4.0","7704","approach_avoid_sv1","""event"",""trial"",""time""
""fullscreenenter"",""1"",""3944""
""fullscreenexit"",""5"",""8702""
","
","
","""event"",""trial"",""time""
""fullscreenenter"",""1"",""3944""
","""event"",""trial"",""time""
""fullscreenexit"",""5"",""8702""
","true","false","[]","[]","[]","","","","","","","",""
"audio-keyboard-response","5","11768","0.0-5.0","7704","approach_avoid_sv1","""event"",""trial"",""time""
""fullscreenenter"",""1"",""3944""
""fullscreenexit"",""5"",""8702""
","
","
","""event"",""trial"",""time""
""fullscreenenter"",""1"",""3944""
","""event"",""trial"",""time""
""fullscreenexit"",""5"",""8702""
","","","","","","3967.9999999999995","audio/beep_loop.wav"," ","","","","",""
"audio-button-response","6","13727","0.0-6.0","7704","approach_avoid_sv1","""event"",""trial"",""time""
""fullscreenenter"",""1"",""3944""
""fullscreenexit"",""5"",""8702""
","
","
","""event"",""trial"",""time""
""fullscreenenter"",""1"",""3944""
","""event"",""trial"",""time""
""fullscreenexit"",""5"",""8702""
","","","","","","1960","audio/turtle.wav","3","","","","",""
"audio-button-response","7","15861","0.0-7.0","7704","approach_avoid_sv1","""event"",""trial"",""time""
""fullscreenenter"",""1"",""3944""
""fullscreenexit"",""5"",""8702""
","
","
","""event"",""trial"",""time""
""fullscreenenter"",""1"",""3944""
","""event"",""trial"",""time""
""fullscreenexit"",""5"",""8702""
","","","","","","1131","audio/shark.wav","2","","","","",""
"preload","8","18498","0.0-8.0","7704","approach_avoid_sv1","""event"",""trial"",""time""
""fullscreenenter"",""1"",""3944""
""fullscreenexit"",""5"",""8702""
","
","
","""event"",""trial"",""time""
""fullscreenenter"",""1"",""3944""
","""event"",""trial"",""time""
""fullscreenexit"",""5"",""8702""
","true","false","[]","[]","[]","","","","","","","",""
"learning-instructions","9","24264","0.0-9.0-0.0","7704","approach_avoid_sv1","""event"",""trial"",""time""
""fullscreenenter"",""1"",""3944""
""fullscreenexit"",""5"",""8702""
","
","
","""event"",""trial"",""time""
""fullscreenenter"",""1"",""3944""
","""event"",""trial"",""time""
""fullscreenexit"",""5"",""8702""
","","","","","","1288.1000001430511","<p> Welcome back! </p><p> Last week, you had to make choices about lots of different items.  </p>","","0","instructions","","",""
"learning-instructions","10","29707","0.0-9.0-0.1","7704","approach_avoid_sv1","""event"",""trial"",""time""
""fullscreenenter"",""1"",""3944""
""fullscreenexit"",""5"",""8702""
","
","
","""event"",""trial"",""time""
""fullscreenenter"",""1"",""3944""
","""event"",""trial"",""time""
""fullscreenexit"",""5"",""8702""
","","","","","","1321.0999999046326","<p> Today, we are going to ask you to try to remember all the items. </p>","","0","instructions","","",""
"learning-instructions","11","40713","0.0-9.0-0.2","7704","approach_avoid_sv1","""event"",""trial"",""time""
""fullscreenenter"",""1"",""3944""
""fullscreenexit"",""5"",""8702""
","
","
","""event"",""trial"",""time""
""fullscreenenter"",""1"",""3944""
","""event"",""trial"",""time""
""fullscreenexit"",""5"",""8702""
","","","","","","877.7999999523163","<p> On every trial, you will see an image. </p><p> The image may be an OLD image you saw during the games last week or it may be a NEW image that was not presented. </p>","","0","instructions","","",""
"learning-instructions","12","50315","0.0-9.0-0.3","7704","approach_avoid_sv1","""event"",""trial"",""time""
""fullscreenenter"",""1"",""3944""
""fullscreenexit"",""5"",""8702""
","
","
","""event"",""trial"",""time""
""fullscreenenter"",""1"",""3944""
","""event"",""trial"",""time""
""fullscreenexit"",""5"",""8702""
","","","","","","1098.5999999046326","<p> You need to select whether the image is:  </p><p>  'Definitely old', 'Maybe old', 'Maybe new', or 'Definitely new.'  </p><div class=""mem-choice-instructions-grid""><div class=""choice-option"" id=""choice-option-1"" ><img src=""images/definitely_old_1.png"" id=""choice-option-img-1"" class=""choice-option-img"" stage=""1""></div><div class=""choice-option"" id=""choice-option-2"" ><img src=""images/maybe_old_1.png"" id=""choice-option-img-2"" class=""choice-option-img"" stage=""1""></div><div class=""choice-option"" id=""choice-option-3"" ><img src=""images/maybe_new_1.png"" id=""choice-option-img-3"" class=""choice-option-img"" stage=""1""></div><div class=""choice-option"" id=""choice-option-4"" > <img src=""images/definitely_new_1.png"" id=""choice-option-img-4"" class=""choice-option-img"" stage=""1""></div></div>","","0","instructions","","",""
"learning-instructions","13","59408","0.0-9.0-0.4","7704","approach_avoid_sv1","""event"",""trial"",""time""
""fullscreenenter"",""1"",""3944""
""fullscreenexit"",""5"",""8702""
","
","
","""event"",""trial"",""time""
""fullscreenenter"",""1"",""3944""
","""event"",""trial"",""time""
""fullscreenexit"",""5"",""8702""
","","","","","","2582.2000000476837","<p> You should use the 1, 2, 3, and 4 keys to make your responses.  </p><div class=""mem-choice-instructions-grid""><div class=""choice-option"" id=""choice-option-1"" ><img src=""images/definitely_old.png"" id=""choice-option-img-1"" class=""choice-option-img"" stage=""1""></div><div class=""choice-option"" id=""choice-option-2"" ><img src=""images/maybe_old.png"" id=""choice-option-img-2"" class=""choice-option-img"" stage=""1""></div><div class=""choice-option"" id=""choice-option-3"" ><img src=""images/maybe_new.png"" id=""choice-option-img-3"" class=""choice-option-img"" stage=""1""></div><div class=""choice-option"" id=""choice-option-4"" > <img src=""images/definitely_new.png"" id=""choice-option-img-4"" class=""choice-option-img"" stage=""1""></div></div>","","0","instructions","","",""
"learning-instructions","14","71004","0.0-9.0-0.5","7704","approach_avoid_sv1","""event"",""trial"",""time""
""fullscreenenter"",""1"",""3944""
""fullscreenexit"",""5"",""8702""
","
","
","""event"",""trial"",""time""
""fullscreenenter"",""1"",""3944""
","""event"",""trial"",""time""
""fullscreenexit"",""5"",""8702""
","","","","","","5269.300000190735","<p> You will have 10 seconds to make each response.  </p><p>  Make sure to respond before time runs out! </p>","","0","instructions","","",""
"learning-instructions","15","79482","0.0-9.0-0.6","7704","approach_avoid_sv1","""event"",""trial"",""time""
""fullscreenenter"",""1"",""3944""
""fullscreenexit"",""5"",""8702""
","
","
","""event"",""trial"",""time""
""fullscreenenter"",""1"",""3944""
","""event"",""trial"",""time""
""fullscreenexit"",""5"",""8702""
","","","","","","1407.2000000476837","<p> Today, you will see each image ONCE only.  </p><p>  That means none of the images will repeat. </p>","","0","instructions","","",""
"learning-instructions","16","92898","0.0-9.0-0.7","7704","approach_avoid_sv1","""event"",""trial"",""time""
""fullscreenenter"",""1"",""3944""
""fullscreenexit"",""5"",""8702""
","
","
","""event"",""trial"",""time""
""fullscreenenter"",""1"",""3944""
","""event"",""trial"",""time""
""fullscreenexit"",""5"",""8702""
","","","","","","743.2000000476837","<p> Before you play the real game, it is time to practice. </p><p>  Just like in the real game, some of the images in the practice will be ones you have seen before. </p><p>  Others will be entirely new. </p>","","0","instructions","","",""
"html-button-response","17","97621","0.0-10.0","7704","approach_avoid_sv1","""event"",""trial"",""time""
""fullscreenenter"",""1"",""3944""
""fullscreenexit"",""5"",""8702""
","
","
","""event"",""trial"",""time""
""fullscreenenter"",""1"",""3944""
","""event"",""trial"",""time""
""fullscreenexit"",""5"",""8702""
","","","","","","4607.299999952316","<p> Ready to practice? </p><p> Remember, use the 1, 2, 3, and 4 keys to make your responses. </p>","0","","instructions","","",""
"html-keyboard-response","18","98240","0.0-11.0-0.0","7704","approach_avoid_sv1","""event"",""trial"",""time""
""fullscreenenter"",""1"",""3944""
""fullscreenexit"",""5"",""8702""
""blur"",""19"",""104547""
","""event"",""trial"",""time""
""blur"",""19"",""104547""
","
","""event"",""trial"",""time""
""fullscreenenter"",""1"",""3944""
","""event"",""trial"",""time""
""fullscreenexit"",""5"",""8702""
","","","","","","null","<div style=""font-size:60px;"">+</div>","null","","fixation","","",""
"memory-trial","19","108256","0.0-11.0-1.0","7704","approach_avoid_sv1","""event"",""trial"",""time""
""fullscreenenter"",""1"",""3944""
""fullscreenexit"",""5"",""8702""
""blur"",""19"",""104547""
","""event"",""trial"",""time""
""blur"",""19"",""104547""
","
","""event"",""trial"",""time""
""fullscreenenter"",""1"",""3944""
","""event"",""trial"",""time""
""fullscreenexit"",""5"",""8702""
","","","","","","null","images/racket2.png","","","practice","null","null",""
"html-keyboard-response","20","108771","0.0-11.0-0.1","7704","approach_avoid_sv1","""event"",""trial"",""time""
""fullscreenenter"",""1"",""3944""
""fullscreenexit"",""5"",""8702""
""blur"",""19"",""104547""
""focus"",""21"",""109261""
","""event"",""trial"",""time""
""blur"",""19"",""104547""
","""event"",""trial"",""time""
""focus"",""21"",""109261""
","""event"",""trial"",""time""
""fullscreenenter"",""1"",""3944""
","""event"",""trial"",""time""
""fullscreenexit"",""5"",""8702""
","","","","","","null","<div style=""font-size:60px;"">+</div>","null","","fixation","","",""
"memory-trial","21","116951","0.0-11.0-1.1","7704","approach_avoid_sv1","""event"",""trial"",""time""
""fullscreenenter"",""1"",""3944""
""fullscreenexit"",""5"",""8702""
""blur"",""19"",""104547""
""focus"",""21"",""109261""
","""event"",""trial"",""time""
""blur"",""19"",""104547""
","""event"",""trial"",""time""
""focus"",""21"",""109261""
","""event"",""trial"",""time""
""fullscreenenter"",""1"",""3944""
","""event"",""trial"",""time""
""fullscreenexit"",""5"",""8702""
","","","","","","7177.799999952316","images/racket1.png","","","practice","4","definitely_new",""
"html-keyboard-response","22","117452","0.0-11.0-0.2","7704","approach_avoid_sv1","""event"",""trial"",""time""
""fullscreenenter"",""1"",""3944""
""fullscreenexit"",""5"",""8702""
""blur"",""19"",""104547""
""focus"",""21"",""109261""
","""event"",""trial"",""time""
""blur"",""19"",""104547""
","""event"",""trial"",""time""
""focus"",""21"",""109261""
","""event"",""trial"",""time""
""fullscreenenter"",""1"",""3944""
","""event"",""trial"",""time""
""fullscreenexit"",""5"",""8702""
","","","","","","null","<div style=""font-size:60px;"">+</div>","null","","fixation","","",""
"memory-trial","23","120526","0.0-11.0-1.2","7704","approach_avoid_sv1","""event"",""trial"",""time""
""fullscreenenter"",""1"",""3944""
""fullscreenexit"",""5"",""8702""
""blur"",""19"",""104547""
""focus"",""21"",""109261""
","""event"",""trial"",""time""
""blur"",""19"",""104547""
","""event"",""trial"",""time""
""focus"",""21"",""109261""
","""event"",""trial"",""time""
""fullscreenenter"",""1"",""3944""
","""event"",""trial"",""time""
""fullscreenexit"",""5"",""8702""
","","","","","","2071.199999809265","images/ball1.png","","","practice","1","definitely_old",""
"html-keyboard-response","24","121027","0.0-11.0-0.3","7704","approach_avoid_sv1","""event"",""trial"",""time""
""fullscreenenter"",""1"",""3944""
""fullscreenexit"",""5"",""8702""
""blur"",""19"",""104547""
""focus"",""21"",""109261""
","""event"",""trial"",""time""
""blur"",""19"",""104547""
","""event"",""trial"",""time""
""focus"",""21"",""109261""
","""event"",""trial"",""time""
""fullscreenenter"",""1"",""3944""
","""event"",""trial"",""time""
""fullscreenexit"",""5"",""8702""
","","","","","","null","<div style=""font-size:60px;"">+</div>","null","","fixation","","",""
"memory-trial","25","125463","0.0-11.0-1.3","7704","approach_avoid_sv1","""event"",""trial"",""time""
""fullscreenenter"",""1"",""3944""
""fullscreenexit"",""5"",""8702""
""blur"",""19"",""104547""
""focus"",""21"",""109261""
","""event"",""trial"",""time""
""blur"",""19"",""104547""
","""event"",""trial"",""time""
""focus"",""21"",""109261""
","""event"",""trial"",""time""
""fullscreenenter"",""1"",""3944""
","""event"",""trial"",""time""
""fullscreenexit"",""5"",""8702""
","","","","","","3432.899999856949","images/ball3.png","","","practice","1","definitely_old",""
"html-keyboard-response","26","125965","0.0-11.0-0.4","7704","approach_avoid_sv1","""event"",""trial"",""time""
""fullscreenenter"",""1"",""3944""
""fullscreenexit"",""5"",""8702""
""blur"",""19"",""104547""
""focus"",""21"",""109261""
","""event"",""trial"",""time""
""blur"",""19"",""104547""
","""event"",""trial"",""time""
""focus"",""21"",""109261""
","""event"",""trial"",""time""
""fullscreenenter"",""1"",""3944""
","""event"",""trial"",""time""
""fullscreenexit"",""5"",""8702""
","","","","","","null","<div style=""font-size:60px;"">+</div>","null","","fixation","","",""
"memory-trial","27","129152","0.0-11.0-1.4","7704","approach_avoid_sv1","""event"",""trial"",""time""
""fullscreenenter"",""1"",""3944""
""fullscreenexit"",""5"",""8702""
""blur"",""19"",""104547""
""focus"",""21"",""109261""
","""event"",""trial"",""time""
""blur"",""19"",""104547""
","""event"",""trial"",""time""
""focus"",""21"",""109261""
","""event"",""trial"",""time""
""fullscreenenter"",""1"",""3944""
","""event"",""trial"",""time""
""fullscreenexit"",""5"",""8702""
","","","","","","2184.600000143051","images/ball5.png","","","practice","2","maybe_old",""
"html-keyboard-response","28","129653","0.0-11.0-0.5","7704","approach_avoid_sv1","""event"",""trial"",""time""
""fullscreenenter"",""1"",""3944""
""fullscreenexit"",""5"",""8702""
""blur"",""19"",""104547""
""focus"",""21"",""109261""
","""event"",""trial"",""time""
""blur"",""19"",""104547""
","""event"",""trial"",""time""
""focus"",""21"",""109261""
","""event"",""trial"",""time""
""fullscreenenter"",""1"",""3944""
","""event"",""trial"",""time""
""fullscreenexit"",""5"",""8702""
","","","","","","null","<div style=""font-size:60px;"">+</div>","null","","fixation","","",""
"memory-trial","29","137975","0.0-11.0-1.5","7704","approach_avoid_sv1","""event"",""trial"",""time""
""fullscreenenter"",""1"",""3944""
""fullscreenexit"",""5"",""8702""
""blur"",""19"",""104547""
""focus"",""21"",""109261""
","""event"",""trial"",""time""
""blur"",""19"",""104547""
","""event"",""trial"",""time""
""focus"",""21"",""109261""
","""event"",""trial"",""time""
""fullscreenenter"",""1"",""3944""
","""event"",""trial"",""time""
""fullscreenexit"",""5"",""8702""
","","","","","","7319.5","images/racket5.png","","","practice","4","definitely_new",""
"html-keyboard-response","30","138476","0.0-11.0-0.6","7704","approach_avoid_sv1","""event"",""trial"",""time""
""fullscreenenter"",""1"",""3944""
""fullscreenexit"",""5"",""8702""
""blur"",""19"",""104547""
""focus"",""21"",""109261""
","""event"",""trial"",""time""
""blur"",""19"",""104547""
","""event"",""trial"",""time""
""focus"",""21"",""109261""
","""event"",""trial"",""time""
""fullscreenenter"",""1"",""3944""
","""event"",""trial"",""time""
""fullscreenexit"",""5"",""8702""
","","","","","","null","<div style=""font-size:60px;"">+</div>","null","","fixation","","",""
"memory-trial","31","143191","0.0-11.0-1.6","7704","approach_avoid_sv1","""event"",""trial"",""time""
""fullscreenenter"",""1"",""3944""
""fullscreenexit"",""5"",""8702""
""blur"",""19"",""104547""
""focus"",""21"",""109261""
","""event"",""trial"",""time""
""blur"",""19"",""104547""
","""event"",""trial"",""time""
""focus"",""21"",""109261""
","""event"",""trial"",""time""
""fullscreenenter"",""1"",""3944""
","""event"",""trial"",""time""
""fullscreenexit"",""5"",""8702""
","","","","","","3712.0999999046326","images/ball2.png","","","practice","3","maybe_new",""
"html-keyboard-response","32","143692","0.0-11.0-0.7","7704","approach_avoid_sv1","""event"",""trial"",""time""
""fullscreenenter"",""1"",""3944""
""fullscreenexit"",""5"",""8702""
""blur"",""19"",""104547""
""focus"",""21"",""109261""
","""event"",""trial"",""time""
""blur"",""19"",""104547""
","""event"",""trial"",""time""
""focus"",""21"",""109261""
","""event"",""trial"",""time""
""fullscreenenter"",""1"",""3944""
","""event"",""trial"",""time""
""fullscreenexit"",""5"",""8702""
","","","","","","null","<div style=""font-size:60px;"">+</div>","null","","fixation","","",""
"memory-trial","33","146351","0.0-11.0-1.7","7704","approach_avoid_sv1","""event"",""trial"",""time""
""fullscreenenter"",""1"",""3944""
""fullscreenexit"",""5"",""8702""
""blur"",""19"",""104547""
""focus"",""21"",""109261""
","""event"",""trial"",""time""
""blur"",""19"",""104547""
","""event"",""trial"",""time""
""focus"",""21"",""109261""
","""event"",""trial"",""time""
""fullscreenenter"",""1"",""3944""
","""event"",""trial"",""time""
""fullscreenexit"",""5"",""8702""
","","","","","","1655.7000000476837","images/racket3.png","","","practice","1","definitely_old",""
"learning-instructions","34","156772","0.0-12.0-0.0","7704","approach_avoid_sv1","""event"",""trial"",""time""
""fullscreenenter"",""1"",""3944""
""fullscreenexit"",""5"",""8702""
""blur"",""19"",""104547""
""focus"",""21"",""109261""
","""event"",""trial"",""time""
""blur"",""19"",""104547""
","""event"",""trial"",""time""
""focus"",""21"",""109261""
","""event"",""trial"",""time""
""fullscreenenter"",""1"",""3944""
","""event"",""trial"",""time""
""fullscreenexit"",""5"",""8702""
","","","","","","3079.4000000953674","<p> Great! You have completed the practice. </p><p> Before you start, we're going to ask you a few questions about how the game works.  </p>","","0","instructions","","",""
"preload","35","158267","0.0-13.0","7704","approach_avoid_sv1","""event"",""trial"",""time""
""fullscreenenter"",""1"",""3944""
""fullscreenexit"",""5"",""8702""
""blur"",""19"",""104547""
""focus"",""21"",""109261""
","""event"",""trial"",""time""
""blur"",""19"",""104547""
","""event"",""trial"",""time""
""focus"",""21"",""109261""
","""event"",""trial"",""time""
""fullscreenenter"",""1"",""3944""
","""event"",""trial"",""time""
""fullscreenexit"",""5"",""8702""
","true","false","[]","[]","[]","","","","","","","",""
"comp-q","36","164550","0.0-14.0-0.0","7704","approach_avoid_sv1","""event"",""trial"",""time""
""fullscreenenter"",""1"",""3944""
""fullscreenexit"",""5"",""8702""
""blur"",""19"",""104547""
""focus"",""21"",""109261""
","""event"",""trial"",""time""
""blur"",""19"",""104547""
","""event"",""trial"",""time""
""focus"",""21"",""109261""
","""event"",""trial"",""time""
""fullscreenenter"",""1"",""3944""
","""event"",""trial"",""time""
""fullscreenexit"",""5"",""8702""
","","","","","","457.2000000476837","<p> <b> True or False? </b> </p><p> In this game, you will only see each image once. </p>","","0","comp_question","","","true"
"comp-q","37","173452","0.0-14.0-1.0","7704","approach_avoid_sv1","""event"",""trial"",""time""
""fullscreenenter"",""1"",""3944""
""fullscreenexit"",""5"",""8702""
""blur"",""19"",""104547""
""focus"",""21"",""109261""
","""event"",""trial"",""time""
""blur"",""19"",""104547""
","""event"",""trial"",""time""
""focus"",""21"",""109261""
","""event"",""trial"",""time""
""fullscreenenter"",""1"",""3944""
","""event"",""trial"",""time""
""fullscreenexit"",""5"",""8702""
","","","","","","2559.5","<p> <b> That's right! </b> You will see many different images <i> one time each </i> in this game. </p>","","0","comp_answer","","",""
"comp-q","38","179229","0.0-15.0-0.0","7704","approach_avoid_sv1","""event"",""trial"",""time""
""fullscreenenter"",""1"",""3944""
""fullscreenexit"",""5"",""8702""
""blur"",""19"",""104547""
""focus"",""21"",""109261""
","""event"",""trial"",""time""
""blur"",""19"",""104547""
","""event"",""trial"",""time""
""focus"",""21"",""109261""
","""event"",""trial"",""time""
""fullscreenenter"",""1"",""3944""
","""event"",""trial"",""time""
""fullscreenexit"",""5"",""8702""
","","","","","","766.2999999523163","<p> <b> True or False? </b> </p><p> You should use the mouse and click to make your response. </p>","","1","comp_question","","","true"
"comp-q","39","186921","0.0-15.0-1.0","7704","approach_avoid_sv1","""event"",""trial"",""time""
""fullscreenenter"",""1"",""3944""
""fullscreenexit"",""5"",""8702""
""blur"",""19"",""104547""
""focus"",""21"",""109261""
","""event"",""trial"",""time""
""blur"",""19"",""104547""
","""event"",""trial"",""time""
""focus"",""21"",""109261""
","""event"",""trial"",""time""
""fullscreenenter"",""1"",""3944""
","""event"",""trial"",""time""
""fullscreenexit"",""5"",""8702""
","","","","","","1178","<p><b> That's right! </b> You should use the '1', '2', '3', and '4' keys to make your response. </p>","","0","comp_answer","","",""
"comp-q","40","192966","0.0-16.0-0.0","7704","approach_avoid_sv1","""event"",""trial"",""time""
""fullscreenenter"",""1"",""3944""
""fullscreenexit"",""5"",""8702""
""blur"",""19"",""104547""
""focus"",""21"",""109261""
","""event"",""trial"",""time""
""blur"",""19"",""104547""
","""event"",""trial"",""time""
""focus"",""21"",""109261""
","""event"",""trial"",""time""
""fullscreenenter"",""1"",""3944""
","""event"",""trial"",""time""
""fullscreenexit"",""5"",""8702""
","","","","","","362.60000014305115","<p> <b> True or False? </b> </p><p> You will have as much time as you want to make each choice. </p>","","1","comp_question","","","true"
"comp-q","41","199052","0.0-16.0-1.0","7704","approach_avoid_sv1","""event"",""trial"",""time""
""fullscreenenter"",""1"",""3944""
""fullscreenexit"",""5"",""8702""
""blur"",""19"",""104547""
""focus"",""21"",""109261""
","""event"",""trial"",""time""
""blur"",""19"",""104547""
","""event"",""trial"",""time""
""focus"",""21"",""109261""
","""event"",""trial"",""time""
""fullscreenenter"",""1"",""3944""
","""event"",""trial"",""time""
""fullscreenexit"",""5"",""8702""
","","","","","","1389","<p> <b> That's right! </b> You will only have 10 seconds to make each choice. </p>","","0","comp_answer","","",""
"learning-instructions","42","216211","0.0-17.0","7704","approach_avoid_sv1","""event"",""trial"",""time""
""fullscreenenter"",""1"",""3944""
""fullscreenexit"",""5"",""8702""
""blur"",""19"",""104547""
""focus"",""21"",""109261""
","""event"",""trial"",""time""
""blur"",""19"",""104547""
","""event"",""trial"",""time""
""focus"",""21"",""109261""
","""event"",""trial"",""time""
""fullscreenenter"",""1"",""3944""
","""event"",""trial"",""time""
""fullscreenexit"",""5"",""8702""
","","","","","","8477.799999952316","<p> Great! You are now ready to begin the game. </p><p> Remember, use the 1, 2, 3, and 4 keys to make your responses. </p>","","0","instructions","","",""
"html-keyboard-response","43","216814","0.0-18.0-0.0","7704","approach_avoid_sv1","""event"",""trial"",""time""
""fullscreenenter"",""1"",""3944""
""fullscreenexit"",""5"",""8702""
""blur"",""19"",""104547""
""focus"",""21"",""109261""
","""event"",""trial"",""time""
""blur"",""19"",""104547""
","""event"",""trial"",""time""
""focus"",""21"",""109261""
","""event"",""trial"",""time""
""fullscreenenter"",""1"",""3944""
","""event"",""trial"",""time""
""fullscreenexit"",""5"",""8702""
","","","","","","null","<div style=""font-size:60px;"">+</div>","null","","fixation","","",""
"memory-trial","44","219047","0.0-18.0-1.0","7704","approach_avoid_sv1","""event"",""trial"",""time""
""fullscreenenter"",""1"",""3944""
""fullscreenexit"",""5"",""8702""
""blur"",""19"",""104547""
""focus"",""21"",""109261""
","""event"",""trial"",""time""
""blur"",""19"",""104547""
","""event"",""trial"",""time""
""focus"",""21"",""109261""
","""event"",""trial"",""time""
""fullscreenenter"",""1"",""3944""
","""event"",""trial"",""time""
""fullscreenexit"",""5"",""8702""
","","","","","","1221.9000000953674","images/train3.png","","","memory_trial","1","definitely_old",""
"html-keyboard-response","45","219548","0.0-18.0-0.1","7704","approach_avoid_sv1","""event"",""trial"",""time""
""fullscreenenter"",""1"",""3944""
""fullscreenexit"",""5"",""8702""
""blur"",""19"",""104547""
""focus"",""21"",""109261""
","""event"",""trial"",""time""
""blur"",""19"",""104547""
","""event"",""trial"",""time""
""focus"",""21"",""109261""
","""event"",""trial"",""time""
""fullscreenenter"",""1"",""3944""
","""event"",""trial"",""time""
""fullscreenexit"",""5"",""8702""
","","","","","","null","<div style=""font-size:60px;"">+</div>","null","","fixation","","",""
"memory-trial","46","222134","0.0-18.0-1.1","7704","approach_avoid_sv1","""event"",""trial"",""time""
""fullscreenenter"",""1"",""3944""
""fullscreenexit"",""5"",""8702""
""blur"",""19"",""104547""
""focus"",""21"",""109261""
","""event"",""trial"",""time""
""blur"",""19"",""104547""
","""event"",""trial"",""time""
""focus"",""21"",""109261""
","""event"",""trial"",""time""
""fullscreenenter"",""1"",""3944""
","""event"",""trial"",""time""
""fullscreenexit"",""5"",""8702""
","","","","","","1575","images/dog6.png","","","memory_trial","4","definitely_new",""
"html-keyboard-response","47","222651","0.0-18.0-0.2","7704","approach_avoid_sv1","""event"",""trial"",""time""
""fullscreenenter"",""1"",""3944""
""fullscreenexit"",""5"",""8702""
""blur"",""19"",""104547""
""focus"",""21"",""109261""
","""event"",""trial"",""time""
""blur"",""19"",""104547""
","""event"",""trial"",""time""
""focus"",""21"",""109261""
","""event"",""trial"",""time""
""fullscreenenter"",""1"",""3944""
","""event"",""trial"",""time""
""fullscreenexit"",""5"",""8702""
","","","","","","null","<div style=""font-size:60px;"">+</div>","null","","fixation","","",""
"memory-trial","48","224855","0.0-18.0-1.2","7704","approach_avoid_sv1","""event"",""trial"",""time""
""fullscreenenter"",""1"",""3944""
""fullscreenexit"",""5"",""8702""
""blur"",""19"",""104547""
""focus"",""21"",""109261""
","""event"",""trial"",""time""
""blur"",""19"",""104547""
","""event"",""trial"",""time""
""focus"",""21"",""109261""
","""event"",""trial"",""time""
""fullscreenenter"",""1"",""3944""
","""event"",""trial"",""time""
""fullscreenexit"",""5"",""8702""
","","","","","","1201.2999999523163","images/sofa2.png","","","memory_trial","1","definitely_old",""
"html-keyboard-response","49","225356","0.0-18.0-0.3","7704","approach_avoid_sv1","""event"",""trial"",""time""
""fullscreenenter"",""1"",""3944""
""fullscreenexit"",""5"",""8702""
""blur"",""19"",""104547""
""focus"",""21"",""109261""
","""event"",""trial"",""time""
""blur"",""19"",""104547""
","""event"",""trial"",""time""
""focus"",""21"",""109261""
","""event"",""trial"",""time""
""fullscreenenter"",""1"",""3944""
","""event"",""trial"",""time""
""fullscreenexit"",""5"",""8702""
","","","","","","null","<div style=""font-size:60px;"">+</div>","null","","fixation","","",""
"memory-trial","50","229056","0.0-18.0-1.3","7704","approach_avoid_sv1","""event"",""trial"",""time""
""fullscreenenter"",""1"",""3944""
""fullscreenexit"",""5"",""8702""
""blur"",""19"",""104547""
""focus"",""21"",""109261""
","""event"",""trial"",""time""
""blur"",""19"",""104547""
","""event"",""trial"",""time""
""focus"",""21"",""109261""
","""event"",""trial"",""time""
""fullscreenenter"",""1"",""3944""
","""event"",""trial"",""time""
""fullscreenexit"",""5"",""8702""
","","","","","","2697.7000000476837","images/bush3.png","","","memory_trial","3","maybe_new",""
"html-keyboard-response","51","229557","0.0-18.0-0.4","7704","approach_avoid_sv1","""event"",""trial"",""time""
""fullscreenenter"",""1"",""3944""
""fullscreenexit"",""5"",""8702""
""blur"",""19"",""104547""
""focus"",""21"",""109261""
","""event"",""trial"",""time""
""blur"",""19"",""104547""
","""event"",""trial"",""time""
""focus"",""21"",""109261""
","""event"",""trial"",""time""
""fullscreenenter"",""1"",""3944""
","""event"",""trial"",""time""
""fullscreenexit"",""5"",""8702""
","","","","","","null","<div style=""font-size:60px;"">+</div>","null","","fixation","","",""
"memory-trial","52","232409","0.0-18.0-1.4","7704","approach_avoid_sv1","""event"",""trial"",""time""
""fullscreenenter"",""1"",""3944""
""fullscreenexit"",""5"",""8702""
""blur"",""19"",""104547""
""focus"",""21"",""109261""
","""event"",""trial"",""time""
""blur"",""19"",""104547""
","""event"",""trial"",""time""
""focus"",""21"",""109261""
","""event"",""trial"",""time""
""fullscreenenter"",""1"",""3944""
","""event"",""trial"",""time""
""fullscreenexit"",""5"",""8702""
","","","","","","1840","images/dog8.png","","","memory_trial","4","definitely_new",""
"html-keyboard-response","53","232911","0.0-18.0-0.5","7704","approach_avoid_sv1","""event"",""trial"",""time""
""fullscreenenter"",""1"",""3944""
""fullscreenexit"",""5"",""8702""
""blur"",""19"",""104547""
""focus"",""21"",""109261""
","""event"",""trial"",""time""
""blur"",""19"",""104547""
","""event"",""trial"",""time""
""focus"",""21"",""109261""
","""event"",""trial"",""time""
""fullscreenenter"",""1"",""3944""
","""event"",""trial"",""time""
""fullscreenexit"",""5"",""8702""
","","","","","","null","<div style=""font-size:60px;"">+</div>","null","","fixation","","",""
"memory-trial","54","235196","0.0-18.0-1.5","7704","approach_avoid_sv1","""event"",""trial"",""time""
""fullscreenenter"",""1"",""3944""
""fullscreenexit"",""5"",""8702""
""blur"",""19"",""104547""
""focus"",""21"",""109261""
","""event"",""trial"",""time""
""blur"",""19"",""104547""
","""event"",""trial"",""time""
""focus"",""21"",""109261""
","""event"",""trial"",""time""
""fullscreenenter"",""1"",""3944""
","""event"",""trial"",""time""
""fullscreenexit"",""5"",""8702""
","","","","","","1269","images/flower2.png","","","memory_trial","1","definitely_old",""
"html-keyboard-response","55","235707","0.0-18.0-0.6","7704","approach_avoid_sv1","""event"",""trial"",""time""
""fullscreenenter"",""1"",""3944""
""fullscreenexit"",""5"",""8702""
""blur"",""19"",""104547""
""focus"",""21"",""109261""
","""event"",""trial"",""time""
""blur"",""19"",""104547""
","""event"",""trial"",""time""
""focus"",""21"",""109261""
","""event"",""trial"",""time""
""fullscreenenter"",""1"",""3944""
","""event"",""trial"",""time""
""fullscreenexit"",""5"",""8702""
","","","","","","null","<div style=""font-size:60px;"">+</div>","null","","fixation","","",""
"memory-trial","56","237647","0.0-18.0-1.6","7704","approach_avoid_sv1","""event"",""trial"",""time""
""fullscreenenter"",""1"",""3944""
""fullscreenexit"",""5"",""8702""
""blur"",""19"",""104547""
""focus"",""21"",""109261""
","""event"",""trial"",""time""
""blur"",""19"",""104547""
","""event"",""trial"",""time""
""focus"",""21"",""109261""
","""event"",""trial"",""time""
""fullscreenenter"",""1"",""3944""
","""event"",""trial"",""time""
""fullscreenexit"",""5"",""8702""
","","","","","","936.7999999523163","images/tree5.png","","","memory_trial","1","definitely_old",""
"html-keyboard-response","57","238147","0.0-18.0-0.7","7704","approach_avoid_sv1","""event"",""trial"",""time""
""fullscreenenter"",""1"",""3944""
""fullscreenexit"",""5"",""8702""
""blur"",""19"",""104547""
""focus"",""21"",""109261""
","""event"",""trial"",""time""
""blur"",""19"",""104547""
","""event"",""trial"",""time""
""focus"",""21"",""109261""
","""event"",""trial"",""time""
""fullscreenenter"",""1"",""3944""
","""event"",""trial"",""time""
""fullscreenexit"",""5"",""8702""
","","","","","","null","<div style=""font-size:60px;"">+</div>","null","","fixation","","",""
"memory-trial","58","240472","0.0-18.0-1.7","7704","approach_avoid_sv1","""event"",""trial"",""time""
""fullscreenenter"",""1"",""3944""
""fullscreenexit"",""5"",""8702""
""blur"",""19"",""104547""
""focus"",""21"",""109261""
","""event"",""trial"",""time""
""blur"",""19"",""104547""
","""event"",""trial"",""time""
""focus"",""21"",""109261""
","""event"",""trial"",""time""
""fullscreenenter"",""1"",""3944""
","""event"",""trial"",""time""
""fullscreenexit"",""5"",""8702""
","","","","","","1322.9000000953674","images/sofa3.png","","","memory_trial","4","definitely_new",""
"html-keyboard-response","59","240974","0.0-18.0-0.8","7704","approach_avoid_sv1","""event"",""trial"",""time""
""fullscreenenter"",""1"",""3944""
""fullscreenexit"",""5"",""8702""
""blur"",""19"",""104547""
""focus"",""21"",""109261""
","""event"",""trial"",""time""
""blur"",""19"",""104547""
","""event"",""trial"",""time""
""focus"",""21"",""109261""
","""event"",""trial"",""time""
""fullscreenenter"",""1"",""3944""
","""event"",""trial"",""time""
""fullscreenexit"",""5"",""8702""
","","","","","","null","<div style=""font-size:60px;"">+</div>","null","","fixation","","",""
"memory-trial","60","243119","0.0-18.0-1.8","7704","approach_avoid_sv1","""event"",""trial"",""time""
""fullscreenenter"",""1"",""3944""
""fullscreenexit"",""5"",""8702""
""blur"",""19"",""104547""
""focus"",""21"",""109261""
","""event"",""trial"",""time""
""blur"",""19"",""104547""
","""event"",""trial"",""time""
""focus"",""21"",""109261""
","""event"",""trial"",""time""
""fullscreenenter"",""1"",""3944""
","""event"",""trial"",""time""
""fullscreenexit"",""5"",""8702""
","","","","","","1142.4000000953674","images/cat1.png","","","memory_trial","4","definitely_new",""
"html-keyboard-response","61","243620","0.0-18.0-0.9","7704","approach_avoid_sv1","""event"",""trial"",""time""
""fullscreenenter"",""1"",""3944""
""fullscreenexit"",""5"",""8702""
""blur"",""19"",""104547""
""focus"",""21"",""109261""
","""event"",""trial"",""time""
""blur"",""19"",""104547""
","""event"",""trial"",""time""
""focus"",""21"",""109261""
","""event"",""trial"",""time""
""fullscreenenter"",""1"",""3944""
","""event"",""trial"",""time""
""fullscreenexit"",""5"",""8702""
","","","","","","null","<div style=""font-size:60px;"">+</div>","null","","fixation","","",""
"memory-trial","62","246022","0.0-18.0-1.9","7704","approach_avoid_sv1","""event"",""trial"",""time""
""fullscreenenter"",""1"",""3944""
""fullscreenexit"",""5"",""8702""
""blur"",""19"",""104547""
""focus"",""21"",""109261""
","""event"",""trial"",""time""
""blur"",""19"",""104547""
","""event"",""trial"",""time""
""focus"",""21"",""109261""
","""event"",""trial"",""time""
""fullscreenenter"",""1"",""3944""
","""event"",""trial"",""time""
""fullscreenexit"",""5"",""8702""
","","","","","","1399.7000000476837","images/bush6.png","","","memory_trial","1","definitely_old",""
"html-keyboard-response","63","246523","0.0-18.0-0.10","7704","approach_avoid_sv1","""event"",""trial"",""time""
""fullscreenenter"",""1"",""3944""
""fullscreenexit"",""5"",""8702""
""blur"",""19"",""104547""
""focus"",""21"",""109261""
","""event"",""trial"",""time""
""blur"",""19"",""104547""
","""event"",""trial"",""time""
""focus"",""21"",""109261""
","""event"",""trial"",""time""
""fullscreenenter"",""1"",""3944""
","""event"",""trial"",""time""
""fullscreenexit"",""5"",""8702""
","","","","","","null","<div style=""font-size:60px;"">+</div>","null","","fixation","","",""
"memory-trial","64","249247","0.0-18.0-1.10","7704","approach_avoid_sv1","""event"",""trial"",""time""
""fullscreenenter"",""1"",""3944""
""fullscreenexit"",""5"",""8702""
""blur"",""19"",""104547""
""focus"",""21"",""109261""
","""event"",""trial"",""time""
""blur"",""19"",""104547""
","""event"",""trial"",""time""
""focus"",""21"",""109261""
","""event"",""trial"",""time""
""fullscreenenter"",""1"",""3944""
","""event"",""trial"",""time""
""fullscreenexit"",""5"",""8702""
","","","","","","1721.5999999046326","images/apple2.png","","","memory_trial","4","definitely_new",""
"html-keyboard-response","65","249749","0.0-18.0-0.11","7704","approach_avoid_sv1","""event"",""trial"",""time""
""fullscreenenter"",""1"",""3944""
""fullscreenexit"",""5"",""8702""
""blur"",""19"",""104547""
""focus"",""21"",""109261""
","""event"",""trial"",""time""
""blur"",""19"",""104547""
","""event"",""trial"",""time""
""focus"",""21"",""109261""
","""event"",""trial"",""time""
""fullscreenenter"",""1"",""3944""
","""event"",""trial"",""time""
""fullscreenexit"",""5"",""8702""
","","","","","","null","<div style=""font-size:60px;"">+</div>","null","","fixation","","",""
"memory-trial","66","252526","0.0-18.0-1.11","7704","approach_avoid_sv1","""event"",""trial"",""time""
""fullscreenenter"",""1"",""3944""
""fullscreenexit"",""5"",""8702""
""blur"",""19"",""104547""
""focus"",""21"",""109261""
","""event"",""trial"",""time""
""blur"",""19"",""104547""
","""event"",""trial"",""time""
""focus"",""21"",""109261""
","""event"",""trial"",""time""
""fullscreenenter"",""1"",""3944""
","""event"",""trial"",""time""
""fullscreenexit"",""5"",""8702""
","","","","","","1774.1999998092651","images/rabbit6.png","","","memory_trial","1","definitely_old",""
"html-keyboard-response","67","253029","0.0-18.0-0.12","7704","approach_avoid_sv1","""event"",""trial"",""time""
""fullscreenenter"",""1"",""3944""
""fullscreenexit"",""5"",""8702""
""blur"",""19"",""104547""
""focus"",""21"",""109261""
","""event"",""trial"",""time""
""blur"",""19"",""104547""
","""event"",""trial"",""time""
""focus"",""21"",""109261""
","""event"",""trial"",""time""
""fullscreenenter"",""1"",""3944""
","""event"",""trial"",""time""
""fullscreenexit"",""5"",""8702""
","","","","","","null","<div style=""font-size:60px;"">+</div>","null","","fixation","","",""
"memory-trial","68","255335","0.0-18.0-1.12","7704","approach_avoid_sv1","""event"",""trial"",""time""
""fullscreenenter"",""1"",""3944""
""fullscreenexit"",""5"",""8702""
""blur"",""19"",""104547""
""focus"",""21"",""109261""
","""event"",""trial"",""time""
""blur"",""19"",""104547""
","""event"",""trial"",""time""
""focus"",""21"",""109261""
","""event"",""trial"",""time""
""fullscreenenter"",""1"",""3944""
","""event"",""trial"",""time""
""fullscreenexit"",""5"",""8702""
","","","","","","1303.2999999523163","images/flower3.png","","","memory_trial","1","definitely_old",""
"html-keyboard-response","69","255836","0.0-18.0-0.13","7704","approach_avoid_sv1","""event"",""trial"",""time""
""fullscreenenter"",""1"",""3944""
""fullscreenexit"",""5"",""8702""
""blur"",""19"",""104547""
""focus"",""21"",""109261""
","""event"",""trial"",""time""
""blur"",""19"",""104547""
","""event"",""trial"",""time""
""focus"",""21"",""109261""
","""event"",""trial"",""time""
""fullscreenenter"",""1"",""3944""
","""event"",""trial"",""time""
""fullscreenexit"",""5"",""8702""
","","","","","","null","<div style=""font-size:60px;"">+</div>","null","","fixation","","",""
"memory-trial","70","258470","0.0-18.0-1.13","7704","approach_avoid_sv1","""event"",""trial"",""time""
""fullscreenenter"",""1"",""3944""
""fullscreenexit"",""5"",""8702""
""blur"",""19"",""104547""
""focus"",""21"",""109261""
","""event"",""trial"",""time""
""blur"",""19"",""104547""
","""event"",""trial"",""time""
""focus"",""21"",""109261""
","""event"",""trial"",""time""
""fullscreenenter"",""1"",""3944""
","""event"",""trial"",""time""
""fullscreenexit"",""5"",""8702""
","","","","","","1631.9000000953674","images/train1.png","","","memory_trial","1","definitely_old",""
"html-keyboard-response","71","258971","0.0-18.0-0.14","7704","approach_avoid_sv1","""event"",""trial"",""time""
""fullscreenenter"",""1"",""3944""
""fullscreenexit"",""5"",""8702""
""blur"",""19"",""104547""
""focus"",""21"",""109261""
","""event"",""trial"",""time""
""blur"",""19"",""104547""
","""event"",""trial"",""time""
""focus"",""21"",""109261""
","""event"",""trial"",""time""
""fullscreenenter"",""1"",""3944""
","""event"",""trial"",""time""
""fullscreenexit"",""5"",""8702""
","","","","","","null","<div style=""font-size:60px;"">+</div>","null","","fixation","","",""
"memory-trial","72","261894","0.0-18.0-1.14","7704","approach_avoid_sv1","""event"",""trial"",""time""
""fullscreenenter"",""1"",""3944""
""fullscreenexit"",""5"",""8702""
""blur"",""19"",""104547""
""focus"",""21"",""109261""
","""event"",""trial"",""time""
""blur"",""19"",""104547""
","""event"",""trial"",""time""
""focus"",""21"",""109261""
","""event"",""trial"",""time""
""fullscreenenter"",""1"",""3944""
","""event"",""trial"",""time""
""fullscreenexit"",""5"",""8702""
","","","","","","1922.1000001430511","images/flower7.png","","","memory_trial","4","definitely_new",""
"html-keyboard-response","73","262396","0.0-18.0-0.15","7704","approach_avoid_sv1","""event"",""trial"",""time""
""fullscreenenter"",""1"",""3944""
""fullscreenexit"",""5"",""8702""
""blur"",""19"",""104547""
""focus"",""21"",""109261""
","""event"",""trial"",""time""
""blur"",""19"",""104547""
","""event"",""trial"",""time""
""focus"",""21"",""109261""
","""event"",""trial"",""time""
""fullscreenenter"",""1"",""3944""
","""event"",""trial"",""time""
""fullscreenexit"",""5"",""8702""
","","","","","","null","<div style=""font-size:60px;"">+</div>","null","","fixation","","",""
"memory-trial","74","264701","0.0-18.0-1.15","7704","approach_avoid_sv1","""event"",""trial"",""time""
""fullscreenenter"",""1"",""3944""
""fullscreenexit"",""5"",""8702""
""blur"",""19"",""104547""
""focus"",""21"",""109261""
","""event"",""trial"",""time""
""blur"",""19"",""104547""
","""event"",""trial"",""time""
""focus"",""21"",""109261""
","""event"",""trial"",""time""
""fullscreenenter"",""1"",""3944""
","""event"",""trial"",""time""
""fullscreenexit"",""5"",""8702""
","","","","","","1303.9000000953674","images/banana3.png","","","memory_trial","1","definitely_old",""
"html-keyboard-response","75","265203","0.0-18.0-0.16","7704","approach_avoid_sv1","""event"",""trial"",""time""
""fullscreenenter"",""1"",""3944""
""fullscreenexit"",""5"",""8702""
""blur"",""19"",""104547""
""focus"",""21"",""109261""
","""event"",""trial"",""time""
""blur"",""19"",""104547""
","""event"",""trial"",""time""
""focus"",""21"",""109261""
","""event"",""trial"",""time""
""fullscreenenter"",""1"",""3944""
","""event"",""trial"",""time""
""fullscreenexit"",""5"",""8702""
","","","","","","null","<div style=""font-size:60px;"">+</div>","null","","fixation","","",""
"memory-trial","76","269111","0.0-18.0-1.16","7704","approach_avoid_sv1","""event"",""trial"",""time""
""fullscreenenter"",""1"",""3944""
""fullscreenexit"",""5"",""8702""
""blur"",""19"",""104547""
""focus"",""21"",""109261""
","""event"",""trial"",""time""
""blur"",""19"",""104547""
","""event"",""trial"",""time""
""focus"",""21"",""109261""
","""event"",""trial"",""time""
""fullscreenenter"",""1"",""3944""
","""event"",""trial"",""time""
""fullscreenexit"",""5"",""8702""
","","","","","","2905","images/chair8.png","","","memory_trial","3","maybe_new",""
"html-keyboard-response","77","269614","0.0-18.0-0.17","7704","approach_avoid_sv1","""event"",""trial"",""time""
""fullscreenenter"",""1"",""3944""
""fullscreenexit"",""5"",""8702""
""blur"",""19"",""104547""
""focus"",""21"",""109261""
","""event"",""trial"",""time""
""blur"",""19"",""104547""
","""event"",""trial"",""time""
""focus"",""21"",""109261""
","""event"",""trial"",""time""
""fullscreenenter"",""1"",""3944""
","""event"",""trial"",""time""
""fullscreenexit"",""5"",""8702""
","","","","","","null","<div style=""font-size:60px;"">+</div>","null","","fixation","","",""
"memory-trial","78","272022","0.0-18.0-1.17","7704","approach_avoid_sv1","""event"",""trial"",""time""
""fullscreenenter"",""1"",""3944""
""fullscreenexit"",""5"",""8702""
""blur"",""19"",""104547""
""focus"",""21"",""109261""
","""event"",""trial"",""time""
""blur"",""19"",""104547""
","""event"",""trial"",""time""
""focus"",""21"",""109261""
","""event"",""trial"",""time""
""fullscreenenter"",""1"",""3944""
","""event"",""trial"",""time""
""fullscreenexit"",""5"",""8702""
","","","","","","1405.5","images/goat6.png","","","memory_trial","1","definitely_old",""
"html-keyboard-response","79","272523","0.0-18.0-0.18","7704","approach_avoid_sv1","""event"",""trial"",""time""
""fullscreenenter"",""1"",""3944""
""fullscreenexit"",""5"",""8702""
""blur"",""19"",""104547""
""focus"",""21"",""109261""
","""event"",""trial"",""time""
""blur"",""19"",""104547""
","""event"",""trial"",""time""
""focus"",""21"",""109261""
","""event"",""trial"",""time""
""fullscreenenter"",""1"",""3944""
","""event"",""trial"",""time""
""fullscreenexit"",""5"",""8702""
","","","","","","null","<div style=""font-size:60px;"">+</div>","null","","fixation","","",""
"memory-trial","80","274646","0.0-18.0-1.18","7704","approach_avoid_sv1","""event"",""trial"",""time""
""fullscreenenter"",""1"",""3944""
""fullscreenexit"",""5"",""8702""
""blur"",""19"",""104547""
""focus"",""21"",""109261""
","""event"",""trial"",""time""
""blur"",""19"",""104547""
","""event"",""trial"",""time""
""focus"",""21"",""109261""
","""event"",""trial"",""time""
""fullscreenenter"",""1"",""3944""
","""event"",""trial"",""time""
""fullscreenexit"",""5"",""8702""
","","","","","","1121.2999999523163","images/goat5.png","","","memory_trial","1","definitely_old",""
"html-keyboard-response","81","275147","0.0-18.0-0.19","7704","approach_avoid_sv1","""event"",""trial"",""time""
""fullscreenenter"",""1"",""3944""
""fullscreenexit"",""5"",""8702""
""blur"",""19"",""104547""
""focus"",""21"",""109261""
","""event"",""trial"",""time""
""blur"",""19"",""104547""
","""event"",""trial"",""time""
""focus"",""21"",""109261""
","""event"",""trial"",""time""
""fullscreenenter"",""1"",""3944""
","""event"",""trial"",""time""
""fullscreenexit"",""5"",""8702""
","","","","","","null","<div style=""font-size:60px;"">+</div>","null","","fixation","","",""
"memory-trial","82","278792","0.0-18.0-1.19","7704","approach_avoid_sv1","""event"",""trial"",""time""
""fullscreenenter"",""1"",""3944""
""fullscreenexit"",""5"",""8702""
""blur"",""19"",""104547""
""focus"",""21"",""109261""
","""event"",""trial"",""time""
""blur"",""19"",""104547""
","""event"",""trial"",""time""
""focus"",""21"",""109261""
","""event"",""trial"",""time""
""fullscreenenter"",""1"",""3944""
","""event"",""trial"",""time""
""fullscreenexit"",""5"",""8702""
","","","","","","2641.9000000953674","images/horse7.png","","","memory_trial","3","maybe_new",""
"html-keyboard-response","83","279293","0.0-18.0-0.20","7704","approach_avoid_sv1","""event"",""trial"",""time""
""fullscreenenter"",""1"",""3944""
""fullscreenexit"",""5"",""8702""
""blur"",""19"",""104547""
""focus"",""21"",""109261""
","""event"",""trial"",""time""
""blur"",""19"",""104547""
","""event"",""trial"",""time""
""focus"",""21"",""109261""
","""event"",""trial"",""time""
""fullscreenenter"",""1"",""3944""
","""event"",""trial"",""time""
""fullscreenexit"",""5"",""8702""
","","","","","","null","<div style=""font-size:60px;"">+</div>","null","","fixation","","",""
"memory-trial","84","281496","0.0-18.0-1.20","7704","approach_avoid_sv1","""event"",""trial"",""time""
""fullscreenenter"",""1"",""3944""
""fullscreenexit"",""5"",""8702""
""blur"",""19"",""104547""
""focus"",""21"",""109261""
","""event"",""trial"",""time""
""blur"",""19"",""104547""
","""event"",""trial"",""time""
""focus"",""21"",""109261""
","""event"",""trial"",""time""
""fullscreenenter"",""1"",""3944""
","""event"",""trial"",""time""
""fullscreenexit"",""5"",""8702""
","","","","","","1199.5","images/tree7.png","","","memory_trial","1","definitely_old",""
"html-keyboard-response","85","281997","0.0-18.0-0.21","7704","approach_avoid_sv1","""event"",""trial"",""time""
""fullscreenenter"",""1"",""3944""
""fullscreenexit"",""5"",""8702""
""blur"",""19"",""104547""
""focus"",""21"",""109261""
","""event"",""trial"",""time""
""blur"",""19"",""104547""
","""event"",""trial"",""time""
""focus"",""21"",""109261""
","""event"",""trial"",""time""
""fullscreenenter"",""1"",""3944""
","""event"",""trial"",""time""
""fullscreenexit"",""5"",""8702""
","","","","","","null","<div style=""font-size:60px;"">+</div>","null","","fixation","","",""
"memory-trial","86","283990","0.0-18.0-1.21","7704","approach_avoid_sv1","""event"",""trial"",""time""
""fullscreenenter"",""1"",""3944""
""fullscreenexit"",""5"",""8702""
""blur"",""19"",""104547""
""focus"",""21"",""109261""
","""event"",""trial"",""time""
""blur"",""19"",""104547""
","""event"",""trial"",""time""
""focus"",""21"",""109261""
","""event"",""trial"",""time""
""fullscreenenter"",""1"",""3944""
","""event"",""trial"",""time""
""fullscreenexit"",""5"",""8702""
","","","","","","990.2999999523163","images/bush1.png","","","memory_trial","1","definitely_old",""
"html-keyboard-response","87","284491","0.0-18.0-0.22","7704","approach_avoid_sv1","""event"",""trial"",""time""
""fullscreenenter"",""1"",""3944""
""fullscreenexit"",""5"",""8702""
""blur"",""19"",""104547""
""focus"",""21"",""109261""
","""event"",""trial"",""time""
""blur"",""19"",""104547""
","""event"",""trial"",""time""
""focus"",""21"",""109261""
","""event"",""trial"",""time""
""fullscreenenter"",""1"",""3944""
","""event"",""trial"",""time""
""fullscreenexit"",""5"",""8702""
","","","","","","null","<div style=""font-size:60px;"">+</div>","null","","fixation","","",""
"memory-trial","88","287166","0.0-18.0-1.22","7704","approach_avoid_sv1","""event"",""trial"",""time""
""fullscreenenter"",""1"",""3944""
""fullscreenexit"",""5"",""8702""
""blur"",""19"",""104547""
""focus"",""21"",""109261""
","""event"",""trial"",""time""
""blur"",""19"",""104547""
","""event"",""trial"",""time""
""focus"",""21"",""109261""
","""event"",""trial"",""time""
""fullscreenenter"",""1"",""3944""
","""event"",""trial"",""time""
""fullscreenexit"",""5"",""8702""
","","","","","","1672.5","images/apple6.png","","","memory_trial","4","definitely_new",""
"html-keyboard-response","89","287667","0.0-18.0-0.23","7704","approach_avoid_sv1","""event"",""trial"",""time""
""fullscreenenter"",""1"",""3944""
""fullscreenexit"",""5"",""8702""
""blur"",""19"",""104547""
""focus"",""21"",""109261""
","""event"",""trial"",""time""
""blur"",""19"",""104547""
","""event"",""trial"",""time""
""focus"",""21"",""109261""
","""event"",""trial"",""time""
""fullscreenenter"",""1"",""3944""
","""event"",""trial"",""time""
""fullscreenexit"",""5"",""8702""
","","","","","","null","<div style=""font-size:60px;"">+</div>","null","","fixation","","",""
"memory-trial","90","289918","0.0-18.0-1.23","7704","approach_avoid_sv1","""event"",""trial"",""time""
""fullscreenenter"",""1"",""3944""
""fullscreenexit"",""5"",""8702""
""blur"",""19"",""104547""
""focus"",""21"",""109261""
","""event"",""trial"",""time""
""blur"",""19"",""104547""
","""event"",""trial"",""time""
""focus"",""21"",""109261""
","""event"",""trial"",""time""
""fullscreenenter"",""1"",""3944""
","""event"",""trial"",""time""
""fullscreenexit"",""5"",""8702""
","","","","","","1249.3000001907349","images/rodent4.png","","","memory_trial","1","definitely_old",""
"html-keyboard-response","91","290420","0.0-18.0-0.24","7704","approach_avoid_sv1","""event"",""trial"",""time""
""fullscreenenter"",""1"",""3944""
""fullscreenexit"",""5"",""8702""
""blur"",""19"",""104547""
""focus"",""21"",""109261""
","""event"",""trial"",""time""
""blur"",""19"",""104547""
","""event"",""trial"",""time""
""focus"",""21"",""109261""
","""event"",""trial"",""time""
""fullscreenenter"",""1"",""3944""
","""event"",""trial"",""time""
""fullscreenexit"",""5"",""8702""
","","","","","","null","<div style=""font-size:60px;"">+</div>","null","","fixation","","",""
"memory-trial","92","292254","0.0-18.0-1.24","7704","approach_avoid_sv1","""event"",""trial"",""time""
""fullscreenenter"",""1"",""3944""
""fullscreenexit"",""5"",""8702""
""blur"",""19"",""104547""
""focus"",""21"",""109261""
","""event"",""trial"",""time""
""blur"",""19"",""104547""
","""event"",""trial"",""time""
""focus"",""21"",""109261""
","""event"",""trial"",""time""
""fullscreenenter"",""1"",""3944""
","""event"",""trial"",""time""
""fullscreenexit"",""5"",""8702""
","","","","","","832.7999999523163","images/boat4.png","","","memory_trial","1","definitely_old",""
"html-keyboard-response","93","292755","0.0-18.0-0.25","7704","approach_avoid_sv1","""event"",""trial"",""time""
""fullscreenenter"",""1"",""3944""
""fullscreenexit"",""5"",""8702""
""blur"",""19"",""104547""
""focus"",""21"",""109261""
","""event"",""trial"",""time""
""blur"",""19"",""104547""
","""event"",""trial"",""time""
""focus"",""21"",""109261""
","""event"",""trial"",""time""
""fullscreenenter"",""1"",""3944""
","""event"",""trial"",""time""
""fullscreenexit"",""5"",""8702""
","","","","","","null","<div style=""font-size:60px;"">+</div>","null","","fixation","","",""
"memory-trial","94","295135","0.0-18.0-1.25","7704","approach_avoid_sv1","""event"",""trial"",""time""
""fullscreenenter"",""1"",""3944""
""fullscreenexit"",""5"",""8702""
""blur"",""19"",""104547""
""focus"",""21"",""109261""
","""event"",""trial"",""time""
""blur"",""19"",""104547""
","""event"",""trial"",""time""
""focus"",""21"",""109261""
","""event"",""trial"",""time""
""fullscreenenter"",""1"",""3944""
","""event"",""trial"",""time""
""fullscreenexit"",""5"",""8702""
","","","","","","1377.4000000953674","images/banana8.png","","","memory_trial","1","definitely_old",""
"html-keyboard-response","95","295636","0.0-18.0-0.26","7704","approach_avoid_sv1","""event"",""trial"",""time""
""fullscreenenter"",""1"",""3944""
""fullscreenexit"",""5"",""8702""
""blur"",""19"",""104547""
""focus"",""21"",""109261""
","""event"",""trial"",""time""
""blur"",""19"",""104547""
","""event"",""trial"",""time""
""focus"",""21"",""109261""
","""event"",""trial"",""time""
""fullscreenenter"",""1"",""3944""
","""event"",""trial"",""time""
""fullscreenexit"",""5"",""8702""
","","","","","","null","<div style=""font-size:60px;"">+</div>","null","","fixation","","",""
"memory-trial","96","297774","0.0-18.0-1.26","7704","approach_avoid_sv1","""event"",""trial"",""time""
""fullscreenenter"",""1"",""3944""
""fullscreenexit"",""5"",""8702""
""blur"",""19"",""104547""
""focus"",""21"",""109261""
","""event"",""trial"",""time""
""blur"",""19"",""104547""
","""event"",""trial"",""time""
""focus"",""21"",""109261""
","""event"",""trial"",""time""
""fullscreenenter"",""1"",""3944""
","""event"",""trial"",""time""
""fullscreenexit"",""5"",""8702""
","","","","","","1135.2999999523163","images/cactus5.png","","","memory_trial","4","definitely_new",""
"html-keyboard-response","97","298276","0.0-18.0-0.27","7704","approach_avoid_sv1","""event"",""trial"",""time""
""fullscreenenter"",""1"",""3944""
""fullscreenexit"",""5"",""8702""
""blur"",""19"",""104547""
""focus"",""21"",""109261""
","""event"",""trial"",""time""
""blur"",""19"",""104547""
","""event"",""trial"",""time""
""focus"",""21"",""109261""
","""event"",""trial"",""time""
""fullscreenenter"",""1"",""3944""
","""event"",""trial"",""time""
""fullscreenexit"",""5"",""8702""
","","","","","","null","<div style=""font-size:60px;"">+</div>","null","","fixation","","",""
"memory-trial","98","300361","0.0-18.0-1.27","7704","approach_avoid_sv1","""event"",""trial"",""time""
""fullscreenenter"",""1"",""3944""
""fullscreenexit"",""5"",""8702""
""blur"",""19"",""104547""
""focus"",""21"",""109261""
","""event"",""trial"",""time""
""blur"",""19"",""104547""
","""event"",""trial"",""time""
""focus"",""21"",""109261""
","""event"",""trial"",""time""
""fullscreenenter"",""1"",""3944""
","""event"",""trial"",""time""
""fullscreenexit"",""5"",""8702""
","","","","","","1081.5999999046326","images/bed7.png","","","memory_trial","1","definitely_old",""
"html-keyboard-response","99","300862","0.0-18.0-0.28","7704","approach_avoid_sv1","""event"",""trial"",""time""
""fullscreenenter"",""1"",""3944""
""fullscreenexit"",""5"",""8702""
""blur"",""19"",""104547""
""focus"",""21"",""109261""
","""event"",""trial"",""time""
""blur"",""19"",""104547""
","""event"",""trial"",""time""
""focus"",""21"",""109261""
","""event"",""trial"",""time""
""fullscreenenter"",""1"",""3944""
","""event"",""trial"",""time""
""fullscreenexit"",""5"",""8702""
","","","","","","null","<div style=""font-size:60px;"">+</div>","null","","fixation","","",""
"memory-trial","100","303088","0.0-18.0-1.28","7704","approach_avoid_sv1","""event"",""trial"",""time""
""fullscreenenter"",""1"",""3944""
""fullscreenexit"",""5"",""8702""
""blur"",""19"",""104547""
""focus"",""21"",""109261""
","""event"",""trial"",""time""
""blur"",""19"",""104547""
","""event"",""trial"",""time""
""focus"",""21"",""109261""
","""event"",""trial"",""time""
""fullscreenenter"",""1"",""3944""
","""event"",""trial"",""time""
""fullscreenexit"",""5"",""8702""
","","","","","","1222.7000000476837","images/rabbit8.png","","","memory_trial","4","definitely_new",""
"html-keyboard-response","101","303589","0.0-18.0-0.29","7704","approach_avoid_sv1","""event"",""trial"",""time""
""fullscreenenter"",""1"",""3944""
""fullscreenexit"",""5"",""8702""
""blur"",""19"",""104547""
""focus"",""21"",""109261""
","""event"",""trial"",""time""
""blur"",""19"",""104547""
","""event"",""trial"",""time""
""focus"",""21"",""109261""
","""event"",""trial"",""time""
""fullscreenenter"",""1"",""3944""
","""event"",""trial"",""time""
""fullscreenexit"",""5"",""8702""
","","","","","","null","<div style=""font-size:60px;"">+</div>","null","","fixation","","",""
"memory-trial","102","305551","0.0-18.0-1.29","7704","approach_avoid_sv1","""event"",""trial"",""time""
""fullscreenenter"",""1"",""3944""
""fullscreenexit"",""5"",""8702""
""blur"",""19"",""104547""
""focus"",""21"",""109261""
","""event"",""trial"",""time""
""blur"",""19"",""104547""
","""event"",""trial"",""time""
""focus"",""21"",""109261""
","""event"",""trial"",""time""
""fullscreenenter"",""1"",""3944""
","""event"",""trial"",""time""
""fullscreenexit"",""5"",""8702""
","","","","","","959.0999999046326","images/rodent6.png","","","memory_trial","1","definitely_old",""
"html-keyboard-response","103","306052","0.0-18.0-0.30","7704","approach_avoid_sv1","""event"",""trial"",""time""
""fullscreenenter"",""1"",""3944""
""fullscreenexit"",""5"",""8702""
""blur"",""19"",""104547""
""focus"",""21"",""109261""
","""event"",""trial"",""time""
""blur"",""19"",""104547""
","""event"",""trial"",""time""
""focus"",""21"",""109261""
","""event"",""trial"",""time""
""fullscreenenter"",""1"",""3944""
","""event"",""trial"",""time""
""fullscreenexit"",""5"",""8702""
","","","","","","null","<div style=""font-size:60px;"">+</div>","null","","fixation","","",""
"memory-trial","104","308558","0.0-18.0-1.30","7704","approach_avoid_sv1","""event"",""trial"",""time""
""fullscreenenter"",""1"",""3944""
""fullscreenexit"",""5"",""8702""
""blur"",""19"",""104547""
""focus"",""21"",""109261""
","""event"",""trial"",""time""
""blur"",""19"",""104547""
","""event"",""trial"",""time""
""focus"",""21"",""109261""
","""event"",""trial"",""time""
""fullscreenenter"",""1"",""3944""
","""event"",""trial"",""time""
""fullscreenexit"",""5"",""8702""
","","","","","","1504","images/table5.png","","","memory_trial","4","definitely_new",""
"html-keyboard-response","105","309059","0.0-18.0-0.31","7704","approach_avoid_sv1","""event"",""trial"",""time""
""fullscreenenter"",""1"",""3944""
""fullscreenexit"",""5"",""8702""
""blur"",""19"",""104547""
""focus"",""21"",""109261""
","""event"",""trial"",""time""
""blur"",""19"",""104547""
","""event"",""trial"",""time""
""focus"",""21"",""109261""
","""event"",""trial"",""time""
""fullscreenenter"",""1"",""3944""
","""event"",""trial"",""time""
""fullscreenexit"",""5"",""8702""
","","","","","","null","<div style=""font-size:60px;"">+</div>","null","","fixation","","",""
"memory-trial","106","311934","0.0-18.0-1.31","7704","approach_avoid_sv1","""event"",""trial"",""time""
""fullscreenenter"",""1"",""3944""
""fullscreenexit"",""5"",""8702""
""blur"",""19"",""104547""
""focus"",""21"",""109261""
","""event"",""trial"",""time""
""blur"",""19"",""104547""
","""event"",""trial"",""time""
""focus"",""21"",""109261""
","""event"",""trial"",""time""
""fullscreenenter"",""1"",""3944""
","""event"",""trial"",""time""
""fullscreenexit"",""5"",""8702""
","","","","","","1873","images/bed3.png","","","memory_trial","4","definitely_new",""
"html-keyboard-response","107","312435","0.0-18.0-0.32","7704","approach_avoid_sv1","""event"",""trial"",""time""
""fullscreenenter"",""1"",""3944""
""fullscreenexit"",""5"",""8702""
""blur"",""19"",""104547""
""focus"",""21"",""109261""
","""event"",""trial"",""time""
""blur"",""19"",""104547""
","""event"",""trial"",""time""
""focus"",""21"",""109261""
","""event"",""trial"",""time""
""fullscreenenter"",""1"",""3944""
","""event"",""trial"",""time""
""fullscreenexit"",""5"",""8702""
","","","","","","null","<div style=""font-size:60px;"">+</div>","null","","fixation","","",""
"memory-trial","108","314534","0.0-18.0-1.32","7704","approach_avoid_sv1","""event"",""trial"",""time""
""fullscreenenter"",""1"",""3944""
""fullscreenexit"",""5"",""8702""
""blur"",""19"",""104547""
""focus"",""21"",""109261""
","""event"",""trial"",""time""
""blur"",""19"",""104547""
","""event"",""trial"",""time""
""focus"",""21"",""109261""
","""event"",""trial"",""time""
""fullscreenenter"",""1"",""3944""
","""event"",""trial"",""time""
""fullscreenexit"",""5"",""8702""
","","","","","","1096.7000000476837","images/straw1.png","","","memory_trial","1","definitely_old",""
"html-keyboard-response","109","315035","0.0-18.0-0.33","7704","approach_avoid_sv1","""event"",""trial"",""time""
""fullscreenenter"",""1"",""3944""
""fullscreenexit"",""5"",""8702""
""blur"",""19"",""104547""
""focus"",""21"",""109261""
","""event"",""trial"",""time""
""blur"",""19"",""104547""
","""event"",""trial"",""time""
""focus"",""21"",""109261""
","""event"",""trial"",""time""
""fullscreenenter"",""1"",""3944""
","""event"",""trial"",""time""
""fullscreenexit"",""5"",""8702""
","","","","","","null","<div style=""font-size:60px;"">+</div>","null","","fixation","","",""
"memory-trial","110","317262","0.0-18.0-1.33","7704","approach_avoid_sv1","""event"",""trial"",""time""
""fullscreenenter"",""1"",""3944""
""fullscreenexit"",""5"",""8702""
""blur"",""19"",""104547""
""focus"",""21"",""109261""
","""event"",""trial"",""time""
""blur"",""19"",""104547""
","""event"",""trial"",""time""
""focus"",""21"",""109261""
","""event"",""trial"",""time""
""fullscreenenter"",""1"",""3944""
","""event"",""trial"",""time""
""fullscreenexit"",""5"",""8702""
","","","","","","1225","images/chair6.png","","","memory_trial","4","definitely_new",""
"html-keyboard-response","111","317763","0.0-18.0-0.34","7704","approach_avoid_sv1","""event"",""trial"",""time""
""fullscreenenter"",""1"",""3944""
""fullscreenexit"",""5"",""8702""
""blur"",""19"",""104547""
""focus"",""21"",""109261""
","""event"",""trial"",""time""
""blur"",""19"",""104547""
","""event"",""trial"",""time""
""focus"",""21"",""109261""
","""event"",""trial"",""time""
""fullscreenenter"",""1"",""3944""
","""event"",""trial"",""time""
""fullscreenexit"",""5"",""8702""
","","","","","","null","<div style=""font-size:60px;"">+</div>","null","","fixation","","",""
"memory-trial","112","321414","0.0-18.0-1.34","7704","approach_avoid_sv1","""event"",""trial"",""time""
""fullscreenenter"",""1"",""3944""
""fullscreenexit"",""5"",""8702""
""blur"",""19"",""104547""
""focus"",""21"",""109261""
","""event"",""trial"",""time""
""blur"",""19"",""104547""
","""event"",""trial"",""time""
""focus"",""21"",""109261""
","""event"",""trial"",""time""
""fullscreenenter"",""1"",""3944""
","""event"",""trial"",""time""
""fullscreenexit"",""5"",""8702""
","","","","","","2649","images/table8.png","","","memory_trial","2","maybe_old",""
"html-keyboard-response","113","321915","0.0-18.0-0.35","7704","approach_avoid_sv1","""event"",""trial"",""time""
""fullscreenenter"",""1"",""3944""
""fullscreenexit"",""5"",""8702""
""blur"",""19"",""104547""
""focus"",""21"",""109261""
","""event"",""trial"",""time""
""blur"",""19"",""104547""
","""event"",""trial"",""time""
""focus"",""21"",""109261""
","""event"",""trial"",""time""
""fullscreenenter"",""1"",""3944""
","""event"",""trial"",""time""
""fullscreenexit"",""5"",""8702""
","","","","","","null","<div style=""font-size:60px;"">+</div>","null","","fixation","","",""
"memory-trial","114","324735","0.0-18.0-1.35","7704","approach_avoid_sv1","""event"",""trial"",""time""
""fullscreenenter"",""1"",""3944""
""fullscreenexit"",""5"",""8702""
""blur"",""19"",""104547""
""focus"",""21"",""109261""
","""event"",""trial"",""time""
""blur"",""19"",""104547""
","""event"",""trial"",""time""
""focus"",""21"",""109261""
","""event"",""trial"",""time""
""fullscreenenter"",""1"",""3944""
","""event"",""trial"",""time""
""fullscreenexit"",""5"",""8702""
","","","","","","1817.5","images/straw7.png","","","memory_trial","4","definitely_new",""
"html-keyboard-response","115","325236","0.0-18.0-0.36","7704","approach_avoid_sv1","""event"",""trial"",""time""
""fullscreenenter"",""1"",""3944""
""fullscreenexit"",""5"",""8702""
""blur"",""19"",""104547""
""focus"",""21"",""109261""
","""event"",""trial"",""time""
""blur"",""19"",""104547""
","""event"",""trial"",""time""
""focus"",""21"",""109261""
","""event"",""trial"",""time""
""fullscreenenter"",""1"",""3944""
","""event"",""trial"",""time""
""fullscreenexit"",""5"",""8702""
","","","","","","null","<div style=""font-size:60px;"">+</div>","null","","fixation","","",""
"memory-trial","116","327702","0.0-18.0-1.36","7704","approach_avoid_sv1","""event"",""trial"",""time""
""fullscreenenter"",""1"",""3944""
""fullscreenexit"",""5"",""8702""
""blur"",""19"",""104547""
""focus"",""21"",""109261""
","""event"",""trial"",""time""
""blur"",""19"",""104547""
","""event"",""trial"",""time""
""focus"",""21"",""109261""
","""event"",""trial"",""time""
""fullscreenenter"",""1"",""3944""
","""event"",""trial"",""time""
""fullscreenexit"",""5"",""8702""
","","","","","","1463.5","images/dog2.png","","","memory_trial","4","definitely_new",""
"html-keyboard-response","117","328204","0.0-18.0-0.37","7704","approach_avoid_sv1","""event"",""trial"",""time""
""fullscreenenter"",""1"",""3944""
""fullscreenexit"",""5"",""8702""
""blur"",""19"",""104547""
""focus"",""21"",""109261""
","""event"",""trial"",""time""
""blur"",""19"",""104547""
","""event"",""trial"",""time""
""focus"",""21"",""109261""
","""event"",""trial"",""time""
""fullscreenenter"",""1"",""3944""
","""event"",""trial"",""time""
""fullscreenexit"",""5"",""8702""
","","","","","","null","<div style=""font-size:60px;"">+</div>","null","","fixation","","",""
"memory-trial","118","330471","0.0-18.0-1.37","7704","approach_avoid_sv1","""event"",""trial"",""time""
""fullscreenenter"",""1"",""3944""
""fullscreenexit"",""5"",""8702""
""blur"",""19"",""104547""
""focus"",""21"",""109261""
","""event"",""trial"",""time""
""blur"",""19"",""104547""
","""event"",""trial"",""time""
""focus"",""21"",""109261""
","""event"",""trial"",""time""
""fullscreenenter"",""1"",""3944""
","""event"",""trial"",""time""
""fullscreenexit"",""5"",""8702""
","","","","","","1264.2000000476837","images/straw2.png","","","memory_trial","1","definitely_old",""
"html-keyboard-response","119","330972","0.0-18.0-0.38","7704","approach_avoid_sv1","""event"",""trial"",""time""
""fullscreenenter"",""1"",""3944""
""fullscreenexit"",""5"",""8702""
""blur"",""19"",""104547""
""focus"",""21"",""109261""
","""event"",""trial"",""time""
""blur"",""19"",""104547""
","""event"",""trial"",""time""
""focus"",""21"",""109261""
","""event"",""trial"",""time""
""fullscreenenter"",""1"",""3944""
","""event"",""trial"",""time""
""fullscreenexit"",""5"",""8702""
","","","","","","null","<div style=""font-size:60px;"">+</div>","null","","fixation","","",""
"memory-trial","120","333182","0.0-18.0-1.38","7704","approach_avoid_sv1","""event"",""trial"",""time""
""fullscreenenter"",""1"",""3944""
""fullscreenexit"",""5"",""8702""
""blur"",""19"",""104547""
""focus"",""21"",""109261""
","""event"",""trial"",""time""
""blur"",""19"",""104547""
","""event"",""trial"",""time""
""focus"",""21"",""109261""
","""event"",""trial"",""time""
""fullscreenenter"",""1"",""3944""
","""event"",""trial"",""time""
""fullscreenexit"",""5"",""8702""
","","","","","","1207.7999999523163","images/cactus2.png","","","memory_trial","4","definitely_new",""
"html-keyboard-response","121","333683","0.0-18.0-0.39","7704","approach_avoid_sv1","""event"",""trial"",""time""
""fullscreenenter"",""1"",""3944""
""fullscreenexit"",""5"",""8702""
""blur"",""19"",""104547""
""focus"",""21"",""109261""
","""event"",""trial"",""time""
""blur"",""19"",""104547""
","""event"",""trial"",""time""
""focus"",""21"",""109261""
","""event"",""trial"",""time""
""fullscreenenter"",""1"",""3944""
","""event"",""trial"",""time""
""fullscreenexit"",""5"",""8702""
","","","","","","null","<div style=""font-size:60px;"">+</div>","null","","fixation","","",""
"memory-trial","122","335894","0.0-18.0-1.39","7704","approach_avoid_sv1","""event"",""trial"",""time""
""fullscreenenter"",""1"",""3944""
""fullscreenexit"",""5"",""8702""
""blur"",""19"",""104547""
""focus"",""21"",""109261""
","""event"",""trial"",""time""
""blur"",""19"",""104547""
","""event"",""trial"",""time""
""focus"",""21"",""109261""
","""event"",""trial"",""time""
""fullscreenenter"",""1"",""3944""
","""event"",""trial"",""time""
""fullscreenexit"",""5"",""8702""
","","","","","","1209.6999998092651","images/rodent7.png","","","memory_trial","4","definitely_new",""
"html-keyboard-response","123","336395","0.0-18.0-0.40","7704","approach_avoid_sv1","""event"",""trial"",""time""
""fullscreenenter"",""1"",""3944""
""fullscreenexit"",""5"",""8702""
""blur"",""19"",""104547""
""focus"",""21"",""109261""
","""event"",""trial"",""time""
""blur"",""19"",""104547""
","""event"",""trial"",""time""
""focus"",""21"",""109261""
","""event"",""trial"",""time""
""fullscreenenter"",""1"",""3944""
","""event"",""trial"",""time""
""fullscreenexit"",""5"",""8702""
","","","","","","null","<div style=""font-size:60px;"">+</div>","null","","fixation","","",""
"memory-trial","124","339798","0.0-18.0-1.40","7704","approach_avoid_sv1","""event"",""trial"",""time""
""fullscreenenter"",""1"",""3944""
""fullscreenexit"",""5"",""8702""
""blur"",""19"",""104547""
""focus"",""21"",""109261""
","""event"",""trial"",""time""
""blur"",""19"",""104547""
","""event"",""trial"",""time""
""focus"",""21"",""109261""
","""event"",""trial"",""time""
""fullscreenenter"",""1"",""3944""
","""event"",""trial"",""time""
""fullscreenexit"",""5"",""8702""
","","","","","","2400.5999999046326","images/straw4.png","","","memory_trial","3","maybe_new",""
"html-keyboard-response","125","340300","0.0-18.0-0.41","7704","approach_avoid_sv1","""event"",""trial"",""time""
""fullscreenenter"",""1"",""3944""
""fullscreenexit"",""5"",""8702""
""blur"",""19"",""104547""
""focus"",""21"",""109261""
","""event"",""trial"",""time""
""blur"",""19"",""104547""
","""event"",""trial"",""time""
""focus"",""21"",""109261""
","""event"",""trial"",""time""
""fullscreenenter"",""1"",""3944""
","""event"",""trial"",""time""
""fullscreenexit"",""5"",""8702""
","","","","","","null","<div style=""font-size:60px;"">+</div>","null","","fixation","","",""
"memory-trial","126","343502","0.0-18.0-1.41","7704","approach_avoid_sv1","""event"",""trial"",""time""
""fullscreenenter"",""1"",""3944""
""fullscreenexit"",""5"",""8702""
""blur"",""19"",""104547""
""focus"",""21"",""109261""
","""event"",""trial"",""time""
""blur"",""19"",""104547""
","""event"",""trial"",""time""
""focus"",""21"",""109261""
","""event"",""trial"",""time""
""fullscreenenter"",""1"",""3944""
","""event"",""trial"",""time""
""fullscreenexit"",""5"",""8702""
","","","","","","2201.0999999046326","images/sheep6.png","","","memory_trial","3","maybe_new",""
"html-button-response","127","345470","0.0-18.0-2.41-0.41","7704","approach_avoid_sv1","""event"",""trial"",""time""
""fullscreenenter"",""1"",""3944""
""fullscreenexit"",""5"",""8702""
""blur"",""19"",""104547""
""focus"",""21"",""109261""
","""event"",""trial"",""time""
""blur"",""19"",""104547""
","""event"",""trial"",""time""
""focus"",""21"",""109261""
","""event"",""trial"",""time""
""fullscreenenter"",""1"",""3944""
","""event"",""trial"",""time""
""fullscreenexit"",""5"",""8702""
","","","","","","1966.3000001907349","<p> Take a break! </p><p> Click the button to continue. </p>","0","","break","","",""
"html-keyboard-response","128","345971","0.0-18.0-0.42","7704","approach_avoid_sv1","""event"",""trial"",""time""
""fullscreenenter"",""1"",""3944""
""fullscreenexit"",""5"",""8702""
""blur"",""19"",""104547""
""focus"",""21"",""109261""
","""event"",""trial"",""time""
""blur"",""19"",""104547""
","""event"",""trial"",""time""
""focus"",""21"",""109261""
","""event"",""trial"",""time""
""fullscreenenter"",""1"",""3944""
","""event"",""trial"",""time""
""fullscreenexit"",""5"",""8702""
","","","","","","null","<div style=""font-size:60px;"">+</div>","null","","fixation","","",""
"memory-trial","129","349007","0.0-18.0-1.42","7704","approach_avoid_sv1","""event"",""trial"",""time""
""fullscreenenter"",""1"",""3944""
""fullscreenexit"",""5"",""8702""
""blur"",""19"",""104547""
""focus"",""21"",""109261""
","""event"",""trial"",""time""
""blur"",""19"",""104547""
","""event"",""trial"",""time""
""focus"",""21"",""109261""
","""event"",""trial"",""time""
""fullscreenenter"",""1"",""3944""
","""event"",""trial"",""time""
""fullscreenexit"",""5"",""8702""
","","","","","","2033.2000000476837","images/chair2.png","","","memory_trial","4","definitely_new",""
"html-keyboard-response","130","349509","0.0-18.0-0.43","7704","approach_avoid_sv1","""event"",""trial"",""time""
""fullscreenenter"",""1"",""3944""
""fullscreenexit"",""5"",""8702""
""blur"",""19"",""104547""
""focus"",""21"",""109261""
","""event"",""trial"",""time""
""blur"",""19"",""104547""
","""event"",""trial"",""time""
""focus"",""21"",""109261""
","""event"",""trial"",""time""
""fullscreenenter"",""1"",""3944""
","""event"",""trial"",""time""
""fullscreenexit"",""5"",""8702""
","","","","","","null","<div style=""font-size:60px;"">+</div>","null","","fixation","","",""
"memory-trial","131","352768","0.0-18.0-1.43","7704","approach_avoid_sv1","""event"",""trial"",""time""
""fullscreenenter"",""1"",""3944""
""fullscreenexit"",""5"",""8702""
""blur"",""19"",""104547""
""focus"",""21"",""109261""
","""event"",""trial"",""time""
""blur"",""19"",""104547""
","""event"",""trial"",""time""
""focus"",""21"",""109261""
","""event"",""trial"",""time""
""fullscreenenter"",""1"",""3944""
","""event"",""trial"",""time""
""fullscreenexit"",""5"",""8702""
","","","","","","2256.2000000476837","images/cactus1.png","","","memory_trial","4","definitely_new",""
"html-keyboard-response","132","353269","0.0-18.0-0.44","7704","approach_avoid_sv1","""event"",""trial"",""time""
""fullscreenenter"",""1"",""3944""
""fullscreenexit"",""5"",""8702""
""blur"",""19"",""104547""
""focus"",""21"",""109261""
","""event"",""trial"",""time""
""blur"",""19"",""104547""
","""event"",""trial"",""time""
""focus"",""21"",""109261""
","""event"",""trial"",""time""
""fullscreenenter"",""1"",""3944""
","""event"",""trial"",""time""
""fullscreenexit"",""5"",""8702""
","","","","","","null","<div style=""font-size:60px;"">+</div>","null","","fixation","","",""
"memory-trial","133","355806","0.0-18.0-1.44","7704","approach_avoid_sv1","""event"",""trial"",""time""
""fullscreenenter"",""1"",""3944""
""fullscreenexit"",""5"",""8702""
""blur"",""19"",""104547""
""focus"",""21"",""109261""
","""event"",""trial"",""time""
""blur"",""19"",""104547""
","""event"",""trial"",""time""
""focus"",""21"",""109261""
","""event"",""trial"",""time""
""fullscreenenter"",""1"",""3944""
","""event"",""trial"",""time""
""fullscreenexit"",""5"",""8702""
","","","","","","1535.0999999046326","images/tree6.png","","","memory_trial","1","definitely_old",""
"html-keyboard-response","134","356307","0.0-18.0-0.45","7704","approach_avoid_sv1","""event"",""trial"",""time""
""fullscreenenter"",""1"",""3944""
""fullscreenexit"",""5"",""8702""
""blur"",""19"",""104547""
""focus"",""21"",""109261""
","""event"",""trial"",""time""
""blur"",""19"",""104547""
","""event"",""trial"",""time""
""focus"",""21"",""109261""
","""event"",""trial"",""time""
""fullscreenenter"",""1"",""3944""
","""event"",""trial"",""time""
""fullscreenexit"",""5"",""8702""
","","","","","","null","<div style=""font-size:60px;"">+</div>","null","","fixation","","",""
"memory-trial","135","359272","0.0-18.0-1.45","7704","approach_avoid_sv1","""event"",""trial"",""time""
""fullscreenenter"",""1"",""3944""
""fullscreenexit"",""5"",""8702""
""blur"",""19"",""104547""
""focus"",""21"",""109261""
","""event"",""trial"",""time""
""blur"",""19"",""104547""
","""event"",""trial"",""time""
""focus"",""21"",""109261""
","""event"",""trial"",""time""
""fullscreenenter"",""1"",""3944""
","""event"",""trial"",""time""
""fullscreenexit"",""5"",""8702""
","","","","","","1961.9000000953674","images/cow1.png","","","memory_trial","1","definitely_old",""
"html-keyboard-response","136","359773","0.0-18.0-0.46","7704","approach_avoid_sv1","""event"",""trial"",""time""
""fullscreenenter"",""1"",""3944""
""fullscreenexit"",""5"",""8702""
""blur"",""19"",""104547""
""focus"",""21"",""109261""
","""event"",""trial"",""time""
""blur"",""19"",""104547""
","""event"",""trial"",""time""
""focus"",""21"",""109261""
","""event"",""trial"",""time""
""fullscreenenter"",""1"",""3944""
","""event"",""trial"",""time""
""fullscreenexit"",""5"",""8702""
","","","","","","null","<div style=""font-size:60px;"">+</div>","null","","fixation","","",""
"memory-trial","137","363560","0.0-18.0-1.46","7704","approach_avoid_sv1","""event"",""trial"",""time""
""fullscreenenter"",""1"",""3944""
""fullscreenexit"",""5"",""8702""
""blur"",""19"",""104547""
""focus"",""21"",""109261""
","""event"",""trial"",""time""
""blur"",""19"",""104547""
","""event"",""trial"",""time""
""focus"",""21"",""109261""
","""event"",""trial"",""time""
""fullscreenenter"",""1"",""3944""
","""event"",""trial"",""time""
""fullscreenexit"",""5"",""8702""
","","","","","","2784.9000000953674","images/rodent3.png","","","memory_trial","3","maybe_new",""
"html-keyboard-response","138","364062","0.0-18.0-0.47","7704","approach_avoid_sv1","""event"",""trial"",""time""
""fullscreenenter"",""1"",""3944""
""fullscreenexit"",""5"",""8702""
""blur"",""19"",""104547""
""focus"",""21"",""109261""
","""event"",""trial"",""time""
""blur"",""19"",""104547""
","""event"",""trial"",""time""
""focus"",""21"",""109261""
","""event"",""trial"",""time""
""fullscreenenter"",""1"",""3944""
","""event"",""trial"",""time""
""fullscreenexit"",""5"",""8702""
","","","","","","null","<div style=""font-size:60px;"">+</div>","null","","fixation","","",""
"memory-trial","139","366782","0.0-18.0-1.47","7704","approach_avoid_sv1","""event"",""trial"",""time""
""fullscreenenter"",""1"",""3944""
""fullscreenexit"",""5"",""8702""
""blur"",""19"",""104547""
""focus"",""21"",""109261""
","""event"",""trial"",""time""
""blur"",""19"",""104547""
","""event"",""trial"",""time""
""focus"",""21"",""109261""
","""event"",""trial"",""time""
""fullscreenenter"",""1"",""3944""
","""event"",""trial"",""time""
""fullscreenexit"",""5"",""8702""
","","","","","","1717.7000000476837","images/bed1.png","","","memory_trial","4","definitely_new",""
"html-keyboard-response","140","367282","0.0-18.0-0.48","7704","approach_avoid_sv1","""event"",""trial"",""time""
""fullscreenenter"",""1"",""3944""
""fullscreenexit"",""5"",""8702""
""blur"",""19"",""104547""
""focus"",""21"",""109261""
","""event"",""trial"",""time""
""blur"",""19"",""104547""
","""event"",""trial"",""time""
""focus"",""21"",""109261""
","""event"",""trial"",""time""
""fullscreenenter"",""1"",""3944""
","""event"",""trial"",""time""
""fullscreenexit"",""5"",""8702""
","","","","","","null","<div style=""font-size:60px;"">+</div>","null","","fixation","","",""
"memory-trial","141","369126","0.0-18.0-1.48","7704","approach_avoid_sv1","""event"",""trial"",""time""
""fullscreenenter"",""1"",""3944""
""fullscreenexit"",""5"",""8702""
""blur"",""19"",""104547""
""focus"",""21"",""109261""
","""event"",""trial"",""time""
""blur"",""19"",""104547""
","""event"",""trial"",""time""
""focus"",""21"",""109261""
","""event"",""trial"",""time""
""fullscreenenter"",""1"",""3944""
","""event"",""trial"",""time""
""fullscreenexit"",""5"",""8702""
","","","","","","842.1000001430511","images/tree1.png","","","memory_trial","1","definitely_old",""
"html-keyboard-response","142","369627","0.0-18.0-0.49","7704","approach_avoid_sv1","""event"",""trial"",""time""
""fullscreenenter"",""1"",""3944""
""fullscreenexit"",""5"",""8702""
""blur"",""19"",""104547""
""focus"",""21"",""109261""
","""event"",""trial"",""time""
""blur"",""19"",""104547""
","""event"",""trial"",""time""
""focus"",""21"",""109261""
","""event"",""trial"",""time""
""fullscreenenter"",""1"",""3944""
","""event"",""trial"",""time""
""fullscreenexit"",""5"",""8702""
","","","","","","null","<div style=""font-size:60px;"">+</div>","null","","fixation","","",""
"memory-trial","143","372934","0.0-18.0-1.49","7704","approach_avoid_sv1","""event"",""trial"",""time""
""fullscreenenter"",""1"",""3944""
""fullscreenexit"",""5"",""8702""
""blur"",""19"",""104547""
""focus"",""21"",""109261""
","""event"",""trial"",""time""
""blur"",""19"",""104547""
","""event"",""trial"",""time""
""focus"",""21"",""109261""
","""event"",""trial"",""time""
""fullscreenenter"",""1"",""3944""
","""event"",""trial"",""time""
""fullscreenexit"",""5"",""8702""
","","","","","","2305.7999999523163","images/truck3.png","","","memory_trial","4","definitely_new",""
"html-keyboard-response","144","373436","0.0-18.0-0.50","7704","approach_avoid_sv1","""event"",""trial"",""time""
""fullscreenenter"",""1"",""3944""
""fullscreenexit"",""5"",""8702""
""blur"",""19"",""104547""
""focus"",""21"",""109261""
","""event"",""trial"",""time""
""blur"",""19"",""104547""
","""event"",""trial"",""time""
""focus"",""21"",""109261""
","""event"",""trial"",""time""
""fullscreenenter"",""1"",""3944""
","""event"",""trial"",""time""
""fullscreenexit"",""5"",""8702""
","","","","","","null","<div style=""font-size:60px;"">+</div>","null","","fixation","","",""
"memory-trial","145","377743","0.0-18.0-1.50","7704","approach_avoid_sv1","""event"",""trial"",""time""
""fullscreenenter"",""1"",""3944""
""fullscreenexit"",""5"",""8702""
""blur"",""19"",""104547""
""focus"",""21"",""109261""
","""event"",""trial"",""time""
""blur"",""19"",""104547""
","""event"",""trial"",""time""
""focus"",""21"",""109261""
","""event"",""trial"",""time""
""fullscreenenter"",""1"",""3944""
","""event"",""trial"",""time""
""fullscreenexit"",""5"",""8702""
","","","","","","3304.9000000953674","images/truck2.png","","","memory_trial","4","definitely_new",""
"html-keyboard-response","146","378244","0.0-18.0-0.51","7704","approach_avoid_sv1","""event"",""trial"",""time""
""fullscreenenter"",""1"",""3944""
""fullscreenexit"",""5"",""8702""
""blur"",""19"",""104547""
""focus"",""21"",""109261""
","""event"",""trial"",""time""
""blur"",""19"",""104547""
","""event"",""trial"",""time""
""focus"",""21"",""109261""
","""event"",""trial"",""time""
""fullscreenenter"",""1"",""3944""
","""event"",""trial"",""time""
""fullscreenexit"",""5"",""8702""
","","","","","","null","<div style=""font-size:60px;"">+</div>","null","","fixation","","",""
"memory-trial","147","380887","0.0-18.0-1.51","7704","approach_avoid_sv1","""event"",""trial"",""time""
""fullscreenenter"",""1"",""3944""
""fullscreenexit"",""5"",""8702""
""blur"",""19"",""104547""
""focus"",""21"",""109261""
","""event"",""trial"",""time""
""blur"",""19"",""104547""
","""event"",""trial"",""time""
""focus"",""21"",""109261""
","""event"",""trial"",""time""
""fullscreenenter"",""1"",""3944""
","""event"",""trial"",""time""
""fullscreenexit"",""5"",""8702""
","","","","","","1640.5","images/orange8.png","","","memory_trial","1","definitely_old",""
"html-keyboard-response","148","381388","0.0-18.0-0.52","7704","approach_avoid_sv1","""event"",""trial"",""time""
""fullscreenenter"",""1"",""3944""
""fullscreenexit"",""5"",""8702""
""blur"",""19"",""104547""
""focus"",""21"",""109261""
","""event"",""trial"",""time""
""blur"",""19"",""104547""
","""event"",""trial"",""time""
""focus"",""21"",""109261""
","""event"",""trial"",""time""
""fullscreenenter"",""1"",""3944""
","""event"",""trial"",""time""
""fullscreenexit"",""5"",""8702""
","","","","","","null","<div style=""font-size:60px;"">+</div>","null","","fixation","","",""
"memory-trial","149","384335","0.0-18.0-1.52","7704","approach_avoid_sv1","""event"",""trial"",""time""
""fullscreenenter"",""1"",""3944""
""fullscreenexit"",""5"",""8702""
""blur"",""19"",""104547""
""focus"",""21"",""109261""
","""event"",""trial"",""time""
""blur"",""19"",""104547""
","""event"",""trial"",""time""
""focus"",""21"",""109261""
","""event"",""trial"",""time""
""fullscreenenter"",""1"",""3944""
","""event"",""trial"",""time""
""fullscreenexit"",""5"",""8702""
","","","","","","1943.7999999523163","images/tree2.png","","","memory_trial","4","definitely_new",""
"html-keyboard-response","150","384836","0.0-18.0-0.53","7704","approach_avoid_sv1","""event"",""trial"",""time""
""fullscreenenter"",""1"",""3944""
""fullscreenexit"",""5"",""8702""
""blur"",""19"",""104547""
""focus"",""21"",""109261""
","""event"",""trial"",""time""
""blur"",""19"",""104547""
","""event"",""trial"",""time""
""focus"",""21"",""109261""
","""event"",""trial"",""time""
""fullscreenenter"",""1"",""3944""
","""event"",""trial"",""time""
""fullscreenexit"",""5"",""8702""
","","","","","","null","<div style=""font-size:60px;"">+</div>","null","","fixation","","",""
"memory-trial","151","387559","0.0-18.0-1.53","7704","approach_avoid_sv1","""event"",""trial"",""time""
""fullscreenenter"",""1"",""3944""
""fullscreenexit"",""5"",""8702""
""blur"",""19"",""104547""
""focus"",""21"",""109261""
","""event"",""trial"",""time""
""blur"",""19"",""104547""
","""event"",""trial"",""time""
""focus"",""21"",""109261""
","""event"",""trial"",""time""
""fullscreenenter"",""1"",""3944""
","""event"",""trial"",""time""
""fullscreenexit"",""5"",""8702""
","","","","","","1720.7999999523163","images/train2.png","","","memory_trial","1","definitely_old",""
"html-keyboard-response","152","388060","0.0-18.0-0.54","7704","approach_avoid_sv1","""event"",""trial"",""time""
""fullscreenenter"",""1"",""3944""
""fullscreenexit"",""5"",""8702""
""blur"",""19"",""104547""
""focus"",""21"",""109261""
","""event"",""trial"",""time""
""blur"",""19"",""104547""
","""event"",""trial"",""time""
""focus"",""21"",""109261""
","""event"",""trial"",""time""
""fullscreenenter"",""1"",""3944""
","""event"",""trial"",""time""
""fullscreenexit"",""5"",""8702""
","","","","","","null","<div style=""font-size:60px;"">+</div>","null","","fixation","","",""
"memory-trial","153","391846","0.0-18.0-1.54","7704","approach_avoid_sv1","""event"",""trial"",""time""
""fullscreenenter"",""1"",""3944""
""fullscreenexit"",""5"",""8702""
""blur"",""19"",""104547""
""focus"",""21"",""109261""
","""event"",""trial"",""time""
""blur"",""19"",""104547""
","""event"",""trial"",""time""
""focus"",""21"",""109261""
","""event"",""trial"",""time""
""fullscreenenter"",""1"",""3944""
","""event"",""trial"",""time""
""fullscreenexit"",""5"",""8702""
","","","","","","2783.2000000476837","images/flower1.png","","","memory_trial","2","maybe_old",""
"html-keyboard-response","154","392347","0.0-18.0-0.55","7704","approach_avoid_sv1","""event"",""trial"",""time""
""fullscreenenter"",""1"",""3944""
""fullscreenexit"",""5"",""8702""
""blur"",""19"",""104547""
""focus"",""21"",""109261""
","""event"",""trial"",""time""
""blur"",""19"",""104547""
","""event"",""trial"",""time""
""focus"",""21"",""109261""
","""event"",""trial"",""time""
""fullscreenenter"",""1"",""3944""
","""event"",""trial"",""time""
""fullscreenexit"",""5"",""8702""
","","","","","","null","<div style=""font-size:60px;"">+</div>","null","","fixation","","",""
"memory-trial","155","395192","0.0-18.0-1.55","7704","approach_avoid_sv1","""event"",""trial"",""time""
""fullscreenenter"",""1"",""3944""
""fullscreenexit"",""5"",""8702""
""blur"",""19"",""104547""
""focus"",""21"",""109261""
","""event"",""trial"",""time""
""blur"",""19"",""104547""
","""event"",""trial"",""time""
""focus"",""21"",""109261""
","""event"",""trial"",""time""
""fullscreenenter"",""1"",""3944""
","""event"",""trial"",""time""
""fullscreenexit"",""5"",""8702""
","","","","","","1841.8999998569489","images/goat4.png","","","memory_trial","4","definitely_new",""
"html-keyboard-response","156","395694","0.0-18.0-0.56","7704","approach_avoid_sv1","""event"",""trial"",""time""
""fullscreenenter"",""1"",""3944""
""fullscreenexit"",""5"",""8702""
""blur"",""19"",""104547""
""focus"",""21"",""109261""
","""event"",""trial"",""time""
""blur"",""19"",""104547""
","""event"",""trial"",""time""
""focus"",""21"",""109261""
","""event"",""trial"",""time""
""fullscreenenter"",""1"",""3944""
","""event"",""trial"",""time""
""fullscreenexit"",""5"",""8702""
","","","","","","null","<div style=""font-size:60px;"">+</div>","null","","fixation","","",""
"memory-trial","157","397871","0.0-18.0-1.56","7704","approach_avoid_sv1","""event"",""trial"",""time""
""fullscreenenter"",""1"",""3944""
""fullscreenexit"",""5"",""8702""
""blur"",""19"",""104547""
""focus"",""21"",""109261""
","""event"",""trial"",""time""
""blur"",""19"",""104547""
","""event"",""trial"",""time""
""focus"",""21"",""109261""
","""event"",""trial"",""time""
""fullscreenenter"",""1"",""3944""
","""event"",""trial"",""time""
""fullscreenexit"",""5"",""8702""
","","","","","","1173.3999998569489","images/horse1.png","","","memory_trial","1","definitely_old",""
"html-keyboard-response","158","398372","0.0-18.0-0.57","7704","approach_avoid_sv1","""event"",""trial"",""time""
""fullscreenenter"",""1"",""3944""
""fullscreenexit"",""5"",""8702""
""blur"",""19"",""104547""
""focus"",""21"",""109261""
","""event"",""trial"",""time""
""blur"",""19"",""104547""
","""event"",""trial"",""time""
""focus"",""21"",""109261""
","""event"",""trial"",""time""
""fullscreenenter"",""1"",""3944""
","""event"",""trial"",""time""
""fullscreenexit"",""5"",""8702""
","","","","","","null","<div style=""font-size:60px;"">+</div>","null","","fixation","","",""
"memory-trial","159","401471","0.0-18.0-1.57","7704","approach_avoid_sv1","""event"",""trial"",""time""
""fullscreenenter"",""1"",""3944""
""fullscreenexit"",""5"",""8702""
""blur"",""19"",""104547""
""focus"",""21"",""109261""
","""event"",""trial"",""time""
""blur"",""19"",""104547""
","""event"",""trial"",""time""
""focus"",""21"",""109261""
","""event"",""trial"",""time""
""fullscreenenter"",""1"",""3944""
","""event"",""trial"",""time""
""fullscreenexit"",""5"",""8702""
","","","","","","2097.399999856949","images/table7.png","","","memory_trial","2","maybe_old",""
"html-keyboard-response","160","401972","0.0-18.0-0.58","7704","approach_avoid_sv1","""event"",""trial"",""time""
""fullscreenenter"",""1"",""3944""
""fullscreenexit"",""5"",""8702""
""blur"",""19"",""104547""
""focus"",""21"",""109261""
","""event"",""trial"",""time""
""blur"",""19"",""104547""
","""event"",""trial"",""time""
""focus"",""21"",""109261""
","""event"",""trial"",""time""
""fullscreenenter"",""1"",""3944""
","""event"",""trial"",""time""
""fullscreenexit"",""5"",""8702""
","","","","","","null","<div style=""font-size:60px;"">+</div>","null","","fixation","","",""
"memory-trial","161","404086","0.0-18.0-1.58","7704","approach_avoid_sv1","""event"",""trial"",""time""
""fullscreenenter"",""1"",""3944""
""fullscreenexit"",""5"",""8702""
""blur"",""19"",""104547""
""focus"",""21"",""109261""
","""event"",""trial"",""time""
""blur"",""19"",""104547""
","""event"",""trial"",""time""
""focus"",""21"",""109261""
","""event"",""trial"",""time""
""fullscreenenter"",""1"",""3944""
","""event"",""trial"",""time""
""fullscreenexit"",""5"",""8702""
","","","","","","1111","images/chair7.png","","","memory_trial","4","definitely_new",""
"html-keyboard-response","162","404587","0.0-18.0-0.59","7704","approach_avoid_sv1","""event"",""trial"",""time""
""fullscreenenter"",""1"",""3944""
""fullscreenexit"",""5"",""8702""
""blur"",""19"",""104547""
""focus"",""21"",""109261""
","""event"",""trial"",""time""
""blur"",""19"",""104547""
","""event"",""trial"",""time""
""focus"",""21"",""109261""
","""event"",""trial"",""time""
""fullscreenenter"",""1"",""3944""
","""event"",""trial"",""time""
""fullscreenexit"",""5"",""8702""
","","","","","","null","<div style=""font-size:60px;"">+</div>","null","","fixation","","",""
"memory-trial","163","406744","0.0-18.0-1.59","7704","approach_avoid_sv1","""event"",""trial"",""time""
""fullscreenenter"",""1"",""3944""
""fullscreenexit"",""5"",""8702""
""blur"",""19"",""104547""
""focus"",""21"",""109261""
","""event"",""trial"",""time""
""blur"",""19"",""104547""
","""event"",""trial"",""time""
""focus"",""21"",""109261""
","""event"",""trial"",""time""
""fullscreenenter"",""1"",""3944""
","""event"",""trial"",""time""
""fullscreenexit"",""5"",""8702""
","","","","","","1155.3999998569489","images/plane7.png","","","memory_trial","4","definitely_new",""
"html-keyboard-response","164","407245","0.0-18.0-0.60","7704","approach_avoid_sv1","""event"",""trial"",""time""
""fullscreenenter"",""1"",""3944""
""fullscreenexit"",""5"",""8702""
""blur"",""19"",""104547""
""focus"",""21"",""109261""
","""event"",""trial"",""time""
""blur"",""19"",""104547""
","""event"",""trial"",""time""
""focus"",""21"",""109261""
","""event"",""trial"",""time""
""fullscreenenter"",""1"",""3944""
","""event"",""trial"",""time""
""fullscreenexit"",""5"",""8702""
","","","","","","null","<div style=""font-size:60px;"">+</div>","null","","fixation","","",""
"memory-trial","165","409983","0.0-18.0-1.60","7704","approach_avoid_sv1","""event"",""trial"",""time""
""fullscreenenter"",""1"",""3944""
""fullscreenexit"",""5"",""8702""
""blur"",""19"",""104547""
""focus"",""21"",""109261""
","""event"",""trial"",""time""
""blur"",""19"",""104547""
","""event"",""trial"",""time""
""focus"",""21"",""109261""
","""event"",""trial"",""time""
""fullscreenenter"",""1"",""3944""
","""event"",""trial"",""time""
""fullscreenexit"",""5"",""8702""
","","","","","","1734.7000000476837","images/banana7.png","","","memory_trial","4","definitely_new",""
"html-keyboard-response","166","410484","0.0-18.0-0.61","7704","approach_avoid_sv1","""event"",""trial"",""time""
""fullscreenenter"",""1"",""3944""
""fullscreenexit"",""5"",""8702""
""blur"",""19"",""104547""
""focus"",""21"",""109261""
","""event"",""trial"",""time""
""blur"",""19"",""104547""
","""event"",""trial"",""time""
""focus"",""21"",""109261""
","""event"",""trial"",""time""
""fullscreenenter"",""1"",""3944""
","""event"",""trial"",""time""
""fullscreenexit"",""5"",""8702""
","","","","","","null","<div style=""font-size:60px;"">+</div>","null","","fixation","","",""
"memory-trial","167","412478","0.0-18.0-1.61","7704","approach_avoid_sv1","""event"",""trial"",""time""
""fullscreenenter"",""1"",""3944""
""fullscreenexit"",""5"",""8702""
""blur"",""19"",""104547""
""focus"",""21"",""109261""
","""event"",""trial"",""time""
""blur"",""19"",""104547""
","""event"",""trial"",""time""
""focus"",""21"",""109261""
","""event"",""trial"",""time""
""fullscreenenter"",""1"",""3944""
","""event"",""trial"",""time""
""fullscreenexit"",""5"",""8702""
","","","","","","992.4000000953674","images/plane3.png","","","memory_trial","4","definitely_new",""
"html-keyboard-response","168","412980","0.0-18.0-0.62","7704","approach_avoid_sv1","""event"",""trial"",""time""
""fullscreenenter"",""1"",""3944""
""fullscreenexit"",""5"",""8702""
""blur"",""19"",""104547""
""focus"",""21"",""109261""
","""event"",""trial"",""time""
""blur"",""19"",""104547""
","""event"",""trial"",""time""
""focus"",""21"",""109261""
","""event"",""trial"",""time""
""fullscreenenter"",""1"",""3944""
","""event"",""trial"",""time""
""fullscreenexit"",""5"",""8702""
","","","","","","null","<div style=""font-size:60px;"">+</div>","null","","fixation","","",""
"memory-trial","169","414975","0.0-18.0-1.62","7704","approach_avoid_sv1","""event"",""trial"",""time""
""fullscreenenter"",""1"",""3944""
""fullscreenexit"",""5"",""8702""
""blur"",""19"",""104547""
""focus"",""21"",""109261""
","""event"",""trial"",""time""
""blur"",""19"",""104547""
","""event"",""trial"",""time""
""focus"",""21"",""109261""
","""event"",""trial"",""time""
""fullscreenenter"",""1"",""3944""
","""event"",""trial"",""time""
""fullscreenexit"",""5"",""8702""