"trial_type","trial_index","time_elapsed","internal_node_id","subject_id","task_version","interactions","blur_events","focus_events","fullscreenenter_events","fullscreenexit_events","success","timeout","failed_images","failed_audio","failed_video","rt","stimulus","response","button_pressed","task_part","key_press","answer","correct"
"pavlovia","0","6","0.0-0.0","4128","approach_avoid_sv1","""event"",""trial"",""time""
""fullscreenenter"",""1"",""2116""
","
","
","""event"",""trial"",""time""
""fullscreenenter"",""1"",""2116""
","
","","","","","","","","","","","","",""
"fullscreen","1","3088","0.0-1.0","4128","approach_avoid_sv1","""event"",""trial"",""time""
""fullscreenenter"",""1"",""2116""
","
","
","""event"",""trial"",""time""
""fullscreenenter"",""1"",""2116""
","
","true","","","","","","","","","","","",""
"preload","2","6213","0.0-2.0","4128","approach_avoid_sv1","""event"",""trial"",""time""
""fullscreenenter"",""1"",""2116""
","
","
","""event"",""trial"",""time""
""fullscreenenter"",""1"",""2116""
","
","true","false","[]","[]","[]","","","","","","","",""
"preload","3","9234","0.0-3.0","4128","approach_avoid_sv1","""event"",""trial"",""time""
""fullscreenenter"",""1"",""2116""
","
","
","""event"",""trial"",""time""
""fullscreenenter"",""1"",""2116""
","
","true","false","[]","[]","[]","","","","","","","",""
"preload","4","9578","0.0-4.0","4128","approach_avoid_sv1","""event"",""trial"",""time""
""fullscreenenter"",""1"",""2116""
","
","
","""event"",""trial"",""time""
""fullscreenenter"",""1"",""2116""
","
","true","false","[]","[]","[]","","","","","","","",""
"audio-keyboard-response","5","11975","0.0-5.0","4128","approach_avoid_sv1","""event"",""trial"",""time""
""fullscreenenter"",""1"",""2116""
","
","
","""event"",""trial"",""time""
""fullscreenenter"",""1"",""2116""
","
","","","","","","2389.3333333333335","audio/beep_loop.wav"," ","","","","",""
"audio-button-response","6","15364","0.0-6.0","4128","approach_avoid_sv1","""event"",""trial"",""time""
""fullscreenenter"",""1"",""2116""
","
","
","""event"",""trial"",""time""
""fullscreenenter"",""1"",""2116""
","
","","","","","","3381","audio/turtle.wav","3","","","","",""
"audio-button-response","7","19234","0.0-7.0","4128","approach_avoid_sv1","""event"",""trial"",""time""
""fullscreenenter"",""1"",""2116""
","
","
","""event"",""trial"",""time""
""fullscreenenter"",""1"",""2116""
","
","","","","","","2848","audio/shark.wav","2","","","","",""
"preload","8","25504","0.0-8.0","4128","approach_avoid_sv1","""event"",""trial"",""time""
""fullscreenenter"",""1"",""2116""
","
","
","""event"",""trial"",""time""
""fullscreenenter"",""1"",""2116""
","
","true","false","[]","[]","[]","","","","","","","",""
"learning-instructions","9","34888","0.0-9.0-0.0","4128","approach_avoid_sv1","""event"",""trial"",""time""
""fullscreenenter"",""1"",""2116""
","
","
","""event"",""trial"",""time""
""fullscreenenter"",""1"",""2116""
","
","","","","","","4906.300000011921","<p> Welcome back! </p><p> Last week, you had to make choices about lots of different items.  </p>","","0","instructions","","",""
"learning-instructions","10","40748","0.0-9.0-0.1","4128","approach_avoid_sv1","""event"",""trial"",""time""
""fullscreenenter"",""1"",""2116""
","
","
","""event"",""trial"",""time""
""fullscreenenter"",""1"",""2116""
","
","","","","","","1743.0999999940395","<p> Today, we are going to ask you to try to remember all the items. </p>","","0","instructions","","",""
"learning-instructions","11","53722","0.0-9.0-0.2","4128","approach_avoid_sv1","""event"",""trial"",""time""
""fullscreenenter"",""1"",""2116""
","
","
","""event"",""trial"",""time""
""fullscreenenter"",""1"",""2116""
","
","","","","","","2822.2999999970198","<p> On every trial, you will see an image. </p><p> The image may be an OLD image you saw during the games last week or it may be a NEW image that was not presented. </p>","","0","instructions","","",""
"learning-instructions","12","63707","0.0-9.0-0.3","4128","approach_avoid_sv1","""event"",""trial"",""time""
""fullscreenenter"",""1"",""2116""
","
","
","""event"",""trial"",""time""
""fullscreenenter"",""1"",""2116""
","
","","","","","","1479.300000011921","<p> You need to select whether the image is:  </p><p>  'Definitely old', 'Maybe old', 'Maybe new', or 'Definitely new.'  </p><div class=""mem-choice-instructions-grid""><div class=""choice-option"" id=""choice-option-1"" ><img src=""images/definitely_old_1.png"" id=""choice-option-img-1"" class=""choice-option-img"" stage=""1""></div><div class=""choice-option"" id=""choice-option-2"" ><img src=""images/maybe_old_1.png"" id=""choice-option-img-2"" class=""choice-option-img"" stage=""1""></div><div class=""choice-option"" id=""choice-option-3"" ><img src=""images/maybe_new_1.png"" id=""choice-option-img-3"" class=""choice-option-img"" stage=""1""></div><div class=""choice-option"" id=""choice-option-4"" > <img src=""images/definitely_new_1.png"" id=""choice-option-img-4"" class=""choice-option-img"" stage=""1""></div></div>","","0","instructions","","",""
"learning-instructions","13","74845","0.0-9.0-0.4","4128","approach_avoid_sv1","""event"",""trial"",""time""
""fullscreenenter"",""1"",""2116""
","
","
","""event"",""trial"",""time""
""fullscreenenter"",""1"",""2116""
","
","","","","","","4606.79999999702","<p> You should use the 1, 2, 3, and 4 keys to make your responses.  </p><div class=""mem-choice-instructions-grid""><div class=""choice-option"" id=""choice-option-1"" ><img src=""images/definitely_old.png"" id=""choice-option-img-1"" class=""choice-option-img"" stage=""1""></div><div class=""choice-option"" id=""choice-option-2"" ><img src=""images/maybe_old.png"" id=""choice-option-img-2"" class=""choice-option-img"" stage=""1""></div><div class=""choice-option"" id=""choice-option-3"" ><img src=""images/maybe_new.png"" id=""choice-option-img-3"" class=""choice-option-img"" stage=""1""></div><div class=""choice-option"" id=""choice-option-4"" > <img src=""images/definitely_new.png"" id=""choice-option-img-4"" class=""choice-option-img"" stage=""1""></div></div>","","0","instructions","","",""
"learning-instructions","14","82225","0.0-9.0-0.5","4128","approach_avoid_sv1","""event"",""trial"",""time""
""fullscreenenter"",""1"",""2116""
","
","
","""event"",""trial"",""time""
""fullscreenenter"",""1"",""2116""
","
","","","","","","1033.0999999940395","<p> You will have 10 seconds to make each response.  </p><p>  Make sure to respond before time runs out! </p>","","0","instructions","","",""
"learning-instructions","15","90221","0.0-9.0-0.6","4128","approach_avoid_sv1","""event"",""trial"",""time""
""fullscreenenter"",""1"",""2116""
","
","
","""event"",""trial"",""time""
""fullscreenenter"",""1"",""2116""
","
","","","","","","911.4000000059605","<p> Today, you will see each image ONCE only.  </p><p>  That means none of the images will repeat. </p>","","0","instructions","","",""
"learning-instructions","16","105287","0.0-9.0-0.7","4128","approach_avoid_sv1","""event"",""trial"",""time""
""fullscreenenter"",""1"",""2116""
","
","
","""event"",""trial"",""time""
""fullscreenenter"",""1"",""2116""
","
","","","","","","2387.7000000029802","<p> Before you play the real game, it is time to practice. </p><p>  Just like in the real game, some of the images in the practice will be ones you have seen before. </p><p>  Others will be entirely new. </p>","","0","instructions","","",""
"html-button-response","17","114318","0.0-10.0","4128","approach_avoid_sv1","""event"",""trial"",""time""
""fullscreenenter"",""1"",""2116""
","
","
","""event"",""trial"",""time""
""fullscreenenter"",""1"",""2116""
","
","","","","","","8922.09999999404","<p> Ready to practice? </p><p> Remember, use the 1, 2, 3, and 4 keys to make your responses. </p>","0","","instructions","","",""
"html-keyboard-response","18","114951","0.0-11.0-0.0","4128","approach_avoid_sv1","""event"",""trial"",""time""
""fullscreenenter"",""1"",""2116""
","
","
","""event"",""trial"",""time""
""fullscreenenter"",""1"",""2116""
","
","","","","","","null","<div style=""font-size:60px;"">+</div>","null","","fixation","","",""
"memory-trial","19","119296","0.0-11.0-1.0","4128","approach_avoid_sv1","""event"",""trial"",""time""
""fullscreenenter"",""1"",""2116""
","
","
","""event"",""trial"",""time""
""fullscreenenter"",""1"",""2116""
","
","","","","","","3331.699999988079","images/racket2.png","","","practice","4","definitely_new",""
"html-keyboard-response","20","119816","0.0-11.0-0.1","4128","approach_avoid_sv1","""event"",""trial"",""time""
""fullscreenenter"",""1"",""2116""
","
","
","""event"",""trial"",""time""
""fullscreenenter"",""1"",""2116""
","
","","","","","","null","<div style=""font-size:60px;"">+</div>","null","","fixation","","",""
"memory-trial","21","122786","0.0-11.0-1.1","4128","approach_avoid_sv1","""event"",""trial"",""time""
""fullscreenenter"",""1"",""2116""
","
","
","""event"",""trial"",""time""
""fullscreenenter"",""1"",""2116""
","
","","","","","","1956.1000000089407","images/racket3.png","","","practice","4","definitely_new",""
"html-keyboard-response","22","123303","0.0-11.0-0.2","4128","approach_avoid_sv1","""event"",""trial"",""time""
""fullscreenenter"",""1"",""2116""
","
","
","""event"",""trial"",""time""
""fullscreenenter"",""1"",""2116""
","
","","","","","","null","<div style=""font-size:60px;"">+</div>","null","","fixation","","",""
"memory-trial","23","128349","0.0-11.0-1.2","4128","approach_avoid_sv1","""event"",""trial"",""time""
""fullscreenenter"",""1"",""2116""
","
","
","""event"",""trial"",""time""
""fullscreenenter"",""1"",""2116""
","
","","","","","","4034.7000000029802","images/racket1.png","","","practice","1","definitely_old",""
"html-keyboard-response","24","128871","0.0-11.0-0.3","4128","approach_avoid_sv1","""event"",""trial"",""time""
""fullscreenenter"",""1"",""2116""
","
","
","""event"",""trial"",""time""
""fullscreenenter"",""1"",""2116""
","
","","","","","","null","<div style=""font-size:60px;"">+</div>","null","","fixation","","",""
"memory-trial","25","133110","0.0-11.0-1.3","4128","approach_avoid_sv1","""event"",""trial"",""time""
""fullscreenenter"",""1"",""2116""
","
","
","""event"",""trial"",""time""
""fullscreenenter"",""1"",""2116""
","
","","","","","","3230.3999999910593","images/ball3.png","","","practice","3","maybe_new",""
"html-keyboard-response","26","133615","0.0-11.0-0.4","4128","approach_avoid_sv1","""event"",""trial"",""time""
""fullscreenenter"",""1"",""2116""
","
","
","""event"",""trial"",""time""
""fullscreenenter"",""1"",""2116""
","
","","","","","","null","<div style=""font-size:60px;"">+</div>","null","","fixation","","",""
"memory-trial","27","136807","0.0-11.0-1.4","4128","approach_avoid_sv1","""event"",""trial"",""time""
""fullscreenenter"",""1"",""2116""
","
","
","""event"",""trial"",""time""
""fullscreenenter"",""1"",""2116""
","
","","","","","","2179.5999999940395","images/ball5.png","","","practice","3","maybe_new",""
"html-keyboard-response","28","137311","0.0-11.0-0.5","4128","approach_avoid_sv1","""event"",""trial"",""time""
""fullscreenenter"",""1"",""2116""
","
","
","""event"",""trial"",""time""
""fullscreenenter"",""1"",""2116""
","
","","","","","","null","<div style=""font-size:60px;"">+</div>","null","","fixation","","",""
"memory-trial","29","140511","0.0-11.0-1.5","4128","approach_avoid_sv1","""event"",""trial"",""time""
""fullscreenenter"",""1"",""2116""
","
","
","""event"",""trial"",""time""
""fullscreenenter"",""1"",""2116""
","
","","","","","","2194.4000000059605","images/ball2.png","","","practice","3","maybe_new",""
"html-keyboard-response","30","141014","0.0-11.0-0.6","4128","approach_avoid_sv1","""event"",""trial"",""time""
""fullscreenenter"",""1"",""2116""
","
","
","""event"",""trial"",""time""
""fullscreenenter"",""1"",""2116""
","
","","","","","","null","<div style=""font-size:60px;"">+</div>","null","","fixation","","",""
"memory-trial","31","145095","0.0-11.0-1.6","4128","approach_avoid_sv1","""event"",""trial"",""time""
""fullscreenenter"",""1"",""2116""
","
","
","""event"",""trial"",""time""
""fullscreenenter"",""1"",""2116""
","
","","","","","","3074.2000000029802","images/racket5.png","","","practice","2","maybe_old",""
"html-keyboard-response","32","145598","0.0-11.0-0.7","4128","approach_avoid_sv1","""event"",""trial"",""time""
""fullscreenenter"",""1"",""2116""
","
","
","""event"",""trial"",""time""
""fullscreenenter"",""1"",""2116""
","
","","","","","","null","<div style=""font-size:60px;"">+</div>","null","","fixation","","",""
"memory-trial","33","148615","0.0-11.0-1.7","4128","approach_avoid_sv1","""event"",""trial"",""time""
""fullscreenenter"",""1"",""2116""
","
","
","""event"",""trial"",""time""
""fullscreenenter"",""1"",""2116""
","
","","","","","","2006","images/ball1.png","","","practice","2","maybe_old",""
"learning-instructions","34","158934","0.0-12.0-0.0","4128","approach_avoid_sv1","""event"",""trial"",""time""
""fullscreenenter"",""1"",""2116""
","
","
","""event"",""trial"",""time""
""fullscreenenter"",""1"",""2116""
","
","","","","","","2951.4000000059605","<p> Great! You have completed the practice. </p><p> Before you start, we're going to ask you a few questions about how the game works.  </p>","","0","instructions","","",""
"preload","35","163273","0.0-13.0","4128","approach_avoid_sv1","""event"",""trial"",""time""
""fullscreenenter"",""1"",""2116""
","
","
","""event"",""trial"",""time""
""fullscreenenter"",""1"",""2116""
","
","true","false","[]","[]","[]","","","","","","","",""
"comp-q","36","170652","0.0-14.0-0.0","4128","approach_avoid_sv1","""event"",""trial"",""time""
""fullscreenenter"",""1"",""2116""
","
","
","""event"",""trial"",""time""
""fullscreenenter"",""1"",""2116""
","
","","","","","","1542.5","<p> <b> True or False? </b> </p><p> In this game, you will only see each image once. </p>","","0","comp_question","","","true"
"comp-q","37","178647","0.0-14.0-1.0","4128","approach_avoid_sv1","""event"",""trial"",""time""
""fullscreenenter"",""1"",""2116""
","
","
","""event"",""trial"",""time""
""fullscreenenter"",""1"",""2116""
","
","","","","","","1642.5999999940395","<p> <b> That's right! </b> You will see many different images <i> one time each </i> in this game. </p>","","0","comp_answer","","",""
"comp-q","38","184673","0.0-15.0-0.0","4128","approach_avoid_sv1","""event"",""trial"",""time""
""fullscreenenter"",""1"",""2116""
","
","
","""event"",""trial"",""time""
""fullscreenenter"",""1"",""2116""
","
","","","","","","1013.4000000059605","<p> <b> True or False? </b> </p><p> You should use the mouse and click to make your response. </p>","","1","comp_question","","","true"
"comp-q","39","192584","0.0-15.0-1.0","4128","approach_avoid_sv1","""event"",""trial"",""time""
""fullscreenenter"",""1"",""2116""
","
","
","""event"",""trial"",""time""
""fullscreenenter"",""1"",""2116""
","
","","","","","","1403.699999988079","<p><b> That's right! </b> You should use the '1', '2', '3', and '4' keys to make your response. </p>","","0","comp_answer","","",""
"comp-q","40","199570","0.0-16.0-0.0","4128","approach_avoid_sv1","""event"",""trial"",""time""
""fullscreenenter"",""1"",""2116""
","
","
","""event"",""trial"",""time""
""fullscreenenter"",""1"",""2116""
","
","","","","","","1298","<p> <b> True or False? </b> </p><p> You will have as much time as you want to make each choice. </p>","","1","comp_question","","","true"
"comp-q","41","209537","0.0-16.0-1.0","4128","approach_avoid_sv1","""event"",""trial"",""time""
""fullscreenenter"",""1"",""2116""
","
","
","""event"",""trial"",""time""
""fullscreenenter"",""1"",""2116""
","
","","","","","","5248.79999999702","<p> <b> That's right! </b> You will only have 10 seconds to make each choice. </p>","","0","comp_answer","","",""
"learning-instructions","42","221734","0.0-17.0","4128","approach_avoid_sv1","""event"",""trial"",""time""
""fullscreenenter"",""1"",""2116""
","
","
","""event"",""trial"",""time""
""fullscreenenter"",""1"",""2116""
","
","","","","","","3526.2000000029802","<p> Great! You are now ready to begin the game. </p><p> Remember, use the 1, 2, 3, and 4 keys to make your responses. </p>","","0","instructions","","",""
"html-keyboard-response","43","222367","0.0-18.0-0.0","4128","approach_avoid_sv1","""event"",""trial"",""time""
""fullscreenenter"",""1"",""2116""
","
","
","""event"",""trial"",""time""
""fullscreenenter"",""1"",""2116""
","
","","","","","","null","<div style=""font-size:60px;"">+</div>","null","","fixation","","",""
"memory-trial","44","225578","0.0-18.0-1.0","4128","approach_avoid_sv1","""event"",""trial"",""time""
""fullscreenenter"",""1"",""2116""
","
","
","""event"",""trial"",""time""
""fullscreenenter"",""1"",""2116""
","
","","","","","","2187.300000011921","images/cat5.png","","","memory_trial","1","definitely_old",""
"html-keyboard-response","45","226101","0.0-18.0-0.1","4128","approach_avoid_sv1","""event"",""trial"",""time""
""fullscreenenter"",""1"",""2116""
","
","
","""event"",""trial"",""time""
""fullscreenenter"",""1"",""2116""
","
","","","","","","null","<div style=""font-size:60px;"">+</div>","null","","fixation","","",""
"memory-trial","46","230261","0.0-18.0-1.1","4128","approach_avoid_sv1","""event"",""trial"",""time""
""fullscreenenter"",""1"",""2116""
","
","
","""event"",""trial"",""time""
""fullscreenenter"",""1"",""2116""
","
","","","","","","3146","images/banana5.png","","","memory_trial","3","maybe_new",""
"html-keyboard-response","47","230784","0.0-18.0-0.2","4128","approach_avoid_sv1","""event"",""trial"",""time""
""fullscreenenter"",""1"",""2116""
","
","
","""event"",""trial"",""time""
""fullscreenenter"",""1"",""2116""
","
","","","","","","null","<div style=""font-size:60px;"">+</div>","null","","fixation","","",""
"memory-trial","48","233931","0.0-18.0-1.2","4128","approach_avoid_sv1","""event"",""trial"",""time""
""fullscreenenter"",""1"",""2116""
","
","
","""event"",""trial"",""time""
""fullscreenenter"",""1"",""2116""
","
","","","","","","2114.2999999970198","images/goat6.png","","","memory_trial","3","maybe_new",""
"html-keyboard-response","49","234445","0.0-18.0-0.3","4128","approach_avoid_sv1","""event"",""trial"",""time""
""fullscreenenter"",""1"",""2116""
","
","
","""event"",""trial"",""time""
""fullscreenenter"",""1"",""2116""
","
","","","","","","null","<div style=""font-size:60px;"">+</div>","null","","fixation","","",""
"memory-trial","50","237471","0.0-18.0-1.3","4128","approach_avoid_sv1","""event"",""trial"",""time""
""fullscreenenter"",""1"",""2116""
","
","
","""event"",""trial"",""time""
""fullscreenenter"",""1"",""2116""
","
","","","","","","2008.7000000029802","images/flower4.png","","","memory_trial","1","definitely_old",""
"html-keyboard-response","51","237995","0.0-18.0-0.4","4128","approach_avoid_sv1","""event"",""trial"",""time""
""fullscreenenter"",""1"",""2116""
","
","
","""event"",""trial"",""time""
""fullscreenenter"",""1"",""2116""
","
","","","","","","null","<div style=""font-size:60px;"">+</div>","null","","fixation","","",""
"memory-trial","52","241161","0.0-18.0-1.4","4128","approach_avoid_sv1","""event"",""trial"",""time""
""fullscreenenter"",""1"",""2116""
","
","
","""event"",""trial"",""time""
""fullscreenenter"",""1"",""2116""
","
","","","","","","2141.7000000029802","images/goat4.png","","","memory_trial","1","definitely_old",""
"html-keyboard-response","53","241677","0.0-18.0-0.5","4128","approach_avoid_sv1","""event"",""trial"",""time""
""fullscreenenter"",""1"",""2116""
","
","
","""event"",""trial"",""time""
""fullscreenenter"",""1"",""2116""
","
","","","","","","null","<div style=""font-size:60px;"">+</div>","null","","fixation","","",""
"memory-trial","54","244262","0.0-18.0-1.5","4128","approach_avoid_sv1","""event"",""trial"",""time""
""fullscreenenter"",""1"",""2116""
","
","
","""event"",""trial"",""time""
""fullscreenenter"",""1"",""2116""
","
","","","","","","1565.2000000029802","images/rabbit7.png","","","memory_trial","1","definitely_old",""
"html-keyboard-response","55","244778","0.0-18.0-0.6","4128","approach_avoid_sv1","""event"",""trial"",""time""
""fullscreenenter"",""1"",""2116""
","
","
","""event"",""trial"",""time""
""fullscreenenter"",""1"",""2116""
","
","","","","","","null","<div style=""font-size:60px;"">+</div>","null","","fixation","","",""
"memory-trial","56","247286","0.0-18.0-1.6","4128","approach_avoid_sv1","""event"",""trial"",""time""
""fullscreenenter"",""1"",""2116""
","
","
","""event"",""trial"",""time""
""fullscreenenter"",""1"",""2116""
","
","","","","","","1489.8999999910593","images/apple4.png","","","memory_trial","1","definitely_old",""
"html-keyboard-response","57","247808","0.0-18.0-0.7","4128","approach_avoid_sv1","""event"",""trial"",""time""
""fullscreenenter"",""1"",""2116""
","
","
","""event"",""trial"",""time""
""fullscreenenter"",""1"",""2116""
","
","","","","","","null","<div style=""font-size:60px;"">+</div>","null","","fixation","","",""
"memory-trial","58","251359","0.0-18.0-1.7","4128","approach_avoid_sv1","""event"",""trial"",""time""
""fullscreenenter"",""1"",""2116""
","
","
","""event"",""trial"",""time""
""fullscreenenter"",""1"",""2116""
","
","","","","","","2539.0999999940395","images/horse5.png","","","memory_trial","4","definitely_new",""
"html-keyboard-response","59","251862","0.0-18.0-0.8","4128","approach_avoid_sv1","""event"",""trial"",""time""
""fullscreenenter"",""1"",""2116""
","
","
","""event"",""trial"",""time""
""fullscreenenter"",""1"",""2116""
","
","","","","","","null","<div style=""font-size:60px;"">+</div>","null","","fixation","","",""
"memory-trial","60","254479","0.0-18.0-1.8","4128","approach_avoid_sv1","""event"",""trial"",""time""
""fullscreenenter"",""1"",""2116""
","
","
","""event"",""trial"",""time""
""fullscreenenter"",""1"",""2116""
","
","","","","","","1607.5","images/truck4.png","","","memory_trial","1","definitely_old",""
"html-keyboard-response","61","254982","0.0-18.0-0.9","4128","approach_avoid_sv1","""event"",""trial"",""time""
""fullscreenenter"",""1"",""2116""
","
","
","""event"",""trial"",""time""
""fullscreenenter"",""1"",""2116""
","
","","","","","","null","<div style=""font-size:60px;"">+</div>","null","","fixation","","",""
"memory-trial","62","258183","0.0-18.0-1.9","4128","approach_avoid_sv1","""event"",""trial"",""time""
""fullscreenenter"",""1"",""2116""
","
","
","""event"",""trial"",""time""
""fullscreenenter"",""1"",""2116""
","
","","","","","","2189.1000000089407","images/flower6.png","","","memory_trial","1","definitely_old",""
"html-keyboard-response","63","258686","0.0-18.0-0.10","4128","approach_avoid_sv1","""event"",""trial"",""time""
""fullscreenenter"",""1"",""2116""
","
","
","""event"",""trial"",""time""
""fullscreenenter"",""1"",""2116""
","
","","","","","","null","<div style=""font-size:60px;"">+</div>","null","","fixation","","",""
"memory-trial","64","260966","0.0-18.0-1.10","4128","approach_avoid_sv1","""event"",""trial"",""time""
""fullscreenenter"",""1"",""2116""
","
","
","""event"",""trial"",""time""
""fullscreenenter"",""1"",""2116""
","
","","","","","","1270.2999999970198","images/tree1.png","","","memory_trial","1","definitely_old",""
"html-keyboard-response","65","261474","0.0-18.0-0.11","4128","approach_avoid_sv1","""event"",""trial"",""time""
""fullscreenenter"",""1"",""2116""
","
","
","""event"",""trial"",""time""
""fullscreenenter"",""1"",""2116""
","
","","","","","","null","<div style=""font-size:60px;"">+</div>","null","","fixation","","",""
"memory-trial","66","263726","0.0-18.0-1.11","4128","approach_avoid_sv1","""event"",""trial"",""time""
""fullscreenenter"",""1"",""2116""
","
","
","""event"",""trial"",""time""
""fullscreenenter"",""1"",""2116""
","
","","","","","","1241.699999988079","images/sheep8.png","","","memory_trial","1","definitely_old",""
"html-keyboard-response","67","264230","0.0-18.0-0.12","4128","approach_avoid_sv1","""event"",""trial"",""time""
""fullscreenenter"",""1"",""2116""
","
","
","""event"",""trial"",""time""
""fullscreenenter"",""1"",""2116""
","
","","","","","","null","<div style=""font-size:60px;"">+</div>","null","","fixation","","",""
"memory-trial","68","267239","0.0-18.0-1.12","4128","approach_avoid_sv1","""event"",""trial"",""time""
""fullscreenenter"",""1"",""2116""
","
","
","""event"",""trial"",""time""
""fullscreenenter"",""1"",""2116""
","
","","","","","","2001","images/sheep7.png","","","memory_trial","2","maybe_old",""
"html-keyboard-response","69","267743","0.0-18.0-0.13","4128","approach_avoid_sv1","""event"",""trial"",""time""
""fullscreenenter"",""1"",""2116""
","
","
","""event"",""trial"",""time""
""fullscreenenter"",""1"",""2116""
","
","","","","","","null","<div style=""font-size:60px;"">+</div>","null","","fixation","","",""
"memory-trial","70","270175","0.0-18.0-1.13","4128","approach_avoid_sv1","""event"",""trial"",""time""
""fullscreenenter"",""1"",""2116""
","
","
","""event"",""trial"",""time""
""fullscreenenter"",""1"",""2116""
","
","","","","","","1425.7000000029802","images/dog4.png","","","memory_trial","1","definitely_old",""
"html-keyboard-response","71","270678","0.0-18.0-0.14","4128","approach_avoid_sv1","""event"",""trial"",""time""
""fullscreenenter"",""1"",""2116""
","
","
","""event"",""trial"",""time""
""fullscreenenter"",""1"",""2116""
","
","","","","","","null","<div style=""font-size:60px;"">+</div>","null","","fixation","","",""
"memory-trial","72","273246","0.0-18.0-1.14","4128","approach_avoid_sv1","""event"",""trial"",""time""
""fullscreenenter"",""1"",""2116""
","
","
","""event"",""trial"",""time""
""fullscreenenter"",""1"",""2116""
","
","","","","","","1557.2000000029802","images/dog3.png","","","memory_trial","1","definitely_old",""
"html-keyboard-response","73","273750","0.0-18.0-0.15","4128","approach_avoid_sv1","""event"",""trial"",""time""
""fullscreenenter"",""1"",""2116""
","
","
","""event"",""trial"",""time""
""fullscreenenter"",""1"",""2116""
","
","","","","","","null","<div style=""font-size:60px;"">+</div>","null","","fixation","","",""
"memory-trial","74","276783","0.0-18.0-1.15","4128","approach_avoid_sv1","""event"",""trial"",""time""
""fullscreenenter"",""1"",""2116""
","
","
","""event"",""trial"",""time""
""fullscreenenter"",""1"",""2116""
","
","","","","","","2024.3999999910593","images/rodent3.png","","","memory_trial","4","definitely_new",""
"html-keyboard-response","75","277287","0.0-18.0-0.16","4128","approach_avoid_sv1","""event"",""trial"",""time""
""fullscreenenter"",""1"",""2116""
","
","
","""event"",""trial"",""time""
""fullscreenenter"",""1"",""2116""
","
","","","","","","null","<div style=""font-size:60px;"">+</div>","null","","fixation","","",""
"memory-trial","76","281479","0.0-18.0-1.16","4128","approach_avoid_sv1","""event"",""trial"",""time""
""fullscreenenter"",""1"",""2116""
","
","
","""event"",""trial"",""time""
""fullscreenenter"",""1"",""2116""
","
","","","","","","3183.5","images/cat2.png","","","memory_trial","4","definitely_new",""
"html-keyboard-response","77","281982","0.0-18.0-0.17","4128","approach_avoid_sv1","""event"",""trial"",""time""
""fullscreenenter"",""1"",""2116""
","
","
","""event"",""trial"",""time""
""fullscreenenter"",""1"",""2116""
","
","","","","","","null","<div style=""font-size:60px;"">+</div>","null","","fixation","","",""
"memory-trial","78","284775","0.0-18.0-1.17","4128","approach_avoid_sv1","""event"",""trial"",""time""
""fullscreenenter"",""1"",""2116""
","
","
","""event"",""trial"",""time""
""fullscreenenter"",""1"",""2116""
","
","","","","","","1785.6000000089407","images/horse7.png","","","memory_trial","4","definitely_new",""
"html-keyboard-response","79","285279","0.0-18.0-0.18","4128","approach_avoid_sv1","""event"",""trial"",""time""
""fullscreenenter"",""1"",""2116""
","
","
","""event"",""trial"",""time""
""fullscreenenter"",""1"",""2116""
","
","","","","","","null","<div style=""font-size:60px;"">+</div>","null","","fixation","","",""
"memory-trial","80","288622","0.0-18.0-1.18","4128","approach_avoid_sv1","""event"",""trial"",""time""
""fullscreenenter"",""1"",""2116""
","
","
","""event"",""trial"",""time""
""fullscreenenter"",""1"",""2116""
","
","","","","","","2336","images/boat7.png","","","memory_trial","2","maybe_old",""
"html-keyboard-response","81","289126","0.0-18.0-0.19","4128","approach_avoid_sv1","""event"",""trial"",""time""
""fullscreenenter"",""1"",""2116""
","
","
","""event"",""trial"",""time""
""fullscreenenter"",""1"",""2116""
","
","","","","","","null","<div style=""font-size:60px;"">+</div>","null","","fixation","","",""
"memory-trial","82","293494","0.0-18.0-1.19","4128","approach_avoid_sv1","""event"",""trial"",""time""
""fullscreenenter"",""1"",""2116""
","
","
","""event"",""trial"",""time""
""fullscreenenter"",""1"",""2116""
","
","","","","","","3359.5","images/apple2.png","","","memory_trial","2","maybe_old",""
"html-keyboard-response","83","293998","0.0-18.0-0.20","4128","approach_avoid_sv1","""event"",""trial"",""time""
""fullscreenenter"",""1"",""2116""
","
","
","""event"",""trial"",""time""
""fullscreenenter"",""1"",""2116""
","
","","","","","","null","<div style=""font-size:60px;"">+</div>","null","","fixation","","",""
"memory-trial","84","300310","0.0-18.0-1.20","4128","approach_avoid_sv1","""event"",""trial"",""time""
""fullscreenenter"",""1"",""2116""
","
","
","""event"",""trial"",""time""
""fullscreenenter"",""1"",""2116""
","
","","","","","","5308.70000000298","images/goat8.png","","","memory_trial","3","maybe_new",""
"html-keyboard-response","85","300813","0.0-18.0-0.21","4128","approach_avoid_sv1","""event"",""trial"",""time""
""fullscreenenter"",""1"",""2116""
","
","
","""event"",""trial"",""time""
""fullscreenenter"",""1"",""2116""
","
","","","","","","null","<div style=""font-size:60px;"">+</div>","null","","fixation","","",""
"memory-trial","86","304101","0.0-18.0-1.21","4128","approach_avoid_sv1","""event"",""trial"",""time""
""fullscreenenter"",""1"",""2116""
","
","
","""event"",""trial"",""time""
""fullscreenenter"",""1"",""2116""
","
","","","","","","2278.199999988079","images/straw4.png","","","memory_trial","2","maybe_old",""
"html-keyboard-response","87","304606","0.0-18.0-0.22","4128","approach_avoid_sv1","""event"",""trial"",""time""
""fullscreenenter"",""1"",""2116""
","
","
","""event"",""trial"",""time""
""fullscreenenter"",""1"",""2116""
","
","","","","","","null","<div style=""font-size:60px;"">+</div>","null","","fixation","","",""
"memory-trial","88","307526","0.0-18.0-1.22","4128","approach_avoid_sv1","""event"",""trial"",""time""
""fullscreenenter"",""1"",""2116""
","
","
","""event"",""trial"",""time""
""fullscreenenter"",""1"",""2116""
","
","","","","","","1912.2000000029802","images/bed7.png","","","memory_trial","1","definitely_old",""
"html-keyboard-response","89","308030","0.0-18.0-0.23","4128","approach_avoid_sv1","""event"",""trial"",""time""
""fullscreenenter"",""1"",""2116""
","
","
","""event"",""trial"",""time""
""fullscreenenter"",""1"",""2116""
","
","","","","","","null","<div style=""font-size:60px;"">+</div>","null","","fixation","","",""
"memory-trial","90","310182","0.0-18.0-1.23","4128","approach_avoid_sv1","""event"",""trial"",""time""
""fullscreenenter"",""1"",""2116""
","
","
","""event"",""trial"",""time""
""fullscreenenter"",""1"",""2116""
","
","","","","","","1142.5","images/tree8.png","","","memory_trial","1","definitely_old",""
"html-keyboard-response","91","310686","0.0-18.0-0.24","4128","approach_avoid_sv1","""event"",""trial"",""time""
""fullscreenenter"",""1"",""2116""
","
","
","""event"",""trial"",""time""
""fullscreenenter"",""1"",""2116""
","
","","","","","","null","<div style=""font-size:60px;"">+</div>","null","","fixation","","",""
"memory-trial","92","314398","0.0-18.0-1.24","4128","approach_avoid_sv1","""event"",""trial"",""time""
""fullscreenenter"",""1"",""2116""
","
","
","""event"",""trial"",""time""
""fullscreenenter"",""1"",""2116""
","
","","","","","","2702.5","images/sofa5.png","","","memory_trial","2","maybe_old",""
"html-keyboard-response","93","314901","0.0-18.0-0.25","4128","approach_avoid_sv1","""event"",""trial"",""time""
""fullscreenenter"",""1"",""2116""
","
","
","""event"",""trial"",""time""
""fullscreenenter"",""1"",""2116""
","
","","","","","","null","<div style=""font-size:60px;"">+</div>","null","","fixation","","",""
"memory-trial","94","318838","0.0-18.0-1.25","4128","approach_avoid_sv1","""event"",""trial"",""time""
""fullscreenenter"",""1"",""2116""
","
","
","""event"",""trial"",""time""
""fullscreenenter"",""1"",""2116""
","
","","","","","","2930","images/rabbit2.png","","","memory_trial","3","maybe_new",""
"html-keyboard-response","95","319342","0.0-18.0-0.26","4128","approach_avoid_sv1","""event"",""trial"",""time""
""fullscreenenter"",""1"",""2116""
","
","
","""event"",""trial"",""time""
""fullscreenenter"",""1"",""2116""
","
","","","","","","null","<div style=""font-size:60px;"">+</div>","null","","fixation","","",""
"memory-trial","96","321878","0.0-18.0-1.26","4128","approach_avoid_sv1","""event"",""trial"",""time""
""fullscreenenter"",""1"",""2116""
","
","
","""event"",""trial"",""time""
""fullscreenenter"",""1"",""2116""
","
","","","","","","1528.3999999910593","images/banana7.png","","","memory_trial","4","definitely_new",""
"html-keyboard-response","97","322382","0.0-18.0-0.27","4128","approach_avoid_sv1","""event"",""trial"",""time""
""fullscreenenter"",""1"",""2116""
","
","
","""event"",""trial"",""time""
""fullscreenenter"",""1"",""2116""
","
","","","","","","null","<div style=""font-size:60px;"">+</div>","null","","fixation","","",""
"memory-trial","98","324486","0.0-18.0-1.27","4128","approach_avoid_sv1","""event"",""trial"",""time""
""fullscreenenter"",""1"",""2116""
","
","
","""event"",""trial"",""time""
""fullscreenenter"",""1"",""2116""
","
","","","","","","1095.7999999970198","images/train1.png","","","memory_trial","2","maybe_old",""
"html-keyboard-response","99","324990","0.0-18.0-0.28","4128","approach_avoid_sv1","""event"",""trial"",""time""
""fullscreenenter"",""1"",""2116""
","
","
","""event"",""trial"",""time""
""fullscreenenter"",""1"",""2116""
","
","","","","","","null","<div style=""font-size:60px;"">+</div>","null","","fixation","","",""
"memory-trial","100","327518","0.0-18.0-1.28","4128","approach_avoid_sv1","""event"",""trial"",""time""
""fullscreenenter"",""1"",""2116""
","
","
","""event"",""trial"",""time""
""fullscreenenter"",""1"",""2116""
","
","","","","","","1518","images/straw8.png","","","memory_trial","1","definitely_old",""
"html-keyboard-response","101","328021","0.0-18.0-0.29","4128","approach_avoid_sv1","""event"",""trial"",""time""
""fullscreenenter"",""1"",""2116""
","
","
","""event"",""trial"",""time""
""fullscreenenter"",""1"",""2116""
","
","","","","","","null","<div style=""font-size:60px;"">+</div>","null","","fixation","","",""
"memory-trial","102","331294","0.0-18.0-1.29","4128","approach_avoid_sv1","""event"",""trial"",""time""
""fullscreenenter"",""1"",""2116""
","
","
","""event"",""trial"",""time""
""fullscreenenter"",""1"",""2116""
","
","","","","","","2266.9000000059605","images/truck6.png","","","memory_trial","3","maybe_new",""
"html-keyboard-response","103","331798","0.0-18.0-0.30","4128","approach_avoid_sv1","""event"",""trial"",""time""
""fullscreenenter"",""1"",""2116""
","
","
","""event"",""trial"",""time""
""fullscreenenter"",""1"",""2116""
","
","","","","","","null","<div style=""font-size:60px;"">+</div>","null","","fixation","","",""
"memory-trial","104","334526","0.0-18.0-1.30","4128","approach_avoid_sv1","""event"",""trial"",""time""
""fullscreenenter"",""1"",""2116""
","
","
","""event"",""trial"",""time""
""fullscreenenter"",""1"",""2116""
","
","","","","","","1723.5","images/boat6.png","","","memory_trial","1","definitely_old",""
"html-keyboard-response","105","335030","0.0-18.0-0.31","4128","approach_avoid_sv1","""event"",""trial"",""time""
""fullscreenenter"",""1"",""2116""
","
","
","""event"",""trial"",""time""
""fullscreenenter"",""1"",""2116""
","
","","","","","","null","<div style=""font-size:60px;"">+</div>","null","","fixation","","",""
"memory-trial","106","338206","0.0-18.0-1.31","4128","approach_avoid_sv1","""event"",""trial"",""time""
""fullscreenenter"",""1"",""2116""
","
","
","""event"",""trial"",""time""
""fullscreenenter"",""1"",""2116""
","
","","","","","","2168.5","images/bush7.png","","","memory_trial","4","definitely_new",""
"html-keyboard-response","107","338710","0.0-18.0-0.32","4128","approach_avoid_sv1","""event"",""trial"",""time""
""fullscreenenter"",""1"",""2116""
","
","
","""event"",""trial"",""time""
""fullscreenenter"",""1"",""2116""
","
","","","","","","null","<div style=""font-size:60px;"">+</div>","null","","fixation","","",""
"memory-trial","108","343335","0.0-18.0-1.32","4128","approach_avoid_sv1","""event"",""trial"",""time""
""fullscreenenter"",""1"",""2116""
","
","
","""event"",""trial"",""time""
""fullscreenenter"",""1"",""2116""
","
","","","","","","3618.2000000029802","images/rabbit4.png","","","memory_trial","3","maybe_new",""
"html-keyboard-response","109","343839","0.0-18.0-0.33","4128","approach_avoid_sv1","""event"",""trial"",""time""
""fullscreenenter"",""1"",""2116""
","
","
","""event"",""trial"",""time""
""fullscreenenter"",""1"",""2116""
","
","","","","","","null","<div style=""font-size:60px;"">+</div>","null","","fixation","","",""
"memory-trial","110","346118","0.0-18.0-1.33","4128","approach_avoid_sv1","""event"",""trial"",""time""
""fullscreenenter"",""1"",""2116""
","
","
","""event"",""trial"",""time""
""fullscreenenter"",""1"",""2116""
","
","","","","","","1268.7000000029802","images/truck1.png","","","memory_trial","1","definitely_old",""
"html-keyboard-response","111","346621","0.0-18.0-0.34","4128","approach_avoid_sv1","""event"",""trial"",""time""
""fullscreenenter"",""1"",""2116""
","
","
","""event"",""trial"",""time""
""fullscreenenter"",""1"",""2116""
","
","","","","","","null","<div style=""font-size:60px;"">+</div>","null","","fixation","","",""
"memory-trial","112","350974","0.0-18.0-1.34","4128","approach_avoid_sv1","""event"",""trial"",""time""
""fullscreenenter"",""1"",""2116""
","
","
","""event"",""trial"",""time""
""fullscreenenter"",""1"",""2116""
","
","","","","","","3345","images/cow8.png","","","memory_trial","2","maybe_old",""
"html-keyboard-response","113","351478","0.0-18.0-0.35","4128","approach_avoid_sv1","""event"",""trial"",""time""
""fullscreenenter"",""1"",""2116""
","
","
","""event"",""trial"",""time""
""fullscreenenter"",""1"",""2116""
","
","","","","","","null","<div style=""font-size:60px;"">+</div>","null","","fixation","","",""
"memory-trial","114","354718","0.0-18.0-1.35","4128","approach_avoid_sv1","""event"",""trial"",""time""
""fullscreenenter"",""1"",""2116""
","
","
","""event"",""trial"",""time""
""fullscreenenter"",""1"",""2116""
","
","","","","","","2234.2000000029802","images/dog2.png","","","memory_trial","1","definitely_old",""
"html-keyboard-response","115","355221","0.0-18.0-0.36","4128","approach_avoid_sv1","""event"",""trial"",""time""
""fullscreenenter"",""1"",""2116""
","
","
","""event"",""trial"",""time""
""fullscreenenter"",""1"",""2116""
","
","","","","","","null","<div style=""font-size:60px;"">+</div>","null","","fixation","","",""
"memory-trial","116","359526","0.0-18.0-1.36","4128","approach_avoid_sv1","""event"",""trial"",""time""
""fullscreenenter"",""1"",""2116""
","
","
","""event"",""trial"",""time""
""fullscreenenter"",""1"",""2116""
","
","","","","","","3301.7000000029802","images/banana6.png","","","memory_trial","4","definitely_new",""
"html-keyboard-response","117","360030","0.0-18.0-0.37","4128","approach_avoid_sv1","""event"",""trial"",""time""
""fullscreenenter"",""1"",""2116""
","
","
","""event"",""trial"",""time""
""fullscreenenter"",""1"",""2116""
","
","","","","","","null","<div style=""font-size:60px;"">+</div>","null","","fixation","","",""
"memory-trial","118","362599","0.0-18.0-1.37","4128","approach_avoid_sv1","""event"",""trial"",""time""
""fullscreenenter"",""1"",""2116""
","
","
","""event"",""trial"",""time""
""fullscreenenter"",""1"",""2116""
","
","","","","","","1556.7000000029802","images/orange6.png","","","memory_trial","1","definitely_old",""
"html-keyboard-response","119","363102","0.0-18.0-0.38","4128","approach_avoid_sv1","""event"",""trial"",""time""
""fullscreenenter"",""1"",""2116""
","
","
","""event"",""trial"",""time""
""fullscreenenter"",""1"",""2116""
","
","","","","","","null","<div style=""font-size:60px;"">+</div>","null","","fixation","","",""
"memory-trial","120","366462","0.0-18.0-1.38","4128","approach_avoid_sv1","""event"",""trial"",""time""
""fullscreenenter"",""1"",""2116""
","
","
","""event"",""trial"",""time""
""fullscreenenter"",""1"",""2116""
","
","","","","","","2355.4000000059605","images/sofa6.png","","","memory_trial","3","maybe_new",""
"html-keyboard-response","121","366967","0.0-18.0-0.39","4128","approach_avoid_sv1","""event"",""trial"",""time""
""fullscreenenter"",""1"",""2116""
","
","
","""event"",""trial"",""time""
""fullscreenenter"",""1"",""2116""
","
","","","","","","null","<div style=""font-size:60px;"">+</div>","null","","fixation","","",""
"memory-trial","122","370094","0.0-18.0-1.39","4128","approach_avoid_sv1","""event"",""trial"",""time""
""fullscreenenter"",""1"",""2116""
","
","
","""event"",""trial"",""time""
""fullscreenenter"",""1"",""2116""
","
","","","","","","2118.3999999910593","images/orange7.png","","","memory_trial","4","definitely_new",""
"html-keyboard-response","123","370598","0.0-18.0-0.40","4128","approach_avoid_sv1","""event"",""trial"",""time""
""fullscreenenter"",""1"",""2116""
","
","
","""event"",""trial"",""time""
""fullscreenenter"",""1"",""2116""
","
","","","","","","null","<div style=""font-size:60px;"">+</div>","null","","fixation","","",""
"memory-trial","124","372863","0.0-18.0-1.40","4128","approach_avoid_sv1","""event"",""trial"",""time""
""fullscreenenter"",""1"",""2116""
","
","
","""event"",""trial"",""time""
""fullscreenenter"",""1"",""2116""
","
","","","","","","1256.7000000029802","images/rodent7.png","","","memory_trial","4","definitely_new",""
"html-keyboard-response","125","373366","0.0-18.0-0.41","4128","approach_avoid_sv1","""event"",""trial"",""time""
""fullscreenenter"",""1"",""2116""
","
","
","""event"",""trial"",""time""
""fullscreenenter"",""1"",""2116""
","
","","","","","","null","<div style=""font-size:60px;"">+</div>","null","","fixation","","",""
"memory-trial","126","378167","0.0-18.0-1.41","4128","approach_avoid_sv1","""event"",""trial"",""time""
""fullscreenenter"",""1"",""2116""
","
","
","""event"",""trial"",""time""
""fullscreenenter"",""1"",""2116""
","
","","","","","","3792.5999999940395","images/sheep6.png","","","memory_trial","2","maybe_old",""
"html-button-response","127","381742","0.0-18.0-2.41-0.41","4128","approach_avoid_sv1","""event"",""trial"",""time""
""fullscreenenter"",""1"",""2116""
","
","
","""event"",""trial"",""time""
""fullscreenenter"",""1"",""2116""
","
","","","","","","3574.7999999970198","<p> Take a break! </p><p> Click the button to continue. </p>","0","","break","","",""
"html-keyboard-response","128","382247","0.0-18.0-0.42","4128","approach_avoid_sv1","""event"",""trial"",""time""
""fullscreenenter"",""1"",""2116""
","
","
","""event"",""trial"",""time""
""fullscreenenter"",""1"",""2116""
","
","","","","","","null","<div style=""font-size:60px;"">+</div>","null","","fixation","","",""
"memory-trial","129","385094","0.0-18.0-1.42","4128","approach_avoid_sv1","""event"",""trial"",""time""
""fullscreenenter"",""1"",""2116""
","
","
","""event"",""trial"",""time""
""fullscreenenter"",""1"",""2116""
","
","","","","","","1839.7999999970198","images/cactus3.png","","","memory_trial","2","maybe_old",""
"html-keyboard-response","130","385599","0.0-18.0-0.43","4128","approach_avoid_sv1","""event"",""trial"",""time""
""fullscreenenter"",""1"",""2116""
","
","
","""event"",""trial"",""time""
""fullscreenenter"",""1"",""2116""
","
","","","","","","null","<div style=""font-size:60px;"">+</div>","null","","fixation","","",""
"memory-trial","131","388302","0.0-18.0-1.43","4128","approach_avoid_sv1","""event"",""trial"",""time""
""fullscreenenter"",""1"",""2116""
","
","
","""event"",""trial"",""time""
""fullscreenenter"",""1"",""2116""
","
","","","","","","1692.2999999970198","images/truck3.png","","","memory_trial","4","definitely_new",""
"html-keyboard-response","132","388806","0.0-18.0-0.44","4128","approach_avoid_sv1","""event"",""trial"",""time""
""fullscreenenter"",""1"",""2116""
","
","
","""event"",""trial"",""time""
""fullscreenenter"",""1"",""2116""
","
","","","","","","null","<div style=""font-size:60px;"">+</div>","null","","fixation","","",""
"memory-trial","133","391343","0.0-18.0-1.44","4128","approach_avoid_sv1","""event"",""trial"",""time""
""fullscreenenter"",""1"",""2116""
","
","
","""event"",""trial"",""time""
""fullscreenenter"",""1"",""2116""
","
","","","","","","1529.7999999970198","images/horse1.png","","","memory_trial","4","definitely_new",""
"html-keyboard-response","134","391846","0.0-18.0-0.45","4128","approach_avoid_sv1","""event"",""trial"",""time""
""fullscreenenter"",""1"",""2116""
","
","
","""event"",""trial"",""time""
""fullscreenenter"",""1"",""2116""
","
","","","","","","null","<div style=""font-size:60px;"">+</div>","null","","fixation","","",""
"memory-trial","135","395590","0.0-18.0-1.45","4128","approach_avoid_sv1","""event"",""trial"",""time""
""fullscreenenter"",""1"",""2116""
","
","
","""event"",""trial"",""time""
""fullscreenenter"",""1"",""2116""
","
","","","","","","2739.8999999910593","images/boat5.png","","","memory_trial","1","definitely_old",""
"html-keyboard-response","136","396094","0.0-18.0-0.46","4128","approach_avoid_sv1","""event"",""trial"",""time""
""fullscreenenter"",""1"",""2116""
","
","
","""event"",""trial"",""time""
""fullscreenenter"",""1"",""2116""
","
","","","","","","null","<div style=""font-size:60px;"">+</div>","null","","fixation","","",""
"memory-trial","137","399112","0.0-18.0-1.46","4128","approach_avoid_sv1","""event"",""trial"",""time""
""fullscreenenter"",""1"",""2116""
","
","
","""event"",""trial"",""time""
""fullscreenenter"",""1"",""2116""
","
","","","","","","2004.5999999940395","images/sofa7.png","","","memory_trial","1","definitely_old",""
"html-keyboard-response","138","399615","0.0-18.0-0.47","4128","approach_avoid_sv1","""event"",""trial"",""time""
""fullscreenenter"",""1"",""2116""
","
","
","""event"",""trial"",""time""
""fullscreenenter"",""1"",""2116""
","
","","","","","","null","<div style=""font-size:60px;"">+</div>","null","","fixation","","",""
"memory-trial","139","403510","0.0-18.0-1.47","4128","approach_avoid_sv1","""event"",""trial"",""time""
""fullscreenenter"",""1"",""2116""
","
","
","""event"",""trial"",""time""
""fullscreenenter"",""1"",""2116""
","
","","","","","","2891.3999999910593","images/horse3.png","","","memory_trial","3","maybe_new",""
"html-keyboard-response","140","404014","0.0-18.0-0.48","4128","approach_avoid_sv1","""event"",""trial"",""time""
""fullscreenenter"",""1"",""2116""
","
","
","""event"",""trial"",""time""
""fullscreenenter"",""1"",""2116""
","
","","","","","","null","<div style=""font-size:60px;"">+</div>","null","","fixation","","",""
"memory-trial","141","410334","0.0-18.0-1.48","4128","approach_avoid_sv1","""event"",""trial"",""time""
""fullscreenenter"",""1"",""2116""
","
","
","""event"",""trial"",""time""
""fullscreenenter"",""1"",""2116""
","
","","","","","","5316.0999999940395","images/orange1.png","","","memory_trial","2","maybe_old",""
"html-keyboard-response","142","410839","0.0-18.0-0.49","4128","approach_avoid_sv1","""event"",""trial"",""time""
""fullscreenenter"",""1"",""2116""
","
","
","""event"",""trial"",""time""
""fullscreenenter"",""1"",""2116""
","
","","","","","","null","<div style=""font-size:60px;"">+</div>","null","","fixation","","",""
"memory-trial","143","413871","0.0-18.0-1.49","4128","approach_avoid_sv1","""event"",""trial"",""time""
""fullscreenenter"",""1"",""2116""
","
","
","""event"",""trial"",""time""
""fullscreenenter"",""1"",""2116""
","
","","","","","","2022","images/tree4.png","","","memory_trial","1","definitely_old",""
"html-keyboard-response","144","414375","0.0-18.0-0.50","4128","approach_avoid_sv1","""event"",""trial"",""time""
""fullscreenenter"",""1"",""2116""
","
","
","""event"",""trial"",""time""
""fullscreenenter"",""1"",""2116""
","
","","","","","","null","<div style=""font-size:60px;"">+</div>","null","","fixation","","",""
"memory-trial","145","417263","0.0-18.0-1.50","4128","approach_avoid_sv1","""event"",""trial"",""time""
""fullscreenenter"",""1"",""2116""
","
","
","""event"",""trial"",""time""
""fullscreenenter"",""1"",""2116""
","
","","","","","","1880.8999999910593","images/banana4.png","","","memory_trial","3","maybe_new",""
"html-keyboard-response","146","417781","0.0-18.0-0.51","4128","approach_avoid_sv1","""event"",""trial"",""time""
""fullscreenenter"",""1"",""2116""
","
","
","""event"",""trial"",""time""
""fullscreenenter"",""1"",""2116""
","
","","","","","","null","<div style=""font-size:60px;"">+</div>","null","","fixation","","",""
"memory-trial","147","420423","0.0-18.0-1.51","4128","approach_avoid_sv1","""event"",""trial"",""time""
""fullscreenenter"",""1"",""2116""
","
","
","""event"",""trial"",""time""
""fullscreenenter"",""1"",""2116""
","
","","","","","","1638","images/straw1.png","","","memory_trial","2","maybe_old",""
"html-keyboard-response","148","420927","0.0-18.0-0.52","4128","approach_avoid_sv1","""event"",""trial"",""time""
""fullscreenenter"",""1"",""2116""
","
","
","""event"",""trial"",""time""
""fullscreenenter"",""1"",""2116""
","
","","","","","","null","<div style=""font-size:60px;"">+</div>","null","","fixation","","",""
"memory-trial","149","425454","0.0-18.0-1.52","4128","approach_avoid_sv1","""event"",""trial"",""time""
""fullscreenenter"",""1"",""2116""
","
","
","""event"",""trial"",""time""
""fullscreenenter"",""1"",""2116""
","
","","","","","","3523","images/bush2.png","","","memory_trial","3","maybe_new",""
"html-keyboard-response","150","425958","0.0-18.0-0.53","4128","approach_avoid_sv1","""event"",""trial"",""time""
""fullscreenenter"",""1"",""2116""
","
","
","""event"",""trial"",""time""
""fullscreenenter"",""1"",""2116""
","
","","","","","","null","<div style=""font-size:60px;"">+</div>","null","","fixation","","",""
"memory-trial","151","430638","0.0-18.0-1.53","4128","approach_avoid_sv1","""event"",""trial"",""time""
""fullscreenenter"",""1"",""2116""
","
","
","""event"",""trial"",""time""
""fullscreenenter"",""1"",""2116""
","
","","","","","","3672.4000000059605","images/train7.png","","","memory_trial","2","maybe_old",""
"html-keyboard-response","152","431142","0.0-18.0-0.54","4128","approach_avoid_sv1","""event"",""trial"",""time""
""fullscreenenter"",""1"",""2116""
","
","
","""event"",""trial"",""time""
""fullscreenenter"",""1"",""2116""
","
","","","","","","null","<div style=""font-size:60px;"">+</div>","null","","fixation","","",""
"memory-trial","153","434799","0.0-18.0-1.54","4128","approach_avoid_sv1","""event"",""trial"",""time""
""fullscreenenter"",""1"",""2116""
","
","
","""event"",""trial"",""time""
""fullscreenenter"",""1"",""2116""
","
","","","","","","2649.7000000029802","images/bush8.png","","","memory_trial","3","maybe_new",""
"html-keyboard-response","154","435303","0.0-18.0-0.55","4128","approach_avoid_sv1","""event"",""trial"",""time""
""fullscreenenter"",""1"",""2116""
","
","
","""event"",""trial"",""time""
""fullscreenenter"",""1"",""2116""
","
","","","","","","null","<div style=""font-size:60px;"">+</div>","null","","fixation","","",""
"memory-trial","155","439254","0.0-18.0-1.55","4128","approach_avoid_sv1","""event"",""trial"",""time""
""fullscreenenter"",""1"",""2116""
","
","
","""event"",""trial"",""time""
""fullscreenenter"",""1"",""2116""
","
","","","","","","2944.6000000089407","images/rodent2.png","","","memory_trial","2","maybe_old",""
"html-keyboard-response","156","439757","0.0-18.0-0.56","4128","approach_avoid_sv1","""event"",""trial"",""time""
""fullscreenenter"",""1"",""2116""
""blur"",""157"",""443828""
""focus"",""157"",""443996""
","""event"",""trial"",""time""
""blur"",""157"",""443828""
","""event"",""trial"",""time""
""focus"",""157"",""443996""
","""event"",""trial"",""time""
""fullscreenenter"",""1"",""2116""
","
","","","","","","null","<div style=""font-size:60px;"">+</div>","null","","fixation","","",""
"memory-trial","157","445190","0.0-18.0-1.56","4128","approach_avoid_sv1","""event"",""trial"",""time""
""fullscreenenter"",""1"",""2116""
""blur"",""157"",""443828""
""focus"",""157"",""443996""
","""event"",""trial"",""time""
""blur"",""157"",""443828""
","""event"",""trial"",""time""
""focus"",""157"",""443996""
","""event"",""trial"",""time""
""fullscreenenter"",""1"",""2116""
","
","","","","","","4424.20000000298","images/train8.png","","","memory_trial","3","maybe_new",""
"html-keyboard-response","158","445693","0.0-18.0-0.57","4128","approach_avoid_sv1","""event"",""trial"",""time""
""fullscreenenter"",""1"",""2116""
""blur"",""157"",""443828""
""focus"",""157"",""443996""
","""event"",""trial"",""time""
""blur"",""157"",""443828""
","""event"",""trial"",""time""
""focus"",""157"",""443996""
","""event"",""trial"",""time""
""fullscreenenter"",""1"",""2116""
","
","","","","","","null","<div style=""font-size:60px;"">+</div>","null","","fixation","","",""
"memory-trial","159","450479","0.0-18.0-1.57","4128","approach_avoid_sv1","""event"",""trial"",""time""
""fullscreenenter"",""1"",""2116""
""blur"",""157"",""443828""
""focus"",""157"",""443996""
","""event"",""trial"",""time""
""blur"",""157"",""443828""
","""event"",""trial"",""time""
""focus"",""157"",""443996""
","""event"",""trial"",""time""
""fullscreenenter"",""1"",""2116""
","
","","","","","","3776.0999999940395","images/cat8.png","","","memory_trial","4","definitely_new",""
"html-keyboard-response","160","450981","0.0-18.0-0.58","4128","approach_avoid_sv1","""event"",""trial"",""time""
""fullscreenenter"",""1"",""2116""
""blur"",""157"",""443828""
""focus"",""157"",""443996""
","""event"",""trial"",""time""
""blur"",""157"",""443828""
","""event"",""trial"",""time""
""focus"",""157"",""443996""
","""event"",""trial"",""time""
""fullscreenenter"",""1"",""2116""
","
","","","","","","null","<div style=""font-size:60px;"">+</div>","null","","fixation","","",""
"memory-trial","161","455078","0.0-18.0-1.58","4128","approach_avoid_sv1","""event"",""trial"",""time""
""fullscreenenter"",""1"",""2116""
""blur"",""157"",""443828""
""focus"",""157"",""443996""
","""event"",""trial"",""time""
""blur"",""157"",""443828""
","""event"",""trial"",""time""
""focus"",""157"",""443996""
","""event"",""trial"",""time""
""fullscreenenter"",""1"",""2116""
","
","","","","","","3084.7999999970198","images/sofa2.png","","","memory_trial","3","maybe_new",""
"html-keyboard-response","162","455582","0.0-18.0-0.59","4128","approach_avoid_sv1","""event"",""trial"",""time""
""fullscreenenter"",""1"",""2116""
""blur"",""157"",""443828""
""focus"",""157"",""443996""
","""event"",""trial"",""time""
""blur"",""157"",""443828""
","""event"",""trial"",""time""
""focus"",""157"",""443996""
","""event"",""trial"",""time""
""fullscreenenter"",""1"",""2116""
","
","","","","","","null","<div style=""font-size:60px;"">+</div>","null","","fixation","","",""
"memory-trial","163","459838","0.0-18.0-1.59","4128","approach_avoid_sv1","""event"",""trial"",""time""
""fullscreenenter"",""1"",""2116""
""blur"",""157"",""443828""
""focus"",""157"",""443996""
","""event"",""trial"",""time""
""blur"",""157"",""443828""
","""event"",""trial"",""time""
""focus"",""157"",""443996""
","""event"",""trial"",""time""
""fullscreenenter"",""1"",""2116""
","
","","","","","","3246.7999999970198","images/straw5.png","","","memory_trial","1","definitely_old",""
"html-keyboard-response","164","460342","0.0-18.0-0.60","4128","approach_avoid_sv1","""event"",""trial"",""time""
""fullscreenenter"",""1"",""2116""
""blur"",""157"",""443828""
""focus"",""157"",""443996""
","""event"",""trial"",""time""
""blur"",""157"",""443828""
","""event"",""trial"",""time""
""focus"",""157"",""443996""
","""event"",""trial"",""time""
""fullscreenenter"",""1"",""2116""
","
","","","","","","null","<div style=""font-size:60px;"">+</div>","null","","fixation","","",""
"memory-trial","165","463614","0.0-18.0-1.60","4128","approach_avoid_sv1","""event"",""trial"",""time""
""fullscreenenter"",""1"",""2116""
""blur"",""157"",""443828""
""focus"",""157"",""443996""
","""event"",""trial"",""time""
""blur"",""157"",""443828""
","""event"",""trial"",""time""
""focus"",""157"",""443996""
","""event"",""trial"",""time""
""fullscreenenter"",""1"",""2116""
","
","","","","","","2266.2999999970198","images/orange8.png","","","memory_trial","2","maybe_old",""
"html-keyboard-response","166","464117","0.0-18.0-0.61","4128","approach_avoid_sv1","""event"",""trial"",""time""
""fullscreenenter"",""1"",""2116""
""blur"",""157"",""443828""
""focus"",""157"",""443996""
","""event"",""trial"",""time""
""blur"",""157"",""443828""
","""event"",""trial"",""time""
""focus"",""157"",""443996""
","""event"",""trial"",""time""
""fullscreenenter"",""1"",""2116""
","
","","","","","","null","<div style=""font-size:60px;"">+</div>","null","","fixation","","",""
"memory-trial","167","469333","0.0-18.0-1.61","4128","approach_avoid_sv1","""event"",""trial"",""time""
""fullscreenenter"",""1"",""2116""
""blur"",""157"",""443828""
""focus"",""157"",""443996""
","""event"",""trial"",""time""
""blur"",""157"",""443828""
","""event"",""trial"",""time""
""focus"",""157"",""443996""
","""event"",""trial"",""time""
""fullscreenenter"",""1"",""2116""
","
","","","","","","4207.0999999940395","images/cow1.png","","","memory_trial","3","maybe_new",""
"html-keyboard-response","168","469839","0.0-18.0-0.62","4128","approach_avoid_sv1","""event"",""trial"",""time""
""fullscreenenter"",""1"",""2116""
""blur"",""157"",""443828""
""focus"",""157"",""443996""
","""event"",""trial"",""time""
""blur"",""157"",""443828""
","""event"",""trial"",""time""
""focus"",""157"",""443996""
","""event"",""trial"",""time""
""fullscreenenter"",""1"",""2116""
","
","","","","","","null","<div style=""font-size:60px;"">+</div>","null","","fixation","","",""
"memory-trial","169","473223","0.0-18.0-1.62","4128","approach_avoid_sv1","""event"",""trial"",""time""
""fullscreenenter"",""1"",""2116""
""blur"",""157"",""443828""
""focus"",""157"",""443996""
","""event"",""trial"",""time""
""blur"",""157"",""443828""
","""event"",""trial"",""time""
""focus"",""157"",""443996""
","""event"",""trial"",""time""
""fullscreenenter"",""1"",""2116""
","
","","","","","","2374.2000000029802","images/chair8.png","","","memory_trial","4","definitely_new",""
"html-keyboard-response","170","473726","0.0-18.0-0.63","4128","approach_avoid_sv1","""event"",""trial"",""time""
""fullscreenenter"",""1"",""2116""
""blur"",""157"",""443828""
""focus"",""157"",""443996""
","""event"",""trial"",""time""
""blur"",""157"",""443828""
","""event"",""trial"",""time""
""focus"",""157"",""443996""
","""event"",""trial"",""time""
""fullscreenenter"",""1"",""2116""
","
","","","","","","null","<div style=""font-size:60px;"">+</div>","null","","fixation","","",""
"memory-trial","171","475983","0.0-18.0-1.63","4128","approach_avoid_sv1","""event"",""trial"",""time""
""fullscreenenter"",""1"",""2116""
""blur"",""157"",""443828""
""focus"",""157"",""443996""
","""event"",""trial"",""time""
""blur"",""157"",""443828""
","""event"",""trial"",""time""
""focus"",""157"",""443996""
","""event"",""trial"",""time""
""fullscreenenter"",""1"",""2116""
","
","","","","","","1251.2999999970198","images/sofa3.png","","","memory_trial","4","definitely_new",""
"html-keyboard-response","172","476486","0.0-18.0-0.64","4128","approach_avoid_sv1","""event"",""trial"",""time""
""fullscreenenter"",""1"",""2116""
""blur"",""157"",""443828""
""focus"",""157"",""443996""
","""event"",""trial"",""time""
""blur"",""157"",""443828""
","""event"",""trial"",""time""
""focus"",""157"",""443996""
","""event"",""trial"",""time""
""fullscreenenter"",""1"",""2116""
","
","","","","","","null","<div style=""font-size:60px;"">+</div>","null","","fixation","","",""
"memory-trial","173","479822","0.0-18.0-1.64","4128","approach_avoid_sv1","""event"",""trial"",""time""
""fullscreenenter"",""1"",""2116""
""blur"",""157"",""443828""
""focus"",""157"",""443996""
","""event"",""trial"",""time""
""blur"",""157"",""443828""
","""event"",""trial"",""time""
""focus"",""157"",""443996""
","""event"",""trial"",""time""
""fullscreenenter"",""1"",""2116""
","
","","","","","","2324.7999999970198","images/goat7.png","","","memory_trial","1","definitely_old",""
"html-keyboard-response","174","480326","0.0-18.0-0.65","4128","approach_avoid_sv1","""event"",""trial"",""time""
""fullscreenenter"",""1"",""2116""
""blur"",""157"",""443828""
""focus"",""157"",""443996""
","""event"",""trial"",""time""
""blur"",""157"",""443828""
","""event"",""trial"",""time""
""focus"",""157"",""443996""
","""event"",""trial"",""time""
""fullscreenenter"",""1"",""2116""
","
","","","","","","null","<div style=""font-size:60px;"">+</div>","null","","fixation","","",""
"memory-trial","175","483230","0.0-18.0-1.65","4128","approach_avoid_sv1","""event"",""trial"",""time""
""fullscreenenter"",""1"",""2116""
""blur"",""157"",""443828""
""focus"",""157"",""443996""
","""event"",""trial"",""time""
""blur"",""157"",""443828""
","""event"",""trial"",""time""
""focus"",""157"",""443996""
","""event"",""trial"",""time""
""fullscreenenter"",""1"",""2116""
","
","","","","","","1892.5","images/plane1.png","","","memory_trial","4","definitely_new",""
"html-keyboard-response","176","483734","0.0-18.0-0.66","4128","approach_avoid_sv1","""event"",""trial"",""time""
""fullscreenenter"",""1"",""2116""
""blur"",""157"",""443828""
""focus"",""157"",""443996""
","""event"",""trial"",""time""
""blur"",""157"",""443828""
","""event"",""trial"",""time""
""focus"",""157"",""443996""
","""event"",""trial"",""time""
""fullscreenenter"",""1"",""2116""
","
","","","","","","null","<div style=""font-size:60px;"">+</div>","null","","fixation","","",""
"memory-trial","177","486078","0.0-18.0-1.66","4128","approach_avoid_sv1","""event"",""trial"",""time""
""fullscreenenter"",""1"",""2116""
""blur"",""157"",""443828""
""focus"",""157"",""443996""
","""event"",""trial"",""time""
""blur"",""157"",""443828""
","""event"",""trial"",""time""
""focus"",""157"",""443996""
","""event"",""trial"",""time""
""fullscreenenter"",""1"",""2116""
","
","","","","","","1332.9000000059605","images/apple6.png","","","memory_trial","2","maybe_old",""
"html-keyboard-response","178","486582","0.0-18.0-0.67","4128","approach_avoid_sv1","""event"",""trial"",""time""
""fullscreenenter"",""1"",""2116""
""blur"",""157"",""443828""
""focus"",""157"",""443996""
","""event"",""trial"",""time""
""blur"",""157"",""443828""
","""event"",""trial"",""time""
""focus"",""157"",""443996""
","""event"",""trial"",""time""
""fullscreenenter"",""1"",""2116""
","
","","","","","","null","<div style=""font-size:60px;"">+</div>","null","","fixation","","",""
"memory-trial","179","489246","0.0-18.0-1.67","4128","approach_avoid_sv1","""event"",""trial"",""time""
""fullscreenenter"",""1"",""2116""
""blur"",""157"",""443828""
""focus"",""157"",""443996""
","""event"",""trial"",""time""
""blur"",""157"",""443828""
","""event"",""trial"",""time""
""focus"",""157"",""443996""
","""event"",""trial"",""time""
""fullscreenenter"",""1"",""2116""
","
","","","","","","1659.5","images/cactus5.png","","","memory_trial","1","definitely_old",""
"html-keyboard-response","180","489750","0.0-18.0-0.68","4128","approach_avoid_sv1","""event"",""trial"",""time""
""fullscreenenter"",""1"",""2116""
""blur"",""157"",""443828""
""focus"",""157"",""443996""
","""event"",""trial"",""time""
""blur"",""157"",""443828""
","""event"",""trial"",""time""
""focus"",""157"",""443996""
","""event"",""trial"",""time""
""fullscreenenter"",""1"",""2116""
","
","","","","","","null","<div style=""font-size:60px;"">+</div>","null","","fixation","","",""
"memory-trial","181","492614","0.0-18.0-1.68","4128","approach_avoid_sv1","""event"",""trial"",""time""
""fullscreenenter"",""1"",""2116""
""blur"",""157"",""443828""
""focus"",""157"",""443996""
","""event"",""trial"",""time""
""blur"",""157"",""443828""
","""event"",""trial"",""time""
""focus"",""157"",""443996""
","""event"",""trial"",""time""
""fullscreenenter"",""1"",""2116""
","
","","","","","","1855.3999999910593","images/rodent5.png","","","memory_trial","4","definitely_new",""
"html-keyboard-response","182","493117","0.0-18.0-0.69","4128","approach_avoid_sv1","""event"",""trial"",""time""
""fullscreenenter"",""1"",""2116""
""blur"",""157"",""443828""
""focus"",""157"",""443996""
","""event"",""trial"",""time""
""blur"",""157"",""443828""
","""event"",""trial"",""time""
""focus"",""157"",""443996""
","""event"",""trial"",""time""
""fullscreenenter"",""1"",""2116""
","
","","","","","","null","<div style=""font-size:60px;"">+</div>","null","","fixation","","",""
"memory-trial","183","497342","0.0-18.0-1.69","4128","approach_avoid_sv1","""event"",""trial"",""time""
""fullscreenenter"",""1"",""2116""
""blur"",""157"",""443828""
""focus"",""157"",""443996""
","""event"",""trial"",""time""
""blur"",""157"",""443828""
","""event"",""trial"",""time""
""focus"",""157"",""443996""
","""event"",""trial"",""time""
""fullscreenenter"",""1"",""2116""
","
","","","","","","3217.5999999940395","images/chair1.png","","","memory_trial","2","maybe_old",""
"html-keyboard-response","184","497846","0.0-18.0-0.70","4128","approach_avoid_sv1","""event"",""trial"",""time""
""fullscreenenter"",""1"",""2116""
""blur"",""157"",""443828""
""focus"",""157"",""443996""
","""event"",""trial"",""time""
""blur"",""157"",""443828""
","""event"",""trial"",""time""
""focus"",""157"",""443996""
","""event"",""trial"",""time""
""fullscreenenter"",""1"",""2116""
","
","","","","","","null","<div style=""font-size:60px;"">+</div>","null","","fixation","","",""
"memory-trial","185","500758","0.0-18.0-1.70","4128","approach_avoid_sv1","""event"",""trial"",""time""
""fullscreenenter"",""1"",""2116""
""blur"",""157"",""443828""
""focus"",""157"",""443996""
","""event"",""trial"",""time""
""blur"",""157"",""443828""
","""event"",""trial"",""time""
""focus"",""157"",""443996""
","""event"",""trial"",""time""
""fullscreenenter"",""1"",""2116""
","
","","","","","","1904.0999999940395","images/train6.png","","","memory_trial","1","definitely_old",""
"html-keyboard-response","186","501263","0.0-18.0-0.71","4128","approach_avoid_sv1","""event"",""trial"",""time""
""fullscreenenter"",""1"",""2116""
""blur"",""157"",""443828""
""focus"",""157"",""443996""
","""event"",""trial"",""time""
""blur"",""157"",""443828""
","""event"",""trial"",""time""
""focus"",""157"",""443996""
","""event"",""trial"",""time""
""fullscreenenter"",""1"",""2116""
","
","","","","","","null","<div style=""font-size:60px;"">+</div>","null","","fixation","","",""
"memory-trial","187","503846","0.0-18.0-1.71","4128","approach_avoid_sv1","""event"",""trial"",""time""
""fullscreenenter"",""1"",""2116""
""blur"",""157"",""443828""
""focus"",""157"",""443996""
","""event"",""trial"",""time""
""blur"",""157"",""443828""
","""event"",""trial"",""time""
""focus"",""157"",""443996""
","""event"",""trial"",""time""
""fullscreenenter"",""1"",""2116""
","
","","","","","","1578.7999999970198","images/bush1.png","","","memory_trial","3","maybe_new",""
"html-keyboard-response","188","504350","0.0-18.0-0.72","4128","approach_avoid_sv1","""event"",""trial"",""time""
""fullscreenenter"",""1"",""2116""
""blur"",""157"",""443828""
""focus"",""157"",""443996""
","""event"",""trial"",""time""
""blur"",""157"",""443828""
","""event"",""trial"",""time""
""focus"",""157"",""443996""
","""event"",""trial"",""time""
""fullscreenenter"",""1"",""2116""
","
","","","","","","null","<div style=""font-size:60px;"">+</div>","null","","fixation","","",""
"memory-trial","189","508479","0.0-18.0-1.72","4128","approach_avoid_sv1","""event"",""trial"",""time""
""fullscreenenter"",""1"",""2116""
""blur"",""157"",""443828""
""focus"",""157"",""443996""
","""event"",""trial"",""time""
""blur"",""157"",""443828""
","""event"",""trial"",""time""
""focus"",""157"",""443996""
","""event"",""trial"",""time""
""fullscreenenter"",""1"",""2116""
","
","","","","","","3116.4000000059605","images/cow7.png","","","memory_trial","1","definitely_old",""
"html-keyboard-response","190","508992","0.0-18.0-0.73","4128","approach_avoid_sv1","""event"",""trial"",""time""
""fullscreenenter"",""1"",""2116""
""blur"",""157"",""443828""
""focus"",""157"",""443996""
","""event"",""trial"",""time""
""blur"",""157"",""443828""
","""event"",""trial"",""time""
""focus"",""157"",""443996""
","""event"",""trial"",""time""
""fullscreenenter"",""1"",""2116""
","
","","","","","","null","<div style=""font-size:60px;"">+</div>","null","","fixation","","",""
"memory-trial","191","511471","0.0-18.0-1.73","4128","approach_avoid_sv1","""event"",""trial"",""time""
""fullscreenenter"",""1"",""2116""
""blur"",""157"",""443828""
""focus"",""157"",""443996""
","""event"",""trial"",""time""
""blur"",""157"",""443828""
","""event"",""trial"",""time""
""focus"",""157"",""443996""
","""event"",""trial"",""time""
""fullscreenenter"",""1"",""2116""
","
","","","","","","1472.4000000059605","images/cactus6.png","","","memory_trial","1","definitely_old",""
"html-keyboard-response","192","511973","0.0-18.0-0.74","4128","approach_avoid_sv1","""event"",""trial"",""time""
""fullscreenenter"",""1"",""2116""
""blur"",""157"",""443828""
""focus"",""157"",""443996""
","""event"",""trial"",""time""
""blur"",""157"",""443828""
","""event"",""trial"",""time""
""focus"",""157"",""443996""
","""event"",""trial"",""time""
""fullscreenenter"",""1"",""2116""
","
","","","","","","null","<div style=""font-size:60px;"">+</div>","null","","fixation","","",""
"memory-trial","193","514623","0.0-18.0-1.74","4128","approach_avoid_sv1","""event"",""trial"",""time""
""fullscreenenter"",""1"",""2116""
""blur"",""157"",""443828""
""focus"",""157"",""443996""
","""event"",""trial"",""time""
""blur"",""157"",""443828""
","""event"",""trial"",""time""
""focus"",""157"",""443996""
","""event"",""trial"",""time""
""fullscreenenter"",""1"",""2116""
","
","","","","","","1642.9000000059605","images/bed8.png","","","memory_trial","1","definitely_old",""
"html-keyboard-response","194","515126","0.0-18.0-0.75","4128","approach_avoid_sv1","""event"",""trial"",""time""
""fullscreenenter"",""1"",""2116""
""blur"",""157"",""443828""
""focus"",""157"",""443996""
","""event"",""trial"",""time""
""blur"",""157"",""443828""
","""event"",""trial"",""time""
""focus"",""157"",""443996""
","""event"",""trial"",""time""
""fullscreenenter"",""1"",""2116""
","
","","","","","","null","<div style=""font-size:60px;"">+</div>","null","","fixation","","",""
"memory-trial","195","518198","0.0-18.0-1.75","4128","approach_avoid_sv1","""event"",""trial"",""time""
""fullscreenenter"",""1"",""2116""
""blur"",""157"",""443828""
""focus"",""157"",""443996""
","""event"",""trial"",""time""
""blur"",""157"",""443828""
","""event"",""trial"",""time""
""focus"",""157"",""443996""
","""event"",""trial"",""time""
""fullscreenenter"",""1"",""2116""
","
","","","","","","2064.7000000029802","images/chair4.png","","","memory_trial","4","definitely_new",""
"html-keyboard-response","196","518703","0.0-18.0-0.76","4128","approach_avoid_sv1","""event"",""trial"",""time""
""fullscreenenter"",""1"",""2116""
""blur"",""157"",""443828""
""focus"",""157"",""443996""
","""event"",""trial"",""time""
""blur"",""157"",""443828""
","""event"",""trial"",""time""
""focus"",""157"",""443996""
","""event"",""trial"",""time""
""fullscreenenter"",""1"",""2116""
","
","","","","","","null","<div style=""font-size:60px;"">+</div>","null","","fixation","","",""
"memory-trial","197","520903","0.0-18.0-1.76","4128","approach_avoid_sv1","""event"",""trial"",""time""
""fullscreenenter"",""1"",""2116""
""blur"",""157"",""443828""
""focus"",""157"",""443996""
","""event"",""trial"",""time""
""blur"",""157"",""443828""
","""event"",""trial"",""time""
""focus"",""157"",""443996""
","""event"",""trial"",""time""
""fullscreenenter"",""1"",""2116""
","
","","","","","","1195.0999999940395","images/cactus7.png","","","memory_trial","1","definitely_old",""
"html-keyboard-response","198","521406","0.0-18.0-0.77","4128","approach_avoid_sv1","""event"",""trial"",""time""
""fullscreenenter"",""1"",""2116""
""blur"",""157"",""443828""
""focus"",""157"",""443996""
","""event"",""trial"",""time""
""blur"",""157"",""443828""
","""event"",""trial"",""time""
""focus"",""157"",""443996""
","""event"",""trial"",""time""
""fullscreenenter"",""1"",""2116""
","
","","","","","","null","<div style=""font-size:60px;"">+</div>","null","","fixation","","",""
"memory-trial","199","525230","0.0-18.0-1.77","4128","approach_avoid_sv1","""event"",""trial"",""time""
""fullscreenenter"",""1"",""2116""
""blur"",""157"",""443828""
""focus"",""157"",""443996""
","""event"",""trial"",""time""
""blur"",""157"",""443828""
","""event"",""trial"",""time""
""focus"",""157"",""443996""
","""event"",""trial"",""time""
""fullscreenenter"",""1"",""2116""
","
","","","","","","2819.2000000029802","images/rodent6.png","","","memory_trial","4","definitely_new",""
"html-keyboard-response","200","525733","0.0-18.0-0.78","4128","approach_avoid_sv1","""event"",""trial"",""time""
""fullscreenenter"",""1"",""2116""
""blur"",""157"",""443828""
""focus"",""157"",""443996""
","""event"",""trial"",""time""
""blur"",""157"",""443828""
","""event"",""trial"",""time""
""focus"",""157"",""443996""
","""event"",""trial"",""time""
""fullscreenenter"",""1"",""2116""
","
","","","","","","null","<div style=""font-size:60px;"">+</div>","null","","fixation","","",""
"memory-trial","201","528415","0.0-18.0-1.78","4128","approach_avoid_sv1","""event"",""trial"",""time""
""fullscreenenter"",""1"",""2116""
""blur"",""157"",""443828""
""focus"",""157"",""443996""
","""event"",""trial"",""time""
""blur"",""157"",""443828""
","""event"",""trial"",""time""
""focus"",""157"",""443996""
","""event"",""trial"",""time""
""fullscreenenter"",""1"",""2116""
","
","","","","","","1671.5","images/chair6.png","","","memory_trial","4","definitely_new",""
"html-keyboard-response","202","528918","0.0-18.0-0.79","4128","approach_avoid_sv1","""event"",""trial"",""time""
""fullscreenenter"",""1"",""2116""
""blur"",""157"",""443828""
""focus"",""157"",""443996""
","""event"",""trial"",""time""
""blur"",""157"",""443828""
","""event"",""trial"",""time""
""focus"",""157"",""443996""
","""event"",""trial"",""time""
""fullscreenenter"",""1"",""2116""
","
","","","","","","null","<div style=""font-size:60px;"">+</div>","null","","fixation","","",""
"memory-trial","203","533630","0.0-18.0-1.79","4128","approach_avoid_sv1","""event"",""trial"",""time""
""fullscreenenter"",""1"",""2116""
""blur"",""157"",""443828""
""focus"",""157"",""443996""
","""event"",""trial"",""time""
""blur"",""157"",""443828""
","""event"",""trial"",""time""
""focus"",""157"",""443996""
","""event"",""trial"",""time""
""fullscreenenter"",""1"",""2116""
","
","","","","","","3701.7000000029802","images/bush3.png","","","memory_trial","3","maybe_new",""
"html-keyboard-response","204","534133","0.0-18.0-0.80","4128","approach_avoid_sv1","""event"",""trial"",""time""
""fullscreenenter"",""1"",""2116""
""blur"",""157"",""443828""
""focus"",""157"",""443996""
","""event"",""trial"",""time""
""blur"",""157"",""443828""
","""event"",""trial"",""time""
""focus"",""157"",""443996""
","""event"",""trial"",""time""
""fullscreenenter"",""1"",""2116""
","
","","","","","","null","<div style=""font-size:60px;"">+</div>","null","","fixation","","",""
"memory-trial","205","538007","0.0-18.0-1.80","4128","approach_avoid_sv1","""event"",""trial"",""time""
""fullscreenenter"",""1"",""2116""
""blur"",""157"",""443828""
""focus"",""157"",""443996""
","""event"",""trial"",""time""
""blur"",""157"",""443828""
","""event"",""trial"",""time""
""focus"",""157"",""443996""
","""event"",""trial"",""time""
""fullscreenenter"",""1"",""2116""
","
","","","","","","2865","images/banana3.png","","","memory_trial","3","maybe_new",""
"html-keyboard-response","206","538521","0.0-18.0-0.81","4128","approach_avoid_sv1","""event"",""trial"",""time""
""fullscreenenter"",""1"",""2116""
""blur"",""157"",""443828""
""focus"",""157"",""443996""
","""event"",""trial"",""time""
""blur"",""157"",""443828""
","""event"",""trial"",""time""
""focus"",""157"",""443996""
","""event"",""trial"",""time""
""fullscreenenter"",""1"",""2116""
","
","","","","","","null","<div style=""font-size:60px;"">+</div>","null","","fixation","","",""
"memory-trial","207","543006","0.0-18.0-1.81","4128","approach_avoid_sv1","""event"",""trial"",""time""
""fullscreenenter"",""1"",""2116""
""blur"",""157"",""443828""
""focus"",""157"",""443996""
","""event"",""trial"",""time""
""blur"",""157"",""443828""
","""event"",""trial"",""time""
""focus"",""157"",""443996""
","""event"",""trial"",""time""
""fullscreenenter"",""1"",""2116""
","
","","","","","","3478.1000000089407","images/table4.png","","","memory_trial","3","maybe_new",""
"html-keyboard-response","208","543510","0.0-18.0-0.82","4128","approach_avoid_sv1","""event"",""trial"",""time""
""fullscreenenter"",""1"",""2116""
""blur"",""157"",""443828""
""focus"",""157"",""443996""
","""event"",""trial"",""time""
""blur"",""157"",""443828""
","""event"",""trial"",""time""
""focus"",""157"",""443996""
","""event"",""trial"",""time""
""fullscreenenter"",""1"",""2116""
","
","","","","","","null","<div style=""font-size:60px;"">+</div>","null","","fixation","","",""
"memory-trial","209","548982","0.0-18.0-1.82","4128","approach_avoid_sv1","""event"",""trial"",""time""
""fullscreenenter"",""1"",""2116""
""blur"",""157"",""443828""
""focus"",""157"",""443996""
","""event"",""trial"",""time""
""blur"",""157"",""443828""
","""event"",""trial"",""time""
""focus"",""157"",""443996""
","""event"",""trial"",""time""
""fullscreenenter"",""1"",""2116""
","
","","","","","","4464.29999999702","images/bed6.png","","","memory_trial","2","maybe_old",""
"html-keyboard-response","210","549486","0.0-18.0-0.83","4128","approach_avoid_sv1","""event"",""trial"",""time""
""fullscreenenter"",""1"",""2116""
""blur"",""157"",""443828""
""focus"",""157"",""443996""
","""event"",""trial"",""time""
""blur"",""157"",""443828""
","""event"",""trial"",""time""
""focus"",""157"",""443996""
","""event"",""trial"",""time""
""fullscreenenter"",""1"",""2116""
","
","","","","","","null","<div style=""font-size:60px;"">+</div>","null","","fixation","","",""
"memory-trial","211","554207","0.0-18.0-1.83","4128","approach_avoid_sv1","""event"",""trial"",""time""
""fullscreenenter"",""1"",""2116""
""blur"",""157"",""443828""
""focus"",""157"",""443996""
","""event"",""trial"",""time""
""blur"",""157"",""443828""
","""event"",""trial"",""time""
""focus"",""157"",""443996""
","""event"",""trial"",""time""
""fullscreenenter"",""1"",""2116""
","
","","","","","","3709.1000000089407","images/banana1.png","","","memory_trial","3","maybe_new",""
"html-keyboard-response","212","554711","0.0-18.0-0.84","4128","approach_avoid_sv1","""event"",""trial"",""time""
""fullscreenenter"",""1"",""2116""
""blur"",""157"",""443828""
""focus"",""157"",""443996""
","""event"",""trial"",""time""
""blur"",""157"",""443828""
","""event"",""trial"",""time""
""focus"",""157"",""443996""
","""event"",""trial"",""time""
""fullscreenenter"",""1"",""2116""
","
","","","","","","null","<div style=""font-size:60px;"">+</div>","null","","fixation","","",""
"memory-trial","213","560326","0.0-18.0-1.84","4128","approach_avoid_sv1","""event"",""trial"",""time""
""fullscreenenter"",""1"",""2116""
""blur"",""157"",""443828""
""focus"",""157"",""443996""
","""event"",""trial"",""time""
""blur"",""157"",""443828""
","""event"",""trial"",""time""
""focus"",""157"",""443996""
","""event"",""trial"",""time""
""fullscreenenter"",""1"",""2116""
","
","","","","","","4607.100000008941","images/table7.png","","","memory_trial","4","definitely_new",""
"html-keyboard-response","214","560830","0.0-18.0-0.85","4128","approach_avoid_sv1","""event"",""trial"",""time""
""fullscreenenter"",""1"",""2116""
""blur"",""157"",""443828""
""focus"",""157"",""443996""
","""event"",""trial"",""time""
""blur"",""157"",""443828""
","""event"",""trial"",""time""
""focus"",""157"",""443996""
","""event"",""trial"",""time""
""fullscreenenter"",""1"",""2116""
","
","","","","","","null","<div style=""font-size:60px;"">+</div>","null","","fixation","","",""
"memory-trial","215","564470","0.0-18.0-1.85","4128","approach_avoid_sv1","""event"",""trial"",""time""
""fullscreenenter"",""1"",""2116""
""blur"",""157"",""443828""
""focus"",""157"",""443996""
","""event"",""trial"",""time""
""blur"",""157"",""443828""
","""event"",""trial"",""time""
""focus"",""157"",""443996""
","""event"",""trial"",""time""
""fullscreenenter"",""1"",""2116""
","
","","","","","","2629.5","images/bush6.png","","","memory_trial","2","maybe_old",""
"html-keyboard-response","216","564974","0.0-18.0-0.86","4128","approach_avoid_sv1","""event"",""trial"",""time""
""fullscreenenter"",""1"",""2116""
""blur"",""157"",""443828""
""focus"",""157"",""443996""
","""event"",""trial"",""time""
""blur"",""157"",""443828""
","""event"",""trial"",""time""
""focus"",""157"",""443996""
","""event"",""trial"",""time""
""fullscreenenter"",""1"",""2116""
","
","","","","","","null","<div style=""font-size:60px;"">+</div>","null","","fixation","","",""
"memory-trial","217","568014","0.0-18.0-1.86","4128","approach_avoid_sv1","""event"",""trial"",""time""
""fullscreenenter"",""1"",""2116""
""blur"",""157"",""443828""
""focus"",""157"",""443996""
","""event"",""trial"",""time""
""blur"",""157"",""443828""
","""event"",""trial"",""time""
""focus"",""157"",""443996""
","""event"",""trial"",""time""
""fullscreenenter"",""1"",""2116""
","
","","","","","","2030.1000000089407","images/orange2.png","","","memory_trial","1","definitely_old",""
"html-keyboard-response","218","568518","0.0-18.0-0.87","4128","approach_avoid_sv1","""event"",""trial"",""time""
""fullscreenenter"",""1"",""2116""
""blur"",""157"",""443828""
""focus"",""157"",""443996""
","""event"",""trial"",""time""
""blur"",""157"",""443828""
","""event"",""trial"",""time""
""focus"",""157"",""443996""
","""event"",""trial"",""time""
""fullscreenenter"",""1"",""2116""
","
","","","","","","null","<div style=""font-size:60px;"">+</div>","null","","fixation","","",""
"memory-trial","219","573382","0.0-18.0-1.87","4128","approach_avoid_sv1","""event"",""trial"",""time""
""fullscreenenter"",""1"",""2116""
""blur"",""157"",""443828""
""focus"",""157"",""443996""
","""event"",""trial"",""time""
""blur"",""157"",""443828""
","""event"",""trial"",""time""
""focus"",""157"",""443996""
","""event"",""trial"",""time""
""fullscreenenter"",""1"",""2116""
","
","","","","","","3857.5999999940395","images/orange3.png","","","memory_trial","4","definitely_new",""
"html-keyboard-response","220","573886","0.0-18.0-0.88","4128","approach_avoid_sv1","""event"",""trial"",""time""
""fullscreenenter"",""1"",""2116""
""blur"",""157"",""443828""
""focus"",""157"",""443996""
","""event"",""trial"",""time""
""blur"",""157"",""443828""
","""event"",""trial"",""time""
""focus"",""157"",""443996""
","""event"",""trial"",""time""
""fullscreenenter"",""1"",""2116""
","
","","","","","","null","<div style=""font-size:60px;"">+</div>","null","","fixation","","",""
"memory-trial","221","576414","0.0-18.0-1.88","4128","approach_avoid_sv1","""event"",""trial"",""time""
""fullscreenenter"",""1"",""2116""
""blur"",""157"",""443828""
""focus"",""157"",""443996""
","""event"",""trial"",""time""
""blur"",""157"",""443828""
","""event"",""trial"",""time""
""focus"",""157"",""443996""
","""event"",""trial"",""time""
""fullscreenenter"",""1"",""2116""
","
","","","","","","1521.2999999970198","images/boat4.png","","","memory_trial","1","definitely_old",""
"html-keyboard-response","222","576920","0.0-18.0-0.89","4128","approach_avoid_sv1","""event"",""trial"",""time""
""fullscreenenter"",""1"",""2116""
""blur"",""157"",""443828""
""focus"",""157"",""443996""
","""event"",""trial"",""time""
""blur"",""157"",""443828""
","""event"",""trial"",""time""
""focus"",""157"",""443996""
","""event"",""trial"",""time""
""fullscreenenter"",""1"",""2116""
","
","","","","","","null","<div style=""font-size:60px;"">+</div>","null","","fixation","","",""
"memory-trial","223","580590","0.0-18.0-1.89","4128","approach_avoid_sv1","""event"",""trial"",""time""
""fullscreenenter"",""1"",""2116""
""blur"",""157"",""443828""
""focus"",""157"",""443996""
","""event"",""trial"",""time""
""blur"",""157"",""443828""
","""event"",""trial"",""time""
""focus"",""157"",""443996""
","""event"",""trial"",""time""
""fullscreenenter"",""1"",""2116""
","
","","","","","","2661.5999999940395","images/bed5.png","","","memory_trial","4","definitely_new",""
"html-keyboard-response","224","581094","0.0-18.0-0.90","4128","approach_avoid_sv1","""event"",""trial"",""time""
""fullscreenenter"",""1"",""2116""
""blur"",""157"",""443828""
""focus"",""157"",""443996""
","""event"",""trial"",""time""
""blur"",""157"",""443828""
","""event"",""trial"",""time""
""focus"",""157"",""443996""
","""event"",""trial"",""time""
""fullscreenenter"",""1"",""2116""
","
","","","","","","null","<div style=""font-size:60px;"">+</div>","null","","fixation","","",""
"memory-trial","225","585110","0.0-18.0-1.90","4128","approach_avoid_sv1","""event"",""trial"",""time""
""fullscreenenter"",""1"",""2116""
""blur"",""157"",""443828""
""focus"",""157"",""443996""
","""event"",""trial"",""time""
""blur"",""157"",""443828""
","""event"",""trial"",""time""
""focus"",""157"",""443996""
","""event"",""trial"",""time""
""fullscreenenter"",""1"",""2116""
","
","","","","","","3009.0999999940395","images/banana8.png","","","memory_trial","4","definitely_new",""
"html-keyboard-response","226","585613","0.0-18.0-0.91","4128","approach_avoid_sv1","""event"",""trial"",""time""
""fullscreenenter"",""1"",""2116""
""blur"",""157"",""443828""
""focus"",""157"",""443996""
","""event"",""trial"",""time""
""blur"",""157"",""443828""
","""event"",""trial"",""time""
""focus"",""157"",""443996""
","""event"",""trial"",""time""
""fullscreenenter"",""1"",""2116""
","
","","","","","","null","<div style=""font-size:60px;"">+</div>","null","","fixation","","",""
"memory-trial","227","590309","0.0-18.0-1.91","4128","approach_avoid_sv1","""event"",""trial"",""time""
""fullscreenenter"",""1"",""2116""
""blur"",""157"",""443828""
""focus"",""157"",""443996""
","""event"",""trial"",""time""
""blur"",""157"",""443828""
","""event"",""trial"",""time""
""focus"",""157"",""443996""
","""event"",""trial"",""time""
""fullscreenenter"",""1"",""2116""
","
","","","","","","3688.5999999940395","images/straw6.png","","","memory_trial","4","definitely_new",""
"html-button-response","228","595226","0.0-18.0-2.91-0.91","4128","approach_avoid_sv1","""event"",""trial"",""time""
""fullscreenenter"",""1"",""2116""
""blur"",""157"",""443828""
""focus"",""157"",""443996""
","""event"",""trial"",""time""
""blur"",""157"",""443828""
","""event"",""trial"",""time""
""focus"",""157"",""443996""
","""event"",""trial"",""time""
""fullscreenenter"",""1"",""2116""
","
","","","","","","4915","<p> Take a break! </p><p> Click the button to continue. </p>","0","","break","","",""
"html-keyboard-response","229","595733","0.0-18.0-0.92","4128","approach_avoid_sv1","""event"",""trial"",""time""
""fullscreenenter"",""1"",""2116""
""blur"",""157"",""443828""
""focus"",""157"",""443996""
","""event"",""trial"",""time""
""blur"",""157"",""443828""
","""event"",""trial"",""time""
""focus"",""157"",""443996""
","""event"",""trial"",""time""
""fullscreenenter"",""1"",""2116""
","
","","","","","","null","<div style=""font-size:60px;"">+</div>","null","","fixation","","",""
"memory-trial","230","598914","0.0-18.0-1.92","4128","approach_avoid_sv1","""event"",""trial"",""time""
""fullscreenenter"",""1"",""2116""
""blur"",""157"",""443828""
""focus"",""157"",""443996""
","""event"",""trial"",""time""
""blur"",""157"",""443828""
","""event"",""trial"",""time""
""focus"",""157"",""443996""
","""event"",""trial"",""time""
""fullscreenenter"",""1"",""2116""
","
","","","","","","2169","images/horse6.png","","","memory_trial","4","definitely_new",""
"html-keyboard-response","231","599430","0.0-18.0-0.93","4128","approach_avoid_sv1","""event"",""trial"",""time""
""fullscreenenter"",""1"",""2116""
""blur"",""157"",""443828""
""focus"",""157"",""443996""
","""event"",""trial"",""time""
""blur"",""157"",""443828""
","""event"",""trial"",""time""
""focus"",""157"",""443996""
","""event"",""trial"",""time""
""fullscreenenter"",""1"",""2116""
","
","","","","","","null","<div style=""font-size:60px;"">+</div>","null","","fixation","","",""
"memory-trial","232","602877","0.0-18.0-1.93","4128","approach_avoid_sv1","""event"",""trial"",""time""
""fullscreenenter"",""1"",""2116""
""blur"",""157"",""443828""
""focus"",""157"",""443996""
","""event"",""trial"",""time""
""blur"",""157"",""443828""
","""event"",""trial"",""time""
""focus"",""157"",""443996""
","""event"",""trial"",""time""
""fullscreenenter"",""1"",""2116""
","
","","","","","","2438.9000000059605","images/rabbit3.png","","","memory_trial","3","maybe_new",""
"html-keyboard-response","233","603382","0.0-18.0-0.94","4128","approach_avoid_sv1","""event"",""trial"",""time""
""fullscreenenter"",""1"",""2116""
""blur"",""157"",""443828""
""focus"",""157"",""443996""
","""event"",""trial"",""time""
""blur"",""157"",""443828""
","""event"",""trial"",""time""
""focus"",""157"",""443996""
","""event"",""trial"",""time""
""fullscreenenter"",""1"",""2116""
","
","","","","","","null","<div style=""font-size:60px;"">+</div>","null","","fixation","","",""
"memory-trial","234","606957","0.0-18.0-1.94","4128","approach_avoid_sv1","""event"",""trial"",""time""
""fullscreenenter"",""1"",""2116""
""blur"",""157"",""443828""
""focus"",""157"",""443996""
","""event"",""trial"",""time""
""blur"",""157"",""443828""
","""event"",""trial"",""time""
""focus"",""157"",""443996""
","""event"",""trial"",""time""
""fullscreenenter"",""1"",""2116""
","
","","","","","","2564.4000000059605","images/cactus1.png","","","memory_trial","4","definitely_new",""
"html-keyboard-response","235","607461","0.0-18.0-0.95","4128","approach_avoid_sv1","""event"",""trial"",""time""
""fullscreenenter"",""1"",""2116""
""blur"",""157"",""443828""
""focus"",""157"",""443996""
","""event"",""trial"",""time""
""blur"",""157"",""443828""
","""event"",""trial"",""time""
""focus"",""157"",""443996""
","""event"",""trial"",""time""
""fullscreenenter"",""1"",""2116""
","
","","","","","","null","<div style=""font-size:60px;"">+</div>","null","","fixation","","",""
"memory-trial","236","613174","0.0-18.0-1.95","4128","approach_avoid_sv1","""event"",""trial"",""time""
""fullscreenenter"",""1"",""2116""
""blur"",""157"",""443828""
""focus"",""157"",""443996""
","""event"",""trial"",""time""
""blur"",""157"",""443828""
","""event"",""trial"",""time""
""focus"",""157"",""443996""
","""event"",""trial"",""time""
""fullscreenenter"",""1"",""2116""
","
","","","","","","4707.5","images/horse4.png","","","memory_trial","1","definitely_old",""
"html-keyboard-response","237","613679","0.0-18.0-0.96","4128","approach_avoid_sv1","""event"",""trial"",""time""
""fullscreenenter"",""1"",""2116""
""blur"",""157"",""443828""
""focus"",""157"",""443996""
","""event"",""trial"",""time""
""blur"",""157"",""443828""
","""event"",""trial"",""time""
""focus"",""157"",""443996""
","""event"",""trial"",""time""
""fullscreenenter"",""1"",""2116""
","
","","","","","","null","<div style=""font-size:60px;"">+</div>","null","","fixation","","",""
"memory-trial","238","616735","0.0-18.0-1.96","4128","approach_avoid_sv1","""event"",""trial"",""time""
""fullscreenenter"",""1"",""2116""
""blur"",""157"",""443828""
""focus"",""157"",""443996""
","""event"",""trial"",""time""
""blur"",""157"",""443828""
","""event"",""trial"",""time""
""focus"",""157"",""443996""
","""event"",""trial"",""time""
""fullscreenenter"",""1"",""2116""
","
","","","","","","2050.4000000059605","images/chair3.png","","","memory_trial","4","definitely_new",""
"html-keyboard-response","239","617238","0.0-18.0-0.97","4128","approach_avoid_sv1","""event"",""trial"",""time""
""fullscreenenter"",""1"",""2116""
""blur"",""157"",""443828""
""focus"",""157"",""443996""
","""event"",""trial"",""time""
""blur"",""157"",""443828""
","""event"",""trial"",""time""
""focus"",""157"",""443996""
","""event"",""trial"",""time""
""fullscreenenter"",""1"",""2116""
","
","","","","","","null","<div style=""font-size:60px;"">+</div>","null","","fixation","","",""
"memory-trial","240","621174","0.0-18.0-1.97","4128","approach_avoid_sv1","""event"",""trial"",""time""
""fullscreenenter"",""1"",""2116""
""blur"",""157"",""443828""
""focus"",""157"",""443996""
","""event"",""trial"",""time""
""blur"",""157"",""443828""
","""event"",""trial"",""time""
""focus"",""157"",""443996""
","""event"",""trial"",""time""
""fullscreenenter"",""1"",""2116""
","
","","","","","","2928.5","images/rodent1.png","","","memory_trial","3","maybe_new",""
"html-keyboard-response","241","621679","0.0-18.0-0.98","4128","approach_avoid_sv1","""event"",""trial"",""time""
""fullscreenenter"",""1"",""2116""
""blur"",""157"",""443828""
""focus"",""157"",""443996""
","""event"",""trial"",""time""
""blur"",""157"",""443828""
","""event"",""trial"",""time""
""focus"",""157"",""443996""
","""event"",""trial"",""time""
""fullscreenenter"",""1"",""2116""
","
","","","","","","null","<div style=""font-size:60px;"">+</div>","null","","fixation","","",""
"memory-trial","242","624398","0.0-18.0-1.98","4128","approach_avoid_sv1","""event"",""trial"",""time""
""fullscreenenter"",""1"",""2116""
""blur"",""157"",""443828""
""focus"",""157"",""443996""
","""event"",""trial"",""time""
""blur"",""157"",""443828""
","""event"",""trial"",""time""
""focus"",""157"",""443996""
","""event"",""trial"",""time""
""fullscreenenter"",""1"",""2116""
","
","","","","","","1714.9000000059605","images/cat7.png","","","memory_trial","1","definitely_old",""
"html-keyboard-response","243","624903","0.0-18.0-0.99","4128","approach_avoid_sv1","""event"",""trial"",""time""
""fullscreenenter"",""1"",""2116""
""blur"",""157"",""443828""
""focus"",""157"",""443996""
","""event"",""trial"",""time""
""blur"",""157"",""443828""
","""event"",""trial"",""time""
""focus"",""157"",""443996""
","""event"",""trial"",""time""
""fullscreenenter"",""1"",""2116""
","
","","","","","","null","<div style=""font-size:60px;"">+</div>","null","","fixation","","",""
"memory-trial","244","627746","0.0-18.0-1.99","4128","approach_avoid_sv1","""event"",""trial"",""time""
""fullscreenenter"",""1"",""2116""
""blur"",""157"",""443828""
""focus"",""157"",""443996""
","""event"",""trial"",""time""
""blur"",""157"",""443828""
","""event"",""trial"",""time""
""focus"",""157"",""443996""
","""event"",""trial"",""time""
""fullscreenenter"",""1"",""2116""
","
","","","","","","1824.7000000029802","images/boat3.png","","","memory_trial","1","definitely_old",""
"html-keyboard-response","245","628254","0.0-18.0-0.100","4128","approach_avoid_sv1","""event"",""trial"",""time""
""fullscreenenter"",""1"",""2116""
""blur"",""157"",""443828""
""focus"",""157"",""443996""
","""event"",""trial"",""time""
""blur"",""157"",""443828""
","""event"",""trial"",""time""
""focus"",""157"",""443996""
","""event"",""trial"",""time""
""fullscreenenter"",""1"",""2116""
","
","","","","","","null","<div style=""font-size:60px;"">+</div>","null","","fixation","","",""
"memory-trial","246","632206","0.0-18.0-1.100","4128","approach_avoid_sv1","""event"",""trial"",""time""
""fullscreenenter"",""1"",""2116""
""blur"",""157"",""443828""
""focus"",""157"",""443996""
","""event"",""trial"",""time""
""blur"",""157"",""443828""
","""event"",""trial"",""time""
""focus"",""157"",""443996""
","""event"",""trial"",""time""
""fullscreenenter"",""1"",""2116""
","
","","","","","","2946.7000000029802","images/straw7.png","","","memory_trial","1","definitely_old",""
"html-keyboard-response","247","632725","0.0-18.0-0.101","4128","approach_avoid_sv1","""event"",""trial"",""time""
""fullscreenenter"",""1"",""2116""
""blur"",""157"",""443828""
""focus"",""157"",""443996""
","""event"",""trial"",""time""
""blur"",""157"",""443828""
","""event"",""trial"",""time""
""focus"",""157"",""443996""
","""event"",""trial"",""time""
""fullscreenenter"",""1"",""2116""
","
","","","","","","null","<div style=""font-size:60px;"">+</div>","null","","fixation","","",""
"memory-trial","248","637918","0.0-18.0-1.101","4128","approach_avoid_sv1","""event"",""trial"",""time""
""fullscreenenter"",""1"",""2116""
""blur"",""157"",""443828""
""focus"",""157"",""443996""
","""event"",""trial"",""time""
""blur"",""157"",""443828""
","""event"",""trial"",""time""
