"trial_type","trial_index","time_elapsed","internal_node_id","subject_id","task_version","interactions","blur_events","focus_events","fullscreenenter_events","fullscreenexit_events","success","timeout","failed_images","failed_audio","failed_video","rt","stimulus","response","button_pressed","task_part","key_press","answer","correct"
"pavlovia","0","6","0.0-0.0","4268","approach_avoid_sv1","""event"",""trial"",""time""
""fullscreenenter"",""1"",""1118""
","
","
","""event"",""trial"",""time""
""fullscreenenter"",""1"",""1118""
","
","","","","","","","","","","","","",""
"fullscreen","1","2065","0.0-1.0","4268","approach_avoid_sv1","""event"",""trial"",""time""
""fullscreenenter"",""1"",""1118""
","
","
","""event"",""trial"",""time""
""fullscreenenter"",""1"",""1118""
","
","true","","","","","","","","","","","",""
"preload","2","5999","0.0-2.0","4268","approach_avoid_sv1","""event"",""trial"",""time""
""fullscreenenter"",""1"",""1118""
","
","
","""event"",""trial"",""time""
""fullscreenenter"",""1"",""1118""
","
","true","false","[]","[]","[]","","","","","","","",""
"preload","3","9333","0.0-3.0","4268","approach_avoid_sv1","""event"",""trial"",""time""
""fullscreenenter"",""1"",""1118""
","
","
","""event"",""trial"",""time""
""fullscreenenter"",""1"",""1118""
","
","true","false","[]","[]","[]","","","","","","","",""
"preload","4","9607","0.0-4.0","4268","approach_avoid_sv1","""event"",""trial"",""time""
""fullscreenenter"",""1"",""1118""
","
","
","""event"",""trial"",""time""
""fullscreenenter"",""1"",""1118""
","
","true","false","[]","[]","[]","","","","","","","",""
"audio-keyboard-response","5","15605","0.0-5.0","4268","approach_avoid_sv1","""event"",""trial"",""time""
""fullscreenenter"",""1"",""1118""
","
","
","""event"",""trial"",""time""
""fullscreenenter"",""1"",""1118""
","
","","","","","","0","audio/beep_loop.wav"," ","","","","",""
"audio-button-response","6","17219","0.0-6.0","4268","approach_avoid_sv1","""event"",""trial"",""time""
""fullscreenenter"",""1"",""1118""
","
","
","""event"",""trial"",""time""
""fullscreenenter"",""1"",""1118""
","
","","","","","","1222","audio/turtle.wav","3","","","","",""
"audio-button-response","7","19716","0.0-7.0","4268","approach_avoid_sv1","""event"",""trial"",""time""
""fullscreenenter"",""1"",""1118""
","
","
","""event"",""trial"",""time""
""fullscreenenter"",""1"",""1118""
","
","","","","","","1495","audio/shark.wav","2","","","","",""
"preload","8","26833","0.0-8.0","4268","approach_avoid_sv1","""event"",""trial"",""time""
""fullscreenenter"",""1"",""1118""
","
","
","""event"",""trial"",""time""
""fullscreenenter"",""1"",""1118""
","
","true","false","[]","[]","[]","","","","","","","",""
"learning-instructions","9","34646","0.0-9.0-0.0","4268","approach_avoid_sv1","""event"",""trial"",""time""
""fullscreenenter"",""1"",""1118""
","
","
","""event"",""trial"",""time""
""fullscreenenter"",""1"",""1118""
","
","","","","","","3337","<p> Welcome back! </p><p> Last week, you had to make choices about lots of different items.  </p>","","0","instructions","","",""
"learning-instructions","10","40147","0.0-9.0-0.1","4268","approach_avoid_sv1","""event"",""trial"",""time""
""fullscreenenter"",""1"",""1118""
","
","
","""event"",""trial"",""time""
""fullscreenenter"",""1"",""1118""
","
","","","","","","1390","<p> Today, we are going to ask you to try to remember all the items. </p>","","0","instructions","","",""
"learning-instructions","11","52705","0.0-9.0-0.2","4268","approach_avoid_sv1","""event"",""trial"",""time""
""fullscreenenter"",""1"",""1118""
","
","
","""event"",""trial"",""time""
""fullscreenenter"",""1"",""1118""
","
","","","","","","2427.0000000000073","<p> On every trial, you will see an image. </p><p> The image may be an OLD image you saw during the games last week or it may be a NEW image that was not presented. </p>","","0","instructions","","",""
"learning-instructions","12","62891","0.0-9.0-0.3","4268","approach_avoid_sv1","""event"",""trial"",""time""
""fullscreenenter"",""1"",""1118""
","
","
","""event"",""trial"",""time""
""fullscreenenter"",""1"",""1118""
","
","","","","","","1690","<p> You need to select whether the image is:  </p><p>  'Definitely old', 'Maybe old', 'Maybe new', or 'Definitely new.'  </p><div class=""mem-choice-instructions-grid""><div class=""choice-option"" id=""choice-option-1"" ><img src=""images/definitely_old_1.png"" id=""choice-option-img-1"" class=""choice-option-img"" stage=""1""></div><div class=""choice-option"" id=""choice-option-2"" ><img src=""images/maybe_old_1.png"" id=""choice-option-img-2"" class=""choice-option-img"" stage=""1""></div><div class=""choice-option"" id=""choice-option-3"" ><img src=""images/maybe_new_1.png"" id=""choice-option-img-3"" class=""choice-option-img"" stage=""1""></div><div class=""choice-option"" id=""choice-option-4"" > <img src=""images/definitely_new_1.png"" id=""choice-option-img-4"" class=""choice-option-img"" stage=""1""></div></div>","","0","instructions","","",""
"learning-instructions","13","75640","0.0-9.0-0.4","4268","approach_avoid_sv1","""event"",""trial"",""time""
""fullscreenenter"",""1"",""1118""
","
","
","""event"",""trial"",""time""
""fullscreenenter"",""1"",""1118""
","
","","","","","","6237","<p> You should use the 1, 2, 3, and 4 keys to make your responses.  </p><div class=""mem-choice-instructions-grid""><div class=""choice-option"" id=""choice-option-1"" ><img src=""images/definitely_old.png"" id=""choice-option-img-1"" class=""choice-option-img"" stage=""1""></div><div class=""choice-option"" id=""choice-option-2"" ><img src=""images/maybe_old.png"" id=""choice-option-img-2"" class=""choice-option-img"" stage=""1""></div><div class=""choice-option"" id=""choice-option-3"" ><img src=""images/maybe_new.png"" id=""choice-option-img-3"" class=""choice-option-img"" stage=""1""></div><div class=""choice-option"" id=""choice-option-4"" > <img src=""images/definitely_new.png"" id=""choice-option-img-4"" class=""choice-option-img"" stage=""1""></div></div>","","0","instructions","","",""
"learning-instructions","14","83665","0.0-9.0-0.5","4268","approach_avoid_sv1","""event"",""trial"",""time""
""fullscreenenter"",""1"",""1118""
","
","
","""event"",""trial"",""time""
""fullscreenenter"",""1"",""1118""
","
","","","","","","1701","<p> You will have 10 seconds to make each response.  </p><p>  Make sure to respond before time runs out! </p>","","0","instructions","","",""
"learning-instructions","15","91658","0.0-9.0-0.6","4268","approach_avoid_sv1","""event"",""trial"",""time""
""fullscreenenter"",""1"",""1118""
","
","
","""event"",""trial"",""time""
""fullscreenenter"",""1"",""1118""
","
","","","","","","922","<p> Today, you will see each image ONCE only.  </p><p>  That means none of the images will repeat. </p>","","0","instructions","","",""
"learning-instructions","16","105435","0.0-9.0-0.7","4268","approach_avoid_sv1","""event"",""trial"",""time""
""fullscreenenter"",""1"",""1118""
","
","
","""event"",""trial"",""time""
""fullscreenenter"",""1"",""1118""
","
","","","","","","1114.9999999999854","<p> Before you play the real game, it is time to practice. </p><p>  Just like in the real game, some of the images in the practice will be ones you have seen before. </p><p>  Others will be entirely new. </p>","","0","instructions","","",""
"html-button-response","17","106699","0.0-10.0","4268","approach_avoid_sv1","""event"",""trial"",""time""
""fullscreenenter"",""1"",""1118""
","
","
","""event"",""trial"",""time""
""fullscreenenter"",""1"",""1118""
","
","","","","","","1161.9999999999854","<p> Ready to practice? </p><p> Remember, use the 1, 2, 3, and 4 keys to make your responses. </p>","0","","instructions","","",""
"html-keyboard-response","18","107303","0.0-11.0-0.0","4268","approach_avoid_sv1","""event"",""trial"",""time""
""fullscreenenter"",""1"",""1118""
","
","
","""event"",""trial"",""time""
""fullscreenenter"",""1"",""1118""
","
","","","","","","null","<div style=""font-size:60px;"">+</div>","null","","fixation","","",""
"memory-trial","19","111960","0.0-11.0-1.0","4268","approach_avoid_sv1","""event"",""trial"",""time""
""fullscreenenter"",""1"",""1118""
","
","
","""event"",""trial"",""time""
""fullscreenenter"",""1"",""1118""
","
","","","","","","3655","images/racket5.png","","","practice","1","definitely_old",""
"html-keyboard-response","20","112462","0.0-11.0-0.1","4268","approach_avoid_sv1","""event"",""trial"",""time""
""fullscreenenter"",""1"",""1118""
","
","
","""event"",""trial"",""time""
""fullscreenenter"",""1"",""1118""
","
","","","","","","null","<div style=""font-size:60px;"">+</div>","null","","fixation","","",""
"memory-trial","21","115335","0.0-11.0-1.1","4268","approach_avoid_sv1","""event"",""trial"",""time""
""fullscreenenter"",""1"",""1118""
","
","
","""event"",""trial"",""time""
""fullscreenenter"",""1"",""1118""
","
","","","","","","1872","images/ball2.png","","","practice","1","definitely_old",""
"html-keyboard-response","22","115837","0.0-11.0-0.2","4268","approach_avoid_sv1","""event"",""trial"",""time""
""fullscreenenter"",""1"",""1118""
","
","
","""event"",""trial"",""time""
""fullscreenenter"",""1"",""1118""
","
","","","","","","null","<div style=""font-size:60px;"">+</div>","null","","fixation","","",""
"memory-trial","23","118495","0.0-11.0-1.2","4268","approach_avoid_sv1","""event"",""trial"",""time""
""fullscreenenter"",""1"",""1118""
","
","
","""event"",""trial"",""time""
""fullscreenenter"",""1"",""1118""
","
","","","","","","1656","images/racket2.png","","","practice","1","definitely_old",""
"html-keyboard-response","24","118996","0.0-11.0-0.3","4268","approach_avoid_sv1","""event"",""trial"",""time""
""fullscreenenter"",""1"",""1118""
","
","
","""event"",""trial"",""time""
""fullscreenenter"",""1"",""1118""
","
","","","","","","null","<div style=""font-size:60px;"">+</div>","null","","fixation","","",""
"memory-trial","25","120827","0.0-11.0-1.3","4268","approach_avoid_sv1","""event"",""trial"",""time""
""fullscreenenter"",""1"",""1118""
","
","
","""event"",""trial"",""time""
""fullscreenenter"",""1"",""1118""
","
","","","","","","830.0000000000146","images/ball1.png","","","practice","1","definitely_old",""
"html-keyboard-response","26","121329","0.0-11.0-0.4","4268","approach_avoid_sv1","""event"",""trial"",""time""
""fullscreenenter"",""1"",""1118""
","
","
","""event"",""trial"",""time""
""fullscreenenter"",""1"",""1118""
","
","","","","","","null","<div style=""font-size:60px;"">+</div>","null","","fixation","","",""
"memory-trial","27","123055","0.0-11.0-1.4","4268","approach_avoid_sv1","""event"",""trial"",""time""
""fullscreenenter"",""1"",""1118""
","
","
","""event"",""trial"",""time""
""fullscreenenter"",""1"",""1118""
","
","","","","","","723.9999999999854","images/racket1.png","","","practice","1","definitely_old",""
"html-keyboard-response","28","123556","0.0-11.0-0.5","4268","approach_avoid_sv1","""event"",""trial"",""time""
""fullscreenenter"",""1"",""1118""
","
","
","""event"",""trial"",""time""
""fullscreenenter"",""1"",""1118""
","
","","","","","","null","<div style=""font-size:60px;"">+</div>","null","","fixation","","",""
"memory-trial","29","125416","0.0-11.0-1.5","4268","approach_avoid_sv1","""event"",""trial"",""time""
""fullscreenenter"",""1"",""1118""
","
","
","""event"",""trial"",""time""
""fullscreenenter"",""1"",""1118""
","
","","","","","","858.9999999999854","images/racket3.png","","","practice","1","definitely_old",""
"html-keyboard-response","30","125918","0.0-11.0-0.6","4268","approach_avoid_sv1","""event"",""trial"",""time""
""fullscreenenter"",""1"",""1118""
","
","
","""event"",""trial"",""time""
""fullscreenenter"",""1"",""1118""
","
","","","","","","null","<div style=""font-size:60px;"">+</div>","null","","fixation","","",""
"memory-trial","31","130034","0.0-11.0-1.6","4268","approach_avoid_sv1","""event"",""trial"",""time""
""fullscreenenter"",""1"",""1118""
","
","
","""event"",""trial"",""time""
""fullscreenenter"",""1"",""1118""
","
","","","","","","3115","images/ball3.png","","","practice","4","definitely_new",""
"html-keyboard-response","32","130536","0.0-11.0-0.7","4268","approach_avoid_sv1","""event"",""trial"",""time""
""fullscreenenter"",""1"",""1118""
","
","
","""event"",""trial"",""time""
""fullscreenenter"",""1"",""1118""
","
","","","","","","null","<div style=""font-size:60px;"">+</div>","null","","fixation","","",""
"memory-trial","33","133175","0.0-11.0-1.7","4268","approach_avoid_sv1","""event"",""trial"",""time""
""fullscreenenter"",""1"",""1118""
","
","
","""event"",""trial"",""time""
""fullscreenenter"",""1"",""1118""
","
","","","","","","1636.999999999971","images/ball5.png","","","practice","1","definitely_old",""
"learning-instructions","34","142081","0.0-12.0-0.0","4268","approach_avoid_sv1","""event"",""trial"",""time""
""fullscreenenter"",""1"",""1118""
","
","
","""event"",""trial"",""time""
""fullscreenenter"",""1"",""1118""
","
","","","","","","1597.999999999971","<p> Great! You have completed the practice. </p><p> Before you start, we're going to ask you a few questions about how the game works.  </p>","","0","instructions","","",""
"preload","35","145423","0.0-13.0","4268","approach_avoid_sv1","""event"",""trial"",""time""
""fullscreenenter"",""1"",""1118""
","
","
","""event"",""trial"",""time""
""fullscreenenter"",""1"",""1118""
","
","true","false","[]","[]","[]","","","","","","","",""
"comp-q","36","151892","0.0-14.0-0.0","4268","approach_avoid_sv1","""event"",""trial"",""time""
""fullscreenenter"",""1"",""1118""
","
","
","""event"",""trial"",""time""
""fullscreenenter"",""1"",""1118""
","
","","","","","","636","<p> <b> True or False? </b> </p><p> In this game, you will only see each image once. </p>","","0","comp_question","","","true"
"comp-q","37","159090","0.0-14.0-1.0","4268","approach_avoid_sv1","""event"",""trial"",""time""
""fullscreenenter"",""1"",""1118""
","
","
","""event"",""trial"",""time""
""fullscreenenter"",""1"",""1118""
","
","","","","","","867","<p> <b> That's right! </b> You will see many different images <i> one time each </i> in this game. </p>","","0","comp_answer","","",""
"comp-q","38","166491","0.0-15.0-0.0","4268","approach_avoid_sv1","""event"",""trial"",""time""
""fullscreenenter"",""1"",""1118""
","
","
","""event"",""trial"",""time""
""fullscreenenter"",""1"",""1118""
","
","","","","","","2397.000000000029","<p> <b> True or False? </b> </p><p> You should use the mouse and click to make your response. </p>","","1","comp_question","","","true"
"comp-q","39","173773","0.0-15.0-1.0","4268","approach_avoid_sv1","""event"",""trial"",""time""
""fullscreenenter"",""1"",""1118""
","
","
","""event"",""trial"",""time""
""fullscreenenter"",""1"",""1118""
","
","","","","","","784","<p><b> That's right! </b> You should use the '1', '2', '3', and '4' keys to make your response. </p>","","0","comp_answer","","",""
"comp-q","40","179922","0.0-16.0-0.0","4268","approach_avoid_sv1","""event"",""trial"",""time""
""fullscreenenter"",""1"",""1118""
","
","
","""event"",""trial"",""time""
""fullscreenenter"",""1"",""1118""
","
","","","","","","473","<p> <b> True or False? </b> </p><p> You will have as much time as you want to make each choice. </p>","","1","comp_question","","","true"
"comp-q","41","185545","0.0-16.0-1.0","4268","approach_avoid_sv1","""event"",""trial"",""time""
""fullscreenenter"",""1"",""1118""
","
","
","""event"",""trial"",""time""
""fullscreenenter"",""1"",""1118""
","
","","","","","","929.9999999999709","<p> <b> That's right! </b> You will only have 10 seconds to make each choice. </p>","","0","comp_answer","","",""
"learning-instructions","42","196122","0.0-17.0","4268","approach_avoid_sv1","""event"",""trial"",""time""
""fullscreenenter"",""1"",""1118""
","
","
","""event"",""trial"",""time""
""fullscreenenter"",""1"",""1118""
","
","","","","","","1909.000000000029","<p> Great! You are now ready to begin the game. </p><p> Remember, use the 1, 2, 3, and 4 keys to make your responses. </p>","","0","instructions","","",""
"html-keyboard-response","43","196724","0.0-18.0-0.0","4268","approach_avoid_sv1","""event"",""trial"",""time""
""fullscreenenter"",""1"",""1118""
","
","
","""event"",""trial"",""time""
""fullscreenenter"",""1"",""1118""
","
","","","","","","null","<div style=""font-size:60px;"">+</div>","null","","fixation","","",""
"memory-trial","44","199501","0.0-18.0-1.0","4268","approach_avoid_sv1","""event"",""trial"",""time""
""fullscreenenter"",""1"",""1118""
","
","
","""event"",""trial"",""time""
""fullscreenenter"",""1"",""1118""
","
","","","","","","1775","images/rabbit5.png","","","memory_trial","4","definitely_new",""
"html-keyboard-response","45","200002","0.0-18.0-0.1","4268","approach_avoid_sv1","""event"",""trial"",""time""
""fullscreenenter"",""1"",""1118""
","
","
","""event"",""trial"",""time""
""fullscreenenter"",""1"",""1118""
","
","","","","","","null","<div style=""font-size:60px;"">+</div>","null","","fixation","","",""
"memory-trial","46","202113","0.0-18.0-1.1","4268","approach_avoid_sv1","""event"",""trial"",""time""
""fullscreenenter"",""1"",""1118""
","
","
","""event"",""trial"",""time""
""fullscreenenter"",""1"",""1118""
","
","","","","","","1107.999999999971","images/cactus4.png","","","memory_trial","1","definitely_old",""
"html-keyboard-response","47","202614","0.0-18.0-0.2","4268","approach_avoid_sv1","""event"",""trial"",""time""
""fullscreenenter"",""1"",""1118""
","
","
","""event"",""trial"",""time""
""fullscreenenter"",""1"",""1118""
","
","","","","","","null","<div style=""font-size:60px;"">+</div>","null","","fixation","","",""
"memory-trial","48","205208","0.0-18.0-1.2","4268","approach_avoid_sv1","""event"",""trial"",""time""
""fullscreenenter"",""1"",""1118""
","
","
","""event"",""trial"",""time""
""fullscreenenter"",""1"",""1118""
","
","","","","","","1591.000000000029","images/dog6.png","","","memory_trial","1","definitely_old",""
"html-keyboard-response","49","205710","0.0-18.0-0.3","4268","approach_avoid_sv1","""event"",""trial"",""time""
""fullscreenenter"",""1"",""1118""
","
","
","""event"",""trial"",""time""
""fullscreenenter"",""1"",""1118""
","
","","","","","","null","<div style=""font-size:60px;"">+</div>","null","","fixation","","",""
"memory-trial","50","208453","0.0-18.0-1.3","4268","approach_avoid_sv1","""event"",""trial"",""time""
""fullscreenenter"",""1"",""1118""
","
","
","""event"",""trial"",""time""
""fullscreenenter"",""1"",""1118""
","
","","","","","","1742","images/rodent2.png","","","memory_trial","1","definitely_old",""
"html-keyboard-response","51","208955","0.0-18.0-0.4","4268","approach_avoid_sv1","""event"",""trial"",""time""
""fullscreenenter"",""1"",""1118""
","
","
","""event"",""trial"",""time""
""fullscreenenter"",""1"",""1118""
","
","","","","","","null","<div style=""font-size:60px;"">+</div>","null","","fixation","","",""
"memory-trial","52","211245","0.0-18.0-1.4","4268","approach_avoid_sv1","""event"",""trial"",""time""
""fullscreenenter"",""1"",""1118""
","
","
","""event"",""trial"",""time""
""fullscreenenter"",""1"",""1118""
","
","","","","","","1288","images/dog8.png","","","memory_trial","4","definitely_new",""
"html-keyboard-response","53","211746","0.0-18.0-0.5","4268","approach_avoid_sv1","""event"",""trial"",""time""
""fullscreenenter"",""1"",""1118""
","
","
","""event"",""trial"",""time""
""fullscreenenter"",""1"",""1118""
","
","","","","","","null","<div style=""font-size:60px;"">+</div>","null","","fixation","","",""
"memory-trial","54","213755","0.0-18.0-1.5","4268","approach_avoid_sv1","""event"",""trial"",""time""
""fullscreenenter"",""1"",""1118""
","
","
","""event"",""trial"",""time""
""fullscreenenter"",""1"",""1118""
","
","","","","","","1006","images/apple7.png","","","memory_trial","1","definitely_old",""
"html-keyboard-response","55","214255","0.0-18.0-0.6","4268","approach_avoid_sv1","""event"",""trial"",""time""
""fullscreenenter"",""1"",""1118""
","
","
","""event"",""trial"",""time""
""fullscreenenter"",""1"",""1118""
","
","","","","","","null","<div style=""font-size:60px;"">+</div>","null","","fixation","","",""
"memory-trial","56","216426","0.0-18.0-1.6","4268","approach_avoid_sv1","""event"",""trial"",""time""
""fullscreenenter"",""1"",""1118""
","
","
","""event"",""trial"",""time""
""fullscreenenter"",""1"",""1118""
","
","","","","","","1169","images/rodent8.png","","","memory_trial","1","definitely_old",""
"html-keyboard-response","57","216928","0.0-18.0-0.7","4268","approach_avoid_sv1","""event"",""trial"",""time""
""fullscreenenter"",""1"",""1118""
","
","
","""event"",""trial"",""time""
""fullscreenenter"",""1"",""1118""
","
","","","","","","null","<div style=""font-size:60px;"">+</div>","null","","fixation","","",""
"memory-trial","58","219419","0.0-18.0-1.7","4268","approach_avoid_sv1","""event"",""trial"",""time""
""fullscreenenter"",""1"",""1118""
","
","
","""event"",""trial"",""time""
""fullscreenenter"",""1"",""1118""
","
","","","","","","1489","images/truck5.png","","","memory_trial","1","definitely_old",""
"html-keyboard-response","59","219920","0.0-18.0-0.8","4268","approach_avoid_sv1","""event"",""trial"",""time""
""fullscreenenter"",""1"",""1118""
","
","
","""event"",""trial"",""time""
""fullscreenenter"",""1"",""1118""
","
","","","","","","null","<div style=""font-size:60px;"">+</div>","null","","fixation","","",""
"memory-trial","60","222107","0.0-18.0-1.8","4268","approach_avoid_sv1","""event"",""trial"",""time""
""fullscreenenter"",""1"",""1118""
","
","
","""event"",""trial"",""time""
""fullscreenenter"",""1"",""1118""
","
","","","","","","1184","images/cow6.png","","","memory_trial","4","definitely_new",""
"html-keyboard-response","61","222608","0.0-18.0-0.9","4268","approach_avoid_sv1","""event"",""trial"",""time""
""fullscreenenter"",""1"",""1118""
","
","
","""event"",""trial"",""time""
""fullscreenenter"",""1"",""1118""
","
","","","","","","null","<div style=""font-size:60px;"">+</div>","null","","fixation","","",""
"memory-trial","62","225381","0.0-18.0-1.9","4268","approach_avoid_sv1","""event"",""trial"",""time""
""fullscreenenter"",""1"",""1118""
","
","
","""event"",""trial"",""time""
""fullscreenenter"",""1"",""1118""
","
","","","","","","1771","images/train7.png","","","memory_trial","1","definitely_old",""
"html-keyboard-response","63","225882","0.0-18.0-0.10","4268","approach_avoid_sv1","""event"",""trial"",""time""
""fullscreenenter"",""1"",""1118""
","
","
","""event"",""trial"",""time""
""fullscreenenter"",""1"",""1118""
","
","","","","","","null","<div style=""font-size:60px;"">+</div>","null","","fixation","","",""
"memory-trial","64","228220","0.0-18.0-1.10","4268","approach_avoid_sv1","""event"",""trial"",""time""
""fullscreenenter"",""1"",""1118""
","
","
","""event"",""trial"",""time""
""fullscreenenter"",""1"",""1118""
","
","","","","","","1336.000000000029","images/banana3.png","","","memory_trial","1","definitely_old",""
"html-keyboard-response","65","228721","0.0-18.0-0.11","4268","approach_avoid_sv1","""event"",""trial"",""time""
""fullscreenenter"",""1"",""1118""
","
","
","""event"",""trial"",""time""
""fullscreenenter"",""1"",""1118""
","
","","","","","","null","<div style=""font-size:60px;"">+</div>","null","","fixation","","",""
"memory-trial","66","231547","0.0-18.0-1.11","4268","approach_avoid_sv1","""event"",""trial"",""time""
""fullscreenenter"",""1"",""1118""
","
","
","""event"",""trial"",""time""
""fullscreenenter"",""1"",""1118""
","
","","","","","","1824.000000000029","images/cow5.png","","","memory_trial","4","definitely_new",""
"html-keyboard-response","67","232048","0.0-18.0-0.12","4268","approach_avoid_sv1","""event"",""trial"",""time""
""fullscreenenter"",""1"",""1118""
","
","
","""event"",""trial"",""time""
""fullscreenenter"",""1"",""1118""
","
","","","","","","null","<div style=""font-size:60px;"">+</div>","null","","fixation","","",""
"memory-trial","68","234027","0.0-18.0-1.12","4268","approach_avoid_sv1","""event"",""trial"",""time""
""fullscreenenter"",""1"",""1118""
","
","
","""event"",""trial"",""time""
""fullscreenenter"",""1"",""1118""
","
","","","","","","977","images/train5.png","","","memory_trial","4","definitely_new",""
"html-keyboard-response","69","234529","0.0-18.0-0.13","4268","approach_avoid_sv1","""event"",""trial"",""time""
""fullscreenenter"",""1"",""1118""
","
","
","""event"",""trial"",""time""
""fullscreenenter"",""1"",""1118""
","
","","","","","","null","<div style=""font-size:60px;"">+</div>","null","","fixation","","",""
"memory-trial","70","237698","0.0-18.0-1.13","4268","approach_avoid_sv1","""event"",""trial"",""time""
""fullscreenenter"",""1"",""1118""
","
","
","""event"",""trial"",""time""
""fullscreenenter"",""1"",""1118""
","
","","","","","","2168","images/table5.png","","","memory_trial","1","definitely_old",""
"html-keyboard-response","71","238199","0.0-18.0-0.14","4268","approach_avoid_sv1","""event"",""trial"",""time""
""fullscreenenter"",""1"",""1118""
","
","
","""event"",""trial"",""time""
""fullscreenenter"",""1"",""1118""
","
","","","","","","null","<div style=""font-size:60px;"">+</div>","null","","fixation","","",""
"memory-trial","72","240309","0.0-18.0-1.14","4268","approach_avoid_sv1","""event"",""trial"",""time""
""fullscreenenter"",""1"",""1118""
","
","
","""event"",""trial"",""time""
""fullscreenenter"",""1"",""1118""
","
","","","","","","1110","images/rodent4.png","","","memory_trial","4","definitely_new",""
"html-keyboard-response","73","240810","0.0-18.0-0.15","4268","approach_avoid_sv1","""event"",""trial"",""time""
""fullscreenenter"",""1"",""1118""
","
","
","""event"",""trial"",""time""
""fullscreenenter"",""1"",""1118""
","
","","","","","","null","<div style=""font-size:60px;"">+</div>","null","","fixation","","",""
"memory-trial","74","242766","0.0-18.0-1.15","4268","approach_avoid_sv1","""event"",""trial"",""time""
""fullscreenenter"",""1"",""1118""
","
","
","""event"",""trial"",""time""
""fullscreenenter"",""1"",""1118""
","
","","","","","","953","images/truck8.png","","","memory_trial","1","definitely_old",""
"html-keyboard-response","75","243267","0.0-18.0-0.16","4268","approach_avoid_sv1","""event"",""trial"",""time""
""fullscreenenter"",""1"",""1118""
","
","
","""event"",""trial"",""time""
""fullscreenenter"",""1"",""1118""
","
","","","","","","null","<div style=""font-size:60px;"">+</div>","null","","fixation","","",""
"memory-trial","76","245188","0.0-18.0-1.16","4268","approach_avoid_sv1","""event"",""trial"",""time""
""fullscreenenter"",""1"",""1118""
","
","
","""event"",""trial"",""time""
""fullscreenenter"",""1"",""1118""
","
","","","","","","920","images/tree7.png","","","memory_trial","1","definitely_old",""
"html-keyboard-response","77","245690","0.0-18.0-0.17","4268","approach_avoid_sv1","""event"",""trial"",""time""
""fullscreenenter"",""1"",""1118""
","
","
","""event"",""trial"",""time""
""fullscreenenter"",""1"",""1118""
","
","","","","","","null","<div style=""font-size:60px;"">+</div>","null","","fixation","","",""
"memory-trial","78","248239","0.0-18.0-1.17","4268","approach_avoid_sv1","""event"",""trial"",""time""
""fullscreenenter"",""1"",""1118""
","
","
","""event"",""trial"",""time""
""fullscreenenter"",""1"",""1118""
","
","","","","","","1548","images/rodent3.png","","","memory_trial","4","definitely_new",""
"html-keyboard-response","79","248740","0.0-18.0-0.18","4268","approach_avoid_sv1","""event"",""trial"",""time""
""fullscreenenter"",""1"",""1118""
","
","
","""event"",""trial"",""time""
""fullscreenenter"",""1"",""1118""
","
","","","","","","null","<div style=""font-size:60px;"">+</div>","null","","fixation","","",""
"memory-trial","80","251185","0.0-18.0-1.18","4268","approach_avoid_sv1","""event"",""trial"",""time""
""fullscreenenter"",""1"",""1118""
","
","
","""event"",""trial"",""time""
""fullscreenenter"",""1"",""1118""
","
","","","","","","1443","images/bed5.png","","","memory_trial","4","definitely_new",""
"html-keyboard-response","81","251687","0.0-18.0-0.19","4268","approach_avoid_sv1","""event"",""trial"",""time""
""fullscreenenter"",""1"",""1118""
","
","
","""event"",""trial"",""time""
""fullscreenenter"",""1"",""1118""
","
","","","","","","null","<div style=""font-size:60px;"">+</div>","null","","fixation","","",""
"memory-trial","82","253921","0.0-18.0-1.19","4268","approach_avoid_sv1","""event"",""trial"",""time""
""fullscreenenter"",""1"",""1118""
","
","
","""event"",""trial"",""time""
""fullscreenenter"",""1"",""1118""
","
","","","","","","1232","images/horse6.png","","","memory_trial","1","definitely_old",""
"html-keyboard-response","83","254421","0.0-18.0-0.20","4268","approach_avoid_sv1","""event"",""trial"",""time""
""fullscreenenter"",""1"",""1118""
","
","
","""event"",""trial"",""time""
""fullscreenenter"",""1"",""1118""
","
","","","","","","null","<div style=""font-size:60px;"">+</div>","null","","fixation","","",""
"memory-trial","84","256806","0.0-18.0-1.20","4268","approach_avoid_sv1","""event"",""trial"",""time""
""fullscreenenter"",""1"",""1118""
","
","
","""event"",""trial"",""time""
""fullscreenenter"",""1"",""1118""
","
","","","","","","1383.999999999971","images/dog3.png","","","memory_trial","1","definitely_old",""
"html-keyboard-response","85","257308","0.0-18.0-0.21","4268","approach_avoid_sv1","""event"",""trial"",""time""
""fullscreenenter"",""1"",""1118""
","
","
","""event"",""trial"",""time""
""fullscreenenter"",""1"",""1118""
","
","","","","","","null","<div style=""font-size:60px;"">+</div>","null","","fixation","","",""
"memory-trial","86","259379","0.0-18.0-1.21","4268","approach_avoid_sv1","""event"",""trial"",""time""
""fullscreenenter"",""1"",""1118""
","
","
","""event"",""trial"",""time""
""fullscreenenter"",""1"",""1118""
","
","","","","","","1069.999999999971","images/bed3.png","","","memory_trial","4","definitely_new",""
"html-keyboard-response","87","259880","0.0-18.0-0.22","4268","approach_avoid_sv1","""event"",""trial"",""time""
""fullscreenenter"",""1"",""1118""
","
","
","""event"",""trial"",""time""
""fullscreenenter"",""1"",""1118""
","
","","","","","","null","<div style=""font-size:60px;"">+</div>","null","","fixation","","",""
"memory-trial","88","261881","0.0-18.0-1.22","4268","approach_avoid_sv1","""event"",""trial"",""time""
""fullscreenenter"",""1"",""1118""
","
","
","""event"",""trial"",""time""
""fullscreenenter"",""1"",""1118""
","
","","","","","","999","images/chair7.png","","","memory_trial","1","definitely_old",""
"html-keyboard-response","89","262383","0.0-18.0-0.23","4268","approach_avoid_sv1","""event"",""trial"",""time""
""fullscreenenter"",""1"",""1118""
","
","
","""event"",""trial"",""time""
""fullscreenenter"",""1"",""1118""
","
","","","","","","null","<div style=""font-size:60px;"">+</div>","null","","fixation","","",""
"memory-trial","90","264536","0.0-18.0-1.23","4268","approach_avoid_sv1","""event"",""trial"",""time""
""fullscreenenter"",""1"",""1118""
","
","
","""event"",""trial"",""time""
""fullscreenenter"",""1"",""1118""
","
","","","","","","1151","images/apple1.png","","","memory_trial","4","definitely_new",""
"html-keyboard-response","91","265036","0.0-18.0-0.24","4268","approach_avoid_sv1","""event"",""trial"",""time""
""fullscreenenter"",""1"",""1118""
","
","
","""event"",""trial"",""time""
""fullscreenenter"",""1"",""1118""
","
","","","","","","null","<div style=""font-size:60px;"">+</div>","null","","fixation","","",""
"memory-trial","92","267030","0.0-18.0-1.24","4268","approach_avoid_sv1","""event"",""trial"",""time""
""fullscreenenter"",""1"",""1118""
","
","
","""event"",""trial"",""time""
""fullscreenenter"",""1"",""1118""
","
","","","","","","991","images/sofa1.png","","","memory_trial","1","definitely_old",""
"html-keyboard-response","93","267531","0.0-18.0-0.25","4268","approach_avoid_sv1","""event"",""trial"",""time""
""fullscreenenter"",""1"",""1118""
","
","
","""event"",""trial"",""time""
""fullscreenenter"",""1"",""1118""
","
","","","","","","null","<div style=""font-size:60px;"">+</div>","null","","fixation","","",""
"memory-trial","94","270383","0.0-18.0-1.25","4268","approach_avoid_sv1","""event"",""trial"",""time""
""fullscreenenter"",""1"",""1118""
","
","
","""event"",""trial"",""time""
""fullscreenenter"",""1"",""1118""
","
","","","","","","1849","images/sofa2.png","","","memory_trial","4","definitely_new",""
"html-keyboard-response","95","270884","0.0-18.0-0.26","4268","approach_avoid_sv1","""event"",""trial"",""time""
""fullscreenenter"",""1"",""1118""
","
","
","""event"",""trial"",""time""
""fullscreenenter"",""1"",""1118""
","
","","","","","","null","<div style=""font-size:60px;"">+</div>","null","","fixation","","",""
"memory-trial","96","272731","0.0-18.0-1.26","4268","approach_avoid_sv1","""event"",""trial"",""time""
""fullscreenenter"",""1"",""1118""
","
","
","""event"",""trial"",""time""
""fullscreenenter"",""1"",""1118""
","
","","","","","","844","images/bed4.png","","","memory_trial","4","definitely_new",""
"html-keyboard-response","97","273232","0.0-18.0-0.27","4268","approach_avoid_sv1","""event"",""trial"",""time""
""fullscreenenter"",""1"",""1118""
","
","
","""event"",""trial"",""time""
""fullscreenenter"",""1"",""1118""
","
","","","","","","null","<div style=""font-size:60px;"">+</div>","null","","fixation","","",""
"memory-trial","98","276025","0.0-18.0-1.27","4268","approach_avoid_sv1","""event"",""trial"",""time""
""fullscreenenter"",""1"",""1118""
","
","
","""event"",""trial"",""time""
""fullscreenenter"",""1"",""1118""
","
","","","","","","1792","images/table8.png","","","memory_trial","4","definitely_new",""
"html-keyboard-response","99","276527","0.0-18.0-0.28","4268","approach_avoid_sv1","""event"",""trial"",""time""
""fullscreenenter"",""1"",""1118""
","
","
","""event"",""trial"",""time""
""fullscreenenter"",""1"",""1118""
","
","","","","","","null","<div style=""font-size:60px;"">+</div>","null","","fixation","","",""
"memory-trial","100","278608","0.0-18.0-1.28","4268","approach_avoid_sv1","""event"",""trial"",""time""
""fullscreenenter"",""1"",""1118""
","
","
","""event"",""trial"",""time""
""fullscreenenter"",""1"",""1118""
","
","","","","","","1080","images/plane8.png","","","memory_trial","1","definitely_old",""
"html-keyboard-response","101","279110","0.0-18.0-0.29","4268","approach_avoid_sv1","""event"",""trial"",""time""
""fullscreenenter"",""1"",""1118""
","
","
","""event"",""trial"",""time""
""fullscreenenter"",""1"",""1118""
","
","","","","","","null","<div style=""font-size:60px;"">+</div>","null","","fixation","","",""
"memory-trial","102","280922","0.0-18.0-1.29","4268","approach_avoid_sv1","""event"",""trial"",""time""
""fullscreenenter"",""1"",""1118""
","
","
","""event"",""trial"",""time""
""fullscreenenter"",""1"",""1118""
","
","","","","","","809.9999999999418","images/straw8.png","","","memory_trial","4","definitely_new",""
"html-keyboard-response","103","281423","0.0-18.0-0.30","4268","approach_avoid_sv1","""event"",""trial"",""time""
""fullscreenenter"",""1"",""1118""
","
","
","""event"",""trial"",""time""
""fullscreenenter"",""1"",""1118""
","
","","","","","","null","<div style=""font-size:60px;"">+</div>","null","","fixation","","",""
"memory-trial","104","283885","0.0-18.0-1.30","4268","approach_avoid_sv1","""event"",""trial"",""time""
""fullscreenenter"",""1"",""1118""
","
","
","""event"",""trial"",""time""
""fullscreenenter"",""1"",""1118""
","
","","","","","","1460","images/orange8.png","","","memory_trial","4","definitely_new",""
"html-keyboard-response","105","284387","0.0-18.0-0.31","4268","approach_avoid_sv1","""event"",""trial"",""time""
""fullscreenenter"",""1"",""1118""
","
","
","""event"",""trial"",""time""
""fullscreenenter"",""1"",""1118""
","
","","","","","","null","<div style=""font-size:60px;"">+</div>","null","","fixation","","",""
"memory-trial","106","286390","0.0-18.0-1.31","4268","approach_avoid_sv1","""event"",""trial"",""time""
""fullscreenenter"",""1"",""1118""
","
","
","""event"",""trial"",""time""
""fullscreenenter"",""1"",""1118""
","
","","","","","","1002.0000000000582","images/bush3.png","","","memory_trial","4","definitely_new",""
"html-keyboard-response","107","286892","0.0-18.0-0.32","4268","approach_avoid_sv1","""event"",""trial"",""time""
""fullscreenenter"",""1"",""1118""
","
","
","""event"",""trial"",""time""
""fullscreenenter"",""1"",""1118""
","
","","","","","","null","<div style=""font-size:60px;"">+</div>","null","","fixation","","",""
"memory-trial","108","288814","0.0-18.0-1.32","4268","approach_avoid_sv1","""event"",""trial"",""time""
""fullscreenenter"",""1"",""1118""
","
","
","""event"",""trial"",""time""
""fullscreenenter"",""1"",""1118""
","
","","","","","","919","images/rodent7.png","","","memory_trial","4","definitely_new",""
"html-keyboard-response","109","289316","0.0-18.0-0.33","4268","approach_avoid_sv1","""event"",""trial"",""time""
""fullscreenenter"",""1"",""1118""
","
","
","""event"",""trial"",""time""
""fullscreenenter"",""1"",""1118""
","
","","","","","","null","<div style=""font-size:60px;"">+</div>","null","","fixation","","",""
"memory-trial","110","291057","0.0-18.0-1.33","4268","approach_avoid_sv1","""event"",""trial"",""time""
""fullscreenenter"",""1"",""1118""
","
","
","""event"",""trial"",""time""
""fullscreenenter"",""1"",""1118""
","
","","","","","","739","images/orange2.png","","","memory_trial","1","definitely_old",""
"html-keyboard-response","111","291559","0.0-18.0-0.34","4268","approach_avoid_sv1","""event"",""trial"",""time""
""fullscreenenter"",""1"",""1118""
","
","
","""event"",""trial"",""time""
""fullscreenenter"",""1"",""1118""
","
","","","","","","null","<div style=""font-size:60px;"">+</div>","null","","fixation","","",""
"memory-trial","112","293403","0.0-18.0-1.34","4268","approach_avoid_sv1","""event"",""trial"",""time""
""fullscreenenter"",""1"",""1118""
","
","
","""event"",""trial"",""time""
""fullscreenenter"",""1"",""1118""
","
","","","","","","844","images/goat2.png","","","memory_trial","1","definitely_old",""
"html-keyboard-response","113","293905","0.0-18.0-0.35","4268","approach_avoid_sv1","""event"",""trial"",""time""
""fullscreenenter"",""1"",""1118""
","
","
","""event"",""trial"",""time""
""fullscreenenter"",""1"",""1118""
","
","","","","","","null","<div style=""font-size:60px;"">+</div>","null","","fixation","","",""
"memory-trial","114","295615","0.0-18.0-1.35","4268","approach_avoid_sv1","""event"",""trial"",""time""
""fullscreenenter"",""1"",""1118""
","
","
","""event"",""trial"",""time""
""fullscreenenter"",""1"",""1118""
","
","","","","","","709","images/flower2.png","","","memory_trial","1","definitely_old",""
"html-keyboard-response","115","296116","0.0-18.0-0.36","4268","approach_avoid_sv1","""event"",""trial"",""time""
""fullscreenenter"",""1"",""1118""
","
","
","""event"",""trial"",""time""
""fullscreenenter"",""1"",""1118""
","
","","","","","","null","<div style=""font-size:60px;"">+</div>","null","","fixation","","",""
"memory-trial","116","297884","0.0-18.0-1.36","4268","approach_avoid_sv1","""event"",""trial"",""time""
""fullscreenenter"",""1"",""1118""
","
","
","""event"",""trial"",""time""
""fullscreenenter"",""1"",""1118""
","
","","","","","","766","images/goat3.png","","","memory_trial","1","definitely_old",""
"html-keyboard-response","117","298386","0.0-18.0-0.37","4268","approach_avoid_sv1","""event"",""trial"",""time""
""fullscreenenter"",""1"",""1118""
","
","
","""event"",""trial"",""time""
""fullscreenenter"",""1"",""1118""
","
","","","","","","null","<div style=""font-size:60px;"">+</div>","null","","fixation","","",""
"memory-trial","118","300154","0.0-18.0-1.37","4268","approach_avoid_sv1","""event"",""trial"",""time""
""fullscreenenter"",""1"",""1118""
","
","
","""event"",""trial"",""time""
""fullscreenenter"",""1"",""1118""
","
","","","","","","765.0000000000582","images/cat4.png","","","memory_trial","4","definitely_new",""
"html-keyboard-response","119","300656","0.0-18.0-0.38","4268","approach_avoid_sv1","""event"",""trial"",""time""
""fullscreenenter"",""1"",""1118""
","
","
","""event"",""trial"",""time""
""fullscreenenter"",""1"",""1118""
","
","","","","","","null","<div style=""font-size:60px;"">+</div>","null","","fixation","","",""
"memory-trial","120","302601","0.0-18.0-1.38","4268","approach_avoid_sv1","""event"",""trial"",""time""
""fullscreenenter"",""1"",""1118""
","
","
","""event"",""trial"",""time""
""fullscreenenter"",""1"",""1118""
","
","","","","","","944","images/horse3.png","","","memory_trial","4","definitely_new",""
"html-keyboard-response","121","303102","0.0-18.0-0.39","4268","approach_avoid_sv1","""event"",""trial"",""time""
""fullscreenenter"",""1"",""1118""
","
","
","""event"",""trial"",""time""
""fullscreenenter"",""1"",""1118""
","
","","","","","","null","<div style=""font-size:60px;"">+</div>","null","","fixation","","",""
"memory-trial","122","304970","0.0-18.0-1.39","4268","approach_avoid_sv1","""event"",""trial"",""time""
""fullscreenenter"",""1"",""1118""
","
","
","""event"",""trial"",""time""
""fullscreenenter"",""1"",""1118""
","
","","","","","","867","images/sofa8.png","","","memory_trial","1","definitely_old",""
"html-keyboard-response","123","305471","0.0-18.0-0.40","4268","approach_avoid_sv1","""event"",""trial"",""time""
""fullscreenenter"",""1"",""1118""
","
","
","""event"",""trial"",""time""
""fullscreenenter"",""1"",""1118""
","
","","","","","","null","<div style=""font-size:60px;"">+</div>","null","","fixation","","",""
"memory-trial","124","307369","0.0-18.0-1.40","4268","approach_avoid_sv1","""event"",""trial"",""time""
""fullscreenenter"",""1"",""1118""
","
","
","""event"",""trial"",""time""
""fullscreenenter"",""1"",""1118""
","
","","","","","","895","images/truck1.png","","","memory_trial","4","definitely_new",""
"html-keyboard-response","125","307869","0.0-18.0-0.41","4268","approach_avoid_sv1","""event"",""trial"",""time""
""fullscreenenter"",""1"",""1118""
","
","
","""event"",""trial"",""time""
""fullscreenenter"",""1"",""1118""
","
","","","","","","null","<div style=""font-size:60px;"">+</div>","null","","fixation","","",""
"memory-trial","126","309599","0.0-18.0-1.41","4268","approach_avoid_sv1","""event"",""trial"",""time""
""fullscreenenter"",""1"",""1118""
","
","
","""event"",""trial"",""time""
""fullscreenenter"",""1"",""1118""
","
","","","","","","727","images/goat1.png","","","memory_trial","4","definitely_new",""
"html-button-response","127","312327","0.0-18.0-2.41-0.41","4268","approach_avoid_sv1","""event"",""trial"",""time""
""fullscreenenter"",""1"",""1118""
","
","
","""event"",""trial"",""time""
""fullscreenenter"",""1"",""1118""
","
","","","","","","2726.999999999942","<p> Take a break! </p><p> Click the button to continue. </p>","0","","break","","",""
"html-keyboard-response","128","312829","0.0-18.0-0.42","4268","approach_avoid_sv1","""event"",""trial"",""time""
""fullscreenenter"",""1"",""1118""
","
","
","""event"",""trial"",""time""
""fullscreenenter"",""1"",""1118""
","
","","","","","","null","<div style=""font-size:60px;"">+</div>","null","","fixation","","",""
"memory-trial","129","314830","0.0-18.0-1.42","4268","approach_avoid_sv1","""event"",""trial"",""time""
""fullscreenenter"",""1"",""1118""
","
","
","""event"",""trial"",""time""
""fullscreenenter"",""1"",""1118""
","
","","","","","","999","images/sheep6.png","","","memory_trial","1","definitely_old",""
"html-keyboard-response","130","315332","0.0-18.0-0.43","4268","approach_avoid_sv1","""event"",""trial"",""time""
""fullscreenenter"",""1"",""1118""
","
","
","""event"",""trial"",""time""
""fullscreenenter"",""1"",""1118""
","
","","","","","","null","<div style=""font-size:60px;"">+</div>","null","","fixation","","",""
"memory-trial","131","317015","0.0-18.0-1.43","4268","approach_avoid_sv1","""event"",""trial"",""time""
""fullscreenenter"",""1"",""1118""
","
","
","""event"",""trial"",""time""
""fullscreenenter"",""1"",""1118""
","
","","","","","","683.0000000000582","images/cat7.png","","","memory_trial","4","definitely_new",""
"html-keyboard-response","132","317517","0.0-18.0-0.44","4268","approach_avoid_sv1","""event"",""trial"",""time""
""fullscreenenter"",""1"",""1118""
","
","
","""event"",""trial"",""time""
""fullscreenenter"",""1"",""1118""
","
","","","","","","null","<div style=""font-size:60px;"">+</div>","null","","fixation","","",""
"memory-trial","133","319419","0.0-18.0-1.44","4268","approach_avoid_sv1","""event"",""trial"",""time""
""fullscreenenter"",""1"",""1118""
","
","
","""event"",""trial"",""time""
""fullscreenenter"",""1"",""1118""
","
","","","","","","900","images/rodent1.png","","","memory_trial","4","definitely_new",""
"html-keyboard-response","134","319920","0.0-18.0-0.45","4268","approach_avoid_sv1","""event"",""trial"",""time""
""fullscreenenter"",""1"",""1118""
","
","
","""event"",""trial"",""time""
""fullscreenenter"",""1"",""1118""
","
","","","","","","null","<div style=""font-size:60px;"">+</div>","null","","fixation","","",""
"memory-trial","135","322022","0.0-18.0-1.45","4268","approach_avoid_sv1","""event"",""trial"",""time""
""fullscreenenter"",""1"",""1118""
","
","
","""event"",""trial"",""time""
""fullscreenenter"",""1"",""1118""
","
","","","","","","1100","images/orange3.png","","","memory_trial","4","definitely_new",""
"html-keyboard-response","136","322524","0.0-18.0-0.46","4268","approach_avoid_sv1","""event"",""trial"",""time""
""fullscreenenter"",""1"",""1118""
","
","
","""event"",""trial"",""time""
""fullscreenenter"",""1"",""1118""
","
","","","","","","null","<div style=""font-size:60px;"">+</div>","null","","fixation","","",""
"memory-trial","137","324210","0.0-18.0-1.46","4268","approach_avoid_sv1","""event"",""trial"",""time""
""fullscreenenter"",""1"",""1118""
","
","
","""event"",""trial"",""time""
""fullscreenenter"",""1"",""1118""
","
","","","","","","684","images/bed2.png","","","memory_trial","4","definitely_new",""
"html-keyboard-response","138","324711","0.0-18.0-0.47","4268","approach_avoid_sv1","""event"",""trial"",""time""
""fullscreenenter"",""1"",""1118""
","
","
","""event"",""trial"",""time""
""fullscreenenter"",""1"",""1118""
","
","","","","","","null","<div style=""font-size:60px;"">+</div>","null","","fixation","","",""
"memory-trial","139","327073","0.0-18.0-1.47","4268","approach_avoid_sv1","""event"",""trial"",""time""
""fullscreenenter"",""1"",""1118""
","
","
","""event"",""trial"",""time""
""fullscreenenter"",""1"",""1118""
","
","","","","","","1360","images/sofa4.png","","","memory_trial","4","definitely_new",""
"html-keyboard-response","140","327574","0.0-18.0-0.48","4268","approach_avoid_sv1","""event"",""trial"",""time""
""fullscreenenter"",""1"",""1118""
","
","
","""event"",""trial"",""time""
""fullscreenenter"",""1"",""1118""
","
","","","","","","null","<div style=""font-size:60px;"">+</div>","null","","fixation","","",""
"memory-trial","141","329696","0.0-18.0-1.48","4268","approach_avoid_sv1","""event"",""trial"",""time""
""fullscreenenter"",""1"",""1118""
","
","
","""event"",""trial"",""time""
""fullscreenenter"",""1"",""1118""
","
","","","","","","1120","images/boat8.png","","","memory_trial","1","definitely_old",""
"html-keyboard-response","142","330198","0.0-18.0-0.49","4268","approach_avoid_sv1","""event"",""trial"",""time""
""fullscreenenter"",""1"",""1118""
","
","
","""event"",""trial"",""time""
""fullscreenenter"",""1"",""1118""
","
","","","","","","null","<div style=""font-size:60px;"">+</div>","null","","fixation","","",""
"memory-trial","143","332086","0.0-18.0-1.49","4268","approach_avoid_sv1","""event"",""trial"",""time""
""fullscreenenter"",""1"",""1118""
","
","
","""event"",""trial"",""time""
""fullscreenenter"",""1"",""1118""
","
","","","","","","886","images/bush2.png","","","memory_trial","4","definitely_new",""
"html-keyboard-response","144","332587","0.0-18.0-0.50","4268","approach_avoid_sv1","""event"",""trial"",""time""
""fullscreenenter"",""1"",""1118""
","
","
","""event"",""trial"",""time""
""fullscreenenter"",""1"",""1118""
","
","","","","","","null","<div style=""font-size:60px;"">+</div>","null","","fixation","","",""
"memory-trial","145","334451","0.0-18.0-1.50","4268","approach_avoid_sv1","""event"",""trial"",""time""
""fullscreenenter"",""1"",""1118""
","
","
","""event"",""trial"",""time""
""fullscreenenter"",""1"",""1118""
","
","","","","","","861.9999999999418","images/dog4.png","","","memory_trial","4","definitely_new",""
"html-keyboard-response","146","334953","0.0-18.0-0.51","4268","approach_avoid_sv1","""event"",""trial"",""time""
""fullscreenenter"",""1"",""1118""
","
","
","""event"",""trial"",""time""
""fullscreenenter"",""1"",""1118""
","
","","","","","","null","<div style=""font-size:60px;"">+</div>","null","","fixation","","",""
"memory-trial","147","336799","0.0-18.0-1.51","4268","approach_avoid_sv1","""event"",""trial"",""time""
""fullscreenenter"",""1"",""1118""
","
","
","""event"",""trial"",""time""
""fullscreenenter"",""1"",""1118""
","
","","","","","","845","images/rabbit2.png","","","memory_trial","1","definitely_old",""
"html-keyboard-response","148","337301","0.0-18.0-0.52","4268","approach_avoid_sv1","""event"",""trial"",""time""
""fullscreenenter"",""1"",""1118""
","
","
","""event"",""trial"",""time""
""fullscreenenter"",""1"",""1118""
","
","","","","","","null","<div style=""font-size:60px;"">+</div>","null","","fixation","","",""
"memory-trial","149","339118","0.0-18.0-1.52","4268","approach_avoid_sv1","""event"",""trial"",""time""
""fullscreenenter"",""1"",""1118""
","
","
","""event"",""trial"",""time""
""fullscreenenter"",""1"",""1118""
","
","","","","","","813.9999999999418","images/train3.png","","","memory_trial","4","definitely_new",""
"html-keyboard-response","150","339619","0.0-18.0-0.53","4268","approach_avoid_sv1","""event"",""trial"",""time""
""fullscreenenter"",""1"",""1118""
","
","
","""event"",""trial"",""time""
""fullscreenenter"",""1"",""1118""
","
","","","","","","null","<div style=""font-size:60px;"">+</div>","null","","fixation","","",""
"memory-trial","151","342880","0.0-18.0-1.53","4268","approach_avoid_sv1","""event"",""trial"",""time""
""fullscreenenter"",""1"",""1118""
","
","
","""event"",""trial"",""time""
""fullscreenenter"",""1"",""1118""
","
","","","","","","2258","images/rabbit7.png","","","memory_trial","1","definitely_old",""
"html-keyboard-response","152","343381","0.0-18.0-0.54","4268","approach_avoid_sv1","""event"",""trial"",""time""
""fullscreenenter"",""1"",""1118""
","
","
","""event"",""trial"",""time""
""fullscreenenter"",""1"",""1118""
","
","","","","","","null","<div style=""font-size:60px;"">+</div>","null","","fixation","","",""
"memory-trial","153","345260","0.0-18.0-1.54","4268","approach_avoid_sv1","""event"",""trial"",""time""
""fullscreenenter"",""1"",""1118""
","
","
","""event"",""trial"",""time""
""fullscreenenter"",""1"",""1118""
","
","","","","","","877","images/cow1.png","","","memory_trial","4","definitely_new",""
"html-keyboard-response","154","345762","0.0-18.0-0.55","4268","approach_avoid_sv1","""event"",""trial"",""time""
""fullscreenenter"",""1"",""1118""
","
","
","""event"",""trial"",""time""
""fullscreenenter"",""1"",""1118""
","
","","","","","","null","<div style=""font-size:60px;"">+</div>","null","","fixation","","",""
"memory-trial","155","348297","0.0-18.0-1.55","4268","approach_avoid_sv1","""event"",""trial"",""time""
""fullscreenenter"",""1"",""1118""
","
","
","""event"",""trial"",""time""
""fullscreenenter"",""1"",""1118""
","
","","","","","","1534","images/dog1.png","","","memory_trial","4","definitely_new",""
"html-keyboard-response","156","348798","0.0-18.0-0.56","4268","approach_avoid_sv1","""event"",""trial"",""time""
""fullscreenenter"",""1"",""1118""
","
","
","""event"",""trial"",""time""
""fullscreenenter"",""1"",""1118""
","
","","","","","","null","<div style=""font-size:60px;"">+</div>","null","","fixation","","",""
"memory-trial","157","350529","0.0-18.0-1.56","4268","approach_avoid_sv1","""event"",""trial"",""time""
""fullscreenenter"",""1"",""1118""
","
","
","""event"",""trial"",""time""
""fullscreenenter"",""1"",""1118""
","
","","","","","","730.0000000000582","images/straw6.png","","","memory_trial","4","definitely_new",""
"html-keyboard-response","158","351030","0.0-18.0-0.57","4268","approach_avoid_sv1","""event"",""trial"",""time""
""fullscreenenter"",""1"",""1118""
","
","
","""event"",""trial"",""time""
""fullscreenenter"",""1"",""1118""
","
","","","","","","null","<div style=""font-size:60px;"">+</div>","null","","fixation","","",""
"memory-trial","159","352676","0.0-18.0-1.57","4268","approach_avoid_sv1","""event"",""trial"",""time""
""fullscreenenter"",""1"",""1118""
","
","
","""event"",""trial"",""time""
""fullscreenenter"",""1"",""1118""
","
","","","","","","644","images/straw5.png","","","memory_trial","4","definitely_new",""
"html-keyboard-response","160","353177","0.0-18.0-0.58","4268","approach_avoid_sv1","""event"",""trial"",""time""
""fullscreenenter"",""1"",""1118""
","
","
","""event"",""trial"",""time""
""fullscreenenter"",""1"",""1118""
","
","","","","","","null","<div style=""font-size:60px;"">+</div>","null","","fixation","","",""
"memory-trial","161","355160","0.0-18.0-1.58","4268","approach_avoid_sv1","""event"",""trial"",""time""
""fullscreenenter"",""1"",""1118""
","
","
","""event"",""trial"",""time""
""fullscreenenter"",""1"",""1118""
","
","","","","","","979.9999999999418","images/cactus5.png","","","memory_trial","1","definitely_old",""
"html-keyboard-response","162","355660","0.0-18.0-0.59","4268","approach_avoid_sv1","""event"",""trial"",""time""
""fullscreenenter"",""1"",""1118""
","
","
","""event"",""trial"",""time""
""fullscreenenter"",""1"",""1118""
","
","","","","","","null","<div style=""font-size:60px;"">+</div>","null","","fixation","","",""
"memory-trial","163","357247","0.0-18.0-1.59","4268","approach_avoid_sv1","""event"",""trial"",""time""
""fullscreenenter"",""1"",""1118""
","
","
","""event"",""trial"",""time""
""fullscreenenter"",""1"",""1118""
","
","","","","","","583.9999999999418","images/straw7.png","","","memory_trial","4","definitely_new",""
"html-keyboard-response","164","357747","0.0-18.0-0.60","4268","approach_avoid_sv1","""event"",""trial"",""time""
""fullscreenenter"",""1"",""1118""
","
","
","""event"",""trial"",""time""
""fullscreenenter"",""1"",""1118""
","
","","","","","","null","<div style=""font-size:60px;"">+</div>","null","","fixation","","",""
"memory-trial","165","359968","0.0-18.0-1.60","4268","approach_avoid_sv1","""event"",""trial"",""time""
""fullscreenenter"",""1"",""1118""
","
","
","""event"",""trial"",""time""
""fullscreenenter"",""1"",""1118""
","
","","","","","","1218","images/table1.png","","","memory_trial","1","definitely_old",""
"html-keyboard-response","166","360469","0.0-18.0-0.61","4268","approach_avoid_sv1","""event"",""trial"",""time""
""fullscreenenter"",""1"",""1118""
","
","
","""event"",""trial"",""time""
""fullscreenenter"",""1"",""1118""
","
","","","","","","null","<div style=""font-size:60px;"">+</div>","null","","fixation","","",""
"memory-trial","167","362059","0.0-18.0-1.61","4268","approach_avoid_sv1","""event"",""trial"",""time""
""fullscreenenter"",""1"",""1118""
","
","
","""event"",""trial"",""time""
""fullscreenenter"",""1"",""1118""
","
","","","","","","589","images/chair5.png","","","memory_trial","1","definitely_old",""
"html-keyboard-response","168","362563","0.0-18.0-0.62","4268","approach_avoid_sv1","""event"",""trial"",""time""
""fullscreenenter"",""1"",""1118""
","
","
","""event"",""trial"",""time""
""fullscreenenter"",""1"",""1118""
","
","","","","","","null","<div style=""font-size:60px;"">+</div>","null","","fixation","","",""
"memory-trial","169","364227","0.0-18.0-1.62","4268","approach_avoid_sv1","""event"",""trial"",""time""
""fullscreenenter"",""1"",""1118""
","
","
","""event"",""trial"",""time""
""fullscreenenter"",""1"",""1118""
","
","","","","","","663.0000000000582","images/plane6.png","","","memory_trial","1","definitely_old",""
"html-keyboard-response","170","364728","0.0-18.0-0.63","4268","approach_avoid_sv1","""event"",""trial"",""time""
""fullscreenenter"",""1"",""1118""
","
","
","""event"",""trial"",""time""
""fullscreenenter"",""1"",""1118""
","
","","","","","","null","<div style=""font-size:60px;"">+</div>","null","","fixation","","",""
"memory-trial","171","366747","0.0-18.0-1.63","4268","approach_avoid_sv1","""event"",""trial"",""time""
""fullscreenenter"",""1"",""1118""
","
","
","""event"",""trial"",""time""
""fullscreenenter"",""1"",""1118""
","
","","","","","","1017","images/cow2.png","","","memory_trial","4","definitely_new",""
"html-keyboard-response","172","367249","0.0-18.0-0.64","4268","approach_avoid_sv1","""event"",""trial"",""time""
""fullscreenenter"",""1"",""1118""
","
","
","""event"",""trial"",""time""
""fullscreenenter"",""1"",""1118""
","
","","","","","","null","<div style=""font-size:60px;"">+</div>","null","","fixation","","",""
"memory-trial","173","369346","0.0-18.0-1.64","4268","approach_avoid_sv1","""event"",""trial"",""time""
""fullscreenenter"",""1"",""1118""
","
","
","""event"",""trial"",""time""
""fullscreenenter"",""1"",""1118""
","
","","","","","","1097","images/cow8.png","","","memory_trial","4","definitely_new",""
"html-keyboard-response","174","369848","0.0-18.0-0.65","4268","approach_avoid_sv1","""event"",""trial"",""time""
""fullscreenenter"",""1"",""1118""
","
","
","""event"",""trial"",""time""
""fullscreenenter"",""1"",""1118""
","
","","","","","","null","<div style=""font-size:60px;"">+</div>","null","","fixation","","",""
"memory-trial","175","371766","0.0-18.0-1.65","4268","approach_avoid_sv1","""event"",""trial"",""time""
""fullscreenenter"",""1"",""1118""
","
","
","""event"",""trial"",""time""
""fullscreenenter"",""1"",""1118""
","
","","","","","","917","images/bush5.png","","","memory_trial","4","definitely_new",""
"html-keyboard-response","176","372268","0.0-18.0-0.66","4268","approach_avoid_sv1","""event"",""trial"",""time""
""fullscreenenter"",""1"",""1118""
","
","
","""event"",""trial"",""time""
""fullscreenenter"",""1"",""1118""
","
","","","","","","null","<div style=""font-size:60px;"">+</div>","null","","fixation","","",""
"memory-trial","177","373995","0.0-18.0-1.66","4268","approach_avoid_sv1","""event"",""trial"",""time""
""fullscreenenter"",""1"",""1118""
","
","
","""event"",""trial"",""time""
""fullscreenenter"",""1"",""1118""
","
","","","","","","726","images/table6.png","","","memory_trial","1","definitely_old",""
"html-keyboard-response","178","374497","0.0-18.0-0.67","4268","approach_avoid_sv1","""event"",""trial"",""time""
""fullscreenenter"",""1"",""1118""
","
","
","""event"",""trial"",""time""
""fullscreenenter"",""1"",""1118""
","
","","","","","","null","<div style=""font-size:60px;"">+</div>","null","","fixation","","",""
"memory-trial","179","376094","0.0-18.0-1.67","4268","approach_avoid_sv1","""event"",""trial"",""time""
""fullscreenenter"",""1"",""1118""
","
","
","""event"",""trial"",""time""
""fullscreenenter"",""1"",""1118""
","
","","","","","","596","images/cactus2.png","","","memory_trial","1","definitely_old",""
"html-keyboard-response","180","376596","0.0-18.0-0.68","4268","approach_avoid_sv1","""event"",""trial"",""time""
""fullscreenenter"",""1"",""1118""
","
","
","""event"",""trial"",""time""
""fullscreenenter"",""1"",""1118""
","
","","","","","","null","<div style=""font-size:60px;"">+</div>","null","","fixation","","",""
"memory-trial","181","378296","0.0-18.0-1.68","4268","approach_avoid_sv1","""event"",""trial"",""time""
""fullscreenenter"",""1"",""1118""
","
","
","""event"",""trial"",""time""
""fullscreenenter"",""1"",""1118""
","
","","","","","","698","images/boat7.png","","","memory_trial","1","definitely_old",""
"html-keyboard-response","182","378797","0.0-18.0-0.69","4268","approach_avoid_sv1","""event"",""trial"",""time""
""fullscreenenter"",""1"",""1118""
","
","
","""event"",""trial"",""time""
""fullscreenenter"",""1"",""1118""
","
","","","","","","null","<div style=""font-size:60px;"">+</div>","null","","fixation","","",""
"memory-trial","183","380825","0.0-18.0-1.69","4268","approach_avoid_sv1","""event"",""trial"",""time""
""fullscreenenter"",""1"",""1118""
","
","
","""event"",""trial"",""time""
""fullscreenenter"",""1"",""1118""
","
","","","","","","1026","images/tree1.png","","","memory_trial","1","definitely_old",""
"html-keyboard-response","184","381326","0.0-18.0-0.70","4268","approach_avoid_sv1","""event"",""trial"",""time""
""fullscreenenter"",""1"",""1118""
","
","
","""event"",""trial"",""time""
""fullscreenenter"",""1"",""1118""
","
","","","","","","null","<div style=""font-size:60px;"">+</div>","null","","fixation","","",""
"memory-trial","185","384006","0.0-18.0-1.70","4268","approach_avoid_sv1","""event"",""trial"",""time""
""fullscreenenter"",""1"",""1118""
","
","
","""event"",""trial"",""time""
""fullscreenenter"",""1"",""1118""
","
","","","","","","1676.9999999999418","images/goat7.png","","","memory_trial","1","definitely_old",""
"html-keyboard-response","186","384507","0.0-18.0-0.71","4268","approach_avoid_sv1","""event"",""trial"",""time""
""fullscreenenter"",""1"",""1118""
","
","
","""event"",""trial"",""time""
""fullscreenenter"",""1"",""1118""
","
","","","","","","null","<div style=""font-size:60px;"">+</div>","null","","fixation","","",""
"memory-trial","187","386271","0.0-18.0-1.71","4268","approach_avoid_sv1","""event"",""trial"",""time""
""fullscreenenter"",""1"",""1118""
","
","
","""event"",""trial"",""time""
""fullscreenenter"",""1"",""1118""
","
","","","","","","762","images/sheep5.png","","","memory_trial","1","definitely_old",""
"html-keyboard-response","188","386773","0.0-18.0-0.72","4268","approach_avoid_sv1","""event"",""trial"",""time""
""fullscreenenter"",""1"",""1118""
","
","
","""event"",""trial"",""time""
""fullscreenenter"",""1"",""1118""
","
","","","","","","null","<div style=""font-size:60px;"">+</div>","null","","fixation","","",""
"memory-trial","189","390619","0.0-18.0-1.72","4268","approach_avoid_sv1","""event"",""trial"",""time""
""fullscreenenter"",""1"",""1118""
","
","
","""event"",""trial"",""time""
""fullscreenenter"",""1"",""1118""
","
","","","","","","2844","images/apple5.png","","","memory_trial","2","maybe_old",""
"html-keyboard-response","190","391121","0.0-18.0-0.73","4268","approach_avoid_sv1","""event"",""trial"",""time""
""fullscreenenter"",""1"",""1118""
","
","
","""event"",""trial"",""time""
""fullscreenenter"",""1"",""1118""
","
","","","","","","null","<div style=""font-size:60px;"">+</div>","null","","fixation","","",""
"memory-trial","191","392917","0.0-18.0-1.73","4268","approach_avoid_sv1","""event"",""trial"",""time""
""fullscreenenter"",""1"",""1118""
","
","
","""event"",""trial"",""time""
""fullscreenenter"",""1"",""1118""
","
","","","","","","794","images/cat6.png","","","memory_trial","4","definitely_new",""
"html-keyboard-response","192","393418","0.0-18.0-0.74","4268","approach_avoid_sv1","""event"",""trial"",""time""
""fullscreenenter"",""1"",""1118""
","
","
","""event"",""trial"",""time""
""fullscreenenter"",""1"",""1118""
","
","","","","","","null","<div style=""font-size:60px;"">+</div>","null","","fixation","","",""
"memory-trial","193","395039","0.0-18.0-1.74","4268","approach_avoid_sv1","""event"",""trial"",""time""
""fullscreenenter"",""1"",""1118""
","
","
","""event"",""trial"",""time""
""fullscreenenter"",""1"",""1118""
","
","","","","","","619","images/bush8.png","","","memory_trial","4","definitely_new",""
"html-keyboard-response","194","395541","0.0-18.0-0.75","4268","approach_avoid_sv1","""event"",""trial"",""time""
""fullscreenenter"",""1"",""1118""
","
","
","""event"",""trial"",""time""
""fullscreenenter"",""1"",""1118""
","
","","","","","","null","<div style=""font-size:60px;"">+</div>","null","","fixation","","",""
"memory-trial","195","397777","0.0-18.0-1.75","4268","approach_avoid_sv1","""event"",""trial"",""time""
""fullscreenenter"",""1"",""1118""
","
","
","""event"",""trial"",""time""
""fullscreenenter"",""1"",""1118""
","
","","","","","","1235","images/orange5.png","","","memory_trial","1","definitely_old",""
"html-keyboard-response","196","398279","0.0-18.0-0.76","4268","approach_avoid_sv1","""event"",""trial"",""time""
""fullscreenenter"",""1"",""1118""
","
","
","""event"",""trial"",""time""
""fullscreenenter"",""1"",""1118""
","
","","","","","","null","<div style=""font-size:60px;"">+</div>","null","","fixation","","",""
"memory-trial","197","400021","0.0-18.0-1.76","4268","approach_avoid_sv1","""event"",""trial"",""time""
""fullscreenenter"",""1"",""1118""
","
","
","""event"",""trial"",""time""
""fullscreenenter"",""1"",""1118""
","
","","","","","","740","images/boat1.png","","","memory_trial","1","definitely_old",""
"html-keyboard-response","198","400522","0.0-18.0-0.77","4268","approach_avoid_sv1","""event"",""trial"",""time""
""fullscreenenter"",""1"",""1118""
","
","
","""event"",""trial"",""time""
""fullscreenenter"",""1"",""1118""
","
","","","","","","null","<div style=""font-size:60px;"">+</div>","null","","fixation","","",""
"memory-trial","199","402781","0.0-18.0-1.77","4268","approach_avoid_sv1","""event"",""trial"",""time""
""fullscreenenter"",""1"",""1118""
","
","
","""event"",""trial"",""time""
""fullscreenenter"",""1"",""1118""
","
","","","","","","1257.0000000000582","images/sheep1.png","","","memory_trial","2","maybe_old",""
"html-keyboard-response","200","403282","0.0-18.0-0.78","4268","approach_avoid_sv1","""event"",""trial"",""time""
""fullscreenenter"",""1"",""1118""
","
","
","""event"",""trial"",""time""
""fullscreenenter"",""1"",""1118""
","
","","","","","","null","<div style=""font-size:60px;"">+</div>","null","","fixation","","",""
"memory-trial","201","405695","0.0-18.0-1.78","4268","approach_avoid_sv1","""event"",""trial"",""time""
""fullscreenenter"",""1"",""1118""
","
","
","""event"",""trial"",""time""
""fullscreenenter"",""1"",""1118""
","
","","","","","","1412","images/straw2.png","","","memory_trial","4","definitely_new",""
"html-keyboard-response","202","406197","0.0-18.0-0.79","4268","approach_avoid_sv1","""event"",""trial"",""time""
""fullscreenenter"",""1"",""1118""
","
","
","""event"",""trial"",""time""
""fullscreenenter"",""1"",""1118""
","
","","","","","","null","<div style=""font-size:60px;"">+</div>","null","","fixation","","",""
"memory-trial","203","408023","0.0-18.0-1.79","4268","approach_avoid_sv1","""event"",""trial"",""time""
""fullscreenenter"",""1"",""1118""
","
","
","""event"",""trial"",""time""
""fullscreenenter"",""1"",""1118""
","
","","","","","","824","images/boat5.png","","","memory_trial","1","definitely_old",""
"html-keyboard-response","204","408524","0.0-18.0-0.80","4268","approach_avoid_sv1","""event"",""trial"",""time""
""fullscreenenter"",""1"",""1118""
","
","
","""event"",""trial"",""time""
""fullscreenenter"",""1"",""1118""
","
","","","","","","null","<div style=""font-size:60px;"">+</div>","null","","fixation","","",""
"memory-trial","205","410241","0.0-18.0-1.80","4268","approach_avoid_sv1","""event"",""trial"",""time""
""fullscreenenter"",""1"",""1118""
","
","
","""event"",""trial"",""time""
""fullscreenenter"",""1"",""1118""
","
","","","","","","714","images/straw3.png","","","memory_trial","4","definitely_new",""
"html-keyboard-response","206","410742","0.0-18.0-0.81","4268","approach_avoid_sv1","""event"",""trial"",""time""
""fullscreenenter"",""1"",""1118""
","
","
","""event"",""trial"",""time""
""fullscreenenter"",""1"",""1118""
","
","","","","","","null","<div style=""font-size:60px;"">+</div>","null","","fixation","","",""
"memory-trial","207","412461","0.0-18.0-1.81","4268","approach_avoid_sv1","""event"",""trial"",""time""
""fullscreenenter"",""1"",""1118""
","
","
","""event"",""trial"",""time""
""fullscreenenter"",""1"",""1118""
","
","","","","","","716","images/cactus3.png","","","memory_trial","1","definitely_old",""
"html-keyboard-response","208","412962","0.0-18.0-0.82","4268","approach_avoid_sv1","""event"",""trial"",""time""
""fullscreenenter"",""1"",""1118""
","
","
","""event"",""trial"",""time""
""fullscreenenter"",""1"",""1118""
","
","","","","","","null","<div style=""font-size:60px;"">+</div>","null","","fixation","","",""
"memory-trial","209","414976","0.0-18.0-1.82","4268","approach_avoid_sv1","""event"",""trial"",""time""
""fullscreenenter"",""1"",""1118""
","
","
","""event"",""trial"",""time""
""fullscreenenter"",""1"",""1118""
","
","","","","","","1012","images/chair8.png","","","memory_trial","1","definitely_old",""
"html-keyboard-response","210","415477","0.0-18.0-0.83","4268","approach_avoid_sv1","""event"",""trial"",""time""
""fullscreenenter"",""1"",""1118""
","
","
","""event"",""trial"",""time""
""fullscreenenter"",""1"",""1118""
","
","","","","","","null","<div style=""font-size:60px;"">+</div>","null","","fixation","","",""
"memory-trial","211","417201","0.0-18.0-1.83","4268","approach_avoid_sv1","""event"",""trial"",""time""
""fullscreenenter"",""1"",""1118""
","
","
","""event"",""trial"",""time""
""fullscreenenter"",""1"",""1118""
","
","","","","","","721.9999999999418","images/chair3.png","","","memory_trial","1","definitely_old",""
"html-keyboard-response","212","417703","0.0-18.0-0.84","4268","approach_avoid_sv1","""event"",""trial"",""time""
""fullscreenenter"",""1"",""1118""
","
","
","""event"",""trial"",""time""
""fullscreenenter"",""1"",""1118""
","
","","","","","","null","<div style=""font-size:60px;"">+</div>","null","","fixation","","",""
"memory-trial","213","419335","0.0-18.0-1.84","4268","approach_avoid_sv1","""event"",""trial"",""time""
""fullscreenenter"",""1"",""1118""
","
","
","""event"",""trial"",""time""
""fullscreenenter"",""1"",""1118""
","
","","","","","","629.9999999999418","images/cactus7.png","","","memory_trial","1","definitely_old",""
"html-keyboard-response","214","419836","0.0-18.0-0.85","4268","approach_avoid_sv1","""event"",""trial"",""time""
""fullscreenenter"",""1"",""1118""
","
","
","""event"",""trial"",""time""
""fullscreenenter"",""1"",""1118""
","
","","","","","","null","<div style=""font-size:60px;"">+</div>","null","","fixation","","",""
"memory-trial","215","421681","0.0-18.0-1.85","4268","approach_avoid_sv1","""event"",""trial"",""time""
""fullscreenenter"",""1"",""1118""
","
","
","""event"",""trial"",""time""
""fullscreenenter"",""1"",""1118""
","
","","","","","","842.0000000000582","images/sofa6.png","","","memory_trial","1","definitely_old",""
"html-keyboard-response","216","422182","0.0-18.0-0.86","4268","approach_avoid_sv1","""event"",""trial"",""time""
""fullscreenenter"",""1"",""1118""
","
","
","""event"",""trial"",""time""
""fullscreenenter"",""1"",""1118""
","
","","","","","","null","<div style=""font-size:60px;"">+</div>","null","","fixation","","",""
"memory-trial","217","423964","0.0-18.0-1.86","4268","approach_avoid_sv1","""event"",""trial"",""time""
""fullscreenenter"",""1"",""1118""
","
","
","""event"",""trial"",""time""
""fullscreenenter"",""1"",""1118""
","
","","","","","","780","images/sheep4.png","","","memory_trial","4","definitely_new",""
"html-keyboard-response","218","424466","0.0-18.0-0.87","4268","approach_avoid_sv1","""event"",""trial"",""time""
""fullscreenenter"",""1"",""1118""
","
","
","""event"",""trial"",""time""
""fullscreenenter"",""1"",""1118""
","
","","","","","","null","<div style=""font-size:60px;"">+</div>","null","","fixation","","",""
"memory-trial","219","427345","0.0-18.0-1.87","4268","approach_avoid_sv1","""event"",""trial"",""time""
""fullscreenenter"",""1"",""1118""
","
","
","""event"",""trial"",""time""
""fullscreenenter"",""1"",""1118""
","
","","","","","","1878","images/banana5.png","","","memory_trial","1","definitely_old",""
"html-keyboard-response","220","427847","0.0-18.0-0.88","4268","approach_avoid_sv1","""event"",""trial"",""time""
""fullscreenenter"",""1"",""1118""
","
","
","""event"",""trial"",""time""
""fullscreenenter"",""1"",""1118""
","
","","","","","","null","<div style=""font-size:60px;"">+</div>","null","","fixation","","",""
"memory-trial","221","431052","0.0-18.0-1.88","4268","approach_avoid_sv1","""event"",""trial"",""time""
""fullscreenenter"",""1"",""1118""
","
","
","""event"",""trial"",""time""
""fullscreenenter"",""1"",""1118""
","
","","","","","","2204","images/banana2.png","","","memory_trial","4","definitely_new",""
"html-keyboard-response","222","431554","0.0-18.0-0.89","4268","approach_avoid_sv1","""event"",""trial"",""time""
""fullscreenenter"",""1"",""1118""
","
","
","""event"",""trial"",""time""
""fullscreenenter"",""1"",""1118""
","
","","","","","","null","<div style=""font-size:60px;"">+</div>","null","","fixation","","",""
"memory-trial","223","433162","0.0-18.0-1.89","4268","approach_avoid_sv1","""event"",""trial"",""time""
""fullscreenenter"",""1"",""1118""
","
","
","""event"",""trial"",""time""
""fullscreenenter"",""1"",""1118""
","
","","","","","","607","images/bush1.png","","","memory_trial","4","definitely_new",""
"html-keyboard-response","224","433664","0.0-18.0-0.90","4268","approach_avoid_sv1","""event"",""trial"",""time""
""fullscreenenter"",""1"",""1118""
","
","
","""event"",""trial"",""time""
""fullscreenenter"",""1"",""1118""
","
","","","","","","null","<div style=""font-size:60px;"">+</div>","null","","fixation","","",""
"memory-trial","225","435734","0.0-18.0-1.90","4268","approach_avoid_sv1","""event"",""trial"",""time""
""fullscreenenter"",""1"",""1118""
","
","
","""event"",""trial"",""time""
""fullscreenenter"",""1"",""1118""
","
","","","","","","1068","images/plane5.png","","","memory_trial","4","definitely_new",""
"html-keyboard-response","226","436235","0.0-18.0-0.91","4268","approach_avoid_sv1","""event"",""trial"",""time""
""fullscreenenter"",""1"",""1118""
","
","
","""event"",""trial"",""time""
""fullscreenenter"",""1"",""1118""
","
","","","","","","null","<div style=""font-size:60px;"">+</div>","null","","fixation","","",""
"memory-trial","227","439582","0.0-18.0-1.91","4268","approach_avoid_sv1","""event"",""trial"",""time""
""fullscreenenter"",""1"",""1118""
","
","
","""event"",""trial"",""time""
""fullscreenenter"",""1"",""1118""
","
","","","","","","2344","images/flower7.png","","","memory_trial","4","definitely_new",""
"html-button-response","228","441517","0.0-18.0-2.91-0.91","4268","approach_avoid_sv1","""event"",""trial"",""time""
""fullscreenenter"",""1"",""1118""
","
","
","""event"",""trial"",""time""
""fullscreenenter"",""1"",""1118""
","
","","","","","","1935","<p> Take a break! </p><p> Click the button to continue. </p>","0","","break","","",""
"html-keyboard-response","229","442018","0.0-18.0-0.92","4268","approach_avoid_sv1","""event"",""trial"",""time""
""fullscreenenter"",""1"",""1118""
","
","
","""event"",""trial"",""time""
""fullscreenenter"",""1"",""1118""
","
","","","","","","null","<div style=""font-size:60px;"">+</div>","null","","fixation","","",""
"memory-trial","230","444134","0.0-18.0-1.92","4268","approach_avoid_sv1","""event"",""trial"",""time""
""fullscreenenter"",""1"",""1118""
","
","
","""event"",""trial"",""time""
""fullscreenenter"",""1"",""1118""
","
","","","","","","1115","images/orange4.png","","","memory_trial","4","definitely_new",""
"html-keyboard-response","231","444636","0.0-18.0-0.93","4268","approach_avoid_sv1","""event"",""trial"",""time""
""fullscreenenter"",""1"",""1118""
","
","
","""event"",""trial"",""time""
""fullscreenenter"",""1"",""1118""
","
","","","","","","null","<div style=""font-size:60px;"">+</div>","null","","fixation","","",""
"memory-trial","232","446392","0.0-18.0-1.93","4268","approach_avoid_sv1","""event"",""trial"",""time""
""fullscreenenter"",""1"",""1118""
","
","
","""event"",""trial"",""time""
""fullscreenenter"",""1"",""1118""
","
","","","","","","755","images/orange6.png","","","memory_trial","1","definitely_old",""
"html-keyboard-response","233","446894","0.0-18.0-0.94","4268","approach_avoid_sv1","""event"",""trial"",""time""
""fullscreenenter"",""1"",""1118""
","
","
","""event"",""trial"",""time""
""fullscreenenter"",""1"",""1118""
","
","","","","","","null","<div style=""font-size:60px;"">+</div>","null","","fixation","","",""
"memory-trial","234","448703","0.0-18.0-1.94","4268","approach_avoid_sv1","""event"",""trial"",""time""
""fullscreenenter"",""1"",""1118""
","
","
","""event"",""trial"",""time""
""fullscreenenter"",""1"",""1118""
","
","","","","","","806.9999999999418","images/goat6.png","","","memory_trial","4","definitely_new",""
"html-keyboard-response","235","449205","0.0-18.0-0.95","4268","approach_avoid_sv1","""event"",""trial"",""time""
""fullscreenenter"",""1"",""1118""
","
","
","""event"",""trial"",""time""
""fullscreenenter"",""1"",""1118""
","
","","","","","","null","<div style=""font-size:60px;"">+</div>","null","","fixation","","",""
"memory-trial","236","450853","0.0-18.0-1.95","4268","approach_avoid_sv1","""event"",""trial"",""time""
""fullscreenenter"",""1"",""1118""
","
","
","""event"",""trial"",""time""
""fullscreenenter"",""1"",""1118""
","
","","","","","","646","images/sofa7.png","","","memory_trial","4","definitely_new",""
"html-keyboard-response","237","451354","0.0-18.0-0.96","4268","approach_avoid_sv1","""event"",""trial"",""time""
""fullscreenenter"",""1"",""1118""
","
","
","""event"",""trial"",""time""
""fullscreenenter"",""1"",""1118""
","
","","","","","","null","<div style=""font-size:60px;"">+</div>","null","","fixation","","",""
"memory-trial","238","453503","0.0-18.0-1.96","4268","approach_avoid_sv1","""event"",""trial"",""time""
""fullscreenenter"",""1"",""1118""
","
","
","""event"",""trial"",""time""
""fullscreenenter"",""1"",""1118""
","
","","","","","","1146","images/flower3.png","","","memory_trial","1","definitely_old",""
"html-keyboard-response","239","454004","0.0-18.0-0.97","4268","approach_avoid_sv1","""event"",""trial"",""time""
""fullscreenenter"",""1"",""1118""
","
","
","""event"",""trial"",""time""
""fullscreenenter"",""1"",""1118""
","
","","","","","","null","<div style=""font-size:60px;"">+</div>","null","","fixation","","",""
"memory-trial","240","455948","0.0-18.0-1.97","4268","approach_avoid_sv1","""event"",""trial"",""time""
""fullscreenenter"",""1"",""1118""
","
","
","""event"",""trial"",""time""
""fullscreenenter"",""1"",""1118""
","
","","","","","","942","images/orange7.png","","","memory_trial","4","definitely_new",""
"html-keyboard-response","241","456449","0.0-18.0-0.98","4268","approach_avoid_sv1","""event"",""trial"",""time""
""fullscreenenter"",""1"",""1118""
","
","
","""event"",""trial"",""time""
""fullscreenenter"",""1"",""1118""
","
","","","","","","null","<div style=""font-size:60px;"">+</div>","null","","fixation","","",""
"memory-trial","242","458342","0.0-18.0-1.98","4268","approach_avoid_sv1","""event"",""trial"",""time""
""fullscreenenter"",""1"",""1118""
","
","
","""event"",""trial"",""time""
""fullscreenenter"",""1"",""1118""
","
","","","","","","890.9999999999418","images/cactus1.png","","","memory_trial","1","definitely_old",""
"html-keyboard-response","243","458844","0.0-18.0-0.99","4268","approach_avoid_sv1","""event"",""trial"",""time""
""fullscreenenter"",""1"",""1118""
","
","
","""event"",""trial"",""time""
""fullscreenenter"",""1"",""1118""
","
","","","","","","null","<div style=""font-size:60px;"">+</div>","null","","fixation","","",""
"memory-trial","244","460983","0.0-18.0-1.99","4268","approach_avoid_sv1","""event"",""trial"",""time""
""fullscreenenter"",""1"",""1118""
","
","
","""event"",""trial"",""time""
""fullscreenenter"",""1"",""1118""
","
","","","","","","1136","images/apple3.png","","","memory_trial","4","definitely_new",""
"html-keyboard-response","245","461484","0.0-18.0-0.100","4268","approach_avoid_sv1","""event"",""trial"",""time""
""fullscreenenter"",""1"",""1118""
","
","
","""event"",""trial"",""time""
""fullscreenenter"",""1"",""1118""
","
","","","","","","null","<div style=""font-size:60px;"">+</div>","null","","fixation","","",""
"memory-trial","246","463544","0.0-18.0-1.100","4268","approach_avoid_sv1","""event"",""trial"",""time""
""fullscreenenter"",""1"",""1118""
","
","
","""event"",""trial"",""time""
""fullscreenenter"",""1"",""1118""
","
","","","","","","1058","images/rodent6.png","","","memory_trial","1","definitely_old",""
"html-keyboard-response","247","464045","0.0-18.0-0.101","4268","approach_avoid_sv1","""event"",""trial"",""time""
""fullscreenenter"",""1"",""1118""
","
","
","""event"",""trial"",""time""
""fullscreenenter"",""1"",""1118""
","
","","","","","","null","<div style=""font-size:60px;"">+</div>","null","","fixation","","",""
"memory-trial","248","466507","0.0-18.0-1.101","4268","approach_avoid_sv1","""event"",""trial"",""time""
""fullscreenenter"",""1"",""1118""
","
","
","""event"",""trial"",""time""
""fullscreenenter"",""1"",""1118""
","
","","","","","","1461","images/rodent5.png","","","memory_trial","2","maybe_old",""
"html-keyboard-response","249","467009","0.0-18.0-0.102","4268","approach_avoid_sv1","""event"",""trial"",""time""
""fullscreenenter"",""1"",""1118""
","
","
","""event"",""trial"",""time""
""fullscreenenter"",""1"",""1118""
","
","","","","","","null","<div style=""font-size:60px;"">+</div>","null","","fixation","","",""
"memory-trial","250","468977","0.0-18.0-1.102","4268","approach_avoid_sv1","""event"",""trial"",""time""
""fullscreenenter"",""1"",""1118""
","
","
","""event"",""trial"",""time""
""fullscreenenter"",""1"",""1118""
","
","","","","","","964","images/train2.png","","","memory_trial","4","definitely_new",""
"html-keyboard-response","251","469477","0.0-18.0-0.103","4268","approach_avoid_sv1","""event"",""trial"",""time""
""fullscreenenter"",""1"",""1118""
","
","
","""event"",""trial"",""time""
""fullscreenenter"",""1"",""1118""
","
","","","","","","null","<div style=""font-size:60px;"">+</div>","null","","fixation","","",""
"memory-trial","252","471588","0.0-18.0-1.103","4268","approach_avoid_sv1","""event"",""trial"",""time""
""fullscreenenter"",""1"",""1118""
","
","
","""event"",""trial"",""time""
""fullscreenenter"",""1"",""1118""
","
","","","","","","1109.0000000000582","images/tree6.png","","","memory_trial","4","definitely_new",""
"html-keyboard-response","253","472089","0.0-18.0-0.104","4268","approach_avoid_sv1","""event"",""trial"",""time""
""fullscreenenter"",""1"",""1118""
","
","
","""event"",""trial"",""time""
""fullscreenenter"",""1"",""1118""
","
","","","","","","null","<div style=""font-size:60px;"">+</div>","null","","fixation","","",""
"memory-trial","254","473975","0.0-18.0-1.104","4268","approach_avoid_sv1","""event"",""trial"",""time""
""fullscreenenter"",""1"",""1118""
","
","
","""event"",""trial"",""time""
""fullscreenenter"",""1"",""1118""
","
","","","","","","886","images/boat4.png","","","memory_trial","4","definitely_new",""
"html-keyboard-response","255","474477","0.0-18.0-0.105","4268","approach_avoid_sv1","""event"",""trial"",""time""
""fullscreenenter"",""1"",""1118""
","
","
","""event"",""trial"",""time""
""fullscreenenter"",""1"",""1118""
","
","","","","","","null","<div style=""font-size:60px;"">+</div>","null","","fixation","","",""
"memory-trial","256","476210","0.0-18.0-1.105","4268","approach_avoid_sv1","""event"",""trial"",""time""
""fullscreenenter"",""1"",""1118""
","
","
","""event"",""trial"",""time""
""fullscreenenter"",""1"",""1118""
","
","","","","","","732","images/plane7.png","","","memory_trial","4","definitely_new",""
"html-keyboard-response","257","476712","0.0-18.0-0.106","4268","approach_avoid_sv1","""event"",""trial"",""time""
""fullscreenenter"",""1"",""1118""
","
","
","""event"",""trial"",""time""
""fullscreenenter"",""1"",""1118""
","
","","","","","","null","<div style=""font-size:60px;"">+</div>","null","","fixation","","",""
"memory-trial","258","478431","0.0-18.0-1.106","4268","approach_avoid_sv1","""event"",""trial"",""time""
""fullscreenenter"",""1"",""1118""
","
","
","""event"",""trial"",""time""
""fullscreenenter"",""1"",""1118""
","
","","","","","","715","images/goat4.png","","","memory_trial","4","definitely_new",""
"html-keyboard-response","259","478932","0.0-18.0-0.107","4268","approach_avoid_sv1","""event"",""trial"",""time""
""fullscreenenter"",""1"",""1118""
","
","
","""event"",""trial"",""time""
""fullscreenenter"",""1"",""1118""
","
","","","","","","null","<div style=""font-size:60px;"">+</div>","null","","fixation","","",""
"memory-trial","260","480550","0.0-18.0-1.107","4268","approach_avoid_sv1","""event"",""trial"",""time""
""fullscreenenter"",""1"",""1118""
","
","
","""event"",""trial"",""time""
""fullscreenenter"",""1"",""1118""
","
","","","","","","616","images/train8.png","","","memory_trial","4","definitely_new",""
"html-keyboard-response","261","481051","0.0-18.0-0.108","4268","approach_avoid_sv1","""event"",""trial"",""time""
""fullscreenenter"",""1"",""1118""
","
","
","""event"",""trial"",""time""
""fullscreenenter"",""1"",""1118""
","
","","","","","","null","<div style=""font-size:60px;"">+</div>","null","","fixation","","",""
"memory-trial","262","482721","0.0-18.0-1.108","4268","approach_avoid_sv1","""event"",""trial"",""time""
""fullscreenenter"",""1"",""1118""
","
","
","""event"",""trial"",""time""
""fullscreenenter"",""1"",""1118""
","
","","","","","","667.9999999999418","images/cow3.png","","","memory_trial","4","definitely_new",""
"html-keyboard-response","263","483222","0.0-18.0-0.109","4268","approach_avoid_sv1","""event"",""trial"",""time""
""fullscreenenter"",""1"",""1118""
","
","
","""event"",""trial"",""time""
""fullscreenenter"",""1"",""1118""
","
","","","","","","null","<div style=""font-size:60px;"">+</div>","null","","fixation","","",""
"memory-trial","264","485799","0.0-18.0-1.109","4268","approach_avoid_sv1","""event"",""trial"",""time""
""fullscreenenter"",""1"",""1118""
","
","
","""event"",""trial"",""time""
""fullscreenenter"",""1"",""1118""
","
","","","","","","1574","images/boat2.png","","","memory_trial","2","maybe_old",""
"html-keyboard-response","265","486300","0.0-18.0-0.110","4268","approach_avoid_sv1","""event"",""trial"",""time""
""fullscreenenter"",""1"",""1118""
","
","
","""event"",""trial"",""time""
""fullscreenenter"",""1"",""1118""
","
","","","","","","null","<div style=""font-size:60px;"">+</div>","null","","fixation","","",""
"memory-trial","266","488793","0.0-18.0-1.110","4268","approach_avoid_sv1","""event"",""trial"",""time""
""fullscreenenter"",""1"",""1118""
","
","
","""event"",""trial"",""time""
""fullscreenenter"",""1"",""1118""
","
","","","","","","1491","images/bed6.png","","","memory_trial","4","definitely_new",""
"html-keyboard-response","267","489294","0.0-18.0-0.111","4268","approach_avoid_sv1","""event"",""trial"",""time""
""fullscreenenter"",""1"",""1118""
","
","
","""event"",""trial"",""time""
""fullscreenenter"",""1"",""1118""
","
","","","","","","null","<div style=""font-size:60px;"">+</div>","null","","fixation","","",""
"memory-trial","268","492677","0.0-18.0-1.111","4268","approach_avoid_sv1","""event"",""trial"",""time""
""fullscreenenter"",""1"",""1118""
","
","
","""event"",""trial"",""time""
""fullscreenenter"",""1"",""1118""
","
","","","","","","2380.999999999942","images/table2.png","","","memory_trial","3","maybe_new",""
"html-keyboard-response","269","493178","0.0-18.0-0.112","4268","approach_avoid_sv1","""event"",""trial"",""time""
""fullscreenenter"",""1"",""1118""
","
","
","""event"",""trial"",""time""
""fullscreenenter"",""1"",""1118""
","
","","","","","","null","<div style=""font-size:60px;"">+</div>","null","","fixation","","",""
"memory-trial","270","496288","0.0-18.0-1.112","4268","approach_avoid_sv1","""event"",""trial"",""time""
""fullscreenenter"",""1"",""1118""
","
","
","""event"",""trial"",""time""
""fullscreenenter"",""1"",""1118""
","
","","","","","","2108","images/flower1.png","","","memory_trial","4","definitely_new",""
"html-keyboard-response","271","496789","0.0-18.0-0.113","4268","approach_avoid_sv1","""event"",""trial"",""time""
""fullscreenenter"",""1"",""1118""
","
","
","""event"",""trial"",""time""
""fullscreenenter"",""1"",""1118""
","
","","","","","","null","<div style=""font-size:60px;"">+</div>","null","","fixation","","",""
"memory-trial","272","498676","0.0-18.0-1.113","4268","approach_avoid_sv1","""event"",""trial"",""time""
""fullscreenenter"",""1"",""1118""
","
","
","""event"",""trial"",""time""
""fullscreenenter"",""1"",""1118""
","
","","","","","","884.9999999999418","images/apple4.png","","","memory_trial","4","definitely_new",""
"html-keyboard-response","273","499178","0.0-18.0-0.114","4268","approach_avoid_sv1","""event"",""trial"",""time""
""fullscreenenter"",""1"",""1118""
","
","
","""event"",""trial"",""time""
""fullscreenenter"",""1"",""1118""
","
","","","","","","null","<div style=""font-size:60px;"">+</div>","null","","fixation","","",""
"memory-trial","274","501762","0.0-18.0-1.114","4268","approach_avoid_sv1","""event"",""trial"",""time""
""fullscreenenter"",""1"",""1118""
","
","
","""event"",""trial"",""time""
""fullscreenenter"",""1"",""1118""
","
","","","","","","1582","images/rabbit1.png","","","memory_trial","4","definitely_new",""
"html-keyboard-response","275","502263","0.0-18.0-0.115","4268","approach_avoid_sv1","""event"",""trial"",""time""
""fullscreenenter"",""1"",""1118""
","
","
","""event"",""trial"",""time""
""fullscreenenter"",""1"",""1118""
","
","","","","","","null","<div style=""font-size:60px;"">+</div>","null","","fixation","","",""
"memory-trial","276","504676","0.0-18.0-1.115","4268","approach_avoid_sv1","""event"",""trial"",""time""
""fullscreenenter"",""1"",""1118""
","
","
","""event"",""trial"",""time""
""fullscreenenter"",""1"",""1118""
","
","","","","","","1410","images/banana4.png","","","memory_trial","4","definitely_new",""
"html-keyboard-response","277","505177","0.0-18.0-0.116","4268","approach_avoid_sv1","""event"",""trial"",""time""
""fullscreenenter"",""1"",""1118""
","
","
","""event"",""trial"",""time""
""fullscreenenter"",""1"",""1118""
","
","","","","","","null","<div style=""font-size:60px;"">+</div>","null","","fixation","","",""
"memory-trial","278","508039","0.0-18.0-1.116","4268","approach_avoid_sv1","""event"",""trial"",""time""
""fullscreenenter"",""1"",""1118""
","
","
","""event"",""trial"",""time""
""fullscreenenter"",""1"",""1118""
","
","","","","","","1859","images/cactus8.png","","","memory_trial","2","maybe_old",""
"html-keyboard-response","279","508541","0.0-18.0-0.117","4268","approach_avoid_sv1","""event"",""trial"",""time""
""fullscreenenter"",""1"",""1118""
","
","
","""event"",""trial"",""time""
""fullscreenenter"",""1"",""1118""
","
","","","","","","null","<div style=""font-size:60px;"">+</div>","null","","fixation","","",""
"memory-trial","280","511177","0.0-18.0-1.117","4268","approach_avoid_sv1","""event"",""trial"",""time""
""fullscreenenter"",""1"",""1118""
","
","
","""event"",""trial"",""time""
""fullscreenenter"",""1"",""1118""
","
","","","","","","1634","images/flower5.png","","","memory_trial","4","definitely_new",""
"html-keyboard-response","281","511678","0.0-18.0-0.118","4268","approach_avoid_sv1","""event"",""trial"",""time""
""fullscreenenter"",""1"",""1118""
","
","
","""event"",""trial"",""time""
""fullscreenenter"",""1"",""1118""
","
","","","","","","null","<div style=""font-size:60px;"">+</div>","null","","fixation","","",""
"memory-trial","282","514225","0.0-18.0-1.118","4268","approach_avoid_sv1","""event"",""trial"",""time""
""fullscreenenter"",""1"",""1118""
","
","
","""event"",""trial"",""time""
""fullscreenenter"",""1"",""1118""
","
","","","","","","1544.9999999999418","images/horse1.png","","","memory_trial","4","definitely_new",""
"html-keyboard-response","283","514727","0.0-18.0-0.119","4268","approach_avoid_sv1","""event"",""trial"",""time""
""fullscreenenter"",""1"",""1118""
","
","
","""event"",""trial"",""time""
""fullscreenenter"",""1"",""1118""
","
","","","","","","null","<div style=""font-size:60px;"">+</div>","null","","fixation","","",""
"memory-trial","284","516379","0.0-18.0-1.119","4268","approach_avoid_sv1","""event"",""trial"",""time""
""fullscreenenter"",""1"",""1118""
","
","
","""event"",""trial"",""time""
""fullscreenenter"",""1"",""1118""
","
","","","","","","649.9999999999418","images/tree5.png","","","memory_trial","4","definitely_new",""
"html-keyboard-response","285","516880","0.0-18.0-0.120","4268","approach_avoid_sv1","""event"",""trial"",""time""
""fullscreenenter"",""1"",""1118""
","
","
","""event"",""trial"",""time""
""fullscreenenter"",""1"",""1118""
","
","","","","","","null","<div style=""font-size:60px;"">+</div>","null","","fixation","","",""
"memory-trial","286","518512","0.0-18.0-1.120","4268","approach_avoid_sv1","""event"",""trial"",""time""
""fullscreenenter"",""1"",""1118""
","
","
","""event"",""trial"",""time""
""fullscreenenter"",""1"",""1118""
","
","","","","","","630","images/chair4.png","","","memory_trial","4","definitely_new",""
"html-keyboard-response","287","519013","0.0-18.0-0.121","4268","approach_avoid_sv1","""event"",""trial"",""time""
""fullscreenenter"",""1"",""1118""
","
","
","""event"",""trial"",""time""
""fullscreenenter"",""1"",""1118""
","
","","","","","","null","<div style=""font-size:60px;"">+</div>","null","","fixation","","",""
"memory-trial","288","520765","0.0-18.0-1.121","4268","approach_avoid_sv1","""event"",""trial"",""time""
""fullscreenenter"",""1"",""1118""
","
","
","""event"",""trial"",""time""
""fullscreenenter"",""1"",""1118""
","
","","","","","","750","images/sheep7.png","","","memory_trial","4","definitely_new",""
"html-keyboard-response","289","521267","0.0-18.0-0.122","4268","approach_avoid_sv1","""event"",""trial"",""time""
""fullscreenenter"",""1"",""1118""
","
","
","""event"",""trial"",""time""
""fullscreenenter"",""1"",""1118""
","
","","","","","","null","<div style=""font-size:60px;"">+</div>","null","","fixation","","",""
"memory-trial","290","523745","0.0-18.0-1.122","4268","approach_avoid_sv1","""event"",""trial"",""time""
""fullscreenenter"",""1"",""1118""
","
","
","""event"",""trial"",""time""
""fullscreenenter"",""1"",""1118""
","
","","","","","","1476","images/truck7.png","","","memory_trial","1","definitely_old",""
"html-keyboard-response","291","524247","0.0-18.0-0.123","4268","approach_avoid_sv1","""event"",""trial"",""time""
""fullscreenenter"",""1"",""1118""
","
","
","""event"",""trial"",""time""
""fullscreenenter"",""1"",""1118""
","
","","","","","","null","<div style=""font-size:60px;"">+</div>","null","","fixation","","",""
"memory-trial","292","526873","0.0-18.0-1.123","4268","approach_avoid_sv1","""event"",""trial"",""time""
""fullscreenenter"",""1"",""1118""
","
","
","""event"",""trial"",""time""
""fullscreenenter"",""1"",""1118""
","
","","","","","","1624","images/rabbit4.png","","","memory_trial","1","definitely_old",""
"html-keyboard-response","293","527374","0.0-18.0-0.124","4268","approach_avoid_sv1","""event"",""trial"",""time""
""fullscreenenter"",""1"",""1118""
","
","
","""event"",""trial"",""time""
""fullscreenenter"",""1"",""1118""
","
","","","","","","null","<div style=""font-size:60px;"">+</div>","null","","fixation","","",""
"memory-trial","294","530503","0.0-18.0-1.124","4268","approach_avoid_sv1","""event"",""trial"",""time""
""fullscreenenter"",""1"",""1118""
","
","
","""event"",""trial"",""time""
""fullscreenenter"",""1"",""1118""
","
","","","","","","2128","images/sheep2.png","","","memory_trial","2","maybe_old",""
"html-keyboard-response","295","531005","0.0-18.0-0.125","4268","approach_avoid_sv1","""event"",""trial"",""time""
""fullscreenenter"",""1"",""1118""
","
","
","""event"",""trial"",""time""
""fullscreenenter"",""1"",""1118""
","
","","","","","","null","<div style=""font-size:60px;"">+</div>","null","","fixation","","",""
"memory-trial","296","533747","0.0-18.0-1.125","4268","approach_avoid_sv1","""event"",""trial"",""time""
""fullscreenenter"",""1"",""1118""
","
","
","""event"",""trial"",""time""
""fullscreenenter"",""1"",""1118""
","
","","","","","","1739.9999999998836","images/train6.png","","","memory_trial","4","definitely_new",""
"html-keyboard-response","297","534250","0.0-18.0-0.126","4268","approach_avoid_sv1","""event"",""trial"",""time""
""fullscreenenter"",""1"",""1118""
","
","
","""event"",""trial"",""time""
""fullscreenenter"",""1"",""1118""
","
","","","","","","null","<div style=""font-size:60px;"">+</div>","null","","fixation","","",""
"memory-trial","298","536304","0.0-18.0-1.126","4268","approach_avoid_sv1","""event"",""trial"",""time""
""fullscreenenter"",""1"",""1118""
","
","
","""event"",""trial"",""time""
""fullscreenenter"",""1"",""1118""
","
","","","","","","1052","images/train1.png","","","memory_trial","4","definitely_new",""
"html-keyboard-response","299","536805","0.0-18.0-0.127","4268","approach_avoid_sv1","""event"",""trial"",""time""
""fullscreenenter"",""1"",""1118""
","
","
","""event"",""trial"",""time""
""fullscreenenter"",""1"",""1118""
","
","","","","","","null","<div style=""font-size:60px;"">+</div>","null","","fixation","","",""
"memory-trial","300","539049","0.0-18.0-1.127","4268","approach_avoid_sv1","""event"",""trial"",""time""
""fullscreenenter"",""1"",""1118""
","
","
","""event"",""trial"",""time""
