"trial_type","trial_index","time_elapsed","internal_node_id","subject_id","task_version","interactions","blur_events","focus_events","fullscreenenter_events","fullscreenexit_events","success","timeout","failed_images","failed_audio","failed_video","rt","stimulus","response","button_pressed","task_part","key_press","answer","correct"
"pavlovia","0","3","0.0-0.0","5933","approach_avoid_sv1","""event"",""trial"",""time""
""fullscreenenter"",""1"",""4206""
","
","
","""event"",""trial"",""time""
""fullscreenenter"",""1"",""4206""
","
","","","","","","","","","","","","",""
"fullscreen","1","5200","0.0-1.0","5933","approach_avoid_sv1","""event"",""trial"",""time""
""fullscreenenter"",""1"",""4206""
","
","
","""event"",""trial"",""time""
""fullscreenenter"",""1"",""4206""
","
","true","","","","","","","","","","","",""
"preload","2","8598","0.0-2.0","5933","approach_avoid_sv1","""event"",""trial"",""time""
""fullscreenenter"",""1"",""4206""
","
","
","""event"",""trial"",""time""
""fullscreenenter"",""1"",""4206""
","
","true","false","[]","[]","[]","","","","","","","",""
"preload","3","11474","0.0-3.0","5933","approach_avoid_sv1","""event"",""trial"",""time""
""fullscreenenter"",""1"",""4206""
","
","
","""event"",""trial"",""time""
""fullscreenenter"",""1"",""4206""
","
","true","false","[]","[]","[]","","","","","","","",""
"preload","4","12951","0.0-4.0","5933","approach_avoid_sv1","""event"",""trial"",""time""
""fullscreenenter"",""1"",""4206""
","
","
","""event"",""trial"",""time""
""fullscreenenter"",""1"",""4206""
","
","true","false","[]","[]","[]","","","","","","","",""
"audio-keyboard-response","5","16376","0.0-5.0","5933","approach_avoid_sv1","""event"",""trial"",""time""
""fullscreenenter"",""1"",""4206""
","
","
","""event"",""trial"",""time""
""fullscreenenter"",""1"",""4206""
","
","","","","","","3421.333333333333","audio/beep_loop.wav"," ","","","","",""
"audio-button-response","6","18679","0.0-6.0","5933","approach_avoid_sv1","""event"",""trial"",""time""
""fullscreenenter"",""1"",""4206""
","
","
","""event"",""trial"",""time""
""fullscreenenter"",""1"",""4206""
","
","","","","","","2299","audio/turtle.wav","3","","","","",""
"audio-button-response","7","20847","0.0-7.0","5933","approach_avoid_sv1","""event"",""trial"",""time""
""fullscreenenter"",""1"",""4206""
","
","
","""event"",""trial"",""time""
""fullscreenenter"",""1"",""4206""
","
","","","","","","1171","audio/shark.wav","2","","","","",""
"preload","8","26665","0.0-8.0","5933","approach_avoid_sv1","""event"",""trial"",""time""
""fullscreenenter"",""1"",""4206""
","
","
","""event"",""trial"",""time""
""fullscreenenter"",""1"",""4206""
","
","true","false","[]","[]","[]","","","","","","","",""
"learning-instructions","9","35032","0.0-9.0-0.0","5933","approach_avoid_sv1","""event"",""trial"",""time""
""fullscreenenter"",""1"",""4206""
","
","
","""event"",""trial"",""time""
""fullscreenenter"",""1"",""4206""
","
","","","","","","3889.8000000715256","<p> Welcome back! </p><p> Last week, you had to make choices about lots of different items.  </p>","","0","instructions","","",""
"learning-instructions","10","40143","0.0-9.0-0.1","5933","approach_avoid_sv1","""event"",""trial"",""time""
""fullscreenenter"",""1"",""4206""
","
","
","""event"",""trial"",""time""
""fullscreenenter"",""1"",""4206""
","
","","","","","","991.3999999761581","<p> Today, we are going to ask you to try to remember all the items. </p>","","0","instructions","","",""
"learning-instructions","11","52159","0.0-9.0-0.2","5933","approach_avoid_sv1","""event"",""trial"",""time""
""fullscreenenter"",""1"",""4206""
","
","
","""event"",""trial"",""time""
""fullscreenenter"",""1"",""4206""
","
","","","","","","1867.8999999761581","<p> On every trial, you will see an image. </p><p> The image may be an OLD image you saw during the games last week or it may be a NEW image that was not presented. </p>","","0","instructions","","",""
"learning-instructions","12","61599","0.0-9.0-0.3","5933","approach_avoid_sv1","""event"",""trial"",""time""
""fullscreenenter"",""1"",""4206""
","
","
","""event"",""trial"",""time""
""fullscreenenter"",""1"",""4206""
","
","","","","","","927.5","<p> You need to select whether the image is:  </p><p>  'Definitely old', 'Maybe old', 'Maybe new', or 'Definitely new.'  </p><div class=""mem-choice-instructions-grid""><div class=""choice-option"" id=""choice-option-1"" ><img src=""images/definitely_old_1.png"" id=""choice-option-img-1"" class=""choice-option-img"" stage=""1""></div><div class=""choice-option"" id=""choice-option-2"" ><img src=""images/maybe_old_1.png"" id=""choice-option-img-2"" class=""choice-option-img"" stage=""1""></div><div class=""choice-option"" id=""choice-option-3"" ><img src=""images/maybe_new_1.png"" id=""choice-option-img-3"" class=""choice-option-img"" stage=""1""></div><div class=""choice-option"" id=""choice-option-4"" > <img src=""images/definitely_new_1.png"" id=""choice-option-img-4"" class=""choice-option-img"" stage=""1""></div></div>","","0","instructions","","",""
"learning-instructions","13","68327","0.0-9.0-0.4","5933","approach_avoid_sv1","""event"",""trial"",""time""
""fullscreenenter"",""1"",""4206""
","
","
","""event"",""trial"",""time""
""fullscreenenter"",""1"",""4206""
","
","","","","","","215.19999992847443","<p> You should use the 1, 2, 3, and 4 keys to make your responses.  </p><div class=""mem-choice-instructions-grid""><div class=""choice-option"" id=""choice-option-1"" ><img src=""images/definitely_old.png"" id=""choice-option-img-1"" class=""choice-option-img"" stage=""1""></div><div class=""choice-option"" id=""choice-option-2"" ><img src=""images/maybe_old.png"" id=""choice-option-img-2"" class=""choice-option-img"" stage=""1""></div><div class=""choice-option"" id=""choice-option-3"" ><img src=""images/maybe_new.png"" id=""choice-option-img-3"" class=""choice-option-img"" stage=""1""></div><div class=""choice-option"" id=""choice-option-4"" > <img src=""images/definitely_new.png"" id=""choice-option-img-4"" class=""choice-option-img"" stage=""1""></div></div>","","0","instructions","","",""
"learning-instructions","14","75087","0.0-9.0-0.5","5933","approach_avoid_sv1","""event"",""trial"",""time""
""fullscreenenter"",""1"",""4206""
","
","
","""event"",""trial"",""time""
""fullscreenenter"",""1"",""4206""
","
","","","","","","415.60000002384186","<p> You will have 10 seconds to make each response.  </p><p>  Make sure to respond before time runs out! </p>","","0","instructions","","",""
"learning-instructions","15","83263","0.0-9.0-0.6","5933","approach_avoid_sv1","""event"",""trial"",""time""
""fullscreenenter"",""1"",""4206""
","
","
","""event"",""trial"",""time""
""fullscreenenter"",""1"",""4206""
","
","","","","","","1101.7999999523163","<p> Today, you will see each image ONCE only.  </p><p>  That means none of the images will repeat. </p>","","0","instructions","","",""
"learning-instructions","16","96319","0.0-9.0-0.7","5933","approach_avoid_sv1","""event"",""trial"",""time""
""fullscreenenter"",""1"",""4206""
","
","
","""event"",""trial"",""time""
""fullscreenenter"",""1"",""4206""
","
","","","","","","377.2999999523163","<p> Before you play the real game, it is time to practice. </p><p>  Just like in the real game, some of the images in the practice will be ones you have seen before. </p><p>  Others will be entirely new. </p>","","0","instructions","","",""
"html-button-response","17","98447","0.0-10.0","5933","approach_avoid_sv1","""event"",""trial"",""time""
""fullscreenenter"",""1"",""4206""
","
","
","""event"",""trial"",""time""
""fullscreenenter"",""1"",""4206""
","
","","","","","","2018.2000000476837","<p> Ready to practice? </p><p> Remember, use the 1, 2, 3, and 4 keys to make your responses. </p>","0","","instructions","","",""
"html-keyboard-response","18","99070","0.0-11.0-0.0","5933","approach_avoid_sv1","""event"",""trial"",""time""
""fullscreenenter"",""1"",""4206""
","
","
","""event"",""trial"",""time""
""fullscreenenter"",""1"",""4206""
","
","","","","","","null","<div style=""font-size:60px;"">+</div>","null","","fixation","","",""
"memory-trial","19","103168","0.0-11.0-1.0","5933","approach_avoid_sv1","""event"",""trial"",""time""
""fullscreenenter"",""1"",""4206""
","
","
","""event"",""trial"",""time""
""fullscreenenter"",""1"",""4206""
","
","","","","","","3086.899999976158","images/racket1.png","","","practice","1","definitely_old",""
"html-keyboard-response","20","103681","0.0-11.0-0.1","5933","approach_avoid_sv1","""event"",""trial"",""time""
""fullscreenenter"",""1"",""4206""
","
","
","""event"",""trial"",""time""
""fullscreenenter"",""1"",""4206""
","
","","","","","","null","<div style=""font-size:60px;"">+</div>","null","","fixation","","",""
"memory-trial","21","107491","0.0-11.0-1.1","5933","approach_avoid_sv1","""event"",""trial"",""time""
""fullscreenenter"",""1"",""4206""
","
","
","""event"",""trial"",""time""
""fullscreenenter"",""1"",""4206""
","
","","","","","","2797.600000023842","images/racket3.png","","","practice","2","maybe_old",""
"html-keyboard-response","22","108005","0.0-11.0-0.2","5933","approach_avoid_sv1","""event"",""trial"",""time""
""fullscreenenter"",""1"",""4206""
","
","
","""event"",""trial"",""time""
""fullscreenenter"",""1"",""4206""
","
","","","","","","null","<div style=""font-size:60px;"">+</div>","null","","fixation","","",""
"memory-trial","23","110861","0.0-11.0-1.2","5933","approach_avoid_sv1","""event"",""trial"",""time""
""fullscreenenter"",""1"",""4206""
","
","
","""event"",""trial"",""time""
""fullscreenenter"",""1"",""4206""
","
","","","","","","1832.7000000476837","images/ball3.png","","","practice","4","definitely_new",""
"html-keyboard-response","24","111374","0.0-11.0-0.3","5933","approach_avoid_sv1","""event"",""trial"",""time""
""fullscreenenter"",""1"",""4206""
","
","
","""event"",""trial"",""time""
""fullscreenenter"",""1"",""4206""
","
","","","","","","null","<div style=""font-size:60px;"">+</div>","null","","fixation","","",""
"memory-trial","25","114555","0.0-11.0-1.3","5933","approach_avoid_sv1","""event"",""trial"",""time""
""fullscreenenter"",""1"",""4206""
","
","
","""event"",""trial"",""time""
""fullscreenenter"",""1"",""4206""
","
","","","","","","2167.7000000476837","images/ball1.png","","","practice","3","maybe_new",""
"html-keyboard-response","26","115068","0.0-11.0-0.4","5933","approach_avoid_sv1","""event"",""trial"",""time""
""fullscreenenter"",""1"",""4206""
","
","
","""event"",""trial"",""time""
""fullscreenenter"",""1"",""4206""
","
","","","","","","null","<div style=""font-size:60px;"">+</div>","null","","fixation","","",""
"memory-trial","27","117479","0.0-11.0-1.4","5933","approach_avoid_sv1","""event"",""trial"",""time""
""fullscreenenter"",""1"",""4206""
","
","
","""event"",""trial"",""time""
""fullscreenenter"",""1"",""4206""
","
","","","","","","1401.6999999284744","images/ball5.png","","","practice","3","maybe_new",""
"html-keyboard-response","28","117989","0.0-11.0-0.5","5933","approach_avoid_sv1","""event"",""trial"",""time""
""fullscreenenter"",""1"",""4206""
","
","
","""event"",""trial"",""time""
""fullscreenenter"",""1"",""4206""
","
","","","","","","null","<div style=""font-size:60px;"">+</div>","null","","fixation","","",""
"memory-trial","29","121430","0.0-11.0-1.5","5933","approach_avoid_sv1","""event"",""trial"",""time""
""fullscreenenter"",""1"",""4206""
","
","
","""event"",""trial"",""time""
""fullscreenenter"",""1"",""4206""
","
","","","","","","2424.6999999284744","images/racket5.png","","","practice","2","maybe_old",""
"html-keyboard-response","30","121946","0.0-11.0-0.6","5933","approach_avoid_sv1","""event"",""trial"",""time""
""fullscreenenter"",""1"",""4206""
","
","
","""event"",""trial"",""time""
""fullscreenenter"",""1"",""4206""
","
","","","","","","null","<div style=""font-size:60px;"">+</div>","null","","fixation","","",""
"memory-trial","31","125139","0.0-11.0-1.6","5933","approach_avoid_sv1","""event"",""trial"",""time""
""fullscreenenter"",""1"",""4206""
","
","
","""event"",""trial"",""time""
""fullscreenenter"",""1"",""4206""
","
","","","","","","2179.5999999046326","images/ball2.png","","","practice","4","definitely_new",""
"html-keyboard-response","32","125652","0.0-11.0-0.7","5933","approach_avoid_sv1","""event"",""trial"",""time""
""fullscreenenter"",""1"",""4206""
","
","
","""event"",""trial"",""time""
""fullscreenenter"",""1"",""4206""
","
","","","","","","null","<div style=""font-size:60px;"">+</div>","null","","fixation","","",""
"memory-trial","33","128679","0.0-11.0-1.7","5933","approach_avoid_sv1","""event"",""trial"",""time""
""fullscreenenter"",""1"",""4206""
","
","
","""event"",""trial"",""time""
""fullscreenenter"",""1"",""4206""
","
","","","","","","2018.1999999284744","images/racket2.png","","","practice","2","maybe_old",""
"learning-instructions","34","136568","0.0-12.0-0.0","5933","approach_avoid_sv1","""event"",""trial"",""time""
""fullscreenenter"",""1"",""4206""
","
","
","""event"",""trial"",""time""
""fullscreenenter"",""1"",""4206""
","
","","","","","","597.5","<p> Great! You have completed the practice. </p><p> Before you start, we're going to ask you a few questions about how the game works.  </p>","","0","instructions","","",""
"preload","35","140072","0.0-13.0","5933","approach_avoid_sv1","""event"",""trial"",""time""
""fullscreenenter"",""1"",""4206""
","
","
","""event"",""trial"",""time""
""fullscreenenter"",""1"",""4206""
","
","true","false","[]","[]","[]","","","","","","","",""
"comp-q","36","146736","0.0-14.0-0.0","5933","approach_avoid_sv1","""event"",""trial"",""time""
""fullscreenenter"",""1"",""4206""
","
","
","""event"",""trial"",""time""
""fullscreenenter"",""1"",""4206""
","
","","","","","","835.7000000476837","<p> <b> True or False? </b> </p><p> In this game, you will only see each image once. </p>","","0","comp_question","","","true"
"comp-q","37","153952","0.0-14.0-1.0","5933","approach_avoid_sv1","""event"",""trial"",""time""
""fullscreenenter"",""1"",""4206""
","
","
","""event"",""trial"",""time""
""fullscreenenter"",""1"",""4206""
","
","","","","","","881","<p> <b> That's right! </b> You will see many different images <i> one time each </i> in this game. </p>","","0","comp_answer","","",""
"comp-q","38","160767","0.0-15.0-0.0","5933","approach_avoid_sv1","""event"",""trial"",""time""
""fullscreenenter"",""1"",""4206""
","
","
","""event"",""trial"",""time""
""fullscreenenter"",""1"",""4206""
","
","","","","","","1817","<p> <b> True or False? </b> </p><p> You should use the mouse and click to make your response. </p>","","1","comp_question","","","true"
"comp-q","39","168424","0.0-15.0-1.0","5933","approach_avoid_sv1","""event"",""trial"",""time""
""fullscreenenter"",""1"",""4206""
","
","
","""event"",""trial"",""time""
""fullscreenenter"",""1"",""4206""
","
","","","","","","1153.6999999284744","<p><b> That's right! </b> You should use the '1', '2', '3', and '4' keys to make your response. </p>","","0","comp_answer","","",""
"comp-q","40","174583","0.0-16.0-0.0","5933","approach_avoid_sv1","""event"",""trial"",""time""
""fullscreenenter"",""1"",""4206""
","
","
","""event"",""trial"",""time""
""fullscreenenter"",""1"",""4206""
","
","","","","","","482.89999997615814","<p> <b> True or False? </b> </p><p> You will have as much time as you want to make each choice. </p>","","1","comp_question","","","true"
"comp-q","41","180719","0.0-16.0-1.0","5933","approach_avoid_sv1","""event"",""trial"",""time""
""fullscreenenter"",""1"",""4206""
","
","
","""event"",""trial"",""time""
""fullscreenenter"",""1"",""4206""
","
","","","","","","1429","<p> <b> That's right! </b> You will only have 10 seconds to make each choice. </p>","","0","comp_answer","","",""
"learning-instructions","42","190351","0.0-17.0","5933","approach_avoid_sv1","""event"",""trial"",""time""
""fullscreenenter"",""1"",""4206""
","
","
","""event"",""trial"",""time""
""fullscreenenter"",""1"",""4206""
","
","","","","","","961.5","<p> Great! You are now ready to begin the game. </p><p> Remember, use the 1, 2, 3, and 4 keys to make your responses. </p>","","0","instructions","","",""
"html-keyboard-response","43","190959","0.0-18.0-0.0","5933","approach_avoid_sv1","""event"",""trial"",""time""
""fullscreenenter"",""1"",""4206""
","
","
","""event"",""trial"",""time""
""fullscreenenter"",""1"",""4206""
","
","","","","","","null","<div style=""font-size:60px;"">+</div>","null","","fixation","","",""
"memory-trial","44","194165","0.0-18.0-1.0","5933","approach_avoid_sv1","""event"",""trial"",""time""
""fullscreenenter"",""1"",""4206""
","
","
","""event"",""trial"",""time""
""fullscreenenter"",""1"",""4206""
","
","","","","","","2182.399999976158","images/boat1.png","","","memory_trial","1","definitely_old",""
"html-keyboard-response","45","194678","0.0-18.0-0.1","5933","approach_avoid_sv1","""event"",""trial"",""time""
""fullscreenenter"",""1"",""4206""
","
","
","""event"",""trial"",""time""
""fullscreenenter"",""1"",""4206""
","
","","","","","","null","<div style=""font-size:60px;"">+</div>","null","","fixation","","",""
"memory-trial","46","197256","0.0-18.0-1.1","5933","approach_avoid_sv1","""event"",""trial"",""time""
""fullscreenenter"",""1"",""4206""
","
","
","""event"",""trial"",""time""
""fullscreenenter"",""1"",""4206""
","
","","","","","","1566.8999999761581","images/goat5.png","","","memory_trial","3","maybe_new",""
"html-keyboard-response","47","197770","0.0-18.0-0.2","5933","approach_avoid_sv1","""event"",""trial"",""time""
""fullscreenenter"",""1"",""4206""
","
","
","""event"",""trial"",""time""
""fullscreenenter"",""1"",""4206""
","
","","","","","","null","<div style=""font-size:60px;"">+</div>","null","","fixation","","",""
"memory-trial","48","200185","0.0-18.0-1.2","5933","approach_avoid_sv1","""event"",""trial"",""time""
""fullscreenenter"",""1"",""4206""
","
","
","""event"",""trial"",""time""
""fullscreenenter"",""1"",""4206""
","
","","","","","","1395.0999999046326","images/chair1.png","","","memory_trial","1","definitely_old",""
"html-keyboard-response","49","200699","0.0-18.0-0.3","5933","approach_avoid_sv1","""event"",""trial"",""time""
""fullscreenenter"",""1"",""4206""
","
","
","""event"",""trial"",""time""
""fullscreenenter"",""1"",""4206""
","
","","","","","","null","<div style=""font-size:60px;"">+</div>","null","","fixation","","",""
"memory-trial","50","203295","0.0-18.0-1.3","5933","approach_avoid_sv1","""event"",""trial"",""time""
""fullscreenenter"",""1"",""4206""
","
","
","""event"",""trial"",""time""
""fullscreenenter"",""1"",""4206""
","
","","","","","","1578.6000000238419","images/bush1.png","","","memory_trial","2","maybe_old",""
"html-keyboard-response","51","203809","0.0-18.0-0.4","5933","approach_avoid_sv1","""event"",""trial"",""time""
""fullscreenenter"",""1"",""4206""
","
","
","""event"",""trial"",""time""
""fullscreenenter"",""1"",""4206""
","
","","","","","","null","<div style=""font-size:60px;"">+</div>","null","","fixation","","",""
"memory-trial","52","206722","0.0-18.0-1.4","5933","approach_avoid_sv1","""event"",""trial"",""time""
""fullscreenenter"",""1"",""4206""
","
","
","""event"",""trial"",""time""
""fullscreenenter"",""1"",""4206""
","
","","","","","","1900.7999999523163","images/sofa5.png","","","memory_trial","2","maybe_old",""
"html-keyboard-response","53","207238","0.0-18.0-0.5","5933","approach_avoid_sv1","""event"",""trial"",""time""
""fullscreenenter"",""1"",""4206""
","
","
","""event"",""trial"",""time""
""fullscreenenter"",""1"",""4206""
","
","","","","","","null","<div style=""font-size:60px;"">+</div>","null","","fixation","","",""
"memory-trial","54","209716","0.0-18.0-1.5","5933","approach_avoid_sv1","""event"",""trial"",""time""
""fullscreenenter"",""1"",""4206""
","
","
","""event"",""trial"",""time""
""fullscreenenter"",""1"",""4206""
","
","","","","","","1454.8999999761581","images/banana6.png","","","memory_trial","1","definitely_old",""
"html-keyboard-response","55","210231","0.0-18.0-0.6","5933","approach_avoid_sv1","""event"",""trial"",""time""
""fullscreenenter"",""1"",""4206""
","
","
","""event"",""trial"",""time""
""fullscreenenter"",""1"",""4206""
","
","","","","","","null","<div style=""font-size:60px;"">+</div>","null","","fixation","","",""
"memory-trial","56","214246","0.0-18.0-1.6","5933","approach_avoid_sv1","""event"",""trial"",""time""
""fullscreenenter"",""1"",""4206""
","
","
","""event"",""trial"",""time""
""fullscreenenter"",""1"",""4206""
","
","","","","","","2998.2000000476837","images/tree3.png","","","memory_trial","4","definitely_new",""
"html-keyboard-response","57","214761","0.0-18.0-0.7","5933","approach_avoid_sv1","""event"",""trial"",""time""
""fullscreenenter"",""1"",""4206""
","
","
","""event"",""trial"",""time""
""fullscreenenter"",""1"",""4206""
","
","","","","","","null","<div style=""font-size:60px;"">+</div>","null","","fixation","","",""
"memory-trial","58","216653","0.0-18.0-1.7","5933","approach_avoid_sv1","""event"",""trial"",""time""
""fullscreenenter"",""1"",""4206""
","
","
","""event"",""trial"",""time""
""fullscreenenter"",""1"",""4206""
","
","","","","","","868.5","images/cactus1.png","","","memory_trial","1","definitely_old",""
"html-keyboard-response","59","217167","0.0-18.0-0.8","5933","approach_avoid_sv1","""event"",""trial"",""time""
""fullscreenenter"",""1"",""4206""
","
","
","""event"",""trial"",""time""
""fullscreenenter"",""1"",""4206""
","
","","","","","","null","<div style=""font-size:60px;"">+</div>","null","","fixation","","",""
"memory-trial","60","220430","0.0-18.0-1.8","5933","approach_avoid_sv1","""event"",""trial"",""time""
""fullscreenenter"",""1"",""4206""
","
","
","""event"",""trial"",""time""
""fullscreenenter"",""1"",""4206""
","
","","","","","","2253.899999976158","images/rodent6.png","","","memory_trial","2","maybe_old",""
"html-keyboard-response","61","220934","0.0-18.0-0.9","5933","approach_avoid_sv1","""event"",""trial"",""time""
""fullscreenenter"",""1"",""4206""
","
","
","""event"",""trial"",""time""
""fullscreenenter"",""1"",""4206""
","
","","","","","","null","<div style=""font-size:60px;"">+</div>","null","","fixation","","",""
"memory-trial","62","223470","0.0-18.0-1.9","5933","approach_avoid_sv1","""event"",""trial"",""time""
""fullscreenenter"",""1"",""4206""
","
","
","""event"",""trial"",""time""
""fullscreenenter"",""1"",""4206""
","
","","","","","","1527.6999999284744","images/table4.png","","","memory_trial","4","definitely_new",""
"html-keyboard-response","63","223974","0.0-18.0-0.10","5933","approach_avoid_sv1","""event"",""trial"",""time""
""fullscreenenter"",""1"",""4206""
","
","
","""event"",""trial"",""time""
""fullscreenenter"",""1"",""4206""
","
","","","","","","null","<div style=""font-size:60px;"">+</div>","null","","fixation","","",""
"memory-trial","64","225951","0.0-18.0-1.10","5933","approach_avoid_sv1","""event"",""trial"",""time""
""fullscreenenter"",""1"",""4206""
","
","
","""event"",""trial"",""time""
""fullscreenenter"",""1"",""4206""
","
","","","","","","967.3999999761581","images/bush2.png","","","memory_trial","1","definitely_old",""
"html-keyboard-response","65","226454","0.0-18.0-0.11","5933","approach_avoid_sv1","""event"",""trial"",""time""
""fullscreenenter"",""1"",""4206""
","
","
","""event"",""trial"",""time""
""fullscreenenter"",""1"",""4206""
","
","","","","","","null","<div style=""font-size:60px;"">+</div>","null","","fixation","","",""
"memory-trial","66","228406","0.0-18.0-1.11","5933","approach_avoid_sv1","""event"",""trial"",""time""
""fullscreenenter"",""1"",""4206""
","
","
","""event"",""trial"",""time""
""fullscreenenter"",""1"",""4206""
","
","","","","","","943.2999999523163","images/train2.png","","","memory_trial","4","definitely_new",""
"html-keyboard-response","67","228910","0.0-18.0-0.12","5933","approach_avoid_sv1","""event"",""trial"",""time""
""fullscreenenter"",""1"",""4206""
","
","
","""event"",""trial"",""time""
""fullscreenenter"",""1"",""4206""
","
","","","","","","null","<div style=""font-size:60px;"">+</div>","null","","fixation","","",""
"memory-trial","68","231886","0.0-18.0-1.12","5933","approach_avoid_sv1","""event"",""trial"",""time""
""fullscreenenter"",""1"",""4206""
","
","
","""event"",""trial"",""time""
""fullscreenenter"",""1"",""4206""
","
","","","","","","1968","images/plane4.png","","","memory_trial","2","maybe_old",""
"html-keyboard-response","69","232397","0.0-18.0-0.13","5933","approach_avoid_sv1","""event"",""trial"",""time""
""fullscreenenter"",""1"",""4206""
","
","
","""event"",""trial"",""time""
""fullscreenenter"",""1"",""4206""
","
","","","","","","null","<div style=""font-size:60px;"">+</div>","null","","fixation","","",""
"memory-trial","70","235574","0.0-18.0-1.13","5933","approach_avoid_sv1","""event"",""trial"",""time""
""fullscreenenter"",""1"",""4206""
","
","
","""event"",""trial"",""time""
""fullscreenenter"",""1"",""4206""
","
","","","","","","2167.399999976158","images/train7.png","","","memory_trial","3","maybe_new",""
"html-keyboard-response","71","236078","0.0-18.0-0.14","5933","approach_avoid_sv1","""event"",""trial"",""time""
""fullscreenenter"",""1"",""4206""
","
","
","""event"",""trial"",""time""
""fullscreenenter"",""1"",""4206""
","
","","","","","","null","<div style=""font-size:60px;"">+</div>","null","","fixation","","",""
"memory-trial","72","238783","0.0-18.0-1.14","5933","approach_avoid_sv1","""event"",""trial"",""time""
""fullscreenenter"",""1"",""4206""
","
","
","""event"",""trial"",""time""
""fullscreenenter"",""1"",""4206""
","
","","","","","","1695.0999999046326","images/rodent2.png","","","memory_trial","2","maybe_old",""
"html-keyboard-response","73","239287","0.0-18.0-0.15","5933","approach_avoid_sv1","""event"",""trial"",""time""
""fullscreenenter"",""1"",""4206""
","
","
","""event"",""trial"",""time""
""fullscreenenter"",""1"",""4206""
","
","","","","","","null","<div style=""font-size:60px;"">+</div>","null","","fixation","","",""
"memory-trial","74","241495","0.0-18.0-1.15","5933","approach_avoid_sv1","""event"",""trial"",""time""
""fullscreenenter"",""1"",""4206""
","
","
","""event"",""trial"",""time""
""fullscreenenter"",""1"",""4206""
","
","","","","","","1198.8999999761581","images/chair7.png","","","memory_trial","1","definitely_old",""
"html-keyboard-response","75","241999","0.0-18.0-0.16","5933","approach_avoid_sv1","""event"",""trial"",""time""
""fullscreenenter"",""1"",""4206""
","
","
","""event"",""trial"",""time""
""fullscreenenter"",""1"",""4206""
","
","","","","","","null","<div style=""font-size:60px;"">+</div>","null","","fixation","","",""
"memory-trial","76","244432","0.0-18.0-1.16","5933","approach_avoid_sv1","""event"",""trial"",""time""
""fullscreenenter"",""1"",""4206""
","
","
","""event"",""trial"",""time""
""fullscreenenter"",""1"",""4206""
","
","","","","","","1423","images/apple4.png","","","memory_trial","1","definitely_old",""
"html-keyboard-response","77","244935","0.0-18.0-0.17","5933","approach_avoid_sv1","""event"",""trial"",""time""
""fullscreenenter"",""1"",""4206""
","
","
","""event"",""trial"",""time""
""fullscreenenter"",""1"",""4206""
","
","","","","","","null","<div style=""font-size:60px;"">+</div>","null","","fixation","","",""
"memory-trial","78","247743","0.0-18.0-1.17","5933","approach_avoid_sv1","""event"",""trial"",""time""
""fullscreenenter"",""1"",""4206""
","
","
","""event"",""trial"",""time""
""fullscreenenter"",""1"",""4206""
","
","","","","","","1799.7999999523163","images/train4.png","","","memory_trial","4","definitely_new",""
"html-keyboard-response","79","248247","0.0-18.0-0.18","5933","approach_avoid_sv1","""event"",""trial"",""time""
""fullscreenenter"",""1"",""4206""
","
","
","""event"",""trial"",""time""
""fullscreenenter"",""1"",""4206""
","
","","","","","","null","<div style=""font-size:60px;"">+</div>","null","","fixation","","",""
"memory-trial","80","250559","0.0-18.0-1.18","5933","approach_avoid_sv1","""event"",""trial"",""time""
""fullscreenenter"",""1"",""4206""
","
","
","""event"",""trial"",""time""
""fullscreenenter"",""1"",""4206""
","
","","","","","","1302.2999999523163","images/train1.png","","","memory_trial","3","maybe_new",""
"html-keyboard-response","81","251063","0.0-18.0-0.19","5933","approach_avoid_sv1","""event"",""trial"",""time""
""fullscreenenter"",""1"",""4206""
","
","
","""event"",""trial"",""time""
""fullscreenenter"",""1"",""4206""
","
","","","","","","null","<div style=""font-size:60px;"">+</div>","null","","fixation","","",""
"memory-trial","82","253248","0.0-18.0-1.19","5933","approach_avoid_sv1","""event"",""trial"",""time""
""fullscreenenter"",""1"",""4206""
","
","
","""event"",""trial"",""time""
""fullscreenenter"",""1"",""4206""
","
","","","","","","1175.6000000238419","images/chair3.png","","","memory_trial","1","definitely_old",""
"html-keyboard-response","83","253751","0.0-18.0-0.20","5933","approach_avoid_sv1","""event"",""trial"",""time""
""fullscreenenter"",""1"",""4206""
","
","
","""event"",""trial"",""time""
""fullscreenenter"",""1"",""4206""
","
","","","","","","null","<div style=""font-size:60px;"">+</div>","null","","fixation","","",""
"memory-trial","84","255927","0.0-18.0-1.20","5933","approach_avoid_sv1","""event"",""trial"",""time""
""fullscreenenter"",""1"",""4206""
","
","
","""event"",""trial"",""time""
""fullscreenenter"",""1"",""4206""
","
","","","","","","1166.9000000953674","images/sheep5.png","","","memory_trial","1","definitely_old",""
"html-keyboard-response","85","256431","0.0-18.0-0.21","5933","approach_avoid_sv1","""event"",""trial"",""time""
""fullscreenenter"",""1"",""4206""
","
","
","""event"",""trial"",""time""
""fullscreenenter"",""1"",""4206""
","
","","","","","","null","<div style=""font-size:60px;"">+</div>","null","","fixation","","",""
"memory-trial","86","258495","0.0-18.0-1.21","5933","approach_avoid_sv1","""event"",""trial"",""time""
""fullscreenenter"",""1"",""4206""
","
","
","""event"",""trial"",""time""
""fullscreenenter"",""1"",""4206""
","
","","","","","","1055.2999999523163","images/flower2.png","","","memory_trial","1","definitely_old",""
"html-keyboard-response","87","258999","0.0-18.0-0.22","5933","approach_avoid_sv1","""event"",""trial"",""time""
""fullscreenenter"",""1"",""4206""
","
","
","""event"",""trial"",""time""
""fullscreenenter"",""1"",""4206""
","
","","","","","","null","<div style=""font-size:60px;"">+</div>","null","","fixation","","",""
"memory-trial","88","261063","0.0-18.0-1.22","5933","approach_avoid_sv1","""event"",""trial"",""time""
""fullscreenenter"",""1"",""4206""
","
","
","""event"",""trial"",""time""
""fullscreenenter"",""1"",""4206""
","
","","","","","","1055.2000000476837","images/straw2.png","","","memory_trial","2","maybe_old",""
"html-keyboard-response","89","261567","0.0-18.0-0.23","5933","approach_avoid_sv1","""event"",""trial"",""time""
""fullscreenenter"",""1"",""4206""
","
","
","""event"",""trial"",""time""
""fullscreenenter"",""1"",""4206""
","
","","","","","","null","<div style=""font-size:60px;"">+</div>","null","","fixation","","",""
"memory-trial","90","263631","0.0-18.0-1.23","5933","approach_avoid_sv1","""event"",""trial"",""time""
""fullscreenenter"",""1"",""4206""
","
","
","""event"",""trial"",""time""
""fullscreenenter"",""1"",""4206""
","
","","","","","","1055.1000000238419","images/cat7.png","","","memory_trial","3","maybe_new",""
"html-keyboard-response","91","264141","0.0-18.0-0.24","5933","approach_avoid_sv1","""event"",""trial"",""time""
""fullscreenenter"",""1"",""4206""
","
","
","""event"",""trial"",""time""
""fullscreenenter"",""1"",""4206""
","
","","","","","","null","<div style=""font-size:60px;"">+</div>","null","","fixation","","",""
"memory-trial","92","266360","0.0-18.0-1.24","5933","approach_avoid_sv1","""event"",""trial"",""time""
""fullscreenenter"",""1"",""4206""
","
","
","""event"",""trial"",""time""
""fullscreenenter"",""1"",""4206""
","
","","","","","","1209.3999999761581","images/apple2.png","","","memory_trial","1","definitely_old",""
"html-keyboard-response","93","266863","0.0-18.0-0.25","5933","approach_avoid_sv1","""event"",""trial"",""time""
""fullscreenenter"",""1"",""4206""
","
","
","""event"",""trial"",""time""
""fullscreenenter"",""1"",""4206""
","
","","","","","","null","<div style=""font-size:60px;"">+</div>","null","","fixation","","",""
"memory-trial","94","269303","0.0-18.0-1.25","5933","approach_avoid_sv1","""event"",""trial"",""time""
""fullscreenenter"",""1"",""4206""
","
","
","""event"",""trial"",""time""
""fullscreenenter"",""1"",""4206""
","
","","","","","","1430.7999999523163","images/dog4.png","","","memory_trial","1","definitely_old",""
"html-keyboard-response","95","269807","0.0-18.0-0.26","5933","approach_avoid_sv1","""event"",""trial"",""time""
""fullscreenenter"",""1"",""4206""
","
","
","""event"",""trial"",""time""
""fullscreenenter"",""1"",""4206""
","
","","","","","","null","<div style=""font-size:60px;"">+</div>","null","","fixation","","",""
"memory-trial","96","272391","0.0-18.0-1.26","5933","approach_avoid_sv1","""event"",""trial"",""time""
""fullscreenenter"",""1"",""4206""
","
","
","""event"",""trial"",""time""
""fullscreenenter"",""1"",""4206""
","
","","","","","","1574.8000000715256","images/horse7.png","","","memory_trial","4","definitely_new",""
"html-keyboard-response","97","272895","0.0-18.0-0.27","5933","approach_avoid_sv1","""event"",""trial"",""time""
""fullscreenenter"",""1"",""4206""
","
","
","""event"",""trial"",""time""
""fullscreenenter"",""1"",""4206""
","
","","","","","","null","<div style=""font-size:60px;"">+</div>","null","","fixation","","",""
"memory-trial","98","275671","0.0-18.0-1.27","5933","approach_avoid_sv1","""event"",""trial"",""time""
""fullscreenenter"",""1"",""4206""
","
","
","""event"",""trial"",""time""
""fullscreenenter"",""1"",""4206""
","
","","","","","","1767.1000000238419","images/rodent3.png","","","memory_trial","2","maybe_old",""
"html-keyboard-response","99","276175","0.0-18.0-0.28","5933","approach_avoid_sv1","""event"",""trial"",""time""
""fullscreenenter"",""1"",""4206""
","
","
","""event"",""trial"",""time""
""fullscreenenter"",""1"",""4206""
","
","","","","","","null","<div style=""font-size:60px;"">+</div>","null","","fixation","","",""
"memory-trial","100","278071","0.0-18.0-1.28","5933","approach_avoid_sv1","""event"",""trial"",""time""
""fullscreenenter"",""1"",""4206""
","
","
","""event"",""trial"",""time""
""fullscreenenter"",""1"",""4206""
","
","","","","","","889.5","images/orange7.png","","","memory_trial","1","definitely_old",""
"html-keyboard-response","101","278575","0.0-18.0-0.29","5933","approach_avoid_sv1","""event"",""trial"",""time""
""fullscreenenter"",""1"",""4206""
","
","
","""event"",""trial"",""time""
""fullscreenenter"",""1"",""4206""
","
","","","","","","null","<div style=""font-size:60px;"">+</div>","null","","fixation","","",""
"memory-trial","102","281095","0.0-18.0-1.29","5933","approach_avoid_sv1","""event"",""trial"",""time""
""fullscreenenter"",""1"",""4206""
","
","
","""event"",""trial"",""time""
""fullscreenenter"",""1"",""4206""
","
","","","","","","1511.1999999284744","images/dog3.png","","","memory_trial","1","definitely_old",""
"html-keyboard-response","103","281600","0.0-18.0-0.30","5933","approach_avoid_sv1","""event"",""trial"",""time""
""fullscreenenter"",""1"",""4206""
","
","
","""event"",""trial"",""time""
""fullscreenenter"",""1"",""4206""
","
","","","","","","null","<div style=""font-size:60px;"">+</div>","null","","fixation","","",""
"memory-trial","104","284239","0.0-18.0-1.30","5933","approach_avoid_sv1","""event"",""trial"",""time""
""fullscreenenter"",""1"",""4206""
","
","
","""event"",""trial"",""time""
""fullscreenenter"",""1"",""4206""
","
","","","","","","1630.7000000476837","images/rabbit7.png","","","memory_trial","3","maybe_new",""
"html-keyboard-response","105","284743","0.0-18.0-0.31","5933","approach_avoid_sv1","""event"",""trial"",""time""
""fullscreenenter"",""1"",""4206""
","
","
","""event"",""trial"",""time""
""fullscreenenter"",""1"",""4206""
","
","","","","","","null","<div style=""font-size:60px;"">+</div>","null","","fixation","","",""
"memory-trial","106","287151","0.0-18.0-1.31","5933","approach_avoid_sv1","""event"",""trial"",""time""
""fullscreenenter"",""1"",""4206""
","
","
","""event"",""trial"",""time""
""fullscreenenter"",""1"",""4206""
","
","","","","","","1399.2999999523163","images/truck1.png","","","memory_trial","4","definitely_new",""
"html-keyboard-response","107","287655","0.0-18.0-0.32","5933","approach_avoid_sv1","""event"",""trial"",""time""
""fullscreenenter"",""1"",""4206""
","
","
","""event"",""trial"",""time""
""fullscreenenter"",""1"",""4206""
","
","","","","","","null","<div style=""font-size:60px;"">+</div>","null","","fixation","","",""
"memory-trial","108","290175","0.0-18.0-1.32","5933","approach_avoid_sv1","""event"",""trial"",""time""
""fullscreenenter"",""1"",""4206""
","
","
","""event"",""trial"",""time""
""fullscreenenter"",""1"",""4206""
","
","","","","","","1512.3999999761581","images/plane2.png","","","memory_trial","4","definitely_new",""
"html-keyboard-response","109","290679","0.0-18.0-0.33","5933","approach_avoid_sv1","""event"",""trial"",""time""
""fullscreenenter"",""1"",""4206""
","
","
","""event"",""trial"",""time""
""fullscreenenter"",""1"",""4206""
","
","","","","","","null","<div style=""font-size:60px;"">+</div>","null","","fixation","","",""
"memory-trial","110","292543","0.0-18.0-1.33","5933","approach_avoid_sv1","""event"",""trial"",""time""
""fullscreenenter"",""1"",""4206""
","
","
","""event"",""trial"",""time""
""fullscreenenter"",""1"",""4206""
","
","","","","","","854.7000000476837","images/orange5.png","","","memory_trial","1","definitely_old",""
"html-keyboard-response","111","293047","0.0-18.0-0.34","5933","approach_avoid_sv1","""event"",""trial"",""time""
""fullscreenenter"",""1"",""4206""
","
","
","""event"",""trial"",""time""
""fullscreenenter"",""1"",""4206""
","
","","","","","","null","<div style=""font-size:60px;"">+</div>","null","","fixation","","",""
"memory-trial","112","294895","0.0-18.0-1.34","5933","approach_avoid_sv1","""event"",""trial"",""time""
""fullscreenenter"",""1"",""4206""
","
","
","""event"",""trial"",""time""
""fullscreenenter"",""1"",""4206""
","
","","","","","","839.5","images/banana5.png","","","memory_trial","1","definitely_old",""
"html-keyboard-response","113","295399","0.0-18.0-0.35","5933","approach_avoid_sv1","""event"",""trial"",""time""
""fullscreenenter"",""1"",""4206""
","
","
","""event"",""trial"",""time""
""fullscreenenter"",""1"",""4206""
","
","","","","","","null","<div style=""font-size:60px;"">+</div>","null","","fixation","","",""
"memory-trial","114","297887","0.0-18.0-1.35","5933","approach_avoid_sv1","""event"",""trial"",""time""
""fullscreenenter"",""1"",""4206""
","
","
","""event"",""trial"",""time""
""fullscreenenter"",""1"",""4206""
","
","","","","","","1479.1000000238419","images/flower7.png","","","memory_trial","2","maybe_old",""
"html-keyboard-response","115","298391","0.0-18.0-0.36","5933","approach_avoid_sv1","""event"",""trial"",""time""
""fullscreenenter"",""1"",""4206""
","
","
","""event"",""trial"",""time""
""fullscreenenter"",""1"",""4206""
","
","","","","","","null","<div style=""font-size:60px;"">+</div>","null","","fixation","","",""
"memory-trial","116","301352","0.0-18.0-1.36","5933","approach_avoid_sv1","""event"",""trial"",""time""
""fullscreenenter"",""1"",""4206""
","
","
","""event"",""trial"",""time""
""fullscreenenter"",""1"",""4206""
","
","","","","","","1950.6000000238419","images/dog1.png","","","memory_trial","3","maybe_new",""
"html-keyboard-response","117","301855","0.0-18.0-0.37","5933","approach_avoid_sv1","""event"",""trial"",""time""
""fullscreenenter"",""1"",""4206""
","
","
","""event"",""trial"",""time""
""fullscreenenter"",""1"",""4206""
","
","","","","","","null","<div style=""font-size:60px;"">+</div>","null","","fixation","","",""
"memory-trial","118","304527","0.0-18.0-1.37","5933","approach_avoid_sv1","""event"",""trial"",""time""
""fullscreenenter"",""1"",""4206""
","
","
","""event"",""trial"",""time""
""fullscreenenter"",""1"",""4206""
","
","","","","","","1662.7000000476837","images/goat8.png","","","memory_trial","1","definitely_old",""
"html-keyboard-response","119","305031","0.0-18.0-0.38","5933","approach_avoid_sv1","""event"",""trial"",""time""
""fullscreenenter"",""1"",""4206""
","
","
","""event"",""trial"",""time""
""fullscreenenter"",""1"",""4206""
","
","","","","","","null","<div style=""font-size:60px;"">+</div>","null","","fixation","","",""
"memory-trial","120","307343","0.0-18.0-1.38","5933","approach_avoid_sv1","""event"",""trial"",""time""
""fullscreenenter"",""1"",""4206""
","
","
","""event"",""trial"",""time""
""fullscreenenter"",""1"",""4206""
","
","","","","","","1303","images/table8.png","","","memory_trial","1","definitely_old",""
"html-keyboard-response","121","307855","0.0-18.0-0.39","5933","approach_avoid_sv1","""event"",""trial"",""time""
""fullscreenenter"",""1"",""4206""
","
","
","""event"",""trial"",""time""
""fullscreenenter"",""1"",""4206""
","
","","","","","","null","<div style=""font-size:60px;"">+</div>","null","","fixation","","",""
"memory-trial","122","310112","0.0-18.0-1.39","5933","approach_avoid_sv1","""event"",""trial"",""time""
""fullscreenenter"",""1"",""4206""
","
","
","""event"",""trial"",""time""
""fullscreenenter"",""1"",""4206""
","
","","","","","","1246.9000000953674","images/cactus4.png","","","memory_trial","3","maybe_new",""
"html-keyboard-response","123","310615","0.0-18.0-0.40","5933","approach_avoid_sv1","""event"",""trial"",""time""
""fullscreenenter"",""1"",""4206""
","
","
","""event"",""trial"",""time""
""fullscreenenter"",""1"",""4206""
","
","","","","","","null","<div style=""font-size:60px;"">+</div>","null","","fixation","","",""
"memory-trial","124","313047","0.0-18.0-1.40","5933","approach_avoid_sv1","""event"",""trial"",""time""
""fullscreenenter"",""1"",""4206""
","
","
","""event"",""trial"",""time""
""fullscreenenter"",""1"",""4206""
","
","","","","","","1423.6999999284744","images/cow1.png","","","memory_trial","4","definitely_new",""
"html-keyboard-response","125","313552","0.0-18.0-0.41","5933","approach_avoid_sv1","""event"",""trial"",""time""
""fullscreenenter"",""1"",""4206""
","
","
","""event"",""trial"",""time""
""fullscreenenter"",""1"",""4206""
","
","","","","","","null","<div style=""font-size:60px;"">+</div>","null","","fixation","","",""
"memory-trial","126","316040","0.0-18.0-1.41","5933","approach_avoid_sv1","""event"",""trial"",""time""
""fullscreenenter"",""1"",""4206""
","
","
","""event"",""trial"",""time""
""fullscreenenter"",""1"",""4206""
","
","","","","","","1478.6000000238419","images/cactus5.png","","","memory_trial","2","maybe_old",""
"html-button-response","127","318799","0.0-18.0-2.41-0.41","5933","approach_avoid_sv1","""event"",""trial"",""time""
""fullscreenenter"",""1"",""4206""
","
","
","""event"",""trial"",""time""
""fullscreenenter"",""1"",""4206""
","
","","","","","","2759","<p> Take a break! </p><p> Click the button to continue. </p>","0","","break","","",""
"html-keyboard-response","128","319303","0.0-18.0-0.42","5933","approach_avoid_sv1","""event"",""trial"",""time""
""fullscreenenter"",""1"",""4206""
","
","
","""event"",""trial"",""time""
""fullscreenenter"",""1"",""4206""
","
","","","","","","null","<div style=""font-size:60px;"">+</div>","null","","fixation","","",""
"memory-trial","129","322031","0.0-18.0-1.42","5933","approach_avoid_sv1","""event"",""trial"",""time""
""fullscreenenter"",""1"",""4206""
","
","
","""event"",""trial"",""time""
""fullscreenenter"",""1"",""4206""
","
","","","","","","1719.2999999523163","images/cactus7.png","","","memory_trial","2","maybe_old",""
"html-keyboard-response","130","322535","0.0-18.0-0.43","5933","approach_avoid_sv1","""event"",""trial"",""time""
""fullscreenenter"",""1"",""4206""
","
","
","""event"",""trial"",""time""
""fullscreenenter"",""1"",""4206""
","
","","","","","","null","<div style=""font-size:60px;"">+</div>","null","","fixation","","",""
"memory-trial","131","324536","0.0-18.0-1.43","5933","approach_avoid_sv1","""event"",""trial"",""time""
""fullscreenenter"",""1"",""4206""
","
","
","""event"",""trial"",""time""
""fullscreenenter"",""1"",""4206""
","
","","","","","","990.8999999761581","images/sofa2.png","","","memory_trial","1","definitely_old",""
"html-keyboard-response","132","325039","0.0-18.0-0.44","5933","approach_avoid_sv1","""event"",""trial"",""time""
""fullscreenenter"",""1"",""4206""
","
","
","""event"",""trial"",""time""
""fullscreenenter"",""1"",""4206""
","
","","","","","","null","<div style=""font-size:60px;"">+</div>","null","","fixation","","",""
"memory-trial","133","327279","0.0-18.0-1.44","5933","approach_avoid_sv1","""event"",""trial"",""time""
""fullscreenenter"",""1"",""4206""
","
","
","""event"",""trial"",""time""
""fullscreenenter"",""1"",""4206""
","
","","","","","","1232.9000000953674","images/rabbit2.png","","","memory_trial","3","maybe_new",""
"html-keyboard-response","134","327783","0.0-18.0-0.45","5933","approach_avoid_sv1","""event"",""trial"",""time""
""fullscreenenter"",""1"",""4206""
","
","
","""event"",""trial"",""time""
""fullscreenenter"",""1"",""4206""
","
","","","","","","null","<div style=""font-size:60px;"">+</div>","null","","fixation","","",""
"memory-trial","135","330040","0.0-18.0-1.45","5933","approach_avoid_sv1","""event"",""trial"",""time""
""fullscreenenter"",""1"",""4206""
","
","
","""event"",""trial"",""time""
""fullscreenenter"",""1"",""4206""
","
","","","","","","1247.2000000476837","images/bed2.png","","","memory_trial","4","definitely_new",""
"html-keyboard-response","136","330544","0.0-18.0-0.46","5933","approach_avoid_sv1","""event"",""trial"",""time""
""fullscreenenter"",""1"",""4206""
","
","
","""event"",""trial"",""time""
""fullscreenenter"",""1"",""4206""
","
","","","","","","null","<div style=""font-size:60px;"">+</div>","null","","fixation","","",""
"memory-trial","137","335224","0.0-18.0-1.46","5933","approach_avoid_sv1","""event"",""trial"",""time""
""fullscreenenter"",""1"",""4206""
","
","
","""event"",""trial"",""time""
""fullscreenenter"",""1"",""4206""
","
","","","","","","3670.7999999523163","images/plane1.png","","","memory_trial","3","maybe_new",""
"html-keyboard-response","138","335727","0.0-18.0-0.47","5933","approach_avoid_sv1","""event"",""trial"",""time""
""fullscreenenter"",""1"",""4206""
","
","
","""event"",""trial"",""time""
""fullscreenenter"",""1"",""4206""
","
","","","","","","null","<div style=""font-size:60px;"">+</div>","null","","fixation","","",""
"memory-trial","139","338568","0.0-18.0-1.47","5933","approach_avoid_sv1","""event"",""trial"",""time""
""fullscreenenter"",""1"",""4206""
","
","
","""event"",""trial"",""time""
""fullscreenenter"",""1"",""4206""
","
","","","","","","1831.1000000238419","images/banana3.png","","","memory_trial","1","definitely_old",""
"html-keyboard-response","140","339074","0.0-18.0-0.48","5933","approach_avoid_sv1","""event"",""trial"",""time""
""fullscreenenter"",""1"",""4206""
","
","
","""event"",""trial"",""time""
""fullscreenenter"",""1"",""4206""
","
","","","","","","null","<div style=""font-size:60px;"">+</div>","null","","fixation","","",""
"memory-trial","141","341519","0.0-18.0-1.48","5933","approach_avoid_sv1","""event"",""trial"",""time""
""fullscreenenter"",""1"",""4206""
","
","
","""event"",""trial"",""time""
""fullscreenenter"",""1"",""4206""
","
","","","","","","1435.4000000953674","images/straw7.png","","","memory_trial","3","maybe_new",""
"html-keyboard-response","142","342023","0.0-18.0-0.49","5933","approach_avoid_sv1","""event"",""trial"",""time""
""fullscreenenter"",""1"",""4206""
","
","
","""event"",""trial"",""time""
""fullscreenenter"",""1"",""4206""
","
","","","","","","null","<div style=""font-size:60px;"">+</div>","null","","fixation","","",""
"memory-trial","143","344080","0.0-18.0-1.49","5933","approach_avoid_sv1","""event"",""trial"",""time""
""fullscreenenter"",""1"",""4206""
","
","
","""event"",""trial"",""time""
""fullscreenenter"",""1"",""4206""
","
","","","","","","1047.1000000238419","images/horse6.png","","","memory_trial","4","definitely_new",""
"html-keyboard-response","144","344584","0.0-18.0-0.50","5933","approach_avoid_sv1","""event"",""trial"",""time""
""fullscreenenter"",""1"",""4206""
","
","
","""event"",""trial"",""time""
""fullscreenenter"",""1"",""4206""
","
","","","","","","null","<div style=""font-size:60px;"">+</div>","null","","fixation","","",""
"memory-trial","145","346680","0.0-18.0-1.50","5933","approach_avoid_sv1","""event"",""trial"",""time""
""fullscreenenter"",""1"",""4206""
","
","
","""event"",""trial"",""time""
""fullscreenenter"",""1"",""4206""
","
","","","","","","1086.4000000953674","images/bed6.png","","","memory_trial","4","definitely_new",""
"html-keyboard-response","146","347183","0.0-18.0-0.51","5933","approach_avoid_sv1","""event"",""trial"",""time""
""fullscreenenter"",""1"",""4206""
","
","
","""event"",""trial"",""time""
""fullscreenenter"",""1"",""4206""
","
","","","","","","null","<div style=""font-size:60px;"">+</div>","null","","fixation","","",""
"memory-trial","147","350037","0.0-18.0-1.51","5933","approach_avoid_sv1","""event"",""trial"",""time""
""fullscreenenter"",""1"",""4206""
","
","
","""event"",""trial"",""time""
""fullscreenenter"",""1"",""4206""
","
","","","","","","1831.6000000238419","images/plane5.png","","","memory_trial","2","maybe_old",""
"html-keyboard-response","148","350543","0.0-18.0-0.52","5933","approach_avoid_sv1","""event"",""trial"",""time""
""fullscreenenter"",""1"",""4206""
","
","
","""event"",""trial"",""time""
""fullscreenenter"",""1"",""4206""
","
","","","","","","null","<div style=""font-size:60px;"">+</div>","null","","fixation","","",""
"memory-trial","149","352871","0.0-18.0-1.52","5933","approach_avoid_sv1","""event"",""trial"",""time""
""fullscreenenter"",""1"",""4206""
","
","
","""event"",""trial"",""time""
""fullscreenenter"",""1"",""4206""
","
","","","","","","1318.6999999284744","images/flower8.png","","","memory_trial","2","maybe_old",""
"html-keyboard-response","150","353375","0.0-18.0-0.53","5933","approach_avoid_sv1","""event"",""trial"",""time""
""fullscreenenter"",""1"",""4206""
","
","
","""event"",""trial"",""time""
""fullscreenenter"",""1"",""4206""
","
","","","","","","null","<div style=""font-size:60px;"">+</div>","null","","fixation","","",""
"memory-trial","151","355279","0.0-18.0-1.53","5933","approach_avoid_sv1","""event"",""trial"",""time""
""fullscreenenter"",""1"",""4206""
","
","
","""event"",""trial"",""time""
""fullscreenenter"",""1"",""4206""
","
","","","","","","895.2999999523163","images/flower3.png","","","memory_trial","2","maybe_old",""
"html-keyboard-response","152","355784","0.0-18.0-0.54","5933","approach_avoid_sv1","""event"",""trial"",""time""
""fullscreenenter"",""1"",""4206""
","
","
","""event"",""trial"",""time""
""fullscreenenter"",""1"",""4206""
","
","","","","","","null","<div style=""font-size:60px;"">+</div>","null","","fixation","","",""
"memory-trial","153","357559","0.0-18.0-1.54","5933","approach_avoid_sv1","""event"",""trial"",""time""
""fullscreenenter"",""1"",""4206""
","
","
","""event"",""trial"",""time""
""fullscreenenter"",""1"",""4206""
","
","","","","","","766.3999999761581","images/straw6.png","","","memory_trial","3","maybe_new",""
"html-keyboard-response","154","358063","0.0-18.0-0.55","5933","approach_avoid_sv1","""event"",""trial"",""time""
""fullscreenenter"",""1"",""4206""
","
","
","""event"",""trial"",""time""
""fullscreenenter"",""1"",""4206""
","
","","","","","","null","<div style=""font-size:60px;"">+</div>","null","","fixation","","",""
"memory-trial","155","360702","0.0-18.0-1.55","5933","approach_avoid_sv1","""event"",""trial"",""time""
""fullscreenenter"",""1"",""4206""
","
","
","""event"",""trial"",""time""
""fullscreenenter"",""1"",""4206""
","
","","","","","","1631.3999999761581","images/truck7.png","","","memory_trial","2","maybe_old",""
"html-keyboard-response","156","361207","0.0-18.0-0.56","5933","approach_avoid_sv1","""event"",""trial"",""time""
""fullscreenenter"",""1"",""4206""
","
","
","""event"",""trial"",""time""
""fullscreenenter"",""1"",""4206""
","
","","","","","","null","<div style=""font-size:60px;"">+</div>","null","","fixation","","",""
"memory-trial","157","363351","0.0-18.0-1.56","5933","approach_avoid_sv1","""event"",""trial"",""time""
""fullscreenenter"",""1"",""4206""
","
","
","""event"",""trial"",""time""
""fullscreenenter"",""1"",""4206""
","
","","","","","","1135.2999999523163","images/cat2.png","","","memory_trial","4","definitely_new",""
"html-keyboard-response","158","363855","0.0-18.0-0.57","5933","approach_avoid_sv1","""event"",""trial"",""time""
""fullscreenenter"",""1"",""4206""
","
","
","""event"",""trial"",""time""
""fullscreenenter"",""1"",""4206""
","
","","","","","","null","<div style=""font-size:60px;"">+</div>","null","","fixation","","",""
"memory-trial","159","366079","0.0-18.0-1.57","5933","approach_avoid_sv1","""event"",""trial"",""time""
""fullscreenenter"",""1"",""4206""
","
","
","""event"",""trial"",""time""
""fullscreenenter"",""1"",""4206""
","
","","","","","","1214.8000000715256","images/cactus3.png","","","memory_trial","1","definitely_old",""
"html-keyboard-response","160","366583","0.0-18.0-0.58","5933","approach_avoid_sv1","""event"",""trial"",""time""
""fullscreenenter"",""1"",""4206""
","
","
","""event"",""trial"",""time""
""fullscreenenter"",""1"",""4206""
","
","","","","","","null","<div style=""font-size:60px;"">+</div>","null","","fixation","","",""
"memory-trial","161","368455","0.0-18.0-1.58","5933","approach_avoid_sv1","""event"",""trial"",""time""
""fullscreenenter"",""1"",""4206""
","
","
","""event"",""trial"",""time""
""fullscreenenter"",""1"",""4206""
","
","","","","","","863.7999999523163","images/orange1.png","","","memory_trial","1","definitely_old",""
"html-keyboard-response","162","368959","0.0-18.0-0.59","5933","approach_avoid_sv1","""event"",""trial"",""time""
""fullscreenenter"",""1"",""4206""
","
","
","""event"",""trial"",""time""
""fullscreenenter"",""1"",""4206""
","
","","","","","","null","<div style=""font-size:60px;"">+</div>","null","","fixation","","",""
"memory-trial","163","371367","0.0-18.0-1.59","5933","approach_avoid_sv1","""event"",""trial"",""time""
""fullscreenenter"",""1"",""4206""
","
","
","""event"",""trial"",""time""
""fullscreenenter"",""1"",""4206""
","
","","","","","","1399.1000000238419","images/cactus6.png","","","memory_trial","4","definitely_new",""
"html-keyboard-response","164","371871","0.0-18.0-0.60","5933","approach_avoid_sv1","""event"",""trial"",""time""
""fullscreenenter"",""1"",""4206""
","
","
","""event"",""trial"",""time""
""fullscreenenter"",""1"",""4206""
","
","","","","","","null","<div style=""font-size:60px;"">+</div>","null","","fixation","","",""
"memory-trial","165","373911","0.0-18.0-1.60","5933","approach_avoid_sv1","""event"",""trial"",""time""
""fullscreenenter"",""1"",""4206""
","
","
","""event"",""trial"",""time""
""fullscreenenter"",""1"",""4206""
","
","","","","","","1030.4000000953674","images/tree7.png","","","memory_trial","4","definitely_new",""
"html-keyboard-response","166","374415","0.0-18.0-0.61","5933","approach_avoid_sv1","""event"",""trial"",""time""
""fullscreenenter"",""1"",""4206""
","
","
","""event"",""trial"",""time""
""fullscreenenter"",""1"",""4206""
","
","","","","","","null","<div style=""font-size:60px;"">+</div>","null","","fixation","","",""
"memory-trial","167","377103","0.0-18.0-1.61","5933","approach_avoid_sv1","""event"",""trial"",""time""
""fullscreenenter"",""1"",""4206""
","
","
","""event"",""trial"",""time""
""fullscreenenter"",""1"",""4206""
","
","","","","","","1679.1999999284744","images/bush6.png","","","memory_trial","2","maybe_old",""
"html-keyboard-response","168","377607","0.0-18.0-0.62","5933","approach_avoid_sv1","""event"",""trial"",""time""
""fullscreenenter"",""1"",""4206""
","
","
","""event"",""trial"",""time""
""fullscreenenter"",""1"",""4206""
","
","","","","","","null","<div style=""font-size:60px;"">+</div>","null","","fixation","","",""
"memory-trial","169","380015","0.0-18.0-1.62","5933","approach_avoid_sv1","""event"",""trial"",""time""
""fullscreenenter"",""1"",""4206""
","
","
","""event"",""trial"",""time""
""fullscreenenter"",""1"",""4206""
","
","","","","","","1398.6999999284744","images/boat6.png","","","memory_trial","3","maybe_new",""
"html-keyboard-response","170","380519","0.0-18.0-0.63","5933","approach_avoid_sv1","""event"",""trial"",""time""
""fullscreenenter"",""1"",""4206""
","
","
","""event"",""trial"",""time""
""fullscreenenter"",""1"",""4206""
","
","","","","","","null","<div style=""font-size:60px;"">+</div>","null","","fixation","","",""
"memory-trial","171","382527","0.0-18.0-1.63","5933","approach_avoid_sv1","""event"",""trial"",""time""
""fullscreenenter"",""1"",""4206""
","
","
","""event"",""trial"",""time""
""fullscreenenter"",""1"",""4206""
","
","","","","","","999.3999999761581","images/apple6.png","","","memory_trial","1","definitely_old",""
"html-keyboard-response","172","383031","0.0-18.0-0.64","5933","approach_avoid_sv1","""event"",""trial"",""time""
""fullscreenenter"",""1"",""4206""
","
","
","""event"",""trial"",""time""
""fullscreenenter"",""1"",""4206""
","
","","","","","","null","<div style=""font-size:60px;"">+</div>","null","","fixation","","",""
"memory-trial","173","385015","0.0-18.0-1.64","5933","approach_avoid_sv1","""event"",""trial"",""time""
""fullscreenenter"",""1"",""4206""
","
","
","""event"",""trial"",""time""
""fullscreenenter"",""1"",""4206""
","
","","","","","","974.8999999761581","images/tree8.png","","","memory_trial","4","definitely_new",""
"html-keyboard-response","174","385519","0.0-18.0-0.65","5933","approach_avoid_sv1","""event"",""trial"",""time""
""fullscreenenter"",""1"",""4206""
","
","
","""event"",""trial"",""time""
""fullscreenenter"",""1"",""4206""
","
","","","","","","null","<div style=""font-size:60px;"">+</div>","null","","fixation","","",""
"memory-trial","175","387392","0.0-18.0-1.65","5933","approach_avoid_sv1","""event"",""trial"",""time""
""fullscreenenter"",""1"",""4206""
","
","
","""event"",""trial"",""time""
""fullscreenenter"",""1"",""4206""
","
","","","","","","863.8000000715256","images/table2.png","","","memory_trial","1","definitely_old",""
"html-keyboard-response","176","387895","0.0-18.0-0.66","5933","approach_avoid_sv1","""event"",""trial"",""time""
""fullscreenenter"",""1"",""4206""
","
","
","""event"",""trial"",""time""
""fullscreenenter"",""1"",""4206""
","
","","","","","","null","<div style=""font-size:60px;"">+</div>","null","","fixation","","",""
"memory-trial","177","389960","0.0-18.0-1.66","5933","approach_avoid_sv1","""event"",""trial"",""time""
""fullscreenenter"",""1"",""4206""
","
","
","""event"",""trial"",""time""
""fullscreenenter"",""1"",""4206""
","
","","","","","","1054.1000000238419","images/rabbit5.png","","","memory_trial","1","definitely_old",""
"html-keyboard-response","178","390463","0.0-18.0-0.67","5933","approach_avoid_sv1","""event"",""trial"",""time""
""fullscreenenter"",""1"",""4206""
","
","
","""event"",""trial"",""time""
""fullscreenenter"",""1"",""4206""
","
","","","","","","null","<div style=""font-size:60px;"">+</div>","null","","fixation","","",""
"memory-trial","179","392495","0.0-18.0-1.67","5933","approach_avoid_sv1","""event"",""trial"",""time""
""fullscreenenter"",""1"",""4206""
","
","
","""event"",""trial"",""time""
""fullscreenenter"",""1"",""4206""
","
","","","","","","1023.1999999284744","images/dog2.png","","","memory_trial","1","definitely_old",""
"html-keyboard-response","180","392999","0.0-18.0-0.68","5933","approach_avoid_sv1","""event"",""trial"",""time""
""fullscreenenter"",""1"",""4206""
","
","
","""event"",""trial"",""time""
""fullscreenenter"",""1"",""4206""
","
","","","","","","null","<div style=""font-size:60px;"">+</div>","null","","fixation","","",""
"memory-trial","181","394872","0.0-18.0-1.68","5933","approach_avoid_sv1","""event"",""trial"",""time""
""fullscreenenter"",""1"",""4206""
","
","
","""event"",""trial"",""time""
""fullscreenenter"",""1"",""4206""
","
","","","","","","863.3999999761581","images/straw3.png","","","memory_trial","4","definitely_new",""
"html-keyboard-response","182","395375","0.0-18.0-0.69","5933","approach_avoid_sv1","""event"",""trial"",""time""
""fullscreenenter"",""1"",""4206""
","
","
","""event"",""trial"",""time""
""fullscreenenter"",""1"",""4206""
","
","","","","","","null","<div style=""font-size:60px;"">+</div>","null","","fixation","","",""
"memory-trial","183","397831","0.0-18.0-1.69","5933","approach_avoid_sv1","""event"",""trial"",""time""
""fullscreenenter"",""1"",""4206""
","
","
","""event"",""trial"",""time""
""fullscreenenter"",""1"",""4206""
","
","","","","","","1446.8999999761581","images/apple5.png","","","memory_trial","3","maybe_new",""
"html-keyboard-response","184","398335","0.0-18.0-0.70","5933","approach_avoid_sv1","""event"",""trial"",""time""
""fullscreenenter"",""1"",""4206""
","
","
","""event"",""trial"",""time""
""fullscreenenter"",""1"",""4206""
","
","","","","","","null","<div style=""font-size:60px;"">+</div>","null","","fixation","","",""
"memory-trial","185","400535","0.0-18.0-1.70","5933","approach_avoid_sv1","""event"",""trial"",""time""
""fullscreenenter"",""1"",""4206""
","
","
","""event"",""trial"",""time""
""fullscreenenter"",""1"",""4206""
","
","","","","","","1191.1000000238419","images/cat1.png","","","memory_trial","4","definitely_new",""
"html-keyboard-response","186","401039","0.0-18.0-0.71","5933","approach_avoid_sv1","""event"",""trial"",""time""
""fullscreenenter"",""1"",""4206""
","
","
","""event"",""trial"",""time""
""fullscreenenter"",""1"",""4206""
","
","","","","","","null","<div style=""font-size:60px;"">+</div>","null","","fixation","","",""
"memory-trial","187","404047","0.0-18.0-1.71","5933","approach_avoid_sv1","""event"",""trial"",""time""
""fullscreenenter"",""1"",""4206""
","
","
","""event"",""trial"",""time""
""fullscreenenter"",""1"",""4206""
","
","","","","","","1999.5","images/goat4.png","","","memory_trial","4","definitely_new",""
"html-keyboard-response","188","404551","0.0-18.0-0.72","5933","approach_avoid_sv1","""event"",""trial"",""time""
""fullscreenenter"",""1"",""4206""
","
","
","""event"",""trial"",""time""
""fullscreenenter"",""1"",""4206""
","
","","","","","","null","<div style=""font-size:60px;"">+</div>","null","","fixation","","",""
"memory-trial","189","407863","0.0-18.0-1.72","5933","approach_avoid_sv1","""event"",""trial"",""time""
""fullscreenenter"",""1"",""4206""
","
","
","""event"",""trial"",""time""
""fullscreenenter"",""1"",""4206""
","
","","","","","","2310.899999976158","images/bush5.png","","","memory_trial","1","definitely_old",""
"html-keyboard-response","190","408367","0.0-18.0-0.73","5933","approach_avoid_sv1","""event"",""trial"",""time""
""fullscreenenter"",""1"",""4206""
","
","
","""event"",""trial"",""time""
""fullscreenenter"",""1"",""4206""
","
","","","","","","null","<div style=""font-size:60px;"">+</div>","null","","fixation","","",""
"memory-trial","191","410831","0.0-18.0-1.73","5933","approach_avoid_sv1","""event"",""trial"",""time""
""fullscreenenter"",""1"",""4206""
","
","
","""event"",""trial"",""time""
""fullscreenenter"",""1"",""4206""
","
","","","","","","1455.3999999761581","images/table5.png","","","memory_trial","3","maybe_new",""
"html-keyboard-response","192","411335","0.0-18.0-0.74","5933","approach_avoid_sv1","""event"",""trial"",""time""
""fullscreenenter"",""1"",""4206""
","
","
","""event"",""trial"",""time""
""fullscreenenter"",""1"",""4206""
","
","","","","","","null","<div style=""font-size:60px;"">+</div>","null","","fixation","","",""
"memory-trial","193","413144","0.0-18.0-1.74","5933","approach_avoid_sv1","""event"",""trial"",""time""
""fullscreenenter"",""1"",""4206""
","
","
","""event"",""trial"",""time""
""fullscreenenter"",""1"",""4206""
","
","","","","","","799.3000000715256","images/horse8.png","","","memory_trial","4","definitely_new",""
"html-keyboard-response","194","413647","0.0-18.0-0.75","5933","approach_avoid_sv1","""event"",""trial"",""time""
""fullscreenenter"",""1"",""4206""
","
","
","""event"",""trial"",""time""
""fullscreenenter"",""1"",""4206""
","
","","","","","","null","<div style=""font-size:60px;"">+</div>","null","","fixation","","",""
"memory-trial","195","416191","0.0-18.0-1.75","5933","approach_avoid_sv1","""event"",""trial"",""time""
""fullscreenenter"",""1"",""4206""
","
","
","""event"",""trial"",""time""
""fullscreenenter"",""1"",""4206""
","
","","","","","","1534.8999999761581","images/cat5.png","","","memory_trial","4","definitely_new",""
"html-keyboard-response","196","416695","0.0-18.0-0.76","5933","approach_avoid_sv1","""event"",""trial"",""time""
""fullscreenenter"",""1"",""4206""
","
","
","""event"",""trial"",""time""
""fullscreenenter"",""1"",""4206""
","
","","","","","","null","<div style=""font-size:60px;"">+</div>","null","","fixation","","",""
"memory-trial","197","419791","0.0-18.0-1.76","5933","approach_avoid_sv1","""event"",""trial"",""time""
""fullscreenenter"",""1"",""4206""
","
","
","""event"",""trial"",""time""
""fullscreenenter"",""1"",""4206""
","
","","","","","","2087.100000023842","images/chair6.png","","","memory_trial","3","maybe_new",""
"html-keyboard-response","198","420295","0.0-18.0-0.77","5933","approach_avoid_sv1","""event"",""trial"",""time""
""fullscreenenter"",""1"",""4206""
","
","
","""event"",""trial"",""time""
""fullscreenenter"",""1"",""4206""
","
","","","","","","null","<div style=""font-size:60px;"">+</div>","null","","fixation","","",""
"memory-trial","199","422087","0.0-18.0-1.77","5933","approach_avoid_sv1","""event"",""trial"",""time""
""fullscreenenter"",""1"",""4206""
","
","
","""event"",""trial"",""time""
""fullscreenenter"",""1"",""4206""
","
","","","","","","783.3000000715256","images/straw8.png","","","memory_trial","4","definitely_new",""
"html-keyboard-response","200","422591","0.0-18.0-0.78","5933","approach_avoid_sv1","""event"",""trial"",""time""
""fullscreenenter"",""1"",""4206""
","
","
","""event"",""trial"",""time""
""fullscreenenter"",""1"",""4206""
","
","","","","","","null","<div style=""font-size:60px;"">+</div>","null","","fixation","","",""
"memory-trial","201","424846","0.0-18.0-1.78","5933","approach_avoid_sv1","""event"",""trial"",""time""
""fullscreenenter"",""1"",""4206""
","
","
","""event"",""trial"",""time""
""fullscreenenter"",""1"",""4206""
","
","","","","","","1247.2999999523163","images/horse1.png","","","memory_trial","4","definitely_new",""
"html-keyboard-response","202","425351","0.0-18.0-0.79","5933","approach_avoid_sv1","""event"",""trial"",""time""
""fullscreenenter"",""1"",""4206""
","
","
","""event"",""trial"",""time""
""fullscreenenter"",""1"",""4206""
","
","","","","","","null","<div style=""font-size:60px;"">+</div>","null","","fixation","","",""
"memory-trial","203","428991","0.0-18.0-1.79","5933","approach_avoid_sv1","""event"",""trial"",""time""
""fullscreenenter"",""1"",""4206""
","
","
","""event"",""trial"",""time""
""fullscreenenter"",""1"",""4206""
","
","","","","","","2630.5999999046326","images/rabbit8.png","","","memory_trial","1","definitely_old",""
"html-keyboard-response","204","429494","0.0-18.0-0.80","5933","approach_avoid_sv1","""event"",""trial"",""time""
""fullscreenenter"",""1"",""4206""
","
","
","""event"",""trial"",""time""
""fullscreenenter"",""1"",""4206""
","
","","","","","","null","<div style=""font-size:60px;"">+</div>","null","","fixation","","",""
"memory-trial","205","431878","0.0-18.0-1.80","5933","approach_avoid_sv1","""event"",""trial"",""time""
""fullscreenenter"",""1"",""4206""
","
","
","""event"",""trial"",""time""
""fullscreenenter"",""1"",""4206""
","
","","","","","","1375.6000000238419","images/train6.png","","","memory_trial","3","maybe_new",""
"html-keyboard-response","206","432382","0.0-18.0-0.81","5933","approach_avoid_sv1","""event"",""trial"",""time""
""fullscreenenter"",""1"",""4206""
","
","
","""event"",""trial"",""time""
""fullscreenenter"",""1"",""4206""
","
","","","","","","null","<div style=""font-size:60px;"">+</div>","null","","fixation","","",""
"memory-trial","207","435319","0.0-18.0-1.81","5933","approach_avoid_sv1","""event"",""trial"",""time""
""fullscreenenter"",""1"",""4206""
","
","
","""event"",""trial"",""time""
""fullscreenenter"",""1"",""4206""
","
","","","","","","1927.1000000238419","images/chair2.png","","","memory_trial","3","maybe_new",""
"html-keyboard-response","208","435823","0.0-18.0-0.82","5933","approach_avoid_sv1","""event"",""trial"",""time""
""fullscreenenter"",""1"",""4206""
","
","
","""event"",""trial"",""time""
""fullscreenenter"",""1"",""4206""
","
","","","","","","null","<div style=""font-size:60px;"">+</div>","null","","fixation","","",""
"memory-trial","209","438047","0.0-18.0-1.82","5933","approach_avoid_sv1","""event"",""trial"",""time""
""fullscreenenter"",""1"",""4206""
","
","
","""event"",""trial"",""time""
""fullscreenenter"",""1"",""4206""
","
","","","","","","1215.2999999523163","images/boat4.png","","","memory_trial","2","maybe_old",""
"html-keyboard-response","210","438551","0.0-18.0-0.83","5933","approach_avoid_sv1","""event"",""trial"",""time""
""fullscreenenter"",""1"",""4206""
","
","
","""event"",""trial"",""time""
""fullscreenenter"",""1"",""4206""
","
","","","","","","null","<div style=""font-size:60px;"">+</div>","null","","fixation","","",""
"memory-trial","211","440927","0.0-18.0-1.83","5933","approach_avoid_sv1","""event"",""trial"",""time""
""fullscreenenter"",""1"",""4206""
","
","
","""event"",""trial"",""time""
""fullscreenenter"",""1"",""4206""
","
","","","","","","1366.1999999284744","images/sheep3.png","","","memory_trial","3","maybe_new",""
"html-keyboard-response","212","441430","0.0-18.0-0.84","5933","approach_avoid_sv1","""event"",""trial"",""time""
""fullscreenenter"",""1"",""4206""
","
","
","""event"",""trial"",""time""
""fullscreenenter"",""1"",""4206""
","
","","","","","","null","<div style=""font-size:60px;"">+</div>","null","","fixation","","",""
"memory-trial","213","443471","0.0-18.0-1.84","5933","approach_avoid_sv1","""event"",""trial"",""time""
""fullscreenenter"",""1"",""4206""
","
","
","""event"",""trial"",""time""
""fullscreenenter"",""1"",""4206""
","
","","","","","","1031.8000000715256","images/table7.png","","","memory_trial","3","maybe_new",""
"html-keyboard-response","214","443975","0.0-18.0-0.85","5933","approach_avoid_sv1","""event"",""trial"",""time""
""fullscreenenter"",""1"",""4206""
","
","
","""event"",""trial"",""time""
""fullscreenenter"",""1"",""4206""
","
","","","","","","null","<div style=""font-size:60px;"">+</div>","null","","fixation","","",""
"memory-trial","215","446494","0.0-18.0-1.85","5933","approach_avoid_sv1","""event"",""trial"",""time""
""fullscreenenter"",""1"",""4206""
","
","
","""event"",""trial"",""time""
""fullscreenenter"",""1"",""4206""
","
","","","","","","1511","images/dog6.png","","","memory_trial","1","definitely_old",""
"html-keyboard-response","216","446999","0.0-18.0-0.86","5933","approach_avoid_sv1","""event"",""trial"",""time""
""fullscreenenter"",""1"",""4206""
","
","
","""event"",""trial"",""time""
""fullscreenenter"",""1"",""4206""
","
","","","","","","null","<div style=""font-size:60px;"">+</div>","null","","fixation","","",""
"memory-trial","217","450879","0.0-18.0-1.86","5933","approach_avoid_sv1","""event"",""trial"",""time""
""fullscreenenter"",""1"",""4206""
","
","
","""event"",""trial"",""time""
""fullscreenenter"",""1"",""4206""
","
","","","","","","2870.899999976158","images/goat3.png","","","memory_trial","3","maybe_new",""
"html-keyboard-response","218","451383","0.0-18.0-0.87","5933","approach_avoid_sv1","""event"",""trial"",""time""
""fullscreenenter"",""1"",""4206""
","
","
","""event"",""trial"",""time""
""fullscreenenter"",""1"",""4206""
","
","","","","","","null","<div style=""font-size:60px;"">+</div>","null","","fixation","","",""
"memory-trial","219","454007","0.0-18.0-1.87","5933","approach_avoid_sv1","""event"",""trial"",""time""
""fullscreenenter"",""1"",""4206""
","
","
","""event"",""trial"",""time""
""fullscreenenter"",""1"",""4206""
","
","","","","","","1614.7999999523163","images/chair5.png","","","memory_trial","1","definitely_old",""
"html-keyboard-response","220","454511","0.0-18.0-0.88","5933","approach_avoid_sv1","""event"",""trial"",""time""
""fullscreenenter"",""1"",""4206""
","
","
","""event"",""trial"",""time""
""fullscreenenter"",""1"",""4206""
","
","","","","","","null","<div style=""font-size:60px;"">+</div>","null","","fixation","","",""
"memory-trial","221","456679","0.0-18.0-1.88","5933","approach_avoid_sv1","""event"",""trial"",""time""
""fullscreenenter"",""1"",""4206""
","
","
","""event"",""trial"",""time""
""fullscreenenter"",""1"",""4206""
","
","","","","","","1158.1999999284744","images/train5.png","","","memory_trial","3","maybe_new",""
"html-keyboard-response","222","457183","0.0-18.0-0.89","5933","approach_avoid_sv1","""event"",""trial"",""time""
""fullscreenenter"",""1"",""4206""
","
","
","""event"",""trial"",""time""
""fullscreenenter"",""1"",""4206""
","
","","","","","","null","<div style=""font-size:60px;"">+</div>","null","","fixation","","",""
"memory-trial","223","459471","0.0-18.0-1.89","5933","approach_avoid_sv1","""event"",""trial"",""time""
""fullscreenenter"",""1"",""4206""
","
","
","""event"",""trial"",""time""
""fullscreenenter"",""1"",""4206""
","
","","","","","","1279.2999999523163","images/cow6.png","","","memory_trial","4","definitely_new",""
"html-keyboard-response","224","459975","0.0-18.0-0.90","5933","approach_avoid_sv1","""event"",""trial"",""time""
""fullscreenenter"",""1"",""4206""
","
","
","""event"",""trial"",""time""
""fullscreenenter"",""1"",""4206""
","
","","","","","","null","<div style=""font-size:60px;"">+</div>","null","","fixation","","",""
"memory-trial","225","462879","0.0-18.0-1.90","5933","approach_avoid_sv1","""event"",""trial"",""time""
""fullscreenenter"",""1"",""4206""
","
","
","""event"",""trial"",""time""
""fullscreenenter"",""1"",""4206""
","
","","","","","","1895.0999999046326","images/flower5.png","","","memory_trial","2","maybe_old",""
"html-keyboard-response","226","463383","0.0-18.0-0.91","5933","approach_avoid_sv1","""event"",""trial"",""time""
""fullscreenenter"",""1"",""4206""
","
","
","""event"",""trial"",""time""
""fullscreenenter"",""1"",""4206""
","
","","","","","","null","<div style=""font-size:60px;"">+</div>","null","","fixation","","",""
"memory-trial","227","465376","0.0-18.0-1.91","5933","approach_avoid_sv1","""event"",""trial"",""time""
""fullscreenenter"",""1"",""4206""
","
","
","""event"",""trial"",""time""
""fullscreenenter"",""1"",""4206""
","
","","","","","","982.6000000238419","images/orange8.png","","","memory_trial","1","definitely_old",""
"html-button-response","228","506790","0.0-18.0-2.91-0.91","5933","approach_avoid_sv1","""event"",""trial"",""time""
""fullscreenenter"",""1"",""4206""
","
","
","""event"",""trial"",""time""
""fullscreenenter"",""1"",""4206""
","
","","","","","","41414.09999990463","<p> Take a break! </p><p> Click the button to continue. </p>","0","","break","","",""
"html-keyboard-response","229","507294","0.0-18.0-0.92","5933","approach_avoid_sv1","""event"",""trial"",""time""
""fullscreenenter"",""1"",""4206""
","
","
","""event"",""trial"",""time""
""fullscreenenter"",""1"",""4206""
","
","","","","","","null","<div style=""font-size:60px;"">+</div>","null","","fixation","","",""
"memory-trial","230","509719","0.0-18.0-1.92","5933","approach_avoid_sv1","""event"",""trial"",""time""
""fullscreenenter"",""1"",""4206""
","
","
","""event"",""trial"",""time""
""fullscreenenter"",""1"",""4206""
","
","","","","","","1414.7999999523163","images/straw4.png","","","memory_trial","4","definitely_new",""
"html-keyboard-response","231","510222","0.0-18.0-0.93","5933","approach_avoid_sv1","""event"",""trial"",""time""
""fullscreenenter"",""1"",""4206""
","
","
","""event"",""trial"",""time""
""fullscreenenter"",""1"",""4206""
","
","","","","","","null","<div style=""font-size:60px;"">+</div>","null","","fixation","","",""
"memory-trial","232","512552","0.0-18.0-1.93","5933","approach_avoid_sv1","""event"",""trial"",""time""
""fullscreenenter"",""1"",""4206""
","
","
","""event"",""trial"",""time""
""fullscreenenter"",""1"",""4206""
","
","","","","","","1319.1000000238419","images/straw1.png","","","memory_trial","3","maybe_new",""
"html-keyboard-response","233","513055","0.0-18.0-0.94","5933","approach_avoid_sv1","""event"",""trial"",""time""
""fullscreenenter"",""1"",""4206""
","
","
","""event"",""trial"",""time""
""fullscreenenter"",""1"",""4206""
","
","","","","","","null","<div style=""font-size:60px;"">+</div>","null","","fixation","","",""
"memory-trial","234","516102","0.0-18.0-1.94","5933","approach_avoid_sv1","""event"",""trial"",""time""
""fullscreenenter"",""1"",""4206""
","
","
","""event"",""trial"",""time""
""fullscreenenter"",""1"",""4206""
","
","","","","","","2038.6000000238419","images/cow3.png","","","memory_trial","2","maybe_old",""
"html-keyboard-response","235","516607","0.0-18.0-0.95","5933","approach_avoid_sv1","""event"",""trial"",""time""
""fullscreenenter"",""1"",""4206""
","
","
","""event"",""trial"",""time""
""fullscreenenter"",""1"",""4206""
","
","","","","","","null","<div style=""font-size:60px;"">+</div>","null","","fixation","","",""
"memory-trial","236","518990","0.0-18.0-1.95","5933","approach_avoid_sv1","""event"",""trial"",""time""
""fullscreenenter"",""1"",""4206""
","
","
","""event"",""trial"",""time""
""fullscreenenter"",""1"",""4206""
","
","","","","","","1374.5","images/boat7.png","","","memory_trial","3","maybe_new",""
"html-keyboard-response","237","519494","0.0-18.0-0.96","5933","approach_avoid_sv1","""event"",""trial"",""time""
""fullscreenenter"",""1"",""4206""
","
","
","""event"",""trial"",""time""
""fullscreenenter"",""1"",""4206""
","
","","","","","","null","<div style=""font-size:60px;"">+</div>","null","","fixation","","",""
"memory-trial","238","522270","0.0-18.0-1.96","5933","approach_avoid_sv1","""event"",""trial"",""time""
""fullscreenenter"",""1"",""4206""
","
","
","""event"",""trial"",""time""
""fullscreenenter"",""1"",""4206""
","
","","","","","","1767.6999999284744","images/cow4.png","","","memory_trial","3","maybe_new",""
"html-keyboard-response","239","522774","0.0-18.0-0.97","5933","approach_avoid_sv1","""event"",""trial"",""time""
""fullscreenenter"",""1"",""4206""
","
","
","""event"",""trial"",""time""
""fullscreenenter"",""1"",""4206""
","
","","","","","","null","<div style=""font-size:60px;"">+</div>","null","","fixation","","",""
"memory-trial","240","525127","0.0-18.0-1.97","5933","approach_avoid_sv1","""event"",""trial"",""time""
""fullscreenenter"",""1"",""4206""
","
","
","""event"",""trial"",""time""
""fullscreenenter"",""1"",""4206""
","
","","","","","","1342.7000000476837","images/cactus2.png","","","memory_trial","2","maybe_old",""
"html-keyboard-response","241","525630","0.0-18.0-0.98","5933","approach_avoid_sv1","""event"",""trial"",""time""
""fullscreenenter"",""1"",""4206""
","
","
","""event"",""trial"",""time""
""fullscreenenter"",""1"",""4206""
","
","","","","","","null","<div style=""font-size:60px;"">+</div>","null","","fixation","","",""
"memory-trial","242","527535","0.0-18.0-1.98","5933","approach_avoid_sv1","""event"",""trial"",""time""
""fullscreenenter"",""1"",""4206""
","
","
","""event"",""trial"",""time""
""fullscreenenter"",""1"",""4206""
","
","","","","","","895.1000000238419","images/tree6.png","","","memory_trial","4","definitely_new",""
"html-keyboard-response","243","528038","0.0-18.0-0.99","5933","approach_avoid_sv1","""event"",""trial"",""time""
""fullscreenenter"",""1"",""4206""
","
","
","""event"",""trial"",""time""
""fullscreenenter"",""1"",""4206""
","
","","","","","","null","<div style=""font-size:60px;"">+</div>","null","","fixation","","",""
"memory-trial","244","530639","0.0-18.0-1.99","5933","approach_avoid_sv1","""event"",""trial"",""time""
""fullscreenenter"",""1"",""4206""
","
","
","""event"",""trial"",""time""
""fullscreenenter"",""1"",""4206""
","
","","","","","","1591.2999999523163","images/plane7.png","","","memory_trial","1","definitely_old",""
"html-keyboard-response","245","531142","0.0-18.0-0.100","5933","approach_avoid_sv1","""event"",""trial"",""time""
""fullscreenenter"",""1"",""4206""
","
","
","""event"",""trial"",""time""
""fullscreenenter"",""1"",""4206""
","
","","","","","","null","<div style=""font-size:60px;"">+</div>","null","","fixation","","",""
"memory-trial","246","533214","0.0-18.0-1.100","5933","approach_avoid_sv1","""event"",""trial"",""time""
""fullscreenenter"",""1"",""4206""
","
","
","""event"",""trial"",""time""
""fullscreenenter"",""1"",""4206""
","
","","","","","","1063.5","images/bush7.png","","","memory_trial","1","definitely_old",""
"html-keyboard-response","247","533718","0.0-18.0-0.101","5933","approach_avoid_sv1","""event"",""trial"",""time""
""fullscreenenter"",""1"",""4206""
","
","
","""event"",""trial"",""time""
""fullscreenenter"",""1"",""4206""
","
","","","","","","null","<div style=""font-size:60px;"">+</div>","null","","fixation","","",""
"memory-trial","248","535791","0.0-18.0-1.101","5933","approach_avoid_sv1","""event"",""trial"",""time""
""fullscreenenter"",""1"",""4206""
","
","
","""event"",""trial"",""time""
""fullscreenenter"",""1"",""4206""
","
","","","","","","1062.7999999523163","images/rodent1.png","","","memory_trial","1","definitely_old",""
"html-keyboard-response","249","536295","0.0-18.0-0.102","5933","approach_avoid_sv1","""event"",""trial"",""time""
""fullscreenenter"",""1"",""4206""
","
","
","""event"",""trial"",""time""
""fullscreenenter"",""1"",""4206""
","
","","","","","","null","<div style=""font-size:60px;"">+</div>","null","","fixation","","",""
"memory-trial","250","539158","0.0-18.0-1.102","5933","approach_avoid_sv1","""event"",""trial"",""time""
""fullscreenenter"",""1"",""4206""
","
","
","""event"",""trial"",""time""
""fullscreenenter"",""1"",""4206""
","
","","","","","","1854.2999999523163","images/goat1.png","","","memory_trial","3","maybe_new",""
"html-keyboard-response","251","539662","0.0-18.0-0.103","5933","approach_avoid_sv1","""event"",""trial"",""time""
""fullscreenenter"",""1"",""4206""
","
","
","""event"",""trial"",""time""
""fullscreenenter"",""1"",""4206""
","
","","","","","","null","<div style=""font-size:60px;"">+</div>","null","","fixation","","",""
"memory-trial","252","542478","0.0-18.0-1.103","5933","approach_avoid_sv1","""event"",""trial"",""time""
""fullscreenenter"",""1"",""4206""
","
","
","""event"",""trial"",""time""
""fullscreenenter"",""1"",""4206""
","
","","","","","","1806.5","images/dog7.png","","","memory_trial","4","definitely_new",""
"html-keyboard-response","253","542983","0.0-18.0-0.104","5933","approach_avoid_sv1","""event"",""trial"",""time""
""fullscreenenter"",""1"",""4206""
","
","
","""event"",""trial"",""time""
""fullscreenenter"",""1"",""4206""
","
","","","","","","null","<div style=""font-size:60px;"">+</div>","null","","fixation","","",""
"memory-trial","254","545399","0.0-18.0-1.104","5933","approach_avoid_sv1","""event"",""trial"",""time""
""fullscreenenter"",""1"",""4206""
","
","
","""event"",""trial"",""time""
""fullscreenenter"",""1"",""4206""
","
","","","","","","1406.3999999761581","images/rodent5.png","","","memory_trial","2","maybe_old",""
"html-keyboard-response","255","545902","0.0-18.0-0.105","5933","approach_avoid_sv1","""event"",""trial"",""time""
""fullscreenenter"",""1"",""4206""
","
","
","""event"",""trial"",""time""
""fullscreenenter"",""1"",""4206""
","
","","","","","","null","<div style=""font-size:60px;"">+</div>","null","","fixation","","",""
"memory-trial","256","547870","0.0-18.0-1.105","5933","approach_avoid_sv1","""event"",""trial"",""time""
""fullscreenenter"",""1"",""4206""
","
","
","""event"",""trial"",""time""
""fullscreenenter"",""1"",""4206""
","
","","","","","","958.5999999046326","images/banana1.png","","","memory_trial","1","definitely_old",""
"html-keyboard-response","257","548375","0.0-18.0-0.106","5933","approach_avoid_sv1","""event"",""trial"",""time""
""fullscreenenter"",""1"",""4206""
","
","
","""event"",""trial"",""time""
""fullscreenenter"",""1"",""4206""
","
","","","","","","null","<div style=""font-size:60px;"">+</div>","null","","fixation","","",""
"memory-trial","258","550478","0.0-18.0-1.106","5933","approach_avoid_sv1","""event"",""trial"",""time""
""fullscreenenter"",""1"",""4206""
","
","
","""event"",""trial"",""time""
""fullscreenenter"",""1"",""4206""
","
","","","","","","1094.7000000476837","images/apple8.png","","","memory_trial","1","definitely_old",""
"html-keyboard-response","259","550983","0.0-18.0-0.107","5933","approach_avoid_sv1","""event"",""trial"",""time""
""fullscreenenter"",""1"",""4206""
","
","
","""event"",""trial"",""time""
""fullscreenenter"",""1"",""4206""
","
","","","","","","null","<div style=""font-size:60px;"">+</div>","null","","fixation","","",""
"memory-trial","260","553447","0.0-18.0-1.107","5933","approach_avoid_sv1","""event"",""trial"",""time""
""fullscreenenter"",""1"",""4206""
","
","
","""event"",""trial"",""time""
""fullscreenenter"",""1"",""4206""
","
","","","","","","1454.3999999761581","images/dog8.png","","","memory_trial","1","definitely_old",""
"html-keyboard-response","261","553951","0.0-18.0-0.108","5933","approach_avoid_sv1","""event"",""trial"",""time""
""fullscreenenter"",""1"",""4206""
","
","
","""event"",""trial"",""time""
""fullscreenenter"",""1"",""4206""
","
","","","","","","null","<div style=""font-size:60px;"">+</div>","null","","fixation","","",""
"memory-trial","262","556854","0.0-18.0-1.108","5933","approach_avoid_sv1","""event"",""trial"",""time""
""fullscreenenter"",""1"",""4206""
","
","
","""event"",""trial"",""time""
""fullscreenenter"",""1"",""4206""
","
","","","","","","1894.5999999046326","images/plane6.png","","","memory_trial","2","maybe_old",""
"html-keyboard-response","263","557358","0.0-18.0-0.109","5933","approach_avoid_sv1","""event"",""trial"",""time""
""fullscreenenter"",""1"",""4206""
","
","
","""event"",""trial"",""time""
""fullscreenenter"",""1"",""4206""
","
","","","","","","null","<div style=""font-size:60px;"">+</div>","null","","fixation","","",""
"memory-trial","264","559518","0.0-18.0-1.109","5933","approach_avoid_sv1","""event"",""trial"",""time""
""fullscreenenter"",""1"",""4206""
","
","
","""event"",""trial"",""time""
""fullscreenenter"",""1"",""4206""
","
","","","","","","1151.1000000238419","images/sofa3.png","","","memory_trial","1","definitely_old",""
"html-keyboard-response","265","560023","0.0-18.0-0.110","5933","approach_avoid_sv1","""event"",""trial"",""time""
""fullscreenenter"",""1"",""4206""
","
","
","""event"",""trial"",""time""
""fullscreenenter"",""1"",""4206""
","
","","","","","","null","<div style=""font-size:60px;"">+</div>","null","","fixation","","",""
"memory-trial","266","562174","0.0-18.0-1.110","5933","approach_avoid_sv1","""event"",""trial"",""time""
""fullscreenenter"",""1"",""4206""
","
","
","""event"",""trial"",""time""
""fullscreenenter"",""1"",""4206""
","
","","","","","","1142.6999999284744","images/truck4.png","","","memory_trial","1","definitely_old",""
"html-keyboard-response","267","562678","0.0-18.0-0.111","5933","approach_avoid_sv1","""event"",""trial"",""time""
""fullscreenenter"",""1"",""4206""
","
","
","""event"",""trial"",""time""
""fullscreenenter"",""1"",""4206""
","
","","","","","","null","<div style=""font-size:60px;"">+</div>","null","","fixation","","",""
"memory-trial","268","565495","0.0-18.0-1.111","5933","approach_avoid_sv1","""event"",""trial"",""time""
""fullscreenenter"",""1"",""4206""
","
","
","""event"",""trial"",""time""
""fullscreenenter"",""1"",""4206""
","
","","","","","","1807.7000000476837","images/cat6.png","","","memory_trial","4","definitely_new",""
"html-keyboard-response","269","565999","0.0-18.0-0.112","5933","approach_avoid_sv1","""event"",""trial"",""time""
""fullscreenenter"",""1"",""4206""
","
","
","""event"",""trial"",""time""
""fullscreenenter"",""1"",""4206""
","
","","","","","","null","<div style=""font-size:60px;"">+</div>","null","","fixation","","",""
"memory-trial","270","568519","0.0-18.0-1.112","5933","approach_avoid_sv1","""event"",""trial"",""time""
""fullscreenenter"",""1"",""4206""
","
","
","""event"",""trial"",""time""
""fullscreenenter"",""1"",""4206""
","
","","","","","","1511.2999999523163","images/truck2.png","","","memory_trial","1","definitely_old",""
"html-keyboard-response","271","569023","0.0-18.0-0.113","5933","approach_avoid_sv1","""event"",""trial"",""time""
""fullscreenenter"",""1"",""4206""
","
","
","""event"",""trial"",""time""
""fullscreenenter"",""1"",""4206""
","
","","","","","","null","<div style=""font-size:60px;"">+</div>","null","","fixation","","",""
"memory-trial","272","571248","0.0-18.0-1.113","5933","approach_avoid_sv1","""event"",""trial"",""time""
""fullscreenenter"",""1"",""4206""
","
","
","""event"",""trial"",""time""
""fullscreenenter"",""1"",""4206""
","
","","","","","","1215","images/bush4.png","","","memory_trial","2","maybe_old",""
"html-keyboard-response","273","571751","0.0-18.0-0.114","5933","approach_avoid_sv1","""event"",""trial"",""time""
""fullscreenenter"",""1"",""4206""
","
","
","""event"",""trial"",""time""
""fullscreenenter"",""1"",""4206""
","
","","","","","","null","<div style=""font-size:60px;"">+</div>","null","","fixation","","",""
"memory-trial","274","573847","0.0-18.0-1.114","5933","approach_avoid_sv1","""event"",""trial"",""time""
""fullscreenenter"",""1"",""4206""
","
","
","""event"",""trial"",""time""
""fullscreenenter"",""1"",""4206""
","
","","","","","","1086.5999999046326","images/bed7.png","","","memory_trial","4","definitely_new",""
"html-keyboard-response","275","574352","0.0-18.0-0.115","5933","approach_avoid_sv1","""event"",""trial"",""time""
""fullscreenenter"",""1"",""4206""
","
","
","""event"",""trial"",""time""
""fullscreenenter"",""1"",""4206""
","
","","","","","","null","<div style=""font-size:60px;"">+</div>","null","","fixation","","",""
"memory-trial","276","577136","0.0-18.0-1.115","5933","approach_avoid_sv1","""event"",""trial"",""time""
""fullscreenenter"",""1"",""4206""
","
","
","""event"",""trial"",""time""
""fullscreenenter"",""1"",""4206""
","
","","","","","","1774.6999999284744","images/goat7.png","","","memory_trial","2","maybe_old",""
"html-keyboard-response","277","577640","0.0-18.0-0.116","5933","approach_avoid_sv1","""event"",""trial"",""time""
""fullscreenenter"",""1"",""4206""
","
","
","""event"",""trial"",""time""
""fullscreenenter"",""1"",""4206""
","
","","","","","","null","<div style=""font-size:60px;"">+</div>","null","","fixation","","",""
"memory-trial","278","579816","0.0-18.0-1.116","5933","approach_avoid_sv1","""event"",""trial"",""time""
""fullscreenenter"",""1"",""4206""
","
","
","""event"",""trial"",""time""
""fullscreenenter"",""1"",""4206""
","
","","","","","","1165.7999999523163","images/sheep8.png","","","memory_trial","1","definitely_old",""
"html-keyboard-response","279","580319","0.0-18.0-0.117","5933","approach_avoid_sv1","""event"",""trial"",""time""
""fullscreenenter"",""1"",""4206""
","
","
","""event"",""trial"",""time""
""fullscreenenter"",""1"",""4206""
","
","","","","","","null","<div style=""font-size:60px;"">+</div>","null","","fixation","","",""
"memory-trial","280","583215","0.0-18.0-1.117","5933","approach_avoid_sv1","""event"",""trial"",""time""
""fullscreenenter"",""1"",""4206""
","
","
","""event"",""trial"",""time""
""fullscreenenter"",""1"",""4206""
","
","","","","","","1887.1000000238419","images/sheep7.png","","","memory_trial","2","maybe_old",""
"html-keyboard-response","281","583719","0.0-18.0-0.118","5933","approach_avoid_sv1","""event"",""trial"",""time""
""fullscreenenter"",""1"",""4206""
","
","
","""event"",""trial"",""time""
""fullscreenenter"",""1"",""4206""
","
","","","","","","null","<div style=""font-size:60px;"">+</div>","null","","fixation","","",""
"memory-trial","282","585831","0.0-18.0-1.118","5933","approach_avoid_sv1","""event"",""trial"",""time""
""fullscreenenter"",""1"",""4206""
","
","
","""event"",""trial"",""time""
""fullscreenenter"",""1"",""4206""
","
","","","","","","1103","images/boat8.png","","","memory_trial","1","definitely_old",""
"html-keyboard-response","283","586335","0.0-18.0-0.119","5933","approach_avoid_sv1","""event"",""trial"",""time""
""fullscreenenter"",""1"",""4206""
","
","
","""event"",""trial"",""time""
""fullscreenenter"",""1"",""4206""
","
","","","","","","null","<div style=""font-size:60px;"">+</div>","null","","fixation","","",""
"memory-trial","284","589095","0.0-18.0-1.119","5933","approach_avoid_sv1","""event"",""trial"",""time""
""fullscreenenter"",""1"",""4206""
","
","
","""event"",""trial"",""time""
""fullscreenenter"",""1"",""4206""
","
","","","","","","1751","images/sheep4.png","","","memory_trial","4","definitely_new",""
"html-keyboard-response","285","589599","0.0-18.0-0.120","5933","approach_avoid_sv1","""event"",""trial"",""time""
""fullscreenenter"",""1"",""4206""
","
","
","""event"",""trial"",""time""
""fullscreenenter"",""1"",""4206""
","
","","","","","","null","<div style=""font-size:60px;"">+</div>","null","","fixation","","",""
"memory-trial","286","591703","0.0-18.0-1.120","5933","approach_avoid_sv1","""event"",""trial"",""time""
""fullscreenenter"",""1"",""4206""
","
","
","""event"",""trial"",""time""
""fullscreenenter"",""1"",""4206""
","
","","","","","","1094.5","images/cat3.png","","","memory_trial","4","definitely_new",""
"html-keyboard-response","287","592207","0.0-18.0-0.121","5933","approach_avoid_sv1","""event"",""trial"",""time""
""fullscreenenter"",""1"",""4206""
","
","
","""event"",""trial"",""time""
""fullscreenenter"",""1"",""4206""
","
","","","","","","null","<div style=""font-size:60px;"">+</div>","null","","fixation","","",""
"memory-trial","288","594759","0.0-18.0-1.121","5933","approach_avoid_sv1","""event"",""trial"",""time""
""fullscreenenter"",""1"",""4206""
","
","
","""event"",""trial"",""time""
""fullscreenenter"",""1"",""4206""
","
","","","","","","1542.7999999523163","images/table1.png","","","memory_trial","3","maybe_new",""
"html-keyboard-response","289","595263","0.0-18.0-0.122","5933","approach_avoid_sv1","""event"",""trial"",""time""
""fullscreenenter"",""1"",""4206""
","
","
","""event"",""trial"",""time""
""fullscreenenter"",""1"",""4206""
","
","","","","","","null","<div style=""font-size:60px;"">+</div>","null","","fixation","","",""
"memory-trial","290","597415","0.0-18.0-1.122","5933","approach_avoid_sv1","""event"",""trial"",""time""
""fullscreenenter"",""1"",""4206""
","
","
","""event"",""trial"",""time""
""fullscreenenter"",""1"",""4206""
","
","","","","","","1143.1000000238419","images/chair8.png","","","memory_trial","4","definitely_new",""
"html-keyboard-response","291","597919","0.0-18.0-0.123","5933","approach_avoid_sv1","""event"",""trial"",""time""
""fullscreenenter"",""1"",""4206""
","
","
","""event"",""trial"",""time""
""fullscreenenter"",""1"",""4206""
","
","","","","","","null","<div style=""font-size:60px;"">+</div>","null","","fixation","","",""
"memory-trial","292","600615","0.0-18.0-1.123","5933","approach_avoid_sv1","""event"",""trial"",""time""
""fullscreenenter"",""1"",""4206""
","
","
","""event"",""trial"",""time""
""fullscreenenter"",""1"",""4206""
","
","","","","","","1686.5","images/truck3.png","","","memory_trial","4","definitely_new",""
"html-keyboard-response","293","601119","0.0-18.0-0.124","5933","approach_avoid_sv1","""event"",""trial"",""time""
""fullscreenenter"",""1"",""4206""
","
","
","""event"",""trial"",""time""
""fullscreenenter"",""1"",""4206""
","
","","","","","","null","<div style=""font-size:60px;"">+</div>","null","","fixation","","",""
"memory-trial","294","603487","0.0-18.0-1.124","5933","approach_avoid_sv1","""event"",""trial"",""time""
""fullscreenenter"",""1"",""4206""
","
","
","""event"",""trial"",""time""
""fullscreenenter"",""1"",""4206""
","
","","","","","","1358.5","images/truck8.png","","","memory_trial","1","definitely_old",""
"html-keyboard-response","295","603991","0.0-18.0-0.125","5933","approach_avoid_sv1","""event"",""trial"",""time""
""fullscreenenter"",""1"",""4206""
","
","
","""event"",""trial"",""time""
""fullscreenenter"",""1"",""4206""
","
","","","","","","null","<div style=""font-size:60px;"">+</div>","null","","fixation","","",""
"memory-trial","296","606247","0.0-18.0-1.125","5933","approach_avoid_sv1","""event"",""trial"",""time""
""fullscreenenter"",""1"",""4206""
","
","
","""event"",""trial"",""time""
""fullscreenenter"",""1"",""4206""
","
","","","","","","1246.5999999046326","images/bed5.png","","","memory_trial","4","definitely_new",""
"html-keyboard-response","297","606751","0.0-18.0-0.126","5933","approach_avoid_sv1","""event"",""trial"",""time""
