"trial_type","trial_index","time_elapsed","internal_node_id","subject_id","task_version","interactions","blur_events","focus_events","fullscreenenter_events","fullscreenexit_events","success","timeout","failed_images","failed_audio","failed_video","rt","stimulus","response","button_pressed","task_part","key_press","answer","correct"
"pavlovia","0","2","0.0-0.0","4130","approach_avoid_sv1","""event"",""trial"",""time""
""fullscreenenter"",""1"",""1264""
","
","
","""event"",""trial"",""time""
""fullscreenenter"",""1"",""1264""
","
","","","","","","","","","","","","",""
"fullscreen","1","2262","0.0-1.0","4130","approach_avoid_sv1","""event"",""trial"",""time""
""fullscreenenter"",""1"",""1264""
","
","
","""event"",""trial"",""time""
""fullscreenenter"",""1"",""1264""
","
","true","","","","","","","","","","","",""
"preload","2","5373","0.0-2.0","4130","approach_avoid_sv1","""event"",""trial"",""time""
""fullscreenenter"",""1"",""1264""
","
","
","""event"",""trial"",""time""
""fullscreenenter"",""1"",""1264""
","
","true","false","[]","[]","[]","","","","","","","",""
"preload","3","14857","0.0-3.0","4130","approach_avoid_sv1","""event"",""trial"",""time""
""fullscreenenter"",""1"",""1264""
","
","
","""event"",""trial"",""time""
""fullscreenenter"",""1"",""1264""
","
","true","false","[]","[]","[]","","","","","","","",""
"preload","4","15752","0.0-4.0","4130","approach_avoid_sv1","""event"",""trial"",""time""
""fullscreenenter"",""1"",""1264""
","
","
","""event"",""trial"",""time""
""fullscreenenter"",""1"",""1264""
","
","true","false","[]","[]","[]","","","","","","","",""
"audio-keyboard-response","5","17788","0.0-5.0","4130","approach_avoid_sv1","""event"",""trial"",""time""
""fullscreenenter"",""1"",""1264""
","
","
","""event"",""trial"",""time""
""fullscreenenter"",""1"",""1264""
","
","","","","","","2037.3333333333328","audio/beep_loop.wav"," ","","","","",""
"audio-button-response","6","19155","0.0-6.0","4130","approach_avoid_sv1","""event"",""trial"",""time""
""fullscreenenter"",""1"",""1264""
","
","
","""event"",""trial"",""time""
""fullscreenenter"",""1"",""1264""
","
","","","","","","1365","audio/turtle.wav","3","","","","",""
"audio-button-response","7","21256","0.0-7.0","4130","approach_avoid_sv1","""event"",""trial"",""time""
""fullscreenenter"",""1"",""1264""
""blur"",""8"",""26340""
","""event"",""trial"",""time""
""blur"",""8"",""26340""
","
","""event"",""trial"",""time""
""fullscreenenter"",""1"",""1264""
","
","","","","","","1088","audio/shark.wav","2","","","","",""
"preload","8","30998","0.0-8.0","4130","approach_avoid_sv1","""event"",""trial"",""time""
""fullscreenenter"",""1"",""1264""
""blur"",""8"",""26340""
""focus"",""9"",""35302""
","""event"",""trial"",""time""
""blur"",""8"",""26340""
","""event"",""trial"",""time""
""focus"",""9"",""35302""
","""event"",""trial"",""time""
""fullscreenenter"",""1"",""1264""
","
","true","false","[]","[]","[]","","","","","","","",""
"learning-instructions","9","36824","0.0-9.0-0.0","4130","approach_avoid_sv1","""event"",""trial"",""time""
""fullscreenenter"",""1"",""1264""
""blur"",""8"",""26340""
""focus"",""9"",""35302""
","""event"",""trial"",""time""
""blur"",""8"",""26340""
","""event"",""trial"",""time""
""focus"",""9"",""35302""
","""event"",""trial"",""time""
""fullscreenenter"",""1"",""1264""
","
","","","","","","1341.300000011921","<p> Welcome back! </p><p> Last week, you had to make choices about lots of different items.  </p>","","0","instructions","","",""
"learning-instructions","10","41606","0.0-9.0-0.1","4130","approach_avoid_sv1","""event"",""trial"",""time""
""fullscreenenter"",""1"",""1264""
""blur"",""8"",""26340""
""focus"",""9"",""35302""
","""event"",""trial"",""time""
""blur"",""8"",""26340""
","""event"",""trial"",""time""
""focus"",""9"",""35302""
","""event"",""trial"",""time""
""fullscreenenter"",""1"",""1264""
","
","","","","","","663.8999999761581","<p> Today, we are going to ask you to try to remember all the items. </p>","","0","instructions","","",""
"learning-instructions","11","52138","0.0-9.0-0.2","4130","approach_avoid_sv1","""event"",""trial"",""time""
""fullscreenenter"",""1"",""1264""
""blur"",""8"",""26340""
""focus"",""9"",""35302""
""blur"",""12"",""56723""
""focus"",""12"",""62703""
","""event"",""trial"",""time""
""blur"",""8"",""26340""
""blur"",""12"",""56723""
","""event"",""trial"",""time""
""focus"",""9"",""35302""
""focus"",""12"",""62703""
","""event"",""trial"",""time""
""fullscreenenter"",""1"",""1264""
","
","","","","","","391","<p> On every trial, you will see an image. </p><p> The image may be an OLD image you saw during the games last week or it may be a NEW image that was not presented. </p>","","0","instructions","","",""
"learning-instructions","12","63523","0.0-9.0-0.3","4130","approach_avoid_sv1","""event"",""trial"",""time""
""fullscreenenter"",""1"",""1264""
""blur"",""8"",""26340""
""focus"",""9"",""35302""
""blur"",""12"",""56723""
""focus"",""12"",""62703""
""blur"",""13"",""65152""
""focus"",""13"",""68401""
","""event"",""trial"",""time""
""blur"",""8"",""26340""
""blur"",""12"",""56723""
""blur"",""13"",""65152""
","""event"",""trial"",""time""
""focus"",""9"",""35302""
""focus"",""12"",""62703""
""focus"",""13"",""68401""
","""event"",""trial"",""time""
""fullscreenenter"",""1"",""1264""
","
","","","","","","2888.599999964237","<p> You need to select whether the image is:  </p><p>  'Definitely old', 'Maybe old', 'Maybe new', or 'Definitely new.'  </p><div class=""mem-choice-instructions-grid""><div class=""choice-option"" id=""choice-option-1"" ><img src=""images/definitely_old_1.png"" id=""choice-option-img-1"" class=""choice-option-img"" stage=""1""></div><div class=""choice-option"" id=""choice-option-2"" ><img src=""images/maybe_old_1.png"" id=""choice-option-img-2"" class=""choice-option-img"" stage=""1""></div><div class=""choice-option"" id=""choice-option-3"" ><img src=""images/maybe_new_1.png"" id=""choice-option-img-3"" class=""choice-option-img"" stage=""1""></div><div class=""choice-option"" id=""choice-option-4"" > <img src=""images/definitely_new_1.png"" id=""choice-option-img-4"" class=""choice-option-img"" stage=""1""></div></div>","","0","instructions","","",""
"learning-instructions","13","70605","0.0-9.0-0.4","4130","approach_avoid_sv1","""event"",""trial"",""time""
""fullscreenenter"",""1"",""1264""
""blur"",""8"",""26340""
""focus"",""9"",""35302""
""blur"",""12"",""56723""
""focus"",""12"",""62703""
""blur"",""13"",""65152""
""focus"",""13"",""68401""
""blur"",""14"",""72904""
""focus"",""14"",""74229""
","""event"",""trial"",""time""
""blur"",""8"",""26340""
""blur"",""12"",""56723""
""blur"",""13"",""65152""
""blur"",""14"",""72904""
","""event"",""trial"",""time""
""focus"",""9"",""35302""
""focus"",""12"",""62703""
""focus"",""13"",""68401""
""focus"",""14"",""74229""
","""event"",""trial"",""time""
""fullscreenenter"",""1"",""1264""
","
","","","","","","573.8000000119209","<p> You should use the 1, 2, 3, and 4 keys to make your responses.  </p><div class=""mem-choice-instructions-grid""><div class=""choice-option"" id=""choice-option-1"" ><img src=""images/definitely_old.png"" id=""choice-option-img-1"" class=""choice-option-img"" stage=""1""></div><div class=""choice-option"" id=""choice-option-2"" ><img src=""images/maybe_old.png"" id=""choice-option-img-2"" class=""choice-option-img"" stage=""1""></div><div class=""choice-option"" id=""choice-option-3"" ><img src=""images/maybe_new.png"" id=""choice-option-img-3"" class=""choice-option-img"" stage=""1""></div><div class=""choice-option"" id=""choice-option-4"" > <img src=""images/definitely_new.png"" id=""choice-option-img-4"" class=""choice-option-img"" stage=""1""></div></div>","","0","instructions","","",""
"learning-instructions","14","77657","0.0-9.0-0.5","4130","approach_avoid_sv1","""event"",""trial"",""time""
""fullscreenenter"",""1"",""1264""
""blur"",""8"",""26340""
""focus"",""9"",""35302""
""blur"",""12"",""56723""
""focus"",""12"",""62703""
""blur"",""13"",""65152""
""focus"",""13"",""68401""
""blur"",""14"",""72904""
""focus"",""14"",""74229""
","""event"",""trial"",""time""
""blur"",""8"",""26340""
""blur"",""12"",""56723""
""blur"",""13"",""65152""
""blur"",""14"",""72904""
","""event"",""trial"",""time""
""focus"",""9"",""35302""
""focus"",""12"",""62703""
""focus"",""13"",""68401""
""focus"",""14"",""74229""
","""event"",""trial"",""time""
""fullscreenenter"",""1"",""1264""
","
","","","","","","714.8999999761581","<p> You will have 10 seconds to make each response.  </p><p>  Make sure to respond before time runs out! </p>","","0","instructions","","",""
"learning-instructions","15","85857","0.0-9.0-0.6","4130","approach_avoid_sv1","""event"",""trial"",""time""
""fullscreenenter"",""1"",""1264""
""blur"",""8"",""26340""
""focus"",""9"",""35302""
""blur"",""12"",""56723""
""focus"",""12"",""62703""
""blur"",""13"",""65152""
""focus"",""13"",""68401""
""blur"",""14"",""72904""
""focus"",""14"",""74229""
""blur"",""16"",""88003""
""focus"",""16"",""89153""
","""event"",""trial"",""time""
""blur"",""8"",""26340""
""blur"",""12"",""56723""
""blur"",""13"",""65152""
""blur"",""14"",""72904""
""blur"",""16"",""88003""
","""event"",""trial"",""time""
""focus"",""9"",""35302""
""focus"",""12"",""62703""
""focus"",""13"",""68401""
""focus"",""14"",""74229""
""focus"",""16"",""89153""
","""event"",""trial"",""time""
""fullscreenenter"",""1"",""1264""
","
","","","","","","1118.800000011921","<p> Today, you will see each image ONCE only.  </p><p>  That means none of the images will repeat. </p>","","0","instructions","","",""
"learning-instructions","16","99304","0.0-9.0-0.7","4130","approach_avoid_sv1","""event"",""trial"",""time""
""fullscreenenter"",""1"",""1264""
""blur"",""8"",""26340""
""focus"",""9"",""35302""
""blur"",""12"",""56723""
""focus"",""12"",""62703""
""blur"",""13"",""65152""
""focus"",""13"",""68401""
""blur"",""14"",""72904""
""focus"",""14"",""74229""
""blur"",""16"",""88003""
""focus"",""16"",""89153""
","""event"",""trial"",""time""
""blur"",""8"",""26340""
""blur"",""12"",""56723""
""blur"",""13"",""65152""
""blur"",""14"",""72904""
""blur"",""16"",""88003""
","""event"",""trial"",""time""
""focus"",""9"",""35302""
""focus"",""12"",""62703""
""focus"",""13"",""68401""
""focus"",""14"",""74229""
""focus"",""16"",""89153""
","""event"",""trial"",""time""
""fullscreenenter"",""1"",""1264""
","
","","","","","","774.3000000119209","<p> Before you play the real game, it is time to practice. </p><p>  Just like in the real game, some of the images in the practice will be ones you have seen before. </p><p>  Others will be entirely new. </p>","","0","instructions","","",""
"html-button-response","17","100555","0.0-10.0","4130","approach_avoid_sv1","""event"",""trial"",""time""
""fullscreenenter"",""1"",""1264""
""blur"",""8"",""26340""
""focus"",""9"",""35302""
""blur"",""12"",""56723""
""focus"",""12"",""62703""
""blur"",""13"",""65152""
""focus"",""13"",""68401""
""blur"",""14"",""72904""
""focus"",""14"",""74229""
""blur"",""16"",""88003""
""focus"",""16"",""89153""
","""event"",""trial"",""time""
""blur"",""8"",""26340""
""blur"",""12"",""56723""
""blur"",""13"",""65152""
""blur"",""14"",""72904""
""blur"",""16"",""88003""
","""event"",""trial"",""time""
""focus"",""9"",""35302""
""focus"",""12"",""62703""
""focus"",""13"",""68401""
""focus"",""14"",""74229""
""focus"",""16"",""89153""
","""event"",""trial"",""time""
""fullscreenenter"",""1"",""1264""
","
","","","","","","1145","<p> Ready to practice? </p><p> Remember, use the 1, 2, 3, and 4 keys to make your responses. </p>","0","","instructions","","",""
"html-keyboard-response","18","101169","0.0-11.0-0.0","4130","approach_avoid_sv1","""event"",""trial"",""time""
""fullscreenenter"",""1"",""1264""
""blur"",""8"",""26340""
""focus"",""9"",""35302""
""blur"",""12"",""56723""
""focus"",""12"",""62703""
""blur"",""13"",""65152""
""focus"",""13"",""68401""
""blur"",""14"",""72904""
""focus"",""14"",""74229""
""blur"",""16"",""88003""
""focus"",""16"",""89153""
","""event"",""trial"",""time""
""blur"",""8"",""26340""
""blur"",""12"",""56723""
""blur"",""13"",""65152""
""blur"",""14"",""72904""
""blur"",""16"",""88003""
","""event"",""trial"",""time""
""focus"",""9"",""35302""
""focus"",""12"",""62703""
""focus"",""13"",""68401""
""focus"",""14"",""74229""
""focus"",""16"",""89153""
","""event"",""trial"",""time""
""fullscreenenter"",""1"",""1264""
","
","","","","","","null","<div style=""font-size:60px;"">+</div>","null","","fixation","","",""
"memory-trial","19","104866","0.0-11.0-1.0","4130","approach_avoid_sv1","""event"",""trial"",""time""
""fullscreenenter"",""1"",""1264""
""blur"",""8"",""26340""
""focus"",""9"",""35302""
""blur"",""12"",""56723""
""focus"",""12"",""62703""
""blur"",""13"",""65152""
""focus"",""13"",""68401""
""blur"",""14"",""72904""
""focus"",""14"",""74229""
""blur"",""16"",""88003""
""focus"",""16"",""89153""
","""event"",""trial"",""time""
""blur"",""8"",""26340""
""blur"",""12"",""56723""
""blur"",""13"",""65152""
""blur"",""14"",""72904""
""blur"",""16"",""88003""
","""event"",""trial"",""time""
""focus"",""9"",""35302""
""focus"",""12"",""62703""
""focus"",""13"",""68401""
""focus"",""14"",""74229""
""focus"",""16"",""89153""
","""event"",""trial"",""time""
""fullscreenenter"",""1"",""1264""
","
","","","","","","2685.5","images/racket1.png","","","practice","2","maybe_old",""
"html-keyboard-response","20","105377","0.0-11.0-0.1","4130","approach_avoid_sv1","""event"",""trial"",""time""
""fullscreenenter"",""1"",""1264""
""blur"",""8"",""26340""
""focus"",""9"",""35302""
""blur"",""12"",""56723""
""focus"",""12"",""62703""
""blur"",""13"",""65152""
""focus"",""13"",""68401""
""blur"",""14"",""72904""
""focus"",""14"",""74229""
""blur"",""16"",""88003""
""focus"",""16"",""89153""
","""event"",""trial"",""time""
""blur"",""8"",""26340""
""blur"",""12"",""56723""
""blur"",""13"",""65152""
""blur"",""14"",""72904""
""blur"",""16"",""88003""
","""event"",""trial"",""time""
""focus"",""9"",""35302""
""focus"",""12"",""62703""
""focus"",""13"",""68401""
""focus"",""14"",""74229""
""focus"",""16"",""89153""
","""event"",""trial"",""time""
""fullscreenenter"",""1"",""1264""
","
","","","","","","null","<div style=""font-size:60px;"">+</div>","null","","fixation","","",""
"memory-trial","21","108895","0.0-11.0-1.1","4130","approach_avoid_sv1","""event"",""trial"",""time""
""fullscreenenter"",""1"",""1264""
""blur"",""8"",""26340""
""focus"",""9"",""35302""
""blur"",""12"",""56723""
""focus"",""12"",""62703""
""blur"",""13"",""65152""
""focus"",""13"",""68401""
""blur"",""14"",""72904""
""focus"",""14"",""74229""
""blur"",""16"",""88003""
""focus"",""16"",""89153""
","""event"",""trial"",""time""
""blur"",""8"",""26340""
""blur"",""12"",""56723""
""blur"",""13"",""65152""
""blur"",""14"",""72904""
""blur"",""16"",""88003""
","""event"",""trial"",""time""
""focus"",""9"",""35302""
""focus"",""12"",""62703""
""focus"",""13"",""68401""
""focus"",""14"",""74229""
""focus"",""16"",""89153""
","""event"",""trial"",""time""
""fullscreenenter"",""1"",""1264""
","
","","","","","","2511.699999988079","images/racket2.png","","","practice","1","definitely_old",""
"html-keyboard-response","22","109400","0.0-11.0-0.2","4130","approach_avoid_sv1","""event"",""trial"",""time""
""fullscreenenter"",""1"",""1264""
""blur"",""8"",""26340""
""focus"",""9"",""35302""
""blur"",""12"",""56723""
""focus"",""12"",""62703""
""blur"",""13"",""65152""
""focus"",""13"",""68401""
""blur"",""14"",""72904""
""focus"",""14"",""74229""
""blur"",""16"",""88003""
""focus"",""16"",""89153""
","""event"",""trial"",""time""
""blur"",""8"",""26340""
""blur"",""12"",""56723""
""blur"",""13"",""65152""
""blur"",""14"",""72904""
""blur"",""16"",""88003""
","""event"",""trial"",""time""
""focus"",""9"",""35302""
""focus"",""12"",""62703""
""focus"",""13"",""68401""
""focus"",""14"",""74229""
""focus"",""16"",""89153""
","""event"",""trial"",""time""
""fullscreenenter"",""1"",""1264""
","
","","","","","","null","<div style=""font-size:60px;"">+</div>","null","","fixation","","",""
"memory-trial","23","112819","0.0-11.0-1.2","4130","approach_avoid_sv1","""event"",""trial"",""time""
""fullscreenenter"",""1"",""1264""
""blur"",""8"",""26340""
""focus"",""9"",""35302""
""blur"",""12"",""56723""
""focus"",""12"",""62703""
""blur"",""13"",""65152""
""focus"",""13"",""68401""
""blur"",""14"",""72904""
""focus"",""14"",""74229""
""blur"",""16"",""88003""
""focus"",""16"",""89153""
","""event"",""trial"",""time""
""blur"",""8"",""26340""
""blur"",""12"",""56723""
""blur"",""13"",""65152""
""blur"",""14"",""72904""
""blur"",""16"",""88003""
","""event"",""trial"",""time""
""focus"",""9"",""35302""
""focus"",""12"",""62703""
""focus"",""13"",""68401""
""focus"",""14"",""74229""
""focus"",""16"",""89153""
","""event"",""trial"",""time""
""fullscreenenter"",""1"",""1264""
","
","","","","","","2405.800000011921","images/ball2.png","","","practice","1","definitely_old",""
"html-keyboard-response","24","113329","0.0-11.0-0.3","4130","approach_avoid_sv1","""event"",""trial"",""time""
""fullscreenenter"",""1"",""1264""
""blur"",""8"",""26340""
""focus"",""9"",""35302""
""blur"",""12"",""56723""
""focus"",""12"",""62703""
""blur"",""13"",""65152""
""focus"",""13"",""68401""
""blur"",""14"",""72904""
""focus"",""14"",""74229""
""blur"",""16"",""88003""
""focus"",""16"",""89153""
","""event"",""trial"",""time""
""blur"",""8"",""26340""
""blur"",""12"",""56723""
""blur"",""13"",""65152""
""blur"",""14"",""72904""
""blur"",""16"",""88003""
","""event"",""trial"",""time""
""focus"",""9"",""35302""
""focus"",""12"",""62703""
""focus"",""13"",""68401""
""focus"",""14"",""74229""
""focus"",""16"",""89153""
","""event"",""trial"",""time""
""fullscreenenter"",""1"",""1264""
","
","","","","","","null","<div style=""font-size:60px;"">+</div>","null","","fixation","","",""
"memory-trial","25","115265","0.0-11.0-1.3","4130","approach_avoid_sv1","""event"",""trial"",""time""
""fullscreenenter"",""1"",""1264""
""blur"",""8"",""26340""
""focus"",""9"",""35302""
""blur"",""12"",""56723""
""focus"",""12"",""62703""
""blur"",""13"",""65152""
""focus"",""13"",""68401""
""blur"",""14"",""72904""
""focus"",""14"",""74229""
""blur"",""16"",""88003""
""focus"",""16"",""89153""
","""event"",""trial"",""time""
""blur"",""8"",""26340""
""blur"",""12"",""56723""
""blur"",""13"",""65152""
""blur"",""14"",""72904""
""blur"",""16"",""88003""
","""event"",""trial"",""time""
""focus"",""9"",""35302""
""focus"",""12"",""62703""
""focus"",""13"",""68401""
""focus"",""14"",""74229""
""focus"",""16"",""89153""
","""event"",""trial"",""time""
""fullscreenenter"",""1"",""1264""
","
","","","","","","922.2000000476837","images/ball3.png","","","practice","4","definitely_new",""
"html-keyboard-response","26","115779","0.0-11.0-0.4","4130","approach_avoid_sv1","""event"",""trial"",""time""
""fullscreenenter"",""1"",""1264""
""blur"",""8"",""26340""
""focus"",""9"",""35302""
""blur"",""12"",""56723""
""focus"",""12"",""62703""
""blur"",""13"",""65152""
""focus"",""13"",""68401""
""blur"",""14"",""72904""
""focus"",""14"",""74229""
""blur"",""16"",""88003""
""focus"",""16"",""89153""
","""event"",""trial"",""time""
""blur"",""8"",""26340""
""blur"",""12"",""56723""
""blur"",""13"",""65152""
""blur"",""14"",""72904""
""blur"",""16"",""88003""
","""event"",""trial"",""time""
""focus"",""9"",""35302""
""focus"",""12"",""62703""
""focus"",""13"",""68401""
""focus"",""14"",""74229""
""focus"",""16"",""89153""
","""event"",""trial"",""time""
""fullscreenenter"",""1"",""1264""
","
","","","","","","null","<div style=""font-size:60px;"">+</div>","null","","fixation","","",""
"memory-trial","27","118116","0.0-11.0-1.4","4130","approach_avoid_sv1","""event"",""trial"",""time""
""fullscreenenter"",""1"",""1264""
""blur"",""8"",""26340""
""focus"",""9"",""35302""
""blur"",""12"",""56723""
""focus"",""12"",""62703""
""blur"",""13"",""65152""
""focus"",""13"",""68401""
""blur"",""14"",""72904""
""focus"",""14"",""74229""
""blur"",""16"",""88003""
""focus"",""16"",""89153""
","""event"",""trial"",""time""
""blur"",""8"",""26340""
""blur"",""12"",""56723""
""blur"",""13"",""65152""
""blur"",""14"",""72904""
""blur"",""16"",""88003""
","""event"",""trial"",""time""
""focus"",""9"",""35302""
""focus"",""12"",""62703""
""focus"",""13"",""68401""
""focus"",""14"",""74229""
""focus"",""16"",""89153""
","""event"",""trial"",""time""
""fullscreenenter"",""1"",""1264""
","
","","","","","","1324.2999999523163","images/ball5.png","","","practice","2","maybe_old",""
"html-keyboard-response","28","118624","0.0-11.0-0.5","4130","approach_avoid_sv1","""event"",""trial"",""time""
""fullscreenenter"",""1"",""1264""
""blur"",""8"",""26340""
""focus"",""9"",""35302""
""blur"",""12"",""56723""
""focus"",""12"",""62703""
""blur"",""13"",""65152""
""focus"",""13"",""68401""
""blur"",""14"",""72904""
""focus"",""14"",""74229""
""blur"",""16"",""88003""
""focus"",""16"",""89153""
","""event"",""trial"",""time""
""blur"",""8"",""26340""
""blur"",""12"",""56723""
""blur"",""13"",""65152""
""blur"",""14"",""72904""
""blur"",""16"",""88003""
","""event"",""trial"",""time""
""focus"",""9"",""35302""
""focus"",""12"",""62703""
""focus"",""13"",""68401""
""focus"",""14"",""74229""
""focus"",""16"",""89153""
","""event"",""trial"",""time""
""fullscreenenter"",""1"",""1264""
","
","","","","","","null","<div style=""font-size:60px;"">+</div>","null","","fixation","","",""
"memory-trial","29","120665","0.0-11.0-1.5","4130","approach_avoid_sv1","""event"",""trial"",""time""
""fullscreenenter"",""1"",""1264""
""blur"",""8"",""26340""
""focus"",""9"",""35302""
""blur"",""12"",""56723""
""focus"",""12"",""62703""
""blur"",""13"",""65152""
""focus"",""13"",""68401""
""blur"",""14"",""72904""
""focus"",""14"",""74229""
""blur"",""16"",""88003""
""focus"",""16"",""89153""
","""event"",""trial"",""time""
""blur"",""8"",""26340""
""blur"",""12"",""56723""
""blur"",""13"",""65152""
""blur"",""14"",""72904""
""blur"",""16"",""88003""
","""event"",""trial"",""time""
""focus"",""9"",""35302""
""focus"",""12"",""62703""
""focus"",""13"",""68401""
""focus"",""14"",""74229""
""focus"",""16"",""89153""
","""event"",""trial"",""time""
""fullscreenenter"",""1"",""1264""
","
","","","","","","1033.699999988079","images/ball1.png","","","practice","4","definitely_new",""
"html-keyboard-response","30","121178","0.0-11.0-0.6","4130","approach_avoid_sv1","""event"",""trial"",""time""
""fullscreenenter"",""1"",""1264""
""blur"",""8"",""26340""
""focus"",""9"",""35302""
""blur"",""12"",""56723""
""focus"",""12"",""62703""
""blur"",""13"",""65152""
""focus"",""13"",""68401""
""blur"",""14"",""72904""
""focus"",""14"",""74229""
""blur"",""16"",""88003""
""focus"",""16"",""89153""
","""event"",""trial"",""time""
""blur"",""8"",""26340""
""blur"",""12"",""56723""
""blur"",""13"",""65152""
""blur"",""14"",""72904""
""blur"",""16"",""88003""
","""event"",""trial"",""time""
""focus"",""9"",""35302""
""focus"",""12"",""62703""
""focus"",""13"",""68401""
""focus"",""14"",""74229""
""focus"",""16"",""89153""
","""event"",""trial"",""time""
""fullscreenenter"",""1"",""1264""
","
","","","","","","null","<div style=""font-size:60px;"">+</div>","null","","fixation","","",""
"memory-trial","31","123291","0.0-11.0-1.6","4130","approach_avoid_sv1","""event"",""trial"",""time""
""fullscreenenter"",""1"",""1264""
""blur"",""8"",""26340""
""focus"",""9"",""35302""
""blur"",""12"",""56723""
""focus"",""12"",""62703""
""blur"",""13"",""65152""
""focus"",""13"",""68401""
""blur"",""14"",""72904""
""focus"",""14"",""74229""
""blur"",""16"",""88003""
""focus"",""16"",""89153""
","""event"",""trial"",""time""
""blur"",""8"",""26340""
""blur"",""12"",""56723""
""blur"",""13"",""65152""
""blur"",""14"",""72904""
""blur"",""16"",""88003""
","""event"",""trial"",""time""
""focus"",""9"",""35302""
""focus"",""12"",""62703""
""focus"",""13"",""68401""
""focus"",""14"",""74229""
""focus"",""16"",""89153""
","""event"",""trial"",""time""
""fullscreenenter"",""1"",""1264""
","
","","","","","","1101","images/racket5.png","","","practice","4","definitely_new",""
"html-keyboard-response","32","123794","0.0-11.0-0.7","4130","approach_avoid_sv1","""event"",""trial"",""time""
""fullscreenenter"",""1"",""1264""
""blur"",""8"",""26340""
""focus"",""9"",""35302""
""blur"",""12"",""56723""
""focus"",""12"",""62703""
""blur"",""13"",""65152""
""focus"",""13"",""68401""
""blur"",""14"",""72904""
""focus"",""14"",""74229""
""blur"",""16"",""88003""
""focus"",""16"",""89153""
","""event"",""trial"",""time""
""blur"",""8"",""26340""
""blur"",""12"",""56723""
""blur"",""13"",""65152""
""blur"",""14"",""72904""
""blur"",""16"",""88003""
","""event"",""trial"",""time""
""focus"",""9"",""35302""
""focus"",""12"",""62703""
""focus"",""13"",""68401""
""focus"",""14"",""74229""
""focus"",""16"",""89153""
","""event"",""trial"",""time""
""fullscreenenter"",""1"",""1264""
","
","","","","","","null","<div style=""font-size:60px;"">+</div>","null","","fixation","","",""
"memory-trial","33","126099","0.0-11.0-1.7","4130","approach_avoid_sv1","""event"",""trial"",""time""
""fullscreenenter"",""1"",""1264""
""blur"",""8"",""26340""
""focus"",""9"",""35302""
""blur"",""12"",""56723""
""focus"",""12"",""62703""
""blur"",""13"",""65152""
""focus"",""13"",""68401""
""blur"",""14"",""72904""
""focus"",""14"",""74229""
""blur"",""16"",""88003""
""focus"",""16"",""89153""
","""event"",""trial"",""time""
""blur"",""8"",""26340""
""blur"",""12"",""56723""
""blur"",""13"",""65152""
""blur"",""14"",""72904""
""blur"",""16"",""88003""
","""event"",""trial"",""time""
""focus"",""9"",""35302""
""focus"",""12"",""62703""
""focus"",""13"",""68401""
""focus"",""14"",""74229""
""focus"",""16"",""89153""
","""event"",""trial"",""time""
""fullscreenenter"",""1"",""1264""
","
","","","","","","1292.2999999523163","images/racket3.png","","","practice","1","definitely_old",""
"learning-instructions","34","134156","0.0-12.0-0.0","4130","approach_avoid_sv1","""event"",""trial"",""time""
""fullscreenenter"",""1"",""1264""
""blur"",""8"",""26340""
""focus"",""9"",""35302""
""blur"",""12"",""56723""
""focus"",""12"",""62703""
""blur"",""13"",""65152""
""focus"",""13"",""68401""
""blur"",""14"",""72904""
""focus"",""14"",""74229""
""blur"",""16"",""88003""
""focus"",""16"",""89153""
","""event"",""trial"",""time""
""blur"",""8"",""26340""
""blur"",""12"",""56723""
""blur"",""13"",""65152""
""blur"",""14"",""72904""
""blur"",""16"",""88003""
","""event"",""trial"",""time""
""focus"",""9"",""35302""
""focus"",""12"",""62703""
""focus"",""13"",""68401""
""focus"",""14"",""74229""
""focus"",""16"",""89153""
","""event"",""trial"",""time""
""fullscreenenter"",""1"",""1264""
","
","","","","","","748.1000000238419","<p> Great! You have completed the practice. </p><p> Before you start, we're going to ask you a few questions about how the game works.  </p>","","0","instructions","","",""
"preload","35","136380","0.0-13.0","4130","approach_avoid_sv1","""event"",""trial"",""time""
""fullscreenenter"",""1"",""1264""
""blur"",""8"",""26340""
""focus"",""9"",""35302""
""blur"",""12"",""56723""
""focus"",""12"",""62703""
""blur"",""13"",""65152""
""focus"",""13"",""68401""
""blur"",""14"",""72904""
""focus"",""14"",""74229""
""blur"",""16"",""88003""
""focus"",""16"",""89153""
","""event"",""trial"",""time""
""blur"",""8"",""26340""
""blur"",""12"",""56723""
""blur"",""13"",""65152""
""blur"",""14"",""72904""
""blur"",""16"",""88003""
","""event"",""trial"",""time""
""focus"",""9"",""35302""
""focus"",""12"",""62703""
""focus"",""13"",""68401""
""focus"",""14"",""74229""
""focus"",""16"",""89153""
","""event"",""trial"",""time""
""fullscreenenter"",""1"",""1264""
","
","true","false","[]","[]","[]","","","","","","","",""
"comp-q","36","143389","0.0-14.0-0.0","4130","approach_avoid_sv1","""event"",""trial"",""time""
""fullscreenenter"",""1"",""1264""
""blur"",""8"",""26340""
""focus"",""9"",""35302""
""blur"",""12"",""56723""
""focus"",""12"",""62703""
""blur"",""13"",""65152""
""focus"",""13"",""68401""
""blur"",""14"",""72904""
""focus"",""14"",""74229""
""blur"",""16"",""88003""
""focus"",""16"",""89153""
","""event"",""trial"",""time""
""blur"",""8"",""26340""
""blur"",""12"",""56723""
""blur"",""13"",""65152""
""blur"",""14"",""72904""
""blur"",""16"",""88003""
","""event"",""trial"",""time""
""focus"",""9"",""35302""
""focus"",""12"",""62703""
""focus"",""13"",""68401""
""focus"",""14"",""74229""
""focus"",""16"",""89153""
","""event"",""trial"",""time""
""fullscreenenter"",""1"",""1264""
","
","","","","","","1180.300000011921","<p> <b> True or False? </b> </p><p> In this game, you will only see each image once. </p>","","1","comp_question","","","false"
"comp-q","37","150656","0.0-14.0-1.0","4130","approach_avoid_sv1","""event"",""trial"",""time""
""fullscreenenter"",""1"",""1264""
""blur"",""8"",""26340""
""focus"",""9"",""35302""
""blur"",""12"",""56723""
""focus"",""12"",""62703""
""blur"",""13"",""65152""
""focus"",""13"",""68401""
""blur"",""14"",""72904""
""focus"",""14"",""74229""
""blur"",""16"",""88003""
""focus"",""16"",""89153""
","""event"",""trial"",""time""
""blur"",""8"",""26340""
""blur"",""12"",""56723""
""blur"",""13"",""65152""
""blur"",""14"",""72904""
""blur"",""16"",""88003""
","""event"",""trial"",""time""
""focus"",""9"",""35302""
""focus"",""12"",""62703""
""focus"",""13"",""68401""
""focus"",""14"",""74229""
""focus"",""16"",""89153""
","""event"",""trial"",""time""
""fullscreenenter"",""1"",""1264""
","
","","","","","","735.8000000119209","<p> <b>Incorrect.</b> You will see many different images <i> one time each </i> in this game. </p>","","0","comp_answer","","",""
"comp-q","38","157340","0.0-14.1-0.1","4130","approach_avoid_sv1","""event"",""trial"",""time""
""fullscreenenter"",""1"",""1264""
""blur"",""8"",""26340""
""focus"",""9"",""35302""
""blur"",""12"",""56723""
""focus"",""12"",""62703""
""blur"",""13"",""65152""
""focus"",""13"",""68401""
""blur"",""14"",""72904""
""focus"",""14"",""74229""
""blur"",""16"",""88003""
""focus"",""16"",""89153""
","""event"",""trial"",""time""
""blur"",""8"",""26340""
""blur"",""12"",""56723""
""blur"",""13"",""65152""
""blur"",""14"",""72904""
""blur"",""16"",""88003""
","""event"",""trial"",""time""
""focus"",""9"",""35302""
""focus"",""12"",""62703""
""focus"",""13"",""68401""
""focus"",""14"",""74229""
""focus"",""16"",""89153""
","""event"",""trial"",""time""
""fullscreenenter"",""1"",""1264""
","
","","","","","","743.1999999880791","<p> <b> True or False? </b> </p><p> In this game, you will only see each image once. </p>","","0","comp_question","","","true"
"comp-q","39","166272","0.0-14.1-1.1","4130","approach_avoid_sv1","""event"",""trial"",""time""
""fullscreenenter"",""1"",""1264""
""blur"",""8"",""26340""
""focus"",""9"",""35302""
""blur"",""12"",""56723""
""focus"",""12"",""62703""
""blur"",""13"",""65152""
""focus"",""13"",""68401""
""blur"",""14"",""72904""
""focus"",""14"",""74229""
""blur"",""16"",""88003""
""focus"",""16"",""89153""
","""event"",""trial"",""time""
""blur"",""8"",""26340""
""blur"",""12"",""56723""
""blur"",""13"",""65152""
""blur"",""14"",""72904""
""blur"",""16"",""88003""
","""event"",""trial"",""time""
""focus"",""9"",""35302""
""focus"",""12"",""62703""
""focus"",""13"",""68401""
""focus"",""14"",""74229""
""focus"",""16"",""89153""
","""event"",""trial"",""time""
""fullscreenenter"",""1"",""1264""
","
","","","","","","2582.399999976158","<p> <b> That's right! </b> You will see many different images <i> one time each </i> in this game. </p>","","0","comp_answer","","",""
"comp-q","40","172056","0.0-15.0-0.0","4130","approach_avoid_sv1","""event"",""trial"",""time""
""fullscreenenter"",""1"",""1264""
""blur"",""8"",""26340""
""focus"",""9"",""35302""
""blur"",""12"",""56723""
""focus"",""12"",""62703""
""blur"",""13"",""65152""
""focus"",""13"",""68401""
""blur"",""14"",""72904""
""focus"",""14"",""74229""
""blur"",""16"",""88003""
""focus"",""16"",""89153""
","""event"",""trial"",""time""
""blur"",""8"",""26340""
""blur"",""12"",""56723""
""blur"",""13"",""65152""
""blur"",""14"",""72904""
""blur"",""16"",""88003""
","""event"",""trial"",""time""
""focus"",""9"",""35302""
""focus"",""12"",""62703""
""focus"",""13"",""68401""
""focus"",""14"",""74229""
""focus"",""16"",""89153""
","""event"",""trial"",""time""
""fullscreenenter"",""1"",""1264""
","
","","","","","","782.3000000119209","<p> <b> True or False? </b> </p><p> You should use the mouse and click to make your response. </p>","","1","comp_question","","","true"
"comp-q","41","183289","0.0-15.0-1.0","4130","approach_avoid_sv1","""event"",""trial"",""time""
""fullscreenenter"",""1"",""1264""
""blur"",""8"",""26340""
""focus"",""9"",""35302""
""blur"",""12"",""56723""
""focus"",""12"",""62703""
""blur"",""13"",""65152""
""focus"",""13"",""68401""
""blur"",""14"",""72904""
""focus"",""14"",""74229""
""blur"",""16"",""88003""
""focus"",""16"",""89153""
","""event"",""trial"",""time""
""blur"",""8"",""26340""
""blur"",""12"",""56723""
""blur"",""13"",""65152""
""blur"",""14"",""72904""
""blur"",""16"",""88003""
","""event"",""trial"",""time""
""focus"",""9"",""35302""
""focus"",""12"",""62703""
""focus"",""13"",""68401""
""focus"",""14"",""74229""
""focus"",""16"",""89153""
","""event"",""trial"",""time""
""fullscreenenter"",""1"",""1264""
","
","","","","","","4730.099999964237","<p><b> That's right! </b> You should use the '1', '2', '3', and '4' keys to make your response. </p>","","0","comp_answer","","",""
"comp-q","42","190106","0.0-16.0-0.0","4130","approach_avoid_sv1","""event"",""trial"",""time""
""fullscreenenter"",""1"",""1264""
""blur"",""8"",""26340""
""focus"",""9"",""35302""
""blur"",""12"",""56723""
""focus"",""12"",""62703""
""blur"",""13"",""65152""
""focus"",""13"",""68401""
""blur"",""14"",""72904""
""focus"",""14"",""74229""
""blur"",""16"",""88003""
""focus"",""16"",""89153""
","""event"",""trial"",""time""
""blur"",""8"",""26340""
""blur"",""12"",""56723""
""blur"",""13"",""65152""
""blur"",""14"",""72904""
""blur"",""16"",""88003""
","""event"",""trial"",""time""
""focus"",""9"",""35302""
""focus"",""12"",""62703""
""focus"",""13"",""68401""
""focus"",""14"",""74229""
""focus"",""16"",""89153""
","""event"",""trial"",""time""
""fullscreenenter"",""1"",""1264""
","
","","","","","","1126.2000000476837","<p> <b> True or False? </b> </p><p> You will have as much time as you want to make each choice. </p>","","1","comp_question","","","true"
"comp-q","43","195706","0.0-16.0-1.0","4130","approach_avoid_sv1","""event"",""trial"",""time""
""fullscreenenter"",""1"",""1264""
""blur"",""8"",""26340""
""focus"",""9"",""35302""
""blur"",""12"",""56723""
""focus"",""12"",""62703""
""blur"",""13"",""65152""
""focus"",""13"",""68401""
""blur"",""14"",""72904""
""focus"",""14"",""74229""
""blur"",""16"",""88003""
""focus"",""16"",""89153""
","""event"",""trial"",""time""
""blur"",""8"",""26340""
""blur"",""12"",""56723""
""blur"",""13"",""65152""
""blur"",""14"",""72904""
""blur"",""16"",""88003""
","""event"",""trial"",""time""
""focus"",""9"",""35302""
""focus"",""12"",""62703""
""focus"",""13"",""68401""
""focus"",""14"",""74229""
""focus"",""16"",""89153""
","""event"",""trial"",""time""
""fullscreenenter"",""1"",""1264""
","
","","","","","","891.3000000119209","<p> <b> That's right! </b> You will only have 10 seconds to make each choice. </p>","","0","comp_answer","","",""
"learning-instructions","44","205590","0.0-17.0","4130","approach_avoid_sv1","""event"",""trial"",""time""
""fullscreenenter"",""1"",""1264""
""blur"",""8"",""26340""
""focus"",""9"",""35302""
""blur"",""12"",""56723""
""focus"",""12"",""62703""
""blur"",""13"",""65152""
""focus"",""13"",""68401""
""blur"",""14"",""72904""
""focus"",""14"",""74229""
""blur"",""16"",""88003""
""focus"",""16"",""89153""
","""event"",""trial"",""time""
""blur"",""8"",""26340""
""blur"",""12"",""56723""
""blur"",""13"",""65152""
""blur"",""14"",""72904""
""blur"",""16"",""88003""
","""event"",""trial"",""time""
""focus"",""9"",""35302""
""focus"",""12"",""62703""
""focus"",""13"",""68401""
""focus"",""14"",""74229""
""focus"",""16"",""89153""
","""event"",""trial"",""time""
""fullscreenenter"",""1"",""1264""
","
","","","","","","1208.300000011921","<p> Great! You are now ready to begin the game. </p><p> Remember, use the 1, 2, 3, and 4 keys to make your responses. </p>","","0","instructions","","",""
"html-keyboard-response","45","206207","0.0-18.0-0.0","4130","approach_avoid_sv1","""event"",""trial"",""time""
""fullscreenenter"",""1"",""1264""
""blur"",""8"",""26340""
""focus"",""9"",""35302""
""blur"",""12"",""56723""
""focus"",""12"",""62703""
""blur"",""13"",""65152""
""focus"",""13"",""68401""
""blur"",""14"",""72904""
""focus"",""14"",""74229""
""blur"",""16"",""88003""
""focus"",""16"",""89153""
","""event"",""trial"",""time""
""blur"",""8"",""26340""
""blur"",""12"",""56723""
""blur"",""13"",""65152""
""blur"",""14"",""72904""
""blur"",""16"",""88003""
","""event"",""trial"",""time""
""focus"",""9"",""35302""
""focus"",""12"",""62703""
""focus"",""13"",""68401""
""focus"",""14"",""74229""
""focus"",""16"",""89153""
","""event"",""trial"",""time""
""fullscreenenter"",""1"",""1264""
","
","","","","","","null","<div style=""font-size:60px;"">+</div>","null","","fixation","","",""
"memory-trial","46","208815","0.0-18.0-1.0","4130","approach_avoid_sv1","""event"",""trial"",""time""
""fullscreenenter"",""1"",""1264""
""blur"",""8"",""26340""
""focus"",""9"",""35302""
""blur"",""12"",""56723""
""focus"",""12"",""62703""
""blur"",""13"",""65152""
""focus"",""13"",""68401""
""blur"",""14"",""72904""
""focus"",""14"",""74229""
""blur"",""16"",""88003""
""focus"",""16"",""89153""
","""event"",""trial"",""time""
""blur"",""8"",""26340""
""blur"",""12"",""56723""
""blur"",""13"",""65152""
""blur"",""14"",""72904""
""blur"",""16"",""88003""
","""event"",""trial"",""time""
""focus"",""9"",""35302""
""focus"",""12"",""62703""
""focus"",""13"",""68401""
""focus"",""14"",""74229""
""focus"",""16"",""89153""
","""event"",""trial"",""time""
""fullscreenenter"",""1"",""1264""
","
","","","","","","1594.4000000357628","images/horse5.png","","","memory_trial","4","definitely_new",""
"html-keyboard-response","47","209324","0.0-18.0-0.1","4130","approach_avoid_sv1","""event"",""trial"",""time""
""fullscreenenter"",""1"",""1264""
""blur"",""8"",""26340""
""focus"",""9"",""35302""
""blur"",""12"",""56723""
""focus"",""12"",""62703""
""blur"",""13"",""65152""
""focus"",""13"",""68401""
""blur"",""14"",""72904""
""focus"",""14"",""74229""
""blur"",""16"",""88003""
""focus"",""16"",""89153""
","""event"",""trial"",""time""
""blur"",""8"",""26340""
""blur"",""12"",""56723""
""blur"",""13"",""65152""
""blur"",""14"",""72904""
""blur"",""16"",""88003""
","""event"",""trial"",""time""
""focus"",""9"",""35302""
""focus"",""12"",""62703""
""focus"",""13"",""68401""
""focus"",""14"",""74229""
""focus"",""16"",""89153""
","""event"",""trial"",""time""
""fullscreenenter"",""1"",""1264""
","
","","","","","","null","<div style=""font-size:60px;"">+</div>","null","","fixation","","",""
"memory-trial","48","212038","0.0-18.0-1.1","4130","approach_avoid_sv1","""event"",""trial"",""time""
""fullscreenenter"",""1"",""1264""
""blur"",""8"",""26340""
""focus"",""9"",""35302""
""blur"",""12"",""56723""
""focus"",""12"",""62703""
""blur"",""13"",""65152""
""focus"",""13"",""68401""
""blur"",""14"",""72904""
""focus"",""14"",""74229""
""blur"",""16"",""88003""
""focus"",""16"",""89153""
","""event"",""trial"",""time""
""blur"",""8"",""26340""
""blur"",""12"",""56723""
""blur"",""13"",""65152""
""blur"",""14"",""72904""
""blur"",""16"",""88003""
","""event"",""trial"",""time""
""focus"",""9"",""35302""
""focus"",""12"",""62703""
""focus"",""13"",""68401""
""focus"",""14"",""74229""
""focus"",""16"",""89153""
","""event"",""trial"",""time""
""fullscreenenter"",""1"",""1264""
","
","","","","","","1702","images/rabbit2.png","","","memory_trial","1","definitely_old",""
"html-keyboard-response","49","212549","0.0-18.0-0.2","4130","approach_avoid_sv1","""event"",""trial"",""time""
""fullscreenenter"",""1"",""1264""
""blur"",""8"",""26340""
""focus"",""9"",""35302""
""blur"",""12"",""56723""
""focus"",""12"",""62703""
""blur"",""13"",""65152""
""focus"",""13"",""68401""
""blur"",""14"",""72904""
""focus"",""14"",""74229""
""blur"",""16"",""88003""
""focus"",""16"",""89153""
","""event"",""trial"",""time""
""blur"",""8"",""26340""
""blur"",""12"",""56723""
""blur"",""13"",""65152""
""blur"",""14"",""72904""
""blur"",""16"",""88003""
","""event"",""trial"",""time""
""focus"",""9"",""35302""
""focus"",""12"",""62703""
""focus"",""13"",""68401""
""focus"",""14"",""74229""
""focus"",""16"",""89153""
","""event"",""trial"",""time""
""fullscreenenter"",""1"",""1264""
","
","","","","","","null","<div style=""font-size:60px;"">+</div>","null","","fixation","","",""
"memory-trial","50","214895","0.0-18.0-1.2","4130","approach_avoid_sv1","""event"",""trial"",""time""
""fullscreenenter"",""1"",""1264""
""blur"",""8"",""26340""
""focus"",""9"",""35302""
""blur"",""12"",""56723""
""focus"",""12"",""62703""
""blur"",""13"",""65152""
""focus"",""13"",""68401""
""blur"",""14"",""72904""
""focus"",""14"",""74229""
""blur"",""16"",""88003""
""focus"",""16"",""89153""
","""event"",""trial"",""time""
""blur"",""8"",""26340""
""blur"",""12"",""56723""
""blur"",""13"",""65152""
""blur"",""14"",""72904""
""blur"",""16"",""88003""
","""event"",""trial"",""time""
""focus"",""9"",""35302""
""focus"",""12"",""62703""
""focus"",""13"",""68401""
""focus"",""14"",""74229""
""focus"",""16"",""89153""
","""event"",""trial"",""time""
""fullscreenenter"",""1"",""1264""
","
","","","","","","1337.9000000357628","images/bush7.png","","","memory_trial","1","definitely_old",""
"html-keyboard-response","51","215405","0.0-18.0-0.3","4130","approach_avoid_sv1","""event"",""trial"",""time""
""fullscreenenter"",""1"",""1264""
""blur"",""8"",""26340""
""focus"",""9"",""35302""
""blur"",""12"",""56723""
""focus"",""12"",""62703""
""blur"",""13"",""65152""
""focus"",""13"",""68401""
""blur"",""14"",""72904""
""focus"",""14"",""74229""
""blur"",""16"",""88003""
""focus"",""16"",""89153""
","""event"",""trial"",""time""
""blur"",""8"",""26340""
""blur"",""12"",""56723""
""blur"",""13"",""65152""
""blur"",""14"",""72904""
""blur"",""16"",""88003""
","""event"",""trial"",""time""
""focus"",""9"",""35302""
""focus"",""12"",""62703""
""focus"",""13"",""68401""
""focus"",""14"",""74229""
""focus"",""16"",""89153""
","""event"",""trial"",""time""
""fullscreenenter"",""1"",""1264""
","
","","","","","","null","<div style=""font-size:60px;"">+</div>","null","","fixation","","",""
"memory-trial","52","217519","0.0-18.0-1.3","4130","approach_avoid_sv1","""event"",""trial"",""time""
""fullscreenenter"",""1"",""1264""
""blur"",""8"",""26340""
""focus"",""9"",""35302""
""blur"",""12"",""56723""
""focus"",""12"",""62703""
""blur"",""13"",""65152""
""focus"",""13"",""68401""
""blur"",""14"",""72904""
""focus"",""14"",""74229""
""blur"",""16"",""88003""
""focus"",""16"",""89153""
","""event"",""trial"",""time""
""blur"",""8"",""26340""
""blur"",""12"",""56723""
""blur"",""13"",""65152""
""blur"",""14"",""72904""
""blur"",""16"",""88003""
","""event"",""trial"",""time""
""focus"",""9"",""35302""
""focus"",""12"",""62703""
""focus"",""13"",""68401""
""focus"",""14"",""74229""
""focus"",""16"",""89153""
","""event"",""trial"",""time""
""fullscreenenter"",""1"",""1264""
","
","","","","","","1103.8999999761581","images/rabbit6.png","","","memory_trial","4","definitely_new",""
"html-keyboard-response","53","218031","0.0-18.0-0.4","4130","approach_avoid_sv1","""event"",""trial"",""time""
""fullscreenenter"",""1"",""1264""
""blur"",""8"",""26340""
""focus"",""9"",""35302""
""blur"",""12"",""56723""
""focus"",""12"",""62703""
""blur"",""13"",""65152""
""focus"",""13"",""68401""
""blur"",""14"",""72904""
""focus"",""14"",""74229""
""blur"",""16"",""88003""
""focus"",""16"",""89153""
","""event"",""trial"",""time""
""blur"",""8"",""26340""
""blur"",""12"",""56723""
""blur"",""13"",""65152""
""blur"",""14"",""72904""
""blur"",""16"",""88003""
","""event"",""trial"",""time""
""focus"",""9"",""35302""
""focus"",""12"",""62703""
""focus"",""13"",""68401""
""focus"",""14"",""74229""
""focus"",""16"",""89153""
","""event"",""trial"",""time""
""fullscreenenter"",""1"",""1264""
","
","","","","","","null","<div style=""font-size:60px;"">+</div>","null","","fixation","","",""
"memory-trial","54","220230","0.0-18.0-1.4","4130","approach_avoid_sv1","""event"",""trial"",""time""
""fullscreenenter"",""1"",""1264""
""blur"",""8"",""26340""
""focus"",""9"",""35302""
""blur"",""12"",""56723""
""focus"",""12"",""62703""
""blur"",""13"",""65152""
""focus"",""13"",""68401""
""blur"",""14"",""72904""
""focus"",""14"",""74229""
""blur"",""16"",""88003""
""focus"",""16"",""89153""
","""event"",""trial"",""time""
""blur"",""8"",""26340""
""blur"",""12"",""56723""
""blur"",""13"",""65152""
""blur"",""14"",""72904""
""blur"",""16"",""88003""
","""event"",""trial"",""time""
""focus"",""9"",""35302""
""focus"",""12"",""62703""
""focus"",""13"",""68401""
""focus"",""14"",""74229""
""focus"",""16"",""89153""
","""event"",""trial"",""time""
""fullscreenenter"",""1"",""1264""
","
","","","","","","1193","images/sheep5.png","","","memory_trial","4","definitely_new",""
"html-keyboard-response","55","220740","0.0-18.0-0.5","4130","approach_avoid_sv1","""event"",""trial"",""time""
""fullscreenenter"",""1"",""1264""
""blur"",""8"",""26340""
""focus"",""9"",""35302""
""blur"",""12"",""56723""
""focus"",""12"",""62703""
""blur"",""13"",""65152""
""focus"",""13"",""68401""
""blur"",""14"",""72904""
""focus"",""14"",""74229""
""blur"",""16"",""88003""
""focus"",""16"",""89153""
","""event"",""trial"",""time""
""blur"",""8"",""26340""
""blur"",""12"",""56723""
""blur"",""13"",""65152""
""blur"",""14"",""72904""
""blur"",""16"",""88003""
","""event"",""trial"",""time""
""focus"",""9"",""35302""
""focus"",""12"",""62703""
""focus"",""13"",""68401""
""focus"",""14"",""74229""
""focus"",""16"",""89153""
","""event"",""trial"",""time""
""fullscreenenter"",""1"",""1264""
","
","","","","","","null","<div style=""font-size:60px;"">+</div>","null","","fixation","","",""
"memory-trial","56","223915","0.0-18.0-1.5","4130","approach_avoid_sv1","""event"",""trial"",""time""
""fullscreenenter"",""1"",""1264""
""blur"",""8"",""26340""
""focus"",""9"",""35302""
""blur"",""12"",""56723""
""focus"",""12"",""62703""
""blur"",""13"",""65152""
""focus"",""13"",""68401""
""blur"",""14"",""72904""
""focus"",""14"",""74229""
""blur"",""16"",""88003""
""focus"",""16"",""89153""
","""event"",""trial"",""time""
""blur"",""8"",""26340""
""blur"",""12"",""56723""
""blur"",""13"",""65152""
""blur"",""14"",""72904""
""blur"",""16"",""88003""
","""event"",""trial"",""time""
""focus"",""9"",""35302""
""focus"",""12"",""62703""
""focus"",""13"",""68401""
""focus"",""14"",""74229""
""focus"",""16"",""89153""
","""event"",""trial"",""time""
""fullscreenenter"",""1"",""1264""
","
","","","","","","2166","images/apple5.png","","","memory_trial","3","maybe_new",""
"html-keyboard-response","57","224420","0.0-18.0-0.6","4130","approach_avoid_sv1","""event"",""trial"",""time""
""fullscreenenter"",""1"",""1264""
""blur"",""8"",""26340""
""focus"",""9"",""35302""
""blur"",""12"",""56723""
""focus"",""12"",""62703""
""blur"",""13"",""65152""
""focus"",""13"",""68401""
""blur"",""14"",""72904""
""focus"",""14"",""74229""
""blur"",""16"",""88003""
""focus"",""16"",""89153""
","""event"",""trial"",""time""
""blur"",""8"",""26340""
""blur"",""12"",""56723""
""blur"",""13"",""65152""
""blur"",""14"",""72904""
""blur"",""16"",""88003""
","""event"",""trial"",""time""
""focus"",""9"",""35302""
""focus"",""12"",""62703""
""focus"",""13"",""68401""
""focus"",""14"",""74229""
""focus"",""16"",""89153""
","""event"",""trial"",""time""
""fullscreenenter"",""1"",""1264""
","
","","","","","","null","<div style=""font-size:60px;"">+</div>","null","","fixation","","",""
"memory-trial","58","226975","0.0-18.0-1.6","4130","approach_avoid_sv1","""event"",""trial"",""time""
""fullscreenenter"",""1"",""1264""
""blur"",""8"",""26340""
""focus"",""9"",""35302""
""blur"",""12"",""56723""
""focus"",""12"",""62703""
""blur"",""13"",""65152""
""focus"",""13"",""68401""
""blur"",""14"",""72904""
""focus"",""14"",""74229""
""blur"",""16"",""88003""
""focus"",""16"",""89153""
","""event"",""trial"",""time""
""blur"",""8"",""26340""
""blur"",""12"",""56723""
""blur"",""13"",""65152""
""blur"",""14"",""72904""
""blur"",""16"",""88003""
","""event"",""trial"",""time""
""focus"",""9"",""35302""
""focus"",""12"",""62703""
""focus"",""13"",""68401""
""focus"",""14"",""74229""
""focus"",""16"",""89153""
","""event"",""trial"",""time""
""fullscreenenter"",""1"",""1264""
","
","","","","","","1539.8999999761581","images/straw6.png","","","memory_trial","1","definitely_old",""
"html-keyboard-response","59","227486","0.0-18.0-0.7","4130","approach_avoid_sv1","""event"",""trial"",""time""
""fullscreenenter"",""1"",""1264""
""blur"",""8"",""26340""
""focus"",""9"",""35302""
""blur"",""12"",""56723""
""focus"",""12"",""62703""
""blur"",""13"",""65152""
""focus"",""13"",""68401""
""blur"",""14"",""72904""
""focus"",""14"",""74229""
""blur"",""16"",""88003""
""focus"",""16"",""89153""
","""event"",""trial"",""time""
""blur"",""8"",""26340""
""blur"",""12"",""56723""
""blur"",""13"",""65152""
""blur"",""14"",""72904""
""blur"",""16"",""88003""
","""event"",""trial"",""time""
""focus"",""9"",""35302""
""focus"",""12"",""62703""
""focus"",""13"",""68401""
""focus"",""14"",""74229""
""focus"",""16"",""89153""
","""event"",""trial"",""time""
""fullscreenenter"",""1"",""1264""
","
","","","","","","null","<div style=""font-size:60px;"">+</div>","null","","fixation","","",""
"memory-trial","60","229684","0.0-18.0-1.7","4130","approach_avoid_sv1","""event"",""trial"",""time""
""fullscreenenter"",""1"",""1264""
""blur"",""8"",""26340""
""focus"",""9"",""35302""
""blur"",""12"",""56723""
""focus"",""12"",""62703""
""blur"",""13"",""65152""
""focus"",""13"",""68401""
""blur"",""14"",""72904""
""focus"",""14"",""74229""
""blur"",""16"",""88003""
""focus"",""16"",""89153""
","""event"",""trial"",""time""
""blur"",""8"",""26340""
""blur"",""12"",""56723""
""blur"",""13"",""65152""
""blur"",""14"",""72904""
""blur"",""16"",""88003""
","""event"",""trial"",""time""
""focus"",""9"",""35302""
""focus"",""12"",""62703""
""focus"",""13"",""68401""
""focus"",""14"",""74229""
""focus"",""16"",""89153""
","""event"",""trial"",""time""
""fullscreenenter"",""1"",""1264""
","
","","","","","","1190","images/cow6.png","","","memory_trial","2","maybe_old",""
"html-keyboard-response","61","230195","0.0-18.0-0.8","4130","approach_avoid_sv1","""event"",""trial"",""time""
""fullscreenenter"",""1"",""1264""
""blur"",""8"",""26340""
""focus"",""9"",""35302""
""blur"",""12"",""56723""
""focus"",""12"",""62703""
""blur"",""13"",""65152""
""focus"",""13"",""68401""
""blur"",""14"",""72904""
""focus"",""14"",""74229""
""blur"",""16"",""88003""
""focus"",""16"",""89153""
","""event"",""trial"",""time""
""blur"",""8"",""26340""
""blur"",""12"",""56723""
""blur"",""13"",""65152""
""blur"",""14"",""72904""
""blur"",""16"",""88003""
","""event"",""trial"",""time""
""focus"",""9"",""35302""
""focus"",""12"",""62703""
""focus"",""13"",""68401""
""focus"",""14"",""74229""
""focus"",""16"",""89153""
","""event"",""trial"",""time""
""fullscreenenter"",""1"",""1264""
","
","","","","","","null","<div style=""font-size:60px;"">+</div>","null","","fixation","","",""
"memory-trial","62","232340","0.0-18.0-1.8","4130","approach_avoid_sv1","""event"",""trial"",""time""
""fullscreenenter"",""1"",""1264""
""blur"",""8"",""26340""
""focus"",""9"",""35302""
""blur"",""12"",""56723""
""focus"",""12"",""62703""
""blur"",""13"",""65152""
""focus"",""13"",""68401""
""blur"",""14"",""72904""
""focus"",""14"",""74229""
""blur"",""16"",""88003""
""focus"",""16"",""89153""
","""event"",""trial"",""time""
""blur"",""8"",""26340""
""blur"",""12"",""56723""
""blur"",""13"",""65152""
""blur"",""14"",""72904""
""blur"",""16"",""88003""
","""event"",""trial"",""time""
""focus"",""9"",""35302""
""focus"",""12"",""62703""
""focus"",""13"",""68401""
""focus"",""14"",""74229""
""focus"",""16"",""89153""
","""event"",""trial"",""time""
""fullscreenenter"",""1"",""1264""
","
","","","","","","1132.2999999523163","images/apple3.png","","","memory_trial","4","definitely_new",""
"html-keyboard-response","63","232843","0.0-18.0-0.9","4130","approach_avoid_sv1","""event"",""trial"",""time""
""fullscreenenter"",""1"",""1264""
""blur"",""8"",""26340""
""focus"",""9"",""35302""
""blur"",""12"",""56723""
""focus"",""12"",""62703""
""blur"",""13"",""65152""
""focus"",""13"",""68401""
""blur"",""14"",""72904""
""focus"",""14"",""74229""
""blur"",""16"",""88003""
""focus"",""16"",""89153""
","""event"",""trial"",""time""
""blur"",""8"",""26340""
""blur"",""12"",""56723""
""blur"",""13"",""65152""
""blur"",""14"",""72904""
""blur"",""16"",""88003""
","""event"",""trial"",""time""
""focus"",""9"",""35302""
""focus"",""12"",""62703""
""focus"",""13"",""68401""
""focus"",""14"",""74229""
""focus"",""16"",""89153""
","""event"",""trial"",""time""
""fullscreenenter"",""1"",""1264""
","
","","","","","","null","<div style=""font-size:60px;"">+</div>","null","","fixation","","",""
"memory-trial","64","234727","0.0-18.0-1.9","4130","approach_avoid_sv1","""event"",""trial"",""time""
""fullscreenenter"",""1"",""1264""
""blur"",""8"",""26340""
""focus"",""9"",""35302""
""blur"",""12"",""56723""
""focus"",""12"",""62703""
""blur"",""13"",""65152""
""focus"",""13"",""68401""
""blur"",""14"",""72904""
""focus"",""14"",""74229""
""blur"",""16"",""88003""
""focus"",""16"",""89153""
","""event"",""trial"",""time""
""blur"",""8"",""26340""
""blur"",""12"",""56723""
""blur"",""13"",""65152""
""blur"",""14"",""72904""
""blur"",""16"",""88003""
","""event"",""trial"",""time""
""focus"",""9"",""35302""
""focus"",""12"",""62703""
""focus"",""13"",""68401""
""focus"",""14"",""74229""
""focus"",""16"",""89153""
","""event"",""trial"",""time""
""fullscreenenter"",""1"",""1264""
","
","","","","","","871.7000000476837","images/goat3.png","","","memory_trial","4","definitely_new",""
"html-keyboard-response","65","235235","0.0-18.0-0.10","4130","approach_avoid_sv1","""event"",""trial"",""time""
""fullscreenenter"",""1"",""1264""
""blur"",""8"",""26340""
""focus"",""9"",""35302""
""blur"",""12"",""56723""
""focus"",""12"",""62703""
""blur"",""13"",""65152""
""focus"",""13"",""68401""
""blur"",""14"",""72904""
""focus"",""14"",""74229""
""blur"",""16"",""88003""
""focus"",""16"",""89153""
","""event"",""trial"",""time""
""blur"",""8"",""26340""
""blur"",""12"",""56723""
""blur"",""13"",""65152""
""blur"",""14"",""72904""
""blur"",""16"",""88003""
","""event"",""trial"",""time""
""focus"",""9"",""35302""
""focus"",""12"",""62703""
""focus"",""13"",""68401""
""focus"",""14"",""74229""
""focus"",""16"",""89153""
","""event"",""trial"",""time""
""fullscreenenter"",""1"",""1264""
","
","","","","","","null","<div style=""font-size:60px;"">+</div>","null","","fixation","","",""
"memory-trial","66","237366","0.0-18.0-1.10","4130","approach_avoid_sv1","""event"",""trial"",""time""
""fullscreenenter"",""1"",""1264""
""blur"",""8"",""26340""
""focus"",""9"",""35302""
""blur"",""12"",""56723""
""focus"",""12"",""62703""
""blur"",""13"",""65152""
""focus"",""13"",""68401""
""blur"",""14"",""72904""
""focus"",""14"",""74229""
""blur"",""16"",""88003""
""focus"",""16"",""89153""
","""event"",""trial"",""time""
""blur"",""8"",""26340""
""blur"",""12"",""56723""
""blur"",""13"",""65152""
""blur"",""14"",""72904""
""blur"",""16"",""88003""
","""event"",""trial"",""time""
""focus"",""9"",""35302""
""focus"",""12"",""62703""
""focus"",""13"",""68401""
""focus"",""14"",""74229""
""focus"",""16"",""89153""
","""event"",""trial"",""time""
""fullscreenenter"",""1"",""1264""
","
","","","","","","1116.7000000476837","images/sofa6.png","","","memory_trial","3","maybe_new",""
"html-keyboard-response","67","237874","0.0-18.0-0.11","4130","approach_avoid_sv1","""event"",""trial"",""time""
""fullscreenenter"",""1"",""1264""
""blur"",""8"",""26340""
""focus"",""9"",""35302""
""blur"",""12"",""56723""
""focus"",""12"",""62703""
""blur"",""13"",""65152""
""focus"",""13"",""68401""
""blur"",""14"",""72904""
""focus"",""14"",""74229""
""blur"",""16"",""88003""
""focus"",""16"",""89153""
","""event"",""trial"",""time""
""blur"",""8"",""26340""
""blur"",""12"",""56723""
""blur"",""13"",""65152""
""blur"",""14"",""72904""
""blur"",""16"",""88003""
","""event"",""trial"",""time""
""focus"",""9"",""35302""
""focus"",""12"",""62703""
""focus"",""13"",""68401""
""focus"",""14"",""74229""
""focus"",""16"",""89153""
","""event"",""trial"",""time""
""fullscreenenter"",""1"",""1264""
","
","","","","","","null","<div style=""font-size:60px;"">+</div>","null","","fixation","","",""
"memory-trial","68","239884","0.0-18.0-1.11","4130","approach_avoid_sv1","""event"",""trial"",""time""
""fullscreenenter"",""1"",""1264""
""blur"",""8"",""26340""
""focus"",""9"",""35302""
""blur"",""12"",""56723""
""focus"",""12"",""62703""
""blur"",""13"",""65152""
""focus"",""13"",""68401""
""blur"",""14"",""72904""
""focus"",""14"",""74229""
""blur"",""16"",""88003""
""focus"",""16"",""89153""
","""event"",""trial"",""time""
""blur"",""8"",""26340""
""blur"",""12"",""56723""
""blur"",""13"",""65152""
""blur"",""14"",""72904""
""blur"",""16"",""88003""
","""event"",""trial"",""time""
""focus"",""9"",""35302""
""focus"",""12"",""62703""
""focus"",""13"",""68401""
""focus"",""14"",""74229""
""focus"",""16"",""89153""
","""event"",""trial"",""time""
""fullscreenenter"",""1"",""1264""
","
","","","","","","1004.1999999880791","images/goat8.png","","","memory_trial","3","maybe_new",""
"html-keyboard-response","69","240387","0.0-18.0-0.12","4130","approach_avoid_sv1","""event"",""trial"",""time""
""fullscreenenter"",""1"",""1264""
""blur"",""8"",""26340""
""focus"",""9"",""35302""
""blur"",""12"",""56723""
""focus"",""12"",""62703""
""blur"",""13"",""65152""
""focus"",""13"",""68401""
""blur"",""14"",""72904""
""focus"",""14"",""74229""
""blur"",""16"",""88003""
""focus"",""16"",""89153""
","""event"",""trial"",""time""
""blur"",""8"",""26340""
""blur"",""12"",""56723""
""blur"",""13"",""65152""
""blur"",""14"",""72904""
""blur"",""16"",""88003""
","""event"",""trial"",""time""
""focus"",""9"",""35302""
""focus"",""12"",""62703""
""focus"",""13"",""68401""
""focus"",""14"",""74229""
""focus"",""16"",""89153""
","""event"",""trial"",""time""
""fullscreenenter"",""1"",""1264""
","
","","","","","","null","<div style=""font-size:60px;"">+</div>","null","","fixation","","",""
"memory-trial","70","242510","0.0-18.0-1.12","4130","approach_avoid_sv1","""event"",""trial"",""time""
""fullscreenenter"",""1"",""1264""
""blur"",""8"",""26340""
""focus"",""9"",""35302""
""blur"",""12"",""56723""
""focus"",""12"",""62703""
""blur"",""13"",""65152""
""focus"",""13"",""68401""
""blur"",""14"",""72904""
""focus"",""14"",""74229""
""blur"",""16"",""88003""
""focus"",""16"",""89153""
","""event"",""trial"",""time""
""blur"",""8"",""26340""
""blur"",""12"",""56723""
""blur"",""13"",""65152""
""blur"",""14"",""72904""
""blur"",""16"",""88003""
","""event"",""trial"",""time""
""focus"",""9"",""35302""
""focus"",""12"",""62703""
""focus"",""13"",""68401""
""focus"",""14"",""74229""
""focus"",""16"",""89153""
","""event"",""trial"",""time""
""fullscreenenter"",""1"",""1264""
","
","","","","","","1108.2999999523163","images/dog3.png","","","memory_trial","4","definitely_new",""
"html-keyboard-response","71","243018","0.0-18.0-0.13","4130","approach_avoid_sv1","""event"",""trial"",""time""
""fullscreenenter"",""1"",""1264""
""blur"",""8"",""26340""
""focus"",""9"",""35302""
""blur"",""12"",""56723""
""focus"",""12"",""62703""
""blur"",""13"",""65152""
""focus"",""13"",""68401""
""blur"",""14"",""72904""
""focus"",""14"",""74229""
""blur"",""16"",""88003""
""focus"",""16"",""89153""
","""event"",""trial"",""time""
""blur"",""8"",""26340""
""blur"",""12"",""56723""
""blur"",""13"",""65152""
""blur"",""14"",""72904""
""blur"",""16"",""88003""
","""event"",""trial"",""time""
""focus"",""9"",""35302""
""focus"",""12"",""62703""
""focus"",""13"",""68401""
""focus"",""14"",""74229""
""focus"",""16"",""89153""
","""event"",""trial"",""time""
""fullscreenenter"",""1"",""1264""
","
","","","","","","null","<div style=""font-size:60px;"">+</div>","null","","fixation","","",""
"memory-trial","72","245421","0.0-18.0-1.13","4130","approach_avoid_sv1","""event"",""trial"",""time""
""fullscreenenter"",""1"",""1264""
""blur"",""8"",""26340""
""focus"",""9"",""35302""
""blur"",""12"",""56723""
""focus"",""12"",""62703""
""blur"",""13"",""65152""
""focus"",""13"",""68401""
""blur"",""14"",""72904""
""focus"",""14"",""74229""
""blur"",""16"",""88003""
""focus"",""16"",""89153""
","""event"",""trial"",""time""
""blur"",""8"",""26340""
""blur"",""12"",""56723""
""blur"",""13"",""65152""
""blur"",""14"",""72904""
""blur"",""16"",""88003""
","""event"",""trial"",""time""
""focus"",""9"",""35302""
""focus"",""12"",""62703""
""focus"",""13"",""68401""
""focus"",""14"",""74229""
""focus"",""16"",""89153""
","""event"",""trial"",""time""
""fullscreenenter"",""1"",""1264""
","
","","","","","","1391.0999999642372","images/cactus3.png","","","memory_trial","3","maybe_new",""
"html-keyboard-response","73","245933","0.0-18.0-0.14","4130","approach_avoid_sv1","""event"",""trial"",""time""
""fullscreenenter"",""1"",""1264""
""blur"",""8"",""26340""
""focus"",""9"",""35302""
""blur"",""12"",""56723""
""focus"",""12"",""62703""
""blur"",""13"",""65152""
""focus"",""13"",""68401""
""blur"",""14"",""72904""
""focus"",""14"",""74229""
""blur"",""16"",""88003""
""focus"",""16"",""89153""
","""event"",""trial"",""time""
""blur"",""8"",""26340""
""blur"",""12"",""56723""
""blur"",""13"",""65152""
""blur"",""14"",""72904""
""blur"",""16"",""88003""
","""event"",""trial"",""time""
""focus"",""9"",""35302""
""focus"",""12"",""62703""
""focus"",""13"",""68401""
""focus"",""14"",""74229""
""focus"",""16"",""89153""
","""event"",""trial"",""time""
""fullscreenenter"",""1"",""1264""
","
","","","","","","null","<div style=""font-size:60px;"">+</div>","null","","fixation","","",""
"memory-trial","74","248700","0.0-18.0-1.14","4130","approach_avoid_sv1","""event"",""trial"",""time""
""fullscreenenter"",""1"",""1264""
""blur"",""8"",""26340""
""focus"",""9"",""35302""
""blur"",""12"",""56723""
""focus"",""12"",""62703""
""blur"",""13"",""65152""
""focus"",""13"",""68401""
""blur"",""14"",""72904""
""focus"",""14"",""74229""
""blur"",""16"",""88003""
""focus"",""16"",""89153""
","""event"",""trial"",""time""
""blur"",""8"",""26340""
""blur"",""12"",""56723""
""blur"",""13"",""65152""
""blur"",""14"",""72904""
""blur"",""16"",""88003""
","""event"",""trial"",""time""
""focus"",""9"",""35302""
""focus"",""12"",""62703""
""focus"",""13"",""68401""
""focus"",""14"",""74229""
""focus"",""16"",""89153""
","""event"",""trial"",""time""
""fullscreenenter"",""1"",""1264""
","
","","","","","","1762.199999988079","images/cactus8.png","","","memory_trial","3","maybe_new",""
"html-keyboard-response","75","249214","0.0-18.0-0.15","4130","approach_avoid_sv1","""event"",""trial"",""time""
""fullscreenenter"",""1"",""1264""
""blur"",""8"",""26340""
""focus"",""9"",""35302""
""blur"",""12"",""56723""
""focus"",""12"",""62703""
""blur"",""13"",""65152""
""focus"",""13"",""68401""
""blur"",""14"",""72904""
""focus"",""14"",""74229""
""blur"",""16"",""88003""
""focus"",""16"",""89153""
","""event"",""trial"",""time""
""blur"",""8"",""26340""
""blur"",""12"",""56723""
""blur"",""13"",""65152""
""blur"",""14"",""72904""
""blur"",""16"",""88003""
","""event"",""trial"",""time""
""focus"",""9"",""35302""
""focus"",""12"",""62703""
""focus"",""13"",""68401""
""focus"",""14"",""74229""
""focus"",""16"",""89153""
","""event"",""trial"",""time""
""fullscreenenter"",""1"",""1264""
","
","","","","","","null","<div style=""font-size:60px;"">+</div>","null","","fixation","","",""
"memory-trial","76","252418","0.0-18.0-1.15","4130","approach_avoid_sv1","""event"",""trial"",""time""
""fullscreenenter"",""1"",""1264""
""blur"",""8"",""26340""
""focus"",""9"",""35302""
""blur"",""12"",""56723""
""focus"",""12"",""62703""
""blur"",""13"",""65152""
""focus"",""13"",""68401""
""blur"",""14"",""72904""
""focus"",""14"",""74229""
""blur"",""16"",""88003""
""focus"",""16"",""89153""
","""event"",""trial"",""time""
""blur"",""8"",""26340""
""blur"",""12"",""56723""
""blur"",""13"",""65152""
""blur"",""14"",""72904""
""blur"",""16"",""88003""
","""event"",""trial"",""time""
""focus"",""9"",""35302""
""focus"",""12"",""62703""
""focus"",""13"",""68401""
""focus"",""14"",""74229""
""focus"",""16"",""89153""
","""event"",""trial"",""time""
""fullscreenenter"",""1"",""1264""
","
","","","","","","2194.699999988079","images/cat7.png","","","memory_trial","1","definitely_old",""
"html-keyboard-response","77","252924","0.0-18.0-0.16","4130","approach_avoid_sv1","""event"",""trial"",""time""
""fullscreenenter"",""1"",""1264""
""blur"",""8"",""26340""
""focus"",""9"",""35302""
""blur"",""12"",""56723""
""focus"",""12"",""62703""
""blur"",""13"",""65152""
""focus"",""13"",""68401""
""blur"",""14"",""72904""
""focus"",""14"",""74229""
""blur"",""16"",""88003""
""focus"",""16"",""89153""
","""event"",""trial"",""time""
""blur"",""8"",""26340""
""blur"",""12"",""56723""
""blur"",""13"",""65152""
""blur"",""14"",""72904""
""blur"",""16"",""88003""
","""event"",""trial"",""time""
""focus"",""9"",""35302""
""focus"",""12"",""62703""
""focus"",""13"",""68401""
""focus"",""14"",""74229""
""focus"",""16"",""89153""
","""event"",""trial"",""time""
""fullscreenenter"",""1"",""1264""
","
","","","","","","null","<div style=""font-size:60px;"">+</div>","null","","fixation","","",""
"memory-trial","78","254966","0.0-18.0-1.16","4130","approach_avoid_sv1","""event"",""trial"",""time""
""fullscreenenter"",""1"",""1264""
""blur"",""8"",""26340""
""focus"",""9"",""35302""
""blur"",""12"",""56723""
""focus"",""12"",""62703""
""blur"",""13"",""65152""
""focus"",""13"",""68401""
""blur"",""14"",""72904""
""focus"",""14"",""74229""
""blur"",""16"",""88003""
""focus"",""16"",""89153""
","""event"",""trial"",""time""
""blur"",""8"",""26340""
""blur"",""12"",""56723""
""blur"",""13"",""65152""
""blur"",""14"",""72904""
""blur"",""16"",""88003""
","""event"",""trial"",""time""
""focus"",""9"",""35302""
""focus"",""12"",""62703""
""focus"",""13"",""68401""
""focus"",""14"",""74229""
""focus"",""16"",""89153""
","""event"",""trial"",""time""
""fullscreenenter"",""1"",""1264""
","
","","","","","","1028","images/boat8.png","","","memory_trial","4","definitely_new",""
"html-keyboard-response","79","255474","0.0-18.0-0.17","4130","approach_avoid_sv1","""event"",""trial"",""time""
""fullscreenenter"",""1"",""1264""
""blur"",""8"",""26340""
""focus"",""9"",""35302""
""blur"",""12"",""56723""
""focus"",""12"",""62703""
""blur"",""13"",""65152""
""focus"",""13"",""68401""
""blur"",""14"",""72904""
""focus"",""14"",""74229""
""blur"",""16"",""88003""
""focus"",""16"",""89153""
","""event"",""trial"",""time""
""blur"",""8"",""26340""
""blur"",""12"",""56723""
""blur"",""13"",""65152""
""blur"",""14"",""72904""
""blur"",""16"",""88003""
","""event"",""trial"",""time""
""focus"",""9"",""35302""
""focus"",""12"",""62703""
""focus"",""13"",""68401""
""focus"",""14"",""74229""
""focus"",""16"",""89153""
","""event"",""trial"",""time""
""fullscreenenter"",""1"",""1264""
","
","","","","","","null","<div style=""font-size:60px;"">+</div>","null","","fixation","","",""
"memory-trial","80","257427","0.0-18.0-1.17","4130","approach_avoid_sv1","""event"",""trial"",""time""
""fullscreenenter"",""1"",""1264""
""blur"",""8"",""26340""
""focus"",""9"",""35302""
""blur"",""12"",""56723""
""focus"",""12"",""62703""
""blur"",""13"",""65152""
""focus"",""13"",""68401""
""blur"",""14"",""72904""
""focus"",""14"",""74229""
""blur"",""16"",""88003""
""focus"",""16"",""89153""
","""event"",""trial"",""time""
""blur"",""8"",""26340""
""blur"",""12"",""56723""
""blur"",""13"",""65152""
""blur"",""14"",""72904""
""blur"",""16"",""88003""
","""event"",""trial"",""time""
""focus"",""9"",""35302""
""focus"",""12"",""62703""
""focus"",""13"",""68401""
""focus"",""14"",""74229""
""focus"",""16"",""89153""
","""event"",""trial"",""time""
""fullscreenenter"",""1"",""1264""
","
","","","","","","945.8999999761581","images/rodent3.png","","","memory_trial","4","definitely_new",""
"html-keyboard-response","81","257933","0.0-18.0-0.18","4130","approach_avoid_sv1","""event"",""trial"",""time""
""fullscreenenter"",""1"",""1264""
""blur"",""8"",""26340""
""focus"",""9"",""35302""
""blur"",""12"",""56723""
""focus"",""12"",""62703""
""blur"",""13"",""65152""
""focus"",""13"",""68401""
""blur"",""14"",""72904""
""focus"",""14"",""74229""
""blur"",""16"",""88003""
""focus"",""16"",""89153""
","""event"",""trial"",""time""
""blur"",""8"",""26340""
""blur"",""12"",""56723""
""blur"",""13"",""65152""
""blur"",""14"",""72904""
""blur"",""16"",""88003""
","""event"",""trial"",""time""
""focus"",""9"",""35302""
""focus"",""12"",""62703""
""focus"",""13"",""68401""
""focus"",""14"",""74229""
""focus"",""16"",""89153""
","""event"",""trial"",""time""
""fullscreenenter"",""1"",""1264""
","
","","","","","","null","<div style=""font-size:60px;"">+</div>","null","","fixation","","",""
"memory-trial","82","260155","0.0-18.0-1.18","4130","approach_avoid_sv1","""event"",""trial"",""time""
""fullscreenenter"",""1"",""1264""
""blur"",""8"",""26340""
""focus"",""9"",""35302""
""blur"",""12"",""56723""
""focus"",""12"",""62703""
""blur"",""13"",""65152""
""focus"",""13"",""68401""
""blur"",""14"",""72904""
""focus"",""14"",""74229""
""blur"",""16"",""88003""
""focus"",""16"",""89153""
","""event"",""trial"",""time""
""blur"",""8"",""26340""
""blur"",""12"",""56723""
""blur"",""13"",""65152""
""blur"",""14"",""72904""
""blur"",""16"",""88003""
","""event"",""trial"",""time""
""focus"",""9"",""35302""
""focus"",""12"",""62703""
""focus"",""13"",""68401""
""focus"",""14"",""74229""
""focus"",""16"",""89153""
","""event"",""trial"",""time""
""fullscreenenter"",""1"",""1264""
","
","","","","","","1213","images/banana4.png","","","memory_trial","1","definitely_old",""
"html-keyboard-response","83","260658","0.0-18.0-0.19","4130","approach_avoid_sv1","""event"",""trial"",""time""
""fullscreenenter"",""1"",""1264""
""blur"",""8"",""26340""
""focus"",""9"",""35302""
""blur"",""12"",""56723""
""focus"",""12"",""62703""
""blur"",""13"",""65152""
""focus"",""13"",""68401""
""blur"",""14"",""72904""
""focus"",""14"",""74229""
""blur"",""16"",""88003""
""focus"",""16"",""89153""
","""event"",""trial"",""time""
""blur"",""8"",""26340""
""blur"",""12"",""56723""
""blur"",""13"",""65152""
""blur"",""14"",""72904""
""blur"",""16"",""88003""
","""event"",""trial"",""time""
""focus"",""9"",""35302""
""focus"",""12"",""62703""
""focus"",""13"",""68401""
""focus"",""14"",""74229""
""focus"",""16"",""89153""
","""event"",""trial"",""time""
""fullscreenenter"",""1"",""1264""
","
","","","","","","null","<div style=""font-size:60px;"">+</div>","null","","fixation","","",""
"memory-trial","84","263933","0.0-18.0-1.19","4130","approach_avoid_sv1","""event"",""trial"",""time""
""fullscreenenter"",""1"",""1264""
""blur"",""8"",""26340""
""focus"",""9"",""35302""
""blur"",""12"",""56723""
""focus"",""12"",""62703""
""blur"",""13"",""65152""
""focus"",""13"",""68401""
""blur"",""14"",""72904""
""focus"",""14"",""74229""
""blur"",""16"",""88003""
""focus"",""16"",""89153""
","""event"",""trial"",""time""
""blur"",""8"",""26340""
""blur"",""12"",""56723""
""blur"",""13"",""65152""
""blur"",""14"",""72904""
""blur"",""16"",""88003""
","""event"",""trial"",""time""
""focus"",""9"",""35302""
""focus"",""12"",""62703""
""focus"",""13"",""68401""
""focus"",""14"",""74229""
""focus"",""16"",""89153""
","""event"",""trial"",""time""
""fullscreenenter"",""1"",""1264""
","
","","","","","","2268.100000023842","images/sheep4.png","","","memory_trial","2","maybe_old",""
"html-keyboard-response","85","264442","0.0-18.0-0.20","4130","approach_avoid_sv1","""event"",""trial"",""time""
""fullscreenenter"",""1"",""1264""
""blur"",""8"",""26340""
""focus"",""9"",""35302""
""blur"",""12"",""56723""
""focus"",""12"",""62703""
""blur"",""13"",""65152""
""focus"",""13"",""68401""
""blur"",""14"",""72904""
""focus"",""14"",""74229""
""blur"",""16"",""88003""
""focus"",""16"",""89153""
","""event"",""trial"",""time""
""blur"",""8"",""26340""
""blur"",""12"",""56723""
""blur"",""13"",""65152""
""blur"",""14"",""72904""
""blur"",""16"",""88003""
","""event"",""trial"",""time""
""focus"",""9"",""35302""
""focus"",""12"",""62703""
""focus"",""13"",""68401""
""focus"",""14"",""74229""
""focus"",""16"",""89153""
","""event"",""trial"",""time""
""fullscreenenter"",""1"",""1264""
","
","","","","","","null","<div style=""font-size:60px;"">+</div>","null","","fixation","","",""
"memory-trial","86","266690","0.0-18.0-1.20","4130","approach_avoid_sv1","""event"",""trial"",""time""
""fullscreenenter"",""1"",""1264""
""blur"",""8"",""26340""
""focus"",""9"",""35302""
""blur"",""12"",""56723""
""focus"",""12"",""62703""
""blur"",""13"",""65152""
""focus"",""13"",""68401""
""blur"",""14"",""72904""
""focus"",""14"",""74229""
""blur"",""16"",""88003""
""focus"",""16"",""89153""
","""event"",""trial"",""time""
""blur"",""8"",""26340""
""blur"",""12"",""56723""
""blur"",""13"",""65152""
""blur"",""14"",""72904""
""blur"",""16"",""88003""
","""event"",""trial"",""time""
""focus"",""9"",""35302""
""focus"",""12"",""62703""
""focus"",""13"",""68401""
""focus"",""14"",""74229""
""focus"",""16"",""89153""
","""event"",""trial"",""time""
""fullscreenenter"",""1"",""1264""
","
","","","","","","1242.1000000238419","images/sheep6.png","","","memory_trial","2","maybe_old",""
"html-keyboard-response","87","267198","0.0-18.0-0.21","4130","approach_avoid_sv1","""event"",""trial"",""time""
""fullscreenenter"",""1"",""1264""
""blur"",""8"",""26340""
""focus"",""9"",""35302""
""blur"",""12"",""56723""
""focus"",""12"",""62703""
""blur"",""13"",""65152""
""focus"",""13"",""68401""
""blur"",""14"",""72904""
""focus"",""14"",""74229""
""blur"",""16"",""88003""
""focus"",""16"",""89153""
","""event"",""trial"",""time""
""blur"",""8"",""26340""
""blur"",""12"",""56723""
""blur"",""13"",""65152""
""blur"",""14"",""72904""
""blur"",""16"",""88003""
","""event"",""trial"",""time""
""focus"",""9"",""35302""
""focus"",""12"",""62703""
""focus"",""13"",""68401""
""focus"",""14"",""74229""
""focus"",""16"",""89153""
","""event"",""trial"",""time""
""fullscreenenter"",""1"",""1264""
","
","","","","","","null","<div style=""font-size:60px;"">+</div>","null","","fixation","","",""
"memory-trial","88","269394","0.0-18.0-1.21","4130","approach_avoid_sv1","""event"",""trial"",""time""
""fullscreenenter"",""1"",""1264""
""blur"",""8"",""26340""
""focus"",""9"",""35302""
""blur"",""12"",""56723""
""focus"",""12"",""62703""
""blur"",""13"",""65152""
""focus"",""13"",""68401""
""blur"",""14"",""72904""
""focus"",""14"",""74229""
""blur"",""16"",""88003""
""focus"",""16"",""89153""
","""event"",""trial"",""time""
""blur"",""8"",""26340""
""blur"",""12"",""56723""
""blur"",""13"",""65152""
""blur"",""14"",""72904""
""blur"",""16"",""88003""
","""event"",""trial"",""time""
""focus"",""9"",""35302""
""focus"",""12"",""62703""
""focus"",""13"",""68401""
""focus"",""14"",""74229""
""focus"",""16"",""89153""
","""event"",""trial"",""time""
""fullscreenenter"",""1"",""1264""
","
","","","","","","1185.3999999761581","images/table6.png","","","memory_trial","1","definitely_old",""
"html-keyboard-response","89","269901","0.0-18.0-0.22","4130","approach_avoid_sv1","""event"",""trial"",""time""
""fullscreenenter"",""1"",""1264""
""blur"",""8"",""26340""
""focus"",""9"",""35302""
""blur"",""12"",""56723""
""focus"",""12"",""62703""
""blur"",""13"",""65152""
""focus"",""13"",""68401""
""blur"",""14"",""72904""
""focus"",""14"",""74229""
""blur"",""16"",""88003""
""focus"",""16"",""89153""
","""event"",""trial"",""time""
""blur"",""8"",""26340""
""blur"",""12"",""56723""
""blur"",""13"",""65152""
""blur"",""14"",""72904""
""blur"",""16"",""88003""
","""event"",""trial"",""time""
""focus"",""9"",""35302""
""focus"",""12"",""62703""
""focus"",""13"",""68401""
""focus"",""14"",""74229""
""focus"",""16"",""89153""
","""event"",""trial"",""time""
""fullscreenenter"",""1"",""1264""
","
","","","","","","null","<div style=""font-size:60px;"">+</div>","null","","fixation","","",""
"memory-trial","90","272028","0.0-18.0-1.22","4130","approach_avoid_sv1","""event"",""trial"",""time""
""fullscreenenter"",""1"",""1264""
""blur"",""8"",""26340""
""focus"",""9"",""35302""
""blur"",""12"",""56723""
""focus"",""12"",""62703""
""blur"",""13"",""65152""
""focus"",""13"",""68401""
""blur"",""14"",""72904""
""focus"",""14"",""74229""
""blur"",""16"",""88003""
""focus"",""16"",""89153""
","""event"",""trial"",""time""
""blur"",""8"",""26340""
""blur"",""12"",""56723""
""blur"",""13"",""65152""
""blur"",""14"",""72904""
""blur"",""16"",""88003""
","""event"",""trial"",""time""
""focus"",""9"",""35302""
""focus"",""12"",""62703""
""focus"",""13"",""68401""
""focus"",""14"",""74229""
""focus"",""16"",""89153""
","""event"",""trial"",""time""
""fullscreenenter"",""1"",""1264""
","
","","","","","","1118.5","images/tree5.png","","","memory_trial","4","definitely_new",""
"html-keyboard-response","91","272538","0.0-18.0-0.23","4130","approach_avoid_sv1","""event"",""trial"",""time""
""fullscreenenter"",""1"",""1264""
""blur"",""8"",""26340""
""focus"",""9"",""35302""
""blur"",""12"",""56723""
""focus"",""12"",""62703""
""blur"",""13"",""65152""
""focus"",""13"",""68401""
""blur"",""14"",""72904""
""focus"",""14"",""74229""
""blur"",""16"",""88003""
""focus"",""16"",""89153""
","""event"",""trial"",""time""
""blur"",""8"",""26340""
""blur"",""12"",""56723""
""blur"",""13"",""65152""
""blur"",""14"",""72904""
""blur"",""16"",""88003""
","""event"",""trial"",""time""
""focus"",""9"",""35302""
""focus"",""12"",""62703""
""focus"",""13"",""68401""
""focus"",""14"",""74229""
""focus"",""16"",""89153""
","""event"",""trial"",""time""
""fullscreenenter"",""1"",""1264""
","
","","","","","","null","<div style=""font-size:60px;"">+</div>","null","","fixation","","",""
"memory-trial","92","275076","0.0-18.0-1.23","4130","approach_avoid_sv1","""event"",""trial"",""time""
""fullscreenenter"",""1"",""1264""
""blur"",""8"",""26340""
""focus"",""9"",""35302""
""blur"",""12"",""56723""
""focus"",""12"",""62703""
""blur"",""13"",""65152""
""focus"",""13"",""68401""
""blur"",""14"",""72904""
""focus"",""14"",""74229""
""blur"",""16"",""88003""
""focus"",""16"",""89153""
","""event"",""trial"",""time""
""blur"",""8"",""26340""
""blur"",""12"",""56723""
""blur"",""13"",""65152""
""blur"",""14"",""72904""
""blur"",""16"",""88003""
","""event"",""trial"",""time""
""focus"",""9"",""35302""
""focus"",""12"",""62703""
""focus"",""13"",""68401""
""focus"",""14"",""74229""
""focus"",""16"",""89153""
","""event"",""trial"",""time""
""fullscreenenter"",""1"",""1264""
","
","","","","","","1525.199999988079","images/rabbit8.png","","","memory_trial","2","maybe_old",""
"html-keyboard-response","93","275588","0.0-18.0-0.24","4130","approach_avoid_sv1","""event"",""trial"",""time""
""fullscreenenter"",""1"",""1264""
""blur"",""8"",""26340""
""focus"",""9"",""35302""
""blur"",""12"",""56723""
""focus"",""12"",""62703""
""blur"",""13"",""65152""
""focus"",""13"",""68401""
""blur"",""14"",""72904""
""focus"",""14"",""74229""
""blur"",""16"",""88003""
""focus"",""16"",""89153""
","""event"",""trial"",""time""
""blur"",""8"",""26340""
""blur"",""12"",""56723""
""blur"",""13"",""65152""
""blur"",""14"",""72904""
""blur"",""16"",""88003""
","""event"",""trial"",""time""
""focus"",""9"",""35302""
""focus"",""12"",""62703""
""focus"",""13"",""68401""
""focus"",""14"",""74229""
""focus"",""16"",""89153""
","""event"",""trial"",""time""
""fullscreenenter"",""1"",""1264""
","
","","","","","","null","<div style=""font-size:60px;"">+</div>","null","","fixation","","",""
"memory-trial","94","277393","0.0-18.0-1.24","4130","approach_avoid_sv1","""event"",""trial"",""time""
""fullscreenenter"",""1"",""1264""
""blur"",""8"",""26340""
""focus"",""9"",""35302""
""blur"",""12"",""56723""
""focus"",""12"",""62703""
""blur"",""13"",""65152""
""focus"",""13"",""68401""
""blur"",""14"",""72904""
""focus"",""14"",""74229""
""blur"",""16"",""88003""
""focus"",""16"",""89153""
","""event"",""trial"",""time""
""blur"",""8"",""26340""
""blur"",""12"",""56723""
""blur"",""13"",""65152""
""blur"",""14"",""72904""
""blur"",""16"",""88003""
","""event"",""trial"",""time""
""focus"",""9"",""35302""
""focus"",""12"",""62703""
""focus"",""13"",""68401""
""focus"",""14"",""74229""
""focus"",""16"",""89153""
","""event"",""trial"",""time""
""fullscreenenter"",""1"",""1264""
","
","","","","","","799.1000000238419","images/train8.png","","","memory_trial","4","definitely_new",""
"html-keyboard-response","95","277898","0.0-18.0-0.25","4130","approach_avoid_sv1","""event"",""trial"",""time""
""fullscreenenter"",""1"",""1264""
""blur"",""8"",""26340""
""focus"",""9"",""35302""
""blur"",""12"",""56723""
""focus"",""12"",""62703""
""blur"",""13"",""65152""
""focus"",""13"",""68401""
""blur"",""14"",""72904""
""focus"",""14"",""74229""
""blur"",""16"",""88003""
""focus"",""16"",""89153""
","""event"",""trial"",""time""
""blur"",""8"",""26340""
""blur"",""12"",""56723""
""blur"",""13"",""65152""
""blur"",""14"",""72904""
""blur"",""16"",""88003""
","""event"",""trial"",""time""
""focus"",""9"",""35302""
""focus"",""12"",""62703""
""focus"",""13"",""68401""
""focus"",""14"",""74229""
""focus"",""16"",""89153""
","""event"",""trial"",""time""
""fullscreenenter"",""1"",""1264""
","
","","","","","","null","<div style=""font-size:60px;"">+</div>","null","","fixation","","",""
"memory-trial","96","280107","0.0-18.0-1.25","4130","approach_avoid_sv1","""event"",""trial"",""time""
""fullscreenenter"",""1"",""1264""
""blur"",""8"",""26340""
""focus"",""9"",""35302""
""blur"",""12"",""56723""
""focus"",""12"",""62703""
""blur"",""13"",""65152""
""focus"",""13"",""68401""
""blur"",""14"",""72904""
""focus"",""14"",""74229""
""blur"",""16"",""88003""
""focus"",""16"",""89153""
","""event"",""trial"",""time""
""blur"",""8"",""26340""
""blur"",""12"",""56723""
""blur"",""13"",""65152""
""blur"",""14"",""72904""
""blur"",""16"",""88003""
","""event"",""trial"",""time""
""focus"",""9"",""35302""
""focus"",""12"",""62703""
""focus"",""13"",""68401""
""focus"",""14"",""74229""
""focus"",""16"",""89153""
","""event"",""trial"",""time""
""fullscreenenter"",""1"",""1264""
","
","","","","","","1201","images/horse1.png","","","memory_trial","1","definitely_old",""
"html-keyboard-response","97","280616","0.0-18.0-0.26","4130","approach_avoid_sv1","""event"",""trial"",""time""
""fullscreenenter"",""1"",""1264""
""blur"",""8"",""26340""
""focus"",""9"",""35302""
""blur"",""12"",""56723""
""focus"",""12"",""62703""
""blur"",""13"",""65152""
""focus"",""13"",""68401""
""blur"",""14"",""72904""
""focus"",""14"",""74229""
""blur"",""16"",""88003""
""focus"",""16"",""89153""
","""event"",""trial"",""time""
""blur"",""8"",""26340""
""blur"",""12"",""56723""
""blur"",""13"",""65152""
""blur"",""14"",""72904""
""blur"",""16"",""88003""
","""event"",""trial"",""time""
""focus"",""9"",""35302""
""focus"",""12"",""62703""
""focus"",""13"",""68401""
""focus"",""14"",""74229""
""focus"",""16"",""89153""
","""event"",""trial"",""time""
""fullscreenenter"",""1"",""1264""
","
","","","","","","null","<div style=""font-size:60px;"">+</div>","null","","fixation","","",""
"memory-trial","98","283173","0.0-18.0-1.26","4130","approach_avoid_sv1","""event"",""trial"",""time""
""fullscreenenter"",""1"",""1264""
""blur"",""8"",""26340""
""focus"",""9"",""35302""
""blur"",""12"",""56723""
""focus"",""12"",""62703""
""blur"",""13"",""65152""
""focus"",""13"",""68401""
""blur"",""14"",""72904""
""focus"",""14"",""74229""
""blur"",""16"",""88003""
""focus"",""16"",""89153""
","""event"",""trial"",""time""
""blur"",""8"",""26340""
""blur"",""12"",""56723""
""blur"",""13"",""65152""
""blur"",""14"",""72904""
""blur"",""16"",""88003""
","""event"",""trial"",""time""
""focus"",""9"",""35302""
""focus"",""12"",""62703""
""focus"",""13"",""68401""
""focus"",""14"",""74229""
""focus"",""16"",""89153""
","""event"",""trial"",""time""
""fullscreenenter"",""1"",""1264""
","
","","","","","","1543.800000011921","images/truck7.png","","","memory_trial","2","maybe_old",""
"html-keyboard-response","99","283682","0.0-18.0-0.27","4130","approach_avoid_sv1","""event"",""trial"",""time""
""fullscreenenter"",""1"",""1264""
""blur"",""8"",""26340""
""focus"",""9"",""35302""
""blur"",""12"",""56723""
""focus"",""12"",""62703""
""blur"",""13"",""65152""
""focus"",""13"",""68401""
""blur"",""14"",""72904""
""focus"",""14"",""74229""
""blur"",""16"",""88003""
""focus"",""16"",""89153""
","""event"",""trial"",""time""
""blur"",""8"",""26340""
""blur"",""12"",""56723""
""blur"",""13"",""65152""
""blur"",""14"",""72904""
""blur"",""16"",""88003""
","""event"",""trial"",""time""
""focus"",""9"",""35302""
""focus"",""12"",""62703""
""focus"",""13"",""68401""
""focus"",""14"",""74229""
""focus"",""16"",""89153""
","""event"",""trial"",""time""
""fullscreenenter"",""1"",""1264""
","
","","","","","","null","<div style=""font-size:60px;"">+</div>","null","","fixation","","",""
"memory-trial","100","285618","0.0-18.0-1.27","4130","approach_avoid_sv1","""event"",""trial"",""time""
""fullscreenenter"",""1"",""1264""
""blur"",""8"",""26340""
""focus"",""9"",""35302""
""blur"",""12"",""56723""
""focus"",""12"",""62703""
""blur"",""13"",""65152""
""focus"",""13"",""68401""
""blur"",""14"",""72904""
""focus"",""14"",""74229""
""blur"",""16"",""88003""
""focus"",""16"",""89153""
","""event"",""trial"",""time""
""blur"",""8"",""26340""
""blur"",""12"",""56723""
""blur"",""13"",""65152""
""blur"",""14"",""72904""
""blur"",""16"",""88003""
","""event"",""trial"",""time""
""focus"",""9"",""35302""
""focus"",""12"",""62703""
""focus"",""13"",""68401""
""focus"",""14"",""74229""
""focus"",""16"",""89153""
","""event"",""trial"",""time""
""fullscreenenter"",""1"",""1264""
","
","","","","","","923","images/orange7.png","","","memory_trial","2","maybe_old",""
"html-keyboard-response","101","286123","0.0-18.0-0.28","4130","approach_avoid_sv1","""event"",""trial"",""time""
""fullscreenenter"",""1"",""1264""
""blur"",""8"",""26340""
""focus"",""9"",""35302""
""blur"",""12"",""56723""
""focus"",""12"",""62703""
""blur"",""13"",""65152""
""focus"",""13"",""68401""
""blur"",""14"",""72904""
""focus"",""14"",""74229""
""blur"",""16"",""88003""
""focus"",""16"",""89153""
","""event"",""trial"",""time""
""blur"",""8"",""26340""
""blur"",""12"",""56723""
""blur"",""13"",""65152""
""blur"",""14"",""72904""
""blur"",""16"",""88003""
","""event"",""trial"",""time""
""focus"",""9"",""35302""
""focus"",""12"",""62703""
""focus"",""13"",""68401""
""focus"",""14"",""74229""
""focus"",""16"",""89153""
","""event"",""trial"",""time""
""fullscreenenter"",""1"",""1264""
","
","","","","","","null","<div style=""font-size:60px;"">+</div>","null","","fixation","","",""
"memory-trial","102","288812","0.0-18.0-1.28","4130","approach_avoid_sv1","""event"",""trial"",""time""
""fullscreenenter"",""1"",""1264""
""blur"",""8"",""26340""
""focus"",""9"",""35302""
""blur"",""12"",""56723""
""focus"",""12"",""62703""
""blur"",""13"",""65152""
""focus"",""13"",""68401""
""blur"",""14"",""72904""
""focus"",""14"",""74229""
""blur"",""16"",""88003""
""focus"",""16"",""89153""
","""event"",""trial"",""time""
""blur"",""8"",""26340""
""blur"",""12"",""56723""
""blur"",""13"",""65152""
""blur"",""14"",""72904""
""blur"",""16"",""88003""
","""event"",""trial"",""time""
""focus"",""9"",""35302""
""focus"",""12"",""62703""
""focus"",""13"",""68401""
""focus"",""14"",""74229""
""focus"",""16"",""89153""
","""event"",""trial"",""time""
""fullscreenenter"",""1"",""1264""
","
","","","","","","1681.5999999642372","images/dog8.png","","","memory_trial","3","maybe_new",""
"html-keyboard-response","103","289322","0.0-18.0-0.29","4130","approach_avoid_sv1","""event"",""trial"",""time""
""fullscreenenter"",""1"",""1264""
""blur"",""8"",""26340""
""focus"",""9"",""35302""
""blur"",""12"",""56723""
""focus"",""12"",""62703""
""blur"",""13"",""65152""
""focus"",""13"",""68401""
""blur"",""14"",""72904""
""focus"",""14"",""74229""
""blur"",""16"",""88003""
""focus"",""16"",""89153""
","""event"",""trial"",""time""
""blur"",""8"",""26340""
""blur"",""12"",""56723""
""blur"",""13"",""65152""
""blur"",""14"",""72904""
""blur"",""16"",""88003""
","""event"",""trial"",""time""
""focus"",""9"",""35302""
""focus"",""12"",""62703""
""focus"",""13"",""68401""
""focus"",""14"",""74229""
""focus"",""16"",""89153""
","""event"",""trial"",""time""
""fullscreenenter"",""1"",""1264""
","
","","","","","","null","<div style=""font-size:60px;"">+</div>","null","","fixation","","",""
"memory-trial","104","291762","0.0-18.0-1.29","4130","approach_avoid_sv1","""event"",""trial"",""time""
""fullscreenenter"",""1"",""1264""
""blur"",""8"",""26340""
""focus"",""9"",""35302""
""blur"",""12"",""56723""
""focus"",""12"",""62703""
""blur"",""13"",""65152""
""focus"",""13"",""68401""
""blur"",""14"",""72904""
""focus"",""14"",""74229""
""blur"",""16"",""88003""
""focus"",""16"",""89153""
","""event"",""trial"",""time""
""blur"",""8"",""26340""
""blur"",""12"",""56723""
""blur"",""13"",""65152""
""blur"",""14"",""72904""
""blur"",""16"",""88003""
","""event"",""trial"",""time""
""focus"",""9"",""35302""
""focus"",""12"",""62703""
""focus"",""13"",""68401""
""focus"",""14"",""74229""
""focus"",""16"",""89153""
","""event"",""trial"",""time""
""fullscreenenter"",""1"",""1264""
","
","","","","","","1430.8999999761581","images/sofa3.png","","","memory_trial","3","maybe_new",""
"html-keyboard-response","105","292266","0.0-18.0-0.30","4130","approach_avoid_sv1","""event"",""trial"",""time""
""fullscreenenter"",""1"",""1264""
""blur"",""8"",""26340""
""focus"",""9"",""35302""
""blur"",""12"",""56723""
""focus"",""12"",""62703""
""blur"",""13"",""65152""
""focus"",""13"",""68401""
""blur"",""14"",""72904""
""focus"",""14"",""74229""
""blur"",""16"",""88003""
""focus"",""16"",""89153""
","""event"",""trial"",""time""
""blur"",""8"",""26340""
""blur"",""12"",""56723""
""blur"",""13"",""65152""
""blur"",""14"",""72904""
""blur"",""16"",""88003""
","""event"",""trial"",""time""
""focus"",""9"",""35302""
""focus"",""12"",""62703""
""focus"",""13"",""68401""
""focus"",""14"",""74229""
""focus"",""16"",""89153""
","""event"",""trial"",""time""
""fullscreenenter"",""1"",""1264""
","
","","","","","","null","<div style=""font-size:60px;"">+</div>","null","","fixation","","",""
"memory-trial","106","294636","0.0-18.0-1.30","4130","approach_avoid_sv1","""event"",""trial"",""time""
""fullscreenenter"",""1"",""1264""
""blur"",""8"",""26340""
""focus"",""9"",""35302""
""blur"",""12"",""56723""
""focus"",""12"",""62703""
""blur"",""13"",""65152""
""focus"",""13"",""68401""
""blur"",""14"",""72904""
""focus"",""14"",""74229""
""blur"",""16"",""88003""
""focus"",""16"",""89153""
","""event"",""trial"",""time""
""blur"",""8"",""26340""
""blur"",""12"",""56723""
""blur"",""13"",""65152""
""blur"",""14"",""72904""
""blur"",""16"",""88003""
","""event"",""trial"",""time""
""focus"",""9"",""35302""
""focus"",""12"",""62703""
""focus"",""13"",""68401""
""focus"",""14"",""74229""
""focus"",""16"",""89153""
","""event"",""trial"",""time""
""fullscreenenter"",""1"",""1264""
","
","","","","","","1360.9000000357628","images/straw4.png","","","memory_trial","3","maybe_new",""
"html-keyboard-response","107","295145","0.0-18.0-0.31","4130","approach_avoid_sv1","""event"",""trial"",""time""
""fullscreenenter"",""1"",""1264""
""blur"",""8"",""26340""
""focus"",""9"",""35302""
""blur"",""12"",""56723""
""focus"",""12"",""62703""
""blur"",""13"",""65152""
""focus"",""13"",""68401""
""blur"",""14"",""72904""
""focus"",""14"",""74229""
""blur"",""16"",""88003""
""focus"",""16"",""89153""
","""event"",""trial"",""time""
""blur"",""8"",""26340""
""blur"",""12"",""56723""
""blur"",""13"",""65152""
""blur"",""14"",""72904""
""blur"",""16"",""88003""
","""event"",""trial"",""time""
""focus"",""9"",""35302""
""focus"",""12"",""62703""
""focus"",""13"",""68401""
""focus"",""14"",""74229""
""focus"",""16"",""89153""
","""event"",""trial"",""time""
""fullscreenenter"",""1"",""1264""
","
","","","","","","null","<div style=""font-size:60px;"">+</div>","null","","fixation","","",""
"memory-trial","108","297451","0.0-18.0-1.31","4130","approach_avoid_sv1","""event"",""trial"",""time""
""fullscreenenter"",""1"",""1264""
""blur"",""8"",""26340""
""focus"",""9"",""35302""
""blur"",""12"",""56723""
""focus"",""12"",""62703""
""blur"",""13"",""65152""
""focus"",""13"",""68401""
""blur"",""14"",""72904""
""focus"",""14"",""74229""
""blur"",""16"",""88003""
""focus"",""16"",""89153""
","""event"",""trial"",""time""
""blur"",""8"",""26340""
""blur"",""12"",""56723""
""blur"",""13"",""65152""
""blur"",""14"",""72904""
""blur"",""16"",""88003""
","""event"",""trial"",""time""
""focus"",""9"",""35302""
""focus"",""12"",""62703""
""focus"",""13"",""68401""
""focus"",""14"",""74229""
""focus"",""16"",""89153""
","""event"",""trial"",""time""
""fullscreenenter"",""1"",""1264""
","
","","","","","","1296.800000011921","images/bush5.png","","","memory_trial","4","definitely_new",""
"html-keyboard-response","109","297964","0.0-18.0-0.32","4130","approach_avoid_sv1","""event"",""trial"",""time""
""fullscreenenter"",""1"",""1264""
""blur"",""8"",""26340""
""focus"",""9"",""35302""
""blur"",""12"",""56723""
""focus"",""12"",""62703""
""blur"",""13"",""65152""
""focus"",""13"",""68401""
""blur"",""14"",""72904""
""focus"",""14"",""74229""
""blur"",""16"",""88003""
""focus"",""16"",""89153""
","""event"",""trial"",""time""
""blur"",""8"",""26340""
""blur"",""12"",""56723""
""blur"",""13"",""65152""
""blur"",""14"",""72904""
""blur"",""16"",""88003""
","""event"",""trial"",""time""
""focus"",""9"",""35302""
""focus"",""12"",""62703""
""focus"",""13"",""68401""
""focus"",""14"",""74229""
""focus"",""16"",""89153""
","""event"",""trial"",""time""
""fullscreenenter"",""1"",""1264""
","
","","","","","","null","<div style=""font-size:60px;"">+</div>","null","","fixation","","",""
"memory-trial","110","300425","0.0-18.0-1.32","4130","approach_avoid_sv1","""event"",""trial"",""time""
""fullscreenenter"",""1"",""1264""
""blur"",""8"",""26340""
""focus"",""9"",""35302""
""blur"",""12"",""56723""
""focus"",""12"",""62703""
""blur"",""13"",""65152""
""focus"",""13"",""68401""
""blur"",""14"",""72904""
""focus"",""14"",""74229""
""blur"",""16"",""88003""
""focus"",""16"",""89153""
","""event"",""trial"",""time""
""blur"",""8"",""26340""
""blur"",""12"",""56723""
""blur"",""13"",""65152""
""blur"",""14"",""72904""
""blur"",""16"",""88003""
","""event"",""trial"",""time""
""focus"",""9"",""35302""
""focus"",""12"",""62703""
""focus"",""13"",""68401""
""focus"",""14"",""74229""
""focus"",""16"",""89153""
","""event"",""trial"",""time""
""fullscreenenter"",""1"",""1264""
","
","","","","","","1451.699999988079","images/table7.png","","","memory_trial","1","definitely_old",""
"html-keyboard-response","111","300932","0.0-18.0-0.33","4130","approach_avoid_sv1","""event"",""trial"",""time""
""fullscreenenter"",""1"",""1264""
""blur"",""8"",""26340""
""focus"",""9"",""35302""
""blur"",""12"",""56723""
""focus"",""12"",""62703""
""blur"",""13"",""65152""
""focus"",""13"",""68401""
""blur"",""14"",""72904""
""focus"",""14"",""74229""
""blur"",""16"",""88003""
""focus"",""16"",""89153""
","""event"",""trial"",""time""
""blur"",""8"",""26340""
""blur"",""12"",""56723""
""blur"",""13"",""65152""
""blur"",""14"",""72904""
""blur"",""16"",""88003""
","""event"",""trial"",""time""
""focus"",""9"",""35302""
""focus"",""12"",""62703""
""focus"",""13"",""68401""
""focus"",""14"",""74229""
""focus"",""16"",""89153""
","""event"",""trial"",""time""
""fullscreenenter"",""1"",""1264""
","
","","","","","","null","<div style=""font-size:60px;"">+</div>","null","","fixation","","",""
"memory-trial","112","303224","0.0-18.0-1.33","4130","approach_avoid_sv1","""event"",""trial"",""time""
""fullscreenenter"",""1"",""1264""
""blur"",""8"",""26340""
""focus"",""9"",""35302""
""blur"",""12"",""56723""
