"trial_type","trial_index","time_elapsed","internal_node_id","subject_id","task_version","interactions","blur_events","focus_events","fullscreenenter_events","fullscreenexit_events","success","timeout","failed_images","failed_audio","failed_video","rt","stimulus","response","button_pressed","task_part","key_press","answer","correct"
"pavlovia","0","13","0.0-0.0","4125","approach_avoid_sv1","""event"",""trial"",""time""
""focus"",""0"",""1""
""fullscreenenter"",""1"",""6077""
","
","""event"",""trial"",""time""
""focus"",""0"",""1""
","""event"",""trial"",""time""
""fullscreenenter"",""1"",""6077""
","
","","","","","","","","","","","","",""
"fullscreen","1","6856","0.0-1.0","4125","approach_avoid_sv1","""event"",""trial"",""time""
""focus"",""0"",""1""
""fullscreenenter"",""1"",""6077""
","
","""event"",""trial"",""time""
""focus"",""0"",""1""
","""event"",""trial"",""time""
""fullscreenenter"",""1"",""6077""
","
","true","","","","","","","","","","","",""
"preload","2","9329","0.0-2.0","4125","approach_avoid_sv1","""event"",""trial"",""time""
""focus"",""0"",""1""
""fullscreenenter"",""1"",""6077""
","
","""event"",""trial"",""time""
""focus"",""0"",""1""
","""event"",""trial"",""time""
""fullscreenenter"",""1"",""6077""
","
","true","false","[]","[]","[]","","","","","","","",""
"preload","3","12112","0.0-3.0","4125","approach_avoid_sv1","""event"",""trial"",""time""
""focus"",""0"",""1""
""fullscreenenter"",""1"",""6077""
","
","""event"",""trial"",""time""
""focus"",""0"",""1""
","""event"",""trial"",""time""
""fullscreenenter"",""1"",""6077""
","
","true","false","[]","[]","[]","","","","","","","",""
"preload","4","12543","0.0-4.0","4125","approach_avoid_sv1","""event"",""trial"",""time""
""focus"",""0"",""1""
""fullscreenenter"",""1"",""6077""
","
","""event"",""trial"",""time""
""focus"",""0"",""1""
","""event"",""trial"",""time""
""fullscreenenter"",""1"",""6077""
","
","true","false","[]","[]","[]","","","","","","","",""
"audio-keyboard-response","5","15046","0.0-5.0","4125","approach_avoid_sv1","""event"",""trial"",""time""
""focus"",""0"",""1""
""fullscreenenter"",""1"",""6077""
","
","""event"",""trial"",""time""
""focus"",""0"",""1""
","""event"",""trial"",""time""
""fullscreenenter"",""1"",""6077""
","
","","","","","","2498.666666666667","audio/beep_loop.wav"," ","","","","",""
"audio-button-response","6","17509","0.0-6.0","4125","approach_avoid_sv1","""event"",""trial"",""time""
""focus"",""0"",""1""
""fullscreenenter"",""1"",""6077""
","
","""event"",""trial"",""time""
""focus"",""0"",""1""
","""event"",""trial"",""time""
""fullscreenenter"",""1"",""6077""
","
","","","","","","2461","audio/turtle.wav","3","","","","",""
"audio-button-response","7","19805","0.0-7.0","4125","approach_avoid_sv1","""event"",""trial"",""time""
""focus"",""0"",""1""
""fullscreenenter"",""1"",""6077""
","
","""event"",""trial"",""time""
""focus"",""0"",""1""
","""event"",""trial"",""time""
""fullscreenenter"",""1"",""6077""
","
","","","","","","1288","audio/shark.wav","2","","","","",""
"preload","8","24013","0.0-8.0","4125","approach_avoid_sv1","""event"",""trial"",""time""
""focus"",""0"",""1""
""fullscreenenter"",""1"",""6077""
""fullscreenexit"",""9"",""26192""
","
","""event"",""trial"",""time""
""focus"",""0"",""1""
","""event"",""trial"",""time""
""fullscreenenter"",""1"",""6077""
","""event"",""trial"",""time""
""fullscreenexit"",""9"",""26192""
","true","false","[]","[]","[]","","","","","","","",""
"learning-instructions","9","29996","0.0-9.0-0.0","4125","approach_avoid_sv1","""event"",""trial"",""time""
""focus"",""0"",""1""
""fullscreenenter"",""1"",""6077""
""fullscreenexit"",""9"",""26192""
","
","""event"",""trial"",""time""
""focus"",""0"",""1""
","""event"",""trial"",""time""
""fullscreenenter"",""1"",""6077""
","""event"",""trial"",""time""
""fullscreenexit"",""9"",""26192""
","","","","","","1498","<p> Welcome back! </p><p> Last week, you had to make choices about lots of different items.  </p>","","0","instructions","","",""
"learning-instructions","10","35373","0.0-9.0-0.1","4125","approach_avoid_sv1","""event"",""trial"",""time""
""focus"",""0"",""1""
""fullscreenenter"",""1"",""6077""
""fullscreenexit"",""9"",""26192""
","
","""event"",""trial"",""time""
""focus"",""0"",""1""
","""event"",""trial"",""time""
""fullscreenenter"",""1"",""6077""
","""event"",""trial"",""time""
""fullscreenexit"",""9"",""26192""
","","","","","","1242","<p> Today, we are going to ask you to try to remember all the items. </p>","","0","instructions","","",""
"learning-instructions","11","46221","0.0-9.0-0.2","4125","approach_avoid_sv1","""event"",""trial"",""time""
""focus"",""0"",""1""
""fullscreenenter"",""1"",""6077""
""fullscreenexit"",""9"",""26192""
","
","""event"",""trial"",""time""
""focus"",""0"",""1""
","""event"",""trial"",""time""
""fullscreenenter"",""1"",""6077""
","""event"",""trial"",""time""
""fullscreenexit"",""9"",""26192""
","","","","","","711","<p> On every trial, you will see an image. </p><p> The image may be an OLD image you saw during the games last week or it may be a NEW image that was not presented. </p>","","0","instructions","","",""
"learning-instructions","12","55572","0.0-9.0-0.3","4125","approach_avoid_sv1","""event"",""trial"",""time""
""focus"",""0"",""1""
""fullscreenenter"",""1"",""6077""
""fullscreenexit"",""9"",""26192""
","
","""event"",""trial"",""time""
""focus"",""0"",""1""
","""event"",""trial"",""time""
""fullscreenenter"",""1"",""6077""
","""event"",""trial"",""time""
""fullscreenexit"",""9"",""26192""
","","","","","","843","<p> You need to select whether the image is:  </p><p>  'Definitely old', 'Maybe old', 'Maybe new', or 'Definitely new.'  </p><div class=""mem-choice-instructions-grid""><div class=""choice-option"" id=""choice-option-1"" ><img src=""images/definitely_old_1.png"" id=""choice-option-img-1"" class=""choice-option-img"" stage=""1""></div><div class=""choice-option"" id=""choice-option-2"" ><img src=""images/maybe_old_1.png"" id=""choice-option-img-2"" class=""choice-option-img"" stage=""1""></div><div class=""choice-option"" id=""choice-option-3"" ><img src=""images/maybe_new_1.png"" id=""choice-option-img-3"" class=""choice-option-img"" stage=""1""></div><div class=""choice-option"" id=""choice-option-4"" > <img src=""images/definitely_new_1.png"" id=""choice-option-img-4"" class=""choice-option-img"" stage=""1""></div></div>","","0","instructions","","",""
"learning-instructions","13","63037","0.0-9.0-0.4","4125","approach_avoid_sv1","""event"",""trial"",""time""
""focus"",""0"",""1""
""fullscreenenter"",""1"",""6077""
""fullscreenexit"",""9"",""26192""
","
","""event"",""trial"",""time""
""focus"",""0"",""1""
","""event"",""trial"",""time""
""fullscreenenter"",""1"",""6077""
","""event"",""trial"",""time""
""fullscreenexit"",""9"",""26192""
","","","","","","947","<p> You should use the 1, 2, 3, and 4 keys to make your responses.  </p><div class=""mem-choice-instructions-grid""><div class=""choice-option"" id=""choice-option-1"" ><img src=""images/definitely_old.png"" id=""choice-option-img-1"" class=""choice-option-img"" stage=""1""></div><div class=""choice-option"" id=""choice-option-2"" ><img src=""images/maybe_old.png"" id=""choice-option-img-2"" class=""choice-option-img"" stage=""1""></div><div class=""choice-option"" id=""choice-option-3"" ><img src=""images/maybe_new.png"" id=""choice-option-img-3"" class=""choice-option-img"" stage=""1""></div><div class=""choice-option"" id=""choice-option-4"" > <img src=""images/definitely_new.png"" id=""choice-option-img-4"" class=""choice-option-img"" stage=""1""></div></div>","","0","instructions","","",""
"learning-instructions","14","70068","0.0-9.0-0.5","4125","approach_avoid_sv1","""event"",""trial"",""time""
""focus"",""0"",""1""
""fullscreenenter"",""1"",""6077""
""fullscreenexit"",""9"",""26192""
","
","""event"",""trial"",""time""
""focus"",""0"",""1""
","""event"",""trial"",""time""
""fullscreenenter"",""1"",""6077""
","""event"",""trial"",""time""
""fullscreenexit"",""9"",""26192""
","","","","","","691","<p> You will have 10 seconds to make each response.  </p><p>  Make sure to respond before time runs out! </p>","","0","instructions","","",""
"learning-instructions","15","77677","0.0-9.0-0.6","4125","approach_avoid_sv1","""event"",""trial"",""time""
""focus"",""0"",""1""
""fullscreenenter"",""1"",""6077""
""fullscreenexit"",""9"",""26192""
","
","""event"",""trial"",""time""
""focus"",""0"",""1""
","""event"",""trial"",""time""
""fullscreenenter"",""1"",""6077""
","""event"",""trial"",""time""
""fullscreenexit"",""9"",""26192""
","","","","","","529","<p> Today, you will see each image ONCE only.  </p><p>  That means none of the images will repeat. </p>","","0","instructions","","",""
"learning-instructions","16","90837","0.0-9.0-0.7","4125","approach_avoid_sv1","""event"",""trial"",""time""
""focus"",""0"",""1""
""fullscreenenter"",""1"",""6077""
""fullscreenexit"",""9"",""26192""
","
","""event"",""trial"",""time""
""focus"",""0"",""1""
","""event"",""trial"",""time""
""fullscreenenter"",""1"",""6077""
","""event"",""trial"",""time""
""fullscreenexit"",""9"",""26192""
","","","","","","477","<p> Before you play the real game, it is time to practice. </p><p>  Just like in the real game, some of the images in the practice will be ones you have seen before. </p><p>  Others will be entirely new. </p>","","0","instructions","","",""
"html-button-response","17","92908","0.0-10.0","4125","approach_avoid_sv1","""event"",""trial"",""time""
""focus"",""0"",""1""
""fullscreenenter"",""1"",""6077""
""fullscreenexit"",""9"",""26192""
","
","""event"",""trial"",""time""
""focus"",""0"",""1""
","""event"",""trial"",""time""
""fullscreenenter"",""1"",""6077""
","""event"",""trial"",""time""
""fullscreenexit"",""9"",""26192""
","","","","","","1970","<p> Ready to practice? </p><p> Remember, use the 1, 2, 3, and 4 keys to make your responses. </p>","0","","instructions","","",""
"html-keyboard-response","18","93512","0.0-11.0-0.0","4125","approach_avoid_sv1","""event"",""trial"",""time""
""focus"",""0"",""1""
""fullscreenenter"",""1"",""6077""
""fullscreenexit"",""9"",""26192""
","
","""event"",""trial"",""time""
""focus"",""0"",""1""
","""event"",""trial"",""time""
""fullscreenenter"",""1"",""6077""
","""event"",""trial"",""time""
""fullscreenexit"",""9"",""26192""
","","","","","","null","<div style=""font-size:60px;"">+</div>","null","","fixation","","",""
"memory-trial","19","97022","0.0-11.0-1.0","4125","approach_avoid_sv1","""event"",""trial"",""time""
""focus"",""0"",""1""
""fullscreenenter"",""1"",""6077""
""fullscreenexit"",""9"",""26192""
","
","""event"",""trial"",""time""
""focus"",""0"",""1""
","""event"",""trial"",""time""
""fullscreenenter"",""1"",""6077""
","""event"",""trial"",""time""
""fullscreenexit"",""9"",""26192""
","","","","","","2506","images/racket1.png","","","practice","2","maybe_old",""
"html-keyboard-response","20","97525","0.0-11.0-0.1","4125","approach_avoid_sv1","""event"",""trial"",""time""
""focus"",""0"",""1""
""fullscreenenter"",""1"",""6077""
""fullscreenexit"",""9"",""26192""
","
","""event"",""trial"",""time""
""focus"",""0"",""1""
","""event"",""trial"",""time""
""fullscreenenter"",""1"",""6077""
","""event"",""trial"",""time""
""fullscreenexit"",""9"",""26192""
","","","","","","null","<div style=""font-size:60px;"">+</div>","null","","fixation","","",""
"memory-trial","21","102910","0.0-11.0-1.1","4125","approach_avoid_sv1","""event"",""trial"",""time""
""focus"",""0"",""1""
""fullscreenenter"",""1"",""6077""
""fullscreenexit"",""9"",""26192""
","
","""event"",""trial"",""time""
""focus"",""0"",""1""
","""event"",""trial"",""time""
""fullscreenenter"",""1"",""6077""
","""event"",""trial"",""time""
""fullscreenexit"",""9"",""26192""
","","","","","","4382","images/racket2.png","","","practice","3","maybe_new",""
"html-keyboard-response","22","103412","0.0-11.0-0.2","4125","approach_avoid_sv1","""event"",""trial"",""time""
""focus"",""0"",""1""
""fullscreenenter"",""1"",""6077""
""fullscreenexit"",""9"",""26192""
","
","""event"",""trial"",""time""
""focus"",""0"",""1""
","""event"",""trial"",""time""
""fullscreenenter"",""1"",""6077""
","""event"",""trial"",""time""
""fullscreenexit"",""9"",""26192""
","","","","","","null","<div style=""font-size:60px;"">+</div>","null","","fixation","","",""
"memory-trial","23","106205","0.0-11.0-1.2","4125","approach_avoid_sv1","""event"",""trial"",""time""
""focus"",""0"",""1""
""fullscreenenter"",""1"",""6077""
""fullscreenexit"",""9"",""26192""
","
","""event"",""trial"",""time""
""focus"",""0"",""1""
","""event"",""trial"",""time""
""fullscreenenter"",""1"",""6077""
","""event"",""trial"",""time""
""fullscreenexit"",""9"",""26192""
","","","","","","1792","images/ball3.png","","","practice","3","maybe_new",""
"html-keyboard-response","24","106707","0.0-11.0-0.3","4125","approach_avoid_sv1","""event"",""trial"",""time""
""focus"",""0"",""1""
""fullscreenenter"",""1"",""6077""
""fullscreenexit"",""9"",""26192""
","
","""event"",""trial"",""time""
""focus"",""0"",""1""
","""event"",""trial"",""time""
""fullscreenenter"",""1"",""6077""
","""event"",""trial"",""time""
""fullscreenexit"",""9"",""26192""
","","","","","","null","<div style=""font-size:60px;"">+</div>","null","","fixation","","",""
"memory-trial","25","109645","0.0-11.0-1.3","4125","approach_avoid_sv1","""event"",""trial"",""time""
""focus"",""0"",""1""
""fullscreenenter"",""1"",""6077""
""fullscreenexit"",""9"",""26192""
","
","""event"",""trial"",""time""
""focus"",""0"",""1""
","""event"",""trial"",""time""
""fullscreenenter"",""1"",""6077""
","""event"",""trial"",""time""
""fullscreenexit"",""9"",""26192""
","","","","","","1936","images/ball1.png","","","practice","3","maybe_new",""
"html-keyboard-response","26","110147","0.0-11.0-0.4","4125","approach_avoid_sv1","""event"",""trial"",""time""
""focus"",""0"",""1""
""fullscreenenter"",""1"",""6077""
""fullscreenexit"",""9"",""26192""
","
","""event"",""trial"",""time""
""focus"",""0"",""1""
","""event"",""trial"",""time""
""fullscreenenter"",""1"",""6077""
","""event"",""trial"",""time""
""fullscreenexit"",""9"",""26192""
","","","","","","null","<div style=""font-size:60px;"">+</div>","null","","fixation","","",""
"memory-trial","27","113279","0.0-11.0-1.4","4125","approach_avoid_sv1","""event"",""trial"",""time""
""focus"",""0"",""1""
""fullscreenenter"",""1"",""6077""
""fullscreenexit"",""9"",""26192""
","
","""event"",""trial"",""time""
""focus"",""0"",""1""
","""event"",""trial"",""time""
""fullscreenenter"",""1"",""6077""
","""event"",""trial"",""time""
""fullscreenexit"",""9"",""26192""
","","","","","","2129","images/ball2.png","","","practice","1","definitely_old",""
"html-keyboard-response","28","113781","0.0-11.0-0.5","4125","approach_avoid_sv1","""event"",""trial"",""time""
""focus"",""0"",""1""
""fullscreenenter"",""1"",""6077""
""fullscreenexit"",""9"",""26192""
","
","""event"",""trial"",""time""
""focus"",""0"",""1""
","""event"",""trial"",""time""
""fullscreenenter"",""1"",""6077""
","""event"",""trial"",""time""
""fullscreenexit"",""9"",""26192""
","","","","","","null","<div style=""font-size:60px;"">+</div>","null","","fixation","","",""
"memory-trial","29","118092","0.0-11.0-1.5","4125","approach_avoid_sv1","""event"",""trial"",""time""
""focus"",""0"",""1""
""fullscreenenter"",""1"",""6077""
""fullscreenexit"",""9"",""26192""
","
","""event"",""trial"",""time""
""focus"",""0"",""1""
","""event"",""trial"",""time""
""fullscreenenter"",""1"",""6077""
","""event"",""trial"",""time""
""fullscreenexit"",""9"",""26192""
","","","","","","3310","images/racket5.png","","","practice","4","definitely_new",""
"html-keyboard-response","30","118595","0.0-11.0-0.6","4125","approach_avoid_sv1","""event"",""trial"",""time""
""focus"",""0"",""1""
""fullscreenenter"",""1"",""6077""
""fullscreenexit"",""9"",""26192""
","
","""event"",""trial"",""time""
""focus"",""0"",""1""
","""event"",""trial"",""time""
""fullscreenenter"",""1"",""6077""
","""event"",""trial"",""time""
""fullscreenexit"",""9"",""26192""
","","","","","","null","<div style=""font-size:60px;"">+</div>","null","","fixation","","",""
"memory-trial","31","120653","0.0-11.0-1.6","4125","approach_avoid_sv1","""event"",""trial"",""time""
""focus"",""0"",""1""
""fullscreenenter"",""1"",""6077""
""fullscreenexit"",""9"",""26192""
","
","""event"",""trial"",""time""
""focus"",""0"",""1""
","""event"",""trial"",""time""
""fullscreenenter"",""1"",""6077""
","""event"",""trial"",""time""
""fullscreenexit"",""9"",""26192""
","","","","","","1056","images/racket3.png","","","practice","4","definitely_new",""
"html-keyboard-response","32","121153","0.0-11.0-0.7","4125","approach_avoid_sv1","""event"",""trial"",""time""
""focus"",""0"",""1""
""fullscreenenter"",""1"",""6077""
""fullscreenexit"",""9"",""26192""
","
","""event"",""trial"",""time""
""focus"",""0"",""1""
","""event"",""trial"",""time""
""fullscreenenter"",""1"",""6077""
","""event"",""trial"",""time""
""fullscreenexit"",""9"",""26192""
","","","","","","null","<div style=""font-size:60px;"">+</div>","null","","fixation","","",""
"memory-trial","33","124046","0.0-11.0-1.7","4125","approach_avoid_sv1","""event"",""trial"",""time""
""focus"",""0"",""1""
""fullscreenenter"",""1"",""6077""
""fullscreenexit"",""9"",""26192""
","
","""event"",""trial"",""time""
""focus"",""0"",""1""
","""event"",""trial"",""time""
""fullscreenenter"",""1"",""6077""
","""event"",""trial"",""time""
""fullscreenexit"",""9"",""26192""
","","","","","","1889","images/ball5.png","","","practice","1","definitely_old",""
"learning-instructions","34","132324","0.0-12.0-0.0","4125","approach_avoid_sv1","""event"",""trial"",""time""
""focus"",""0"",""1""
""fullscreenenter"",""1"",""6077""
""fullscreenexit"",""9"",""26192""
","
","""event"",""trial"",""time""
""focus"",""0"",""1""
","""event"",""trial"",""time""
""fullscreenenter"",""1"",""6077""
","""event"",""trial"",""time""
""fullscreenexit"",""9"",""26192""
","","","","","","967","<p> Great! You have completed the practice. </p><p> Before you start, we're going to ask you a few questions about how the game works.  </p>","","0","instructions","","",""
"preload","35","135074","0.0-13.0","4125","approach_avoid_sv1","""event"",""trial"",""time""
""focus"",""0"",""1""
""fullscreenenter"",""1"",""6077""
""fullscreenexit"",""9"",""26192""
","
","""event"",""trial"",""time""
""focus"",""0"",""1""
","""event"",""trial"",""time""
""fullscreenenter"",""1"",""6077""
","""event"",""trial"",""time""
""fullscreenexit"",""9"",""26192""
","true","false","[]","[]","[]","","","","","","","",""
"comp-q","36","141701","0.0-14.0-0.0","4125","approach_avoid_sv1","""event"",""trial"",""time""
""focus"",""0"",""1""
""fullscreenenter"",""1"",""6077""
""fullscreenexit"",""9"",""26192""
","
","""event"",""trial"",""time""
""focus"",""0"",""1""
","""event"",""trial"",""time""
""fullscreenenter"",""1"",""6077""
","""event"",""trial"",""time""
""fullscreenexit"",""9"",""26192""
","","","","","","791","<p> <b> True or False? </b> </p><p> In this game, you will only see each image once. </p>","","0","comp_question","","","true"
"comp-q","37","148948","0.0-14.0-1.0","4125","approach_avoid_sv1","""event"",""trial"",""time""
""focus"",""0"",""1""
""fullscreenenter"",""1"",""6077""
""fullscreenexit"",""9"",""26192""
","
","""event"",""trial"",""time""
""focus"",""0"",""1""
","""event"",""trial"",""time""
""fullscreenenter"",""1"",""6077""
","""event"",""trial"",""time""
""fullscreenexit"",""9"",""26192""
","","","","","","900","<p> <b> That's right! </b> You will see many different images <i> one time each </i> in this game. </p>","","0","comp_answer","","",""
"comp-q","38","154595","0.0-15.0-0.0","4125","approach_avoid_sv1","""event"",""trial"",""time""
""focus"",""0"",""1""
""fullscreenenter"",""1"",""6077""
""fullscreenexit"",""9"",""26192""
","
","""event"",""trial"",""time""
""focus"",""0"",""1""
","""event"",""trial"",""time""
""fullscreenenter"",""1"",""6077""
","""event"",""trial"",""time""
""fullscreenexit"",""9"",""26192""
","","","","","","628","<p> <b> True or False? </b> </p><p> You should use the mouse and click to make your response. </p>","","1","comp_question","","","true"
"comp-q","39","161875","0.0-15.0-1.0","4125","approach_avoid_sv1","""event"",""trial"",""time""
""focus"",""0"",""1""
""fullscreenenter"",""1"",""6077""
""fullscreenexit"",""9"",""26192""
","
","""event"",""trial"",""time""
""focus"",""0"",""1""
","""event"",""trial"",""time""
""fullscreenenter"",""1"",""6077""
","""event"",""trial"",""time""
""fullscreenexit"",""9"",""26192""
","","","","","","768","<p><b> That's right! </b> You should use the '1', '2', '3', and '4' keys to make your response. </p>","","0","comp_answer","","",""
"comp-q","40","168492","0.0-16.0-0.0","4125","approach_avoid_sv1","""event"",""trial"",""time""
""focus"",""0"",""1""
""fullscreenenter"",""1"",""6077""
""fullscreenexit"",""9"",""26192""
","
","""event"",""trial"",""time""
""focus"",""0"",""1""
","""event"",""trial"",""time""
""fullscreenenter"",""1"",""6077""
","""event"",""trial"",""time""
""fullscreenexit"",""9"",""26192""
","","","","","","923","<p> <b> True or False? </b> </p><p> You will have as much time as you want to make each choice. </p>","","1","comp_question","","","true"
"comp-q","41","173972","0.0-16.0-1.0","4125","approach_avoid_sv1","""event"",""trial"",""time""
""focus"",""0"",""1""
""fullscreenenter"",""1"",""6077""
""fullscreenexit"",""9"",""26192""
","
","""event"",""trial"",""time""
""focus"",""0"",""1""
","""event"",""trial"",""time""
""fullscreenenter"",""1"",""6077""
","""event"",""trial"",""time""
""fullscreenexit"",""9"",""26192""
","","","","","","784","<p> <b> That's right! </b> You will only have 10 seconds to make each choice. </p>","","0","comp_answer","","",""
"learning-instructions","42","184300","0.0-17.0","4125","approach_avoid_sv1","""event"",""trial"",""time""
""focus"",""0"",""1""
""fullscreenenter"",""1"",""6077""
""fullscreenexit"",""9"",""26192""
","
","""event"",""trial"",""time""
""focus"",""0"",""1""
","""event"",""trial"",""time""
""fullscreenenter"",""1"",""6077""
","""event"",""trial"",""time""
""fullscreenexit"",""9"",""26192""
","","","","","","1652","<p> Great! You are now ready to begin the game. </p><p> Remember, use the 1, 2, 3, and 4 keys to make your responses. </p>","","0","instructions","","",""
"html-keyboard-response","43","184905","0.0-18.0-0.0","4125","approach_avoid_sv1","""event"",""trial"",""time""
""focus"",""0"",""1""
""fullscreenenter"",""1"",""6077""
""fullscreenexit"",""9"",""26192""
","
","""event"",""trial"",""time""
""focus"",""0"",""1""
","""event"",""trial"",""time""
""fullscreenenter"",""1"",""6077""
","""event"",""trial"",""time""
""fullscreenexit"",""9"",""26192""
","","","","","","null","<div style=""font-size:60px;"">+</div>","null","","fixation","","",""
"memory-trial","44","187901","0.0-18.0-1.0","4125","approach_avoid_sv1","""event"",""trial"",""time""
""focus"",""0"",""1""
""fullscreenenter"",""1"",""6077""
""fullscreenexit"",""9"",""26192""
","
","""event"",""trial"",""time""
""focus"",""0"",""1""
","""event"",""trial"",""time""
""fullscreenenter"",""1"",""6077""
","""event"",""trial"",""time""
""fullscreenexit"",""9"",""26192""
","","","","","","1993","images/flower8.png","","","memory_trial","4","definitely_new",""
"html-keyboard-response","45","188403","0.0-18.0-0.1","4125","approach_avoid_sv1","""event"",""trial"",""time""
""focus"",""0"",""1""
""fullscreenenter"",""1"",""6077""
""fullscreenexit"",""9"",""26192""
","
","""event"",""trial"",""time""
""focus"",""0"",""1""
","""event"",""trial"",""time""
""fullscreenenter"",""1"",""6077""
","""event"",""trial"",""time""
""fullscreenexit"",""9"",""26192""
","","","","","","null","<div style=""font-size:60px;"">+</div>","null","","fixation","","",""
"memory-trial","46","190798","0.0-18.0-1.1","4125","approach_avoid_sv1","""event"",""trial"",""time""
""focus"",""0"",""1""
""fullscreenenter"",""1"",""6077""
""fullscreenexit"",""9"",""26192""
","
","""event"",""trial"",""time""
""focus"",""0"",""1""
","""event"",""trial"",""time""
""fullscreenenter"",""1"",""6077""
","""event"",""trial"",""time""
""fullscreenexit"",""9"",""26192""
","","","","","","1392","images/cow1.png","","","memory_trial","4","definitely_new",""
"html-keyboard-response","47","191300","0.0-18.0-0.2","4125","approach_avoid_sv1","""event"",""trial"",""time""
""focus"",""0"",""1""
""fullscreenenter"",""1"",""6077""
""fullscreenexit"",""9"",""26192""
","
","""event"",""trial"",""time""
""focus"",""0"",""1""
","""event"",""trial"",""time""
""fullscreenenter"",""1"",""6077""
","""event"",""trial"",""time""
""fullscreenexit"",""9"",""26192""
","","","","","","null","<div style=""font-size:60px;"">+</div>","null","","fixation","","",""
"memory-trial","48","194028","0.0-18.0-1.2","4125","approach_avoid_sv1","""event"",""trial"",""time""
""focus"",""0"",""1""
""fullscreenenter"",""1"",""6077""
""fullscreenexit"",""9"",""26192""
","
","""event"",""trial"",""time""
""focus"",""0"",""1""
","""event"",""trial"",""time""
""fullscreenenter"",""1"",""6077""
","""event"",""trial"",""time""
""fullscreenexit"",""9"",""26192""
","","","","","","1725","images/sofa7.png","","","memory_trial","3","maybe_new",""
"html-keyboard-response","49","194529","0.0-18.0-0.3","4125","approach_avoid_sv1","""event"",""trial"",""time""
""focus"",""0"",""1""
""fullscreenenter"",""1"",""6077""
""fullscreenexit"",""9"",""26192""
","
","""event"",""trial"",""time""
""focus"",""0"",""1""
","""event"",""trial"",""time""
""fullscreenenter"",""1"",""6077""
","""event"",""trial"",""time""
""fullscreenexit"",""9"",""26192""
","","","","","","null","<div style=""font-size:60px;"">+</div>","null","","fixation","","",""
"memory-trial","50","197293","0.0-18.0-1.3","4125","approach_avoid_sv1","""event"",""trial"",""time""
""focus"",""0"",""1""
""fullscreenenter"",""1"",""6077""
""fullscreenexit"",""9"",""26192""
","
","""event"",""trial"",""time""
""focus"",""0"",""1""
","""event"",""trial"",""time""
""fullscreenenter"",""1"",""6077""
","""event"",""trial"",""time""
""fullscreenexit"",""9"",""26192""
","","","","","","1761","images/bed1.png","","","memory_trial","1","definitely_old",""
"html-keyboard-response","51","197794","0.0-18.0-0.4","4125","approach_avoid_sv1","""event"",""trial"",""time""
""focus"",""0"",""1""
""fullscreenenter"",""1"",""6077""
""fullscreenexit"",""9"",""26192""
","
","""event"",""trial"",""time""
""focus"",""0"",""1""
","""event"",""trial"",""time""
""fullscreenenter"",""1"",""6077""
","""event"",""trial"",""time""
""fullscreenexit"",""9"",""26192""
","","","","","","null","<div style=""font-size:60px;"">+</div>","null","","fixation","","",""
"memory-trial","52","201100","0.0-18.0-1.4","4125","approach_avoid_sv1","""event"",""trial"",""time""
""focus"",""0"",""1""
""fullscreenenter"",""1"",""6077""
""fullscreenexit"",""9"",""26192""
","
","""event"",""trial"",""time""
""focus"",""0"",""1""
","""event"",""trial"",""time""
""fullscreenenter"",""1"",""6077""
","""event"",""trial"",""time""
""fullscreenexit"",""9"",""26192""
","","","","","","2304","images/cat5.png","","","memory_trial","3","maybe_new",""
"html-keyboard-response","53","201602","0.0-18.0-0.5","4125","approach_avoid_sv1","""event"",""trial"",""time""
""focus"",""0"",""1""
""fullscreenenter"",""1"",""6077""
""fullscreenexit"",""9"",""26192""
","
","""event"",""trial"",""time""
""focus"",""0"",""1""
","""event"",""trial"",""time""
""fullscreenenter"",""1"",""6077""
","""event"",""trial"",""time""
""fullscreenexit"",""9"",""26192""
","","","","","","null","<div style=""font-size:60px;"">+</div>","null","","fixation","","",""
"memory-trial","54","204412","0.0-18.0-1.5","4125","approach_avoid_sv1","""event"",""trial"",""time""
""focus"",""0"",""1""
""fullscreenenter"",""1"",""6077""
""fullscreenexit"",""9"",""26192""
","
","""event"",""trial"",""time""
""focus"",""0"",""1""
","""event"",""trial"",""time""
""fullscreenenter"",""1"",""6077""
","""event"",""trial"",""time""
""fullscreenexit"",""9"",""26192""
","","","","","","1808","images/cat3.png","","","memory_trial","4","definitely_new",""
"html-keyboard-response","55","204913","0.0-18.0-0.6","4125","approach_avoid_sv1","""event"",""trial"",""time""
""focus"",""0"",""1""
""fullscreenenter"",""1"",""6077""
""fullscreenexit"",""9"",""26192""
","
","""event"",""trial"",""time""
""focus"",""0"",""1""
","""event"",""trial"",""time""
""fullscreenenter"",""1"",""6077""
","""event"",""trial"",""time""
""fullscreenexit"",""9"",""26192""
","","","","","","null","<div style=""font-size:60px;"">+</div>","null","","fixation","","",""
"memory-trial","56","207804","0.0-18.0-1.6","4125","approach_avoid_sv1","""event"",""trial"",""time""
""focus"",""0"",""1""
""fullscreenenter"",""1"",""6077""
""fullscreenexit"",""9"",""26192""
","
","""event"",""trial"",""time""
""focus"",""0"",""1""
","""event"",""trial"",""time""
""fullscreenenter"",""1"",""6077""
","""event"",""trial"",""time""
""fullscreenexit"",""9"",""26192""
","","","","","","1889","images/table2.png","","","memory_trial","3","maybe_new",""
"html-keyboard-response","57","208305","0.0-18.0-0.7","4125","approach_avoid_sv1","""event"",""trial"",""time""
""focus"",""0"",""1""
""fullscreenenter"",""1"",""6077""
""fullscreenexit"",""9"",""26192""
","
","""event"",""trial"",""time""
""focus"",""0"",""1""
","""event"",""trial"",""time""
""fullscreenenter"",""1"",""6077""
","""event"",""trial"",""time""
""fullscreenexit"",""9"",""26192""
","","","","","","null","<div style=""font-size:60px;"">+</div>","null","","fixation","","",""
"memory-trial","58","210956","0.0-18.0-1.7","4125","approach_avoid_sv1","""event"",""trial"",""time""
""focus"",""0"",""1""
""fullscreenenter"",""1"",""6077""
""fullscreenexit"",""9"",""26192""
","
","""event"",""trial"",""time""
""focus"",""0"",""1""
","""event"",""trial"",""time""
""fullscreenenter"",""1"",""6077""
","""event"",""trial"",""time""
""fullscreenexit"",""9"",""26192""
","","","","","","1650","images/horse1.png","","","memory_trial","1","definitely_old",""
"html-keyboard-response","59","211456","0.0-18.0-0.8","4125","approach_avoid_sv1","""event"",""trial"",""time""
""focus"",""0"",""1""
""fullscreenenter"",""1"",""6077""
""fullscreenexit"",""9"",""26192""
","
","""event"",""trial"",""time""
""focus"",""0"",""1""
","""event"",""trial"",""time""
""fullscreenenter"",""1"",""6077""
","""event"",""trial"",""time""
""fullscreenexit"",""9"",""26192""
","","","","","","null","<div style=""font-size:60px;"">+</div>","null","","fixation","","",""
"memory-trial","60","214107","0.0-18.0-1.8","4125","approach_avoid_sv1","""event"",""trial"",""time""
""focus"",""0"",""1""
""fullscreenenter"",""1"",""6077""
""fullscreenexit"",""9"",""26192""
","
","""event"",""trial"",""time""
""focus"",""0"",""1""
","""event"",""trial"",""time""
""fullscreenenter"",""1"",""6077""
","""event"",""trial"",""time""
""fullscreenexit"",""9"",""26192""
","","","","","","1649","images/table7.png","","","memory_trial","3","maybe_new",""
"html-keyboard-response","61","214608","0.0-18.0-0.9","4125","approach_avoid_sv1","""event"",""trial"",""time""
""focus"",""0"",""1""
""fullscreenenter"",""1"",""6077""
""fullscreenexit"",""9"",""26192""
","
","""event"",""trial"",""time""
""focus"",""0"",""1""
","""event"",""trial"",""time""
""fullscreenenter"",""1"",""6077""
","""event"",""trial"",""time""
""fullscreenexit"",""9"",""26192""
","","","","","","null","<div style=""font-size:60px;"">+</div>","null","","fixation","","",""
"memory-trial","62","217405","0.0-18.0-1.9","4125","approach_avoid_sv1","""event"",""trial"",""time""
""focus"",""0"",""1""
""fullscreenenter"",""1"",""6077""
""fullscreenexit"",""9"",""26192""
","
","""event"",""trial"",""time""
""focus"",""0"",""1""
","""event"",""trial"",""time""
""fullscreenenter"",""1"",""6077""
","""event"",""trial"",""time""
""fullscreenexit"",""9"",""26192""
","","","","","","1794","images/orange5.png","","","memory_trial","1","definitely_old",""
"html-keyboard-response","63","217908","0.0-18.0-0.10","4125","approach_avoid_sv1","""event"",""trial"",""time""
""focus"",""0"",""1""
""fullscreenenter"",""1"",""6077""
""fullscreenexit"",""9"",""26192""
","
","""event"",""trial"",""time""
""focus"",""0"",""1""
","""event"",""trial"",""time""
""fullscreenenter"",""1"",""6077""
","""event"",""trial"",""time""
""fullscreenexit"",""9"",""26192""
","","","","","","null","<div style=""font-size:60px;"">+</div>","null","","fixation","","",""
"memory-trial","64","220060","0.0-18.0-1.10","4125","approach_avoid_sv1","""event"",""trial"",""time""
""focus"",""0"",""1""
""fullscreenenter"",""1"",""6077""
""fullscreenexit"",""9"",""26192""
","
","""event"",""trial"",""time""
""focus"",""0"",""1""
","""event"",""trial"",""time""
""fullscreenenter"",""1"",""6077""
","""event"",""trial"",""time""
""fullscreenexit"",""9"",""26192""
","","","","","","1150","images/train4.png","","","memory_trial","1","definitely_old",""
"html-keyboard-response","65","220561","0.0-18.0-0.11","4125","approach_avoid_sv1","""event"",""trial"",""time""
""focus"",""0"",""1""
""fullscreenenter"",""1"",""6077""
""fullscreenexit"",""9"",""26192""
","
","""event"",""trial"",""time""
""focus"",""0"",""1""
","""event"",""trial"",""time""
""fullscreenenter"",""1"",""6077""
","""event"",""trial"",""time""
""fullscreenexit"",""9"",""26192""
","","","","","","null","<div style=""font-size:60px;"">+</div>","null","","fixation","","",""
"memory-trial","66","222460","0.0-18.0-1.11","4125","approach_avoid_sv1","""event"",""trial"",""time""
""focus"",""0"",""1""
""fullscreenenter"",""1"",""6077""
""fullscreenexit"",""9"",""26192""
","
","""event"",""trial"",""time""
""focus"",""0"",""1""
","""event"",""trial"",""time""
""fullscreenenter"",""1"",""6077""
","""event"",""trial"",""time""
""fullscreenexit"",""9"",""26192""
","","","","","","897","images/truck2.png","","","memory_trial","1","definitely_old",""
"html-keyboard-response","67","222961","0.0-18.0-0.12","4125","approach_avoid_sv1","""event"",""trial"",""time""
""focus"",""0"",""1""
""fullscreenenter"",""1"",""6077""
""fullscreenexit"",""9"",""26192""
","
","""event"",""trial"",""time""
""focus"",""0"",""1""
","""event"",""trial"",""time""
""fullscreenenter"",""1"",""6077""
","""event"",""trial"",""time""
""fullscreenexit"",""9"",""26192""
","","","","","","null","<div style=""font-size:60px;"">+</div>","null","","fixation","","",""
"memory-trial","68","224573","0.0-18.0-1.12","4125","approach_avoid_sv1","""event"",""trial"",""time""
""focus"",""0"",""1""
""fullscreenenter"",""1"",""6077""
""fullscreenexit"",""9"",""26192""
","
","""event"",""trial"",""time""
""focus"",""0"",""1""
","""event"",""trial"",""time""
""fullscreenenter"",""1"",""6077""
","""event"",""trial"",""time""
""fullscreenexit"",""9"",""26192""
","","","","","","608","images/train1.png","","","memory_trial","1","definitely_old",""
"html-keyboard-response","69","225074","0.0-18.0-0.13","4125","approach_avoid_sv1","""event"",""trial"",""time""
""focus"",""0"",""1""
""fullscreenenter"",""1"",""6077""
""fullscreenexit"",""9"",""26192""
","
","""event"",""trial"",""time""
""focus"",""0"",""1""
","""event"",""trial"",""time""
""fullscreenenter"",""1"",""6077""
","""event"",""trial"",""time""
""fullscreenexit"",""9"",""26192""
","","","","","","null","<div style=""font-size:60px;"">+</div>","null","","fixation","","",""
"memory-trial","70","227085","0.0-18.0-1.13","4125","approach_avoid_sv1","""event"",""trial"",""time""
""focus"",""0"",""1""
""fullscreenenter"",""1"",""6077""
""fullscreenexit"",""9"",""26192""
","
","""event"",""trial"",""time""
""focus"",""0"",""1""
","""event"",""trial"",""time""
""fullscreenenter"",""1"",""6077""
","""event"",""trial"",""time""
""fullscreenexit"",""9"",""26192""
","","","","","","1008","images/straw2.png","","","memory_trial","1","definitely_old",""
"html-keyboard-response","71","227586","0.0-18.0-0.14","4125","approach_avoid_sv1","""event"",""trial"",""time""
""focus"",""0"",""1""
""fullscreenenter"",""1"",""6077""
""fullscreenexit"",""9"",""26192""
","
","""event"",""trial"",""time""
""focus"",""0"",""1""
","""event"",""trial"",""time""
""fullscreenenter"",""1"",""6077""
","""event"",""trial"",""time""
""fullscreenexit"",""9"",""26192""
","","","","","","null","<div style=""font-size:60px;"">+</div>","null","","fixation","","",""
"memory-trial","72","229693","0.0-18.0-1.14","4125","approach_avoid_sv1","""event"",""trial"",""time""
""focus"",""0"",""1""
""fullscreenenter"",""1"",""6077""
""fullscreenexit"",""9"",""26192""
","
","""event"",""trial"",""time""
""focus"",""0"",""1""
","""event"",""trial"",""time""
""fullscreenenter"",""1"",""6077""
","""event"",""trial"",""time""
""fullscreenexit"",""9"",""26192""
","","","","","","1104","images/horse4.png","","","memory_trial","1","definitely_old",""
"html-keyboard-response","73","230194","0.0-18.0-0.15","4125","approach_avoid_sv1","""event"",""trial"",""time""
""focus"",""0"",""1""
""fullscreenenter"",""1"",""6077""
""fullscreenexit"",""9"",""26192""
","
","""event"",""trial"",""time""
""focus"",""0"",""1""
","""event"",""trial"",""time""
""fullscreenenter"",""1"",""6077""
","""event"",""trial"",""time""
""fullscreenexit"",""9"",""26192""
","","","","","","null","<div style=""font-size:60px;"">+</div>","null","","fixation","","",""
"memory-trial","74","233195","0.0-18.0-1.15","4125","approach_avoid_sv1","""event"",""trial"",""time""
""focus"",""0"",""1""
""fullscreenenter"",""1"",""6077""
""fullscreenexit"",""9"",""26192""
","
","""event"",""trial"",""time""
""focus"",""0"",""1""
","""event"",""trial"",""time""
""fullscreenenter"",""1"",""6077""
","""event"",""trial"",""time""
""fullscreenexit"",""9"",""26192""
","","","","","","2000","images/cat7.png","","","memory_trial","3","maybe_new",""
"html-keyboard-response","75","233698","0.0-18.0-0.16","4125","approach_avoid_sv1","""event"",""trial"",""time""
""focus"",""0"",""1""
""fullscreenenter"",""1"",""6077""
""fullscreenexit"",""9"",""26192""
","
","""event"",""trial"",""time""
""focus"",""0"",""1""
","""event"",""trial"",""time""
""fullscreenenter"",""1"",""6077""
","""event"",""trial"",""time""
""fullscreenexit"",""9"",""26192""
","","","","","","null","<div style=""font-size:60px;"">+</div>","null","","fixation","","",""
"memory-trial","76","236124","0.0-18.0-1.16","4125","approach_avoid_sv1","""event"",""trial"",""time""
""focus"",""0"",""1""
""fullscreenenter"",""1"",""6077""
""fullscreenexit"",""9"",""26192""
","
","""event"",""trial"",""time""
""focus"",""0"",""1""
","""event"",""trial"",""time""
""fullscreenenter"",""1"",""6077""
","""event"",""trial"",""time""
""fullscreenexit"",""9"",""26192""
","","","","","","1424","images/cactus5.png","","","memory_trial","1","definitely_old",""
"html-keyboard-response","77","236625","0.0-18.0-0.17","4125","approach_avoid_sv1","""event"",""trial"",""time""
""focus"",""0"",""1""
""fullscreenenter"",""1"",""6077""
""fullscreenexit"",""9"",""26192""
","
","""event"",""trial"",""time""
""focus"",""0"",""1""
","""event"",""trial"",""time""
""fullscreenenter"",""1"",""6077""
","""event"",""trial"",""time""
""fullscreenexit"",""9"",""26192""
","","","","","","null","<div style=""font-size:60px;"">+</div>","null","","fixation","","",""
"memory-trial","78","239436","0.0-18.0-1.17","4125","approach_avoid_sv1","""event"",""trial"",""time""
""focus"",""0"",""1""
""fullscreenenter"",""1"",""6077""
""fullscreenexit"",""9"",""26192""
","
","""event"",""trial"",""time""
""focus"",""0"",""1""
","""event"",""trial"",""time""
""fullscreenenter"",""1"",""6077""
","""event"",""trial"",""time""
""fullscreenexit"",""9"",""26192""
","","","","","","1809","images/table5.png","","","memory_trial","2","maybe_old",""
"html-keyboard-response","79","239937","0.0-18.0-0.18","4125","approach_avoid_sv1","""event"",""trial"",""time""
""focus"",""0"",""1""
""fullscreenenter"",""1"",""6077""
""fullscreenexit"",""9"",""26192""
","
","""event"",""trial"",""time""
""focus"",""0"",""1""
","""event"",""trial"",""time""
""fullscreenenter"",""1"",""6077""
","""event"",""trial"",""time""
""fullscreenexit"",""9"",""26192""
","","","","","","null","<div style=""font-size:60px;"">+</div>","null","","fixation","","",""
"memory-trial","80","242140","0.0-18.0-1.18","4125","approach_avoid_sv1","""event"",""trial"",""time""
""focus"",""0"",""1""
""fullscreenenter"",""1"",""6077""
""fullscreenexit"",""9"",""26192""
","
","""event"",""trial"",""time""
""focus"",""0"",""1""
","""event"",""trial"",""time""
""fullscreenenter"",""1"",""6077""
","""event"",""trial"",""time""
""fullscreenexit"",""9"",""26192""
","","","","","","1200","images/chair8.png","","","memory_trial","1","definitely_old",""
"html-keyboard-response","81","242641","0.0-18.0-0.19","4125","approach_avoid_sv1","""event"",""trial"",""time""
""focus"",""0"",""1""
""fullscreenenter"",""1"",""6077""
""fullscreenexit"",""9"",""26192""
","
","""event"",""trial"",""time""
""focus"",""0"",""1""
","""event"",""trial"",""time""
""fullscreenenter"",""1"",""6077""
","""event"",""trial"",""time""
""fullscreenexit"",""9"",""26192""
","","","","","","null","<div style=""font-size:60px;"">+</div>","null","","fixation","","",""
"memory-trial","82","245646","0.0-18.0-1.19","4125","approach_avoid_sv1","""event"",""trial"",""time""
""focus"",""0"",""1""
""fullscreenenter"",""1"",""6077""
""fullscreenexit"",""9"",""26192""
","
","""event"",""trial"",""time""
""focus"",""0"",""1""
","""event"",""trial"",""time""
""fullscreenenter"",""1"",""6077""
","""event"",""trial"",""time""
""fullscreenexit"",""9"",""26192""
","","","","","","2001","images/truck6.png","","","memory_trial","3","maybe_new",""
"html-keyboard-response","83","246146","0.0-18.0-0.20","4125","approach_avoid_sv1","""event"",""trial"",""time""
""focus"",""0"",""1""
""fullscreenenter"",""1"",""6077""
""fullscreenexit"",""9"",""26192""
","
","""event"",""trial"",""time""
""focus"",""0"",""1""
","""event"",""trial"",""time""
""fullscreenenter"",""1"",""6077""
","""event"",""trial"",""time""
""fullscreenexit"",""9"",""26192""
","","","","","","null","<div style=""font-size:60px;"">+</div>","null","","fixation","","",""
"memory-trial","84","248316","0.0-18.0-1.20","4125","approach_avoid_sv1","""event"",""trial"",""time""
""focus"",""0"",""1""
""fullscreenenter"",""1"",""6077""
""fullscreenexit"",""9"",""26192""
","
","""event"",""trial"",""time""
""focus"",""0"",""1""
","""event"",""trial"",""time""
""fullscreenenter"",""1"",""6077""
","""event"",""trial"",""time""
""fullscreenexit"",""9"",""26192""
","","","","","","1167","images/orange7.png","","","memory_trial","1","definitely_old",""
"html-keyboard-response","85","248816","0.0-18.0-0.21","4125","approach_avoid_sv1","""event"",""trial"",""time""
""focus"",""0"",""1""
""fullscreenenter"",""1"",""6077""
""fullscreenexit"",""9"",""26192""
","
","""event"",""trial"",""time""
""focus"",""0"",""1""
","""event"",""trial"",""time""
""fullscreenenter"",""1"",""6077""
","""event"",""trial"",""time""
""fullscreenexit"",""9"",""26192""
","","","","","","null","<div style=""font-size:60px;"">+</div>","null","","fixation","","",""
"memory-trial","86","251563","0.0-18.0-1.21","4125","approach_avoid_sv1","""event"",""trial"",""time""
""focus"",""0"",""1""
""fullscreenenter"",""1"",""6077""
""fullscreenexit"",""9"",""26192""
","
","""event"",""trial"",""time""
""focus"",""0"",""1""
","""event"",""trial"",""time""
""fullscreenenter"",""1"",""6077""
","""event"",""trial"",""time""
""fullscreenexit"",""9"",""26192""
","","","","","","1746","images/goat1.png","","","memory_trial","2","maybe_old",""
"html-keyboard-response","87","252064","0.0-18.0-0.22","4125","approach_avoid_sv1","""event"",""trial"",""time""
""focus"",""0"",""1""
""fullscreenenter"",""1"",""6077""
""fullscreenexit"",""9"",""26192""
","
","""event"",""trial"",""time""
""focus"",""0"",""1""
","""event"",""trial"",""time""
""fullscreenenter"",""1"",""6077""
","""event"",""trial"",""time""
""fullscreenexit"",""9"",""26192""
","","","","","","null","<div style=""font-size:60px;"">+</div>","null","","fixation","","",""
"memory-trial","88","253932","0.0-18.0-1.22","4125","approach_avoid_sv1","""event"",""trial"",""time""
""focus"",""0"",""1""
""fullscreenenter"",""1"",""6077""
""fullscreenexit"",""9"",""26192""
","
","""event"",""trial"",""time""
""focus"",""0"",""1""
","""event"",""trial"",""time""
""fullscreenenter"",""1"",""6077""
","""event"",""trial"",""time""
""fullscreenexit"",""9"",""26192""
","","","","","","866","images/sheep4.png","","","memory_trial","1","definitely_old",""
"html-keyboard-response","89","254433","0.0-18.0-0.23","4125","approach_avoid_sv1","""event"",""trial"",""time""
""focus"",""0"",""1""
""fullscreenenter"",""1"",""6077""
""fullscreenexit"",""9"",""26192""
","
","""event"",""trial"",""time""
""focus"",""0"",""1""
","""event"",""trial"",""time""
""fullscreenenter"",""1"",""6077""
","""event"",""trial"",""time""
""fullscreenexit"",""9"",""26192""
","","","","","","null","<div style=""font-size:60px;"">+</div>","null","","fixation","","",""
"memory-trial","90","256139","0.0-18.0-1.23","4125","approach_avoid_sv1","""event"",""trial"",""time""
""focus"",""0"",""1""
""fullscreenenter"",""1"",""6077""
""fullscreenexit"",""9"",""26192""
","
","""event"",""trial"",""time""
""focus"",""0"",""1""
","""event"",""trial"",""time""
""fullscreenenter"",""1"",""6077""
","""event"",""trial"",""time""
""fullscreenexit"",""9"",""26192""
","","","","","","704","images/straw3.png","","","memory_trial","1","definitely_old",""
"html-keyboard-response","91","256641","0.0-18.0-0.24","4125","approach_avoid_sv1","""event"",""trial"",""time""
""focus"",""0"",""1""
""fullscreenenter"",""1"",""6077""
""fullscreenexit"",""9"",""26192""
","
","""event"",""trial"",""time""
""focus"",""0"",""1""
","""event"",""trial"",""time""
""fullscreenenter"",""1"",""6077""
","""event"",""trial"",""time""
""fullscreenexit"",""9"",""26192""
","","","","","","null","<div style=""font-size:60px;"">+</div>","null","","fixation","","",""
"memory-trial","92","258845","0.0-18.0-1.24","4125","approach_avoid_sv1","""event"",""trial"",""time""
""focus"",""0"",""1""
""fullscreenenter"",""1"",""6077""
""fullscreenexit"",""9"",""26192""
","
","""event"",""trial"",""time""
""focus"",""0"",""1""
","""event"",""trial"",""time""
""fullscreenenter"",""1"",""6077""
","""event"",""trial"",""time""
""fullscreenexit"",""9"",""26192""
","","","","","","1201","images/goat4.png","","","memory_trial","2","maybe_old",""
"html-keyboard-response","93","259345","0.0-18.0-0.25","4125","approach_avoid_sv1","""event"",""trial"",""time""
""focus"",""0"",""1""
""fullscreenenter"",""1"",""6077""
""fullscreenexit"",""9"",""26192""
","
","""event"",""trial"",""time""
""focus"",""0"",""1""
","""event"",""trial"",""time""
""fullscreenenter"",""1"",""6077""
","""event"",""trial"",""time""
""fullscreenexit"",""9"",""26192""
","","","","","","null","<div style=""font-size:60px;"">+</div>","null","","fixation","","",""
"memory-trial","94","261115","0.0-18.0-1.25","4125","approach_avoid_sv1","""event"",""trial"",""time""
""focus"",""0"",""1""
""fullscreenenter"",""1"",""6077""
""fullscreenexit"",""9"",""26192""
","
","""event"",""trial"",""time""
""focus"",""0"",""1""
","""event"",""trial"",""time""
""fullscreenenter"",""1"",""6077""
","""event"",""trial"",""time""
""fullscreenexit"",""9"",""26192""
","","","","","","768","images/cactus7.png","","","memory_trial","1","definitely_old",""
"html-keyboard-response","95","261616","0.0-18.0-0.26","4125","approach_avoid_sv1","""event"",""trial"",""time""
""focus"",""0"",""1""
""fullscreenenter"",""1"",""6077""
""fullscreenexit"",""9"",""26192""
","
","""event"",""trial"",""time""
""focus"",""0"",""1""
","""event"",""trial"",""time""
""fullscreenenter"",""1"",""6077""
","""event"",""trial"",""time""
""fullscreenexit"",""9"",""26192""
","","","","","","null","<div style=""font-size:60px;"">+</div>","null","","fixation","","",""
"memory-trial","96","263820","0.0-18.0-1.26","4125","approach_avoid_sv1","""event"",""trial"",""time""
""focus"",""0"",""1""
""fullscreenenter"",""1"",""6077""
""fullscreenexit"",""9"",""26192""
","
","""event"",""trial"",""time""
""focus"",""0"",""1""
","""event"",""trial"",""time""
""fullscreenenter"",""1"",""6077""
","""event"",""trial"",""time""
""fullscreenexit"",""9"",""26192""
","","","","","","1201","images/train2.png","","","memory_trial","2","maybe_old",""
"html-keyboard-response","97","264322","0.0-18.0-0.27","4125","approach_avoid_sv1","""event"",""trial"",""time""
""focus"",""0"",""1""
""fullscreenenter"",""1"",""6077""
""fullscreenexit"",""9"",""26192""
","
","""event"",""trial"",""time""
""focus"",""0"",""1""
","""event"",""trial"",""time""
""fullscreenenter"",""1"",""6077""
","""event"",""trial"",""time""
""fullscreenexit"",""9"",""26192""
","","","","","","null","<div style=""font-size:60px;"">+</div>","null","","fixation","","",""
"memory-trial","98","266572","0.0-18.0-1.27","4125","approach_avoid_sv1","""event"",""trial"",""time""
""focus"",""0"",""1""
""fullscreenenter"",""1"",""6077""
""fullscreenexit"",""9"",""26192""
","
","""event"",""trial"",""time""
""focus"",""0"",""1""
","""event"",""trial"",""time""
""fullscreenenter"",""1"",""6077""
","""event"",""trial"",""time""
""fullscreenexit"",""9"",""26192""
","","","","","","1248","images/cat8.png","","","memory_trial","3","maybe_new",""
"html-keyboard-response","99","267074","0.0-18.0-0.28","4125","approach_avoid_sv1","""event"",""trial"",""time""
""focus"",""0"",""1""
""fullscreenenter"",""1"",""6077""
""fullscreenexit"",""9"",""26192""
","
","""event"",""trial"",""time""
""focus"",""0"",""1""
","""event"",""trial"",""time""
""fullscreenenter"",""1"",""6077""
","""event"",""trial"",""time""
""fullscreenexit"",""9"",""26192""
","","","","","","null","<div style=""font-size:60px;"">+</div>","null","","fixation","","",""
"memory-trial","100","269306","0.0-18.0-1.28","4125","approach_avoid_sv1","""event"",""trial"",""time""
""focus"",""0"",""1""
""fullscreenenter"",""1"",""6077""
""fullscreenexit"",""9"",""26192""
","
","""event"",""trial"",""time""
""focus"",""0"",""1""
","""event"",""trial"",""time""
""fullscreenenter"",""1"",""6077""
","""event"",""trial"",""time""
""fullscreenexit"",""9"",""26192""
","","","","","","1232","images/bush3.png","","","memory_trial","1","definitely_old",""
"html-keyboard-response","101","269808","0.0-18.0-0.29","4125","approach_avoid_sv1","""event"",""trial"",""time""
""focus"",""0"",""1""
""fullscreenenter"",""1"",""6077""
""fullscreenexit"",""9"",""26192""
","
","""event"",""trial"",""time""
""focus"",""0"",""1""
","""event"",""trial"",""time""
""fullscreenenter"",""1"",""6077""
","""event"",""trial"",""time""
""fullscreenexit"",""9"",""26192""
","","","","","","null","<div style=""font-size:60px;"">+</div>","null","","fixation","","",""
"memory-trial","102","272203","0.0-18.0-1.29","4125","approach_avoid_sv1","""event"",""trial"",""time""
""focus"",""0"",""1""
""fullscreenenter"",""1"",""6077""
""fullscreenexit"",""9"",""26192""
","
","""event"",""trial"",""time""
""focus"",""0"",""1""
","""event"",""trial"",""time""
""fullscreenenter"",""1"",""6077""
","""event"",""trial"",""time""
""fullscreenexit"",""9"",""26192""
","","","","","","1393","images/sofa5.png","","","memory_trial","2","maybe_old",""
"html-keyboard-response","103","272705","0.0-18.0-0.30","4125","approach_avoid_sv1","""event"",""trial"",""time""
""focus"",""0"",""1""
""fullscreenenter"",""1"",""6077""
""fullscreenexit"",""9"",""26192""
","
","""event"",""trial"",""time""
""focus"",""0"",""1""
","""event"",""trial"",""time""
""fullscreenenter"",""1"",""6077""
","""event"",""trial"",""time""
""fullscreenexit"",""9"",""26192""
","","","","","","null","<div style=""font-size:60px;"">+</div>","null","","fixation","","",""
"memory-trial","104","274843","0.0-18.0-1.30","4125","approach_avoid_sv1","""event"",""trial"",""time""
""focus"",""0"",""1""
""fullscreenenter"",""1"",""6077""
""fullscreenexit"",""9"",""26192""
","
","""event"",""trial"",""time""
""focus"",""0"",""1""
","""event"",""trial"",""time""
""fullscreenenter"",""1"",""6077""
","""event"",""trial"",""time""
""fullscreenexit"",""9"",""26192""
","","","","","","1136","images/chair5.png","","","memory_trial","2","maybe_old",""
"html-keyboard-response","105","275344","0.0-18.0-0.31","4125","approach_avoid_sv1","""event"",""trial"",""time""
""focus"",""0"",""1""
""fullscreenenter"",""1"",""6077""
""fullscreenexit"",""9"",""26192""
","
","""event"",""trial"",""time""
""focus"",""0"",""1""
","""event"",""trial"",""time""
""fullscreenenter"",""1"",""6077""
","""event"",""trial"",""time""
""fullscreenexit"",""9"",""26192""
","","","","","","null","<div style=""font-size:60px;"">+</div>","null","","fixation","","",""
"memory-trial","106","277757","0.0-18.0-1.31","4125","approach_avoid_sv1","""event"",""trial"",""time""
""focus"",""0"",""1""
""fullscreenenter"",""1"",""6077""
""fullscreenexit"",""9"",""26192""
","
","""event"",""trial"",""time""
""focus"",""0"",""1""
","""event"",""trial"",""time""
""fullscreenenter"",""1"",""6077""
","""event"",""trial"",""time""
""fullscreenexit"",""9"",""26192""
","","","","","","1410","images/sheep1.png","","","memory_trial","1","definitely_old",""
"html-keyboard-response","107","278258","0.0-18.0-0.32","4125","approach_avoid_sv1","""event"",""trial"",""time""
""focus"",""0"",""1""
""fullscreenenter"",""1"",""6077""
""fullscreenexit"",""9"",""26192""
","
","""event"",""trial"",""time""
""focus"",""0"",""1""
","""event"",""trial"",""time""
""fullscreenenter"",""1"",""6077""
","""event"",""trial"",""time""
""fullscreenexit"",""9"",""26192""
","","","","","","null","<div style=""font-size:60px;"">+</div>","null","","fixation","","",""
"memory-trial","108","280012","0.0-18.0-1.32","4125","approach_avoid_sv1","""event"",""trial"",""time""
""focus"",""0"",""1""
""fullscreenenter"",""1"",""6077""
""fullscreenexit"",""9"",""26192""
","
","""event"",""trial"",""time""
""focus"",""0"",""1""
","""event"",""trial"",""time""
""fullscreenenter"",""1"",""6077""
","""event"",""trial"",""time""
""fullscreenexit"",""9"",""26192""
","","","","","","752","images/tree3.png","","","memory_trial","1","definitely_old",""
"html-keyboard-response","109","280514","0.0-18.0-0.33","4125","approach_avoid_sv1","""event"",""trial"",""time""
""focus"",""0"",""1""
""fullscreenenter"",""1"",""6077""
""fullscreenexit"",""9"",""26192""
","
","""event"",""trial"",""time""
""focus"",""0"",""1""
","""event"",""trial"",""time""
""fullscreenenter"",""1"",""6077""
","""event"",""trial"",""time""
""fullscreenexit"",""9"",""26192""
","","","","","","null","<div style=""font-size:60px;"">+</div>","null","","fixation","","",""
"memory-trial","110","282379","0.0-18.0-1.33","4125","approach_avoid_sv1","""event"",""trial"",""time""
""focus"",""0"",""1""
""fullscreenenter"",""1"",""6077""
""fullscreenexit"",""9"",""26192""
","
","""event"",""trial"",""time""
""focus"",""0"",""1""
","""event"",""trial"",""time""
""fullscreenenter"",""1"",""6077""
","""event"",""trial"",""time""
""fullscreenexit"",""9"",""26192""
","","","","","","864","images/rodent5.png","","","memory_trial","1","definitely_old",""
"html-keyboard-response","111","282880","0.0-18.0-0.34","4125","approach_avoid_sv1","""event"",""trial"",""time""
""focus"",""0"",""1""
""fullscreenenter"",""1"",""6077""
""fullscreenexit"",""9"",""26192""
","
","""event"",""trial"",""time""
""focus"",""0"",""1""
","""event"",""trial"",""time""
""fullscreenenter"",""1"",""6077""
","""event"",""trial"",""time""
""fullscreenexit"",""9"",""26192""
","","","","","","null","<div style=""font-size:60px;"">+</div>","null","","fixation","","",""
"memory-trial","112","285434","0.0-18.0-1.34","4125","approach_avoid_sv1","""event"",""trial"",""time""
""focus"",""0"",""1""
""fullscreenenter"",""1"",""6077""
""fullscreenexit"",""9"",""26192""
","
","""event"",""trial"",""time""
""focus"",""0"",""1""
","""event"",""trial"",""time""
""fullscreenenter"",""1"",""6077""
","""event"",""trial"",""time""
""fullscreenexit"",""9"",""26192""
","","","","","","1553","images/boat6.png","","","memory_trial","3","maybe_new",""
"html-keyboard-response","113","285936","0.0-18.0-0.35","4125","approach_avoid_sv1","""event"",""trial"",""time""
""focus"",""0"",""1""
""fullscreenenter"",""1"",""6077""
""fullscreenexit"",""9"",""26192""
","
","""event"",""trial"",""time""
""focus"",""0"",""1""
","""event"",""trial"",""time""
""fullscreenenter"",""1"",""6077""
","""event"",""trial"",""time""
""fullscreenexit"",""9"",""26192""
","","","","","","null","<div style=""font-size:60px;"">+</div>","null","","fixation","","",""
"memory-trial","114","287917","0.0-18.0-1.35","4125","approach_avoid_sv1","""event"",""trial"",""time""
""focus"",""0"",""1""
""fullscreenenter"",""1"",""6077""
""fullscreenexit"",""9"",""26192""
","
","""event"",""trial"",""time""
""focus"",""0"",""1""
","""event"",""trial"",""time""
""fullscreenenter"",""1"",""6077""
","""event"",""trial"",""time""
""fullscreenexit"",""9"",""26192""
","","","","","","978","images/horse8.png","","","memory_trial","1","definitely_old",""
"html-keyboard-response","115","288418","0.0-18.0-0.36","4125","approach_avoid_sv1","""event"",""trial"",""time""
""focus"",""0"",""1""
""fullscreenenter"",""1"",""6077""
""fullscreenexit"",""9"",""26192""
","
","""event"",""trial"",""time""
""focus"",""0"",""1""
","""event"",""trial"",""time""
""fullscreenenter"",""1"",""6077""
","""event"",""trial"",""time""
""fullscreenexit"",""9"",""26192""
","","","","","","null","<div style=""font-size:60px;"">+</div>","null","","fixation","","",""
"memory-trial","116","291739","0.0-18.0-1.36","4125","approach_avoid_sv1","""event"",""trial"",""time""
""focus"",""0"",""1""
""fullscreenenter"",""1"",""6077""
""fullscreenexit"",""9"",""26192""
","
","""event"",""trial"",""time""
""focus"",""0"",""1""
","""event"",""trial"",""time""
""fullscreenenter"",""1"",""6077""
","""event"",""trial"",""time""
""fullscreenexit"",""9"",""26192""
","","","","","","2321","images/banana4.png","","","memory_trial","4","definitely_new",""
"html-keyboard-response","117","292242","0.0-18.0-0.37","4125","approach_avoid_sv1","""event"",""trial"",""time""
""focus"",""0"",""1""
""fullscreenenter"",""1"",""6077""
""fullscreenexit"",""9"",""26192""
","
","""event"",""trial"",""time""
""focus"",""0"",""1""
","""event"",""trial"",""time""
""fullscreenenter"",""1"",""6077""
","""event"",""trial"",""time""
""fullscreenexit"",""9"",""26192""
","","","","","","null","<div style=""font-size:60px;"">+</div>","null","","fixation","","",""
"memory-trial","118","294989","0.0-18.0-1.37","4125","approach_avoid_sv1","""event"",""trial"",""time""
""focus"",""0"",""1""
""fullscreenenter"",""1"",""6077""
""fullscreenexit"",""9"",""26192""
","
","""event"",""trial"",""time""
""focus"",""0"",""1""
","""event"",""trial"",""time""
""fullscreenenter"",""1"",""6077""
","""event"",""trial"",""time""
""fullscreenexit"",""9"",""26192""
","","","","","","1744","images/cactus3.png","","","memory_trial","3","maybe_new",""
"html-keyboard-response","119","295489","0.0-18.0-0.38","4125","approach_avoid_sv1","""event"",""trial"",""time""
""focus"",""0"",""1""
""fullscreenenter"",""1"",""6077""
""fullscreenexit"",""9"",""26192""
","
","""event"",""trial"",""time""
""focus"",""0"",""1""
","""event"",""trial"",""time""
""fullscreenenter"",""1"",""6077""
","""event"",""trial"",""time""
""fullscreenexit"",""9"",""26192""
","","","","","","null","<div style=""font-size:60px;"">+</div>","null","","fixation","","",""
"memory-trial","120","297771","0.0-18.0-1.38","4125","approach_avoid_sv1","""event"",""trial"",""time""
""focus"",""0"",""1""
""fullscreenenter"",""1"",""6077""
""fullscreenexit"",""9"",""26192""
","
","""event"",""trial"",""time""
""focus"",""0"",""1""
","""event"",""trial"",""time""
""fullscreenenter"",""1"",""6077""
","""event"",""trial"",""time""
""fullscreenexit"",""9"",""26192""
","","","","","","1281","images/cow7.png","","","memory_trial","3","maybe_new",""
"html-keyboard-response","121","298273","0.0-18.0-0.39","4125","approach_avoid_sv1","""event"",""trial"",""time""
""focus"",""0"",""1""
""fullscreenenter"",""1"",""6077""
""fullscreenexit"",""9"",""26192""
","
","""event"",""trial"",""time""
""focus"",""0"",""1""
","""event"",""trial"",""time""
""fullscreenenter"",""1"",""6077""
","""event"",""trial"",""time""
""fullscreenexit"",""9"",""26192""
","","","","","","null","<div style=""font-size:60px;"">+</div>","null","","fixation","","",""
"memory-trial","122","300747","0.0-18.0-1.39","4125","approach_avoid_sv1","""event"",""trial"",""time""
""focus"",""0"",""1""
""fullscreenenter"",""1"",""6077""
""fullscreenexit"",""9"",""26192""
","
","""event"",""trial"",""time""
""focus"",""0"",""1""
","""event"",""trial"",""time""
""fullscreenenter"",""1"",""6077""
","""event"",""trial"",""time""
""fullscreenexit"",""9"",""26192""
","","","","","","1472","images/boat3.png","","","memory_trial","4","definitely_new",""
"html-keyboard-response","123","301248","0.0-18.0-0.40","4125","approach_avoid_sv1","""event"",""trial"",""time""
""focus"",""0"",""1""
""fullscreenenter"",""1"",""6077""
""fullscreenexit"",""9"",""26192""
","
","""event"",""trial"",""time""
""focus"",""0"",""1""
","""event"",""trial"",""time""
""fullscreenenter"",""1"",""6077""
","""event"",""trial"",""time""
""fullscreenexit"",""9"",""26192""
","","","","","","null","<div style=""font-size:60px;"">+</div>","null","","fixation","","",""
"memory-trial","124","303291","0.0-18.0-1.40","4125","approach_avoid_sv1","""event"",""trial"",""time""
""focus"",""0"",""1""
""fullscreenenter"",""1"",""6077""
""fullscreenexit"",""9"",""26192""
","
","""event"",""trial"",""time""
""focus"",""0"",""1""
","""event"",""trial"",""time""
""fullscreenenter"",""1"",""6077""
","""event"",""trial"",""time""
""fullscreenexit"",""9"",""26192""
","","","","","","1041","images/banana1.png","","","memory_trial","4","definitely_new",""
"html-keyboard-response","125","303791","0.0-18.0-0.41","4125","approach_avoid_sv1","""event"",""trial"",""time""
""focus"",""0"",""1""
""fullscreenenter"",""1"",""6077""
""fullscreenexit"",""9"",""26192""
","
","""event"",""trial"",""time""
""focus"",""0"",""1""
","""event"",""trial"",""time""
""fullscreenenter"",""1"",""6077""
","""event"",""trial"",""time""
""fullscreenexit"",""9"",""26192""
","","","","","","null","<div style=""font-size:60px;"">+</div>","null","","fixation","","",""
"memory-trial","126","306796","0.0-18.0-1.41","4125","approach_avoid_sv1","""event"",""trial"",""time""
""focus"",""0"",""1""
""fullscreenenter"",""1"",""6077""
""fullscreenexit"",""9"",""26192""
","
","""event"",""trial"",""time""
""focus"",""0"",""1""
","""event"",""trial"",""time""
""fullscreenenter"",""1"",""6077""
","""event"",""trial"",""time""
""fullscreenexit"",""9"",""26192""
","","","","","","2002","images/train6.png","","","memory_trial","2","maybe_old",""
"html-button-response","127","308243","0.0-18.0-2.41-0.41","4125","approach_avoid_sv1","""event"",""trial"",""time""
""focus"",""0"",""1""
""fullscreenenter"",""1"",""6077""
""fullscreenexit"",""9"",""26192""
","
","""event"",""trial"",""time""
""focus"",""0"",""1""
","""event"",""trial"",""time""
""fullscreenenter"",""1"",""6077""
","""event"",""trial"",""time""
""fullscreenexit"",""9"",""26192""
","","","","","","1446","<p> Take a break! </p><p> Click the button to continue. </p>","0","","break","","",""
"html-keyboard-response","128","308743","0.0-18.0-0.42","4125","approach_avoid_sv1","""event"",""trial"",""time""
""focus"",""0"",""1""
""fullscreenenter"",""1"",""6077""
""fullscreenexit"",""9"",""26192""
","
","""event"",""trial"",""time""
""focus"",""0"",""1""
","""event"",""trial"",""time""
""fullscreenenter"",""1"",""6077""
","""event"",""trial"",""time""
""fullscreenexit"",""9"",""26192""
","","","","","","null","<div style=""font-size:60px;"">+</div>","null","","fixation","","",""
"memory-trial","129","311692","0.0-18.0-1.42","4125","approach_avoid_sv1","""event"",""trial"",""time""
""focus"",""0"",""1""
""fullscreenenter"",""1"",""6077""
""fullscreenexit"",""9"",""26192""
","
","""event"",""trial"",""time""
""focus"",""0"",""1""
","""event"",""trial"",""time""
""fullscreenenter"",""1"",""6077""
","""event"",""trial"",""time""
""fullscreenexit"",""9"",""26192""
","","","","","","1946","images/tree8.png","","","memory_trial","1","definitely_old",""
"html-keyboard-response","130","312193","0.0-18.0-0.43","4125","approach_avoid_sv1","""event"",""trial"",""time""
""focus"",""0"",""1""
""fullscreenenter"",""1"",""6077""
""fullscreenexit"",""9"",""26192""
","
","""event"",""trial"",""time""
""focus"",""0"",""1""
","""event"",""trial"",""time""
""fullscreenenter"",""1"",""6077""
","""event"",""trial"",""time""
""fullscreenexit"",""9"",""26192""
","","","","","","null","<div style=""font-size:60px;"">+</div>","null","","fixation","","",""
"memory-trial","131","314796","0.0-18.0-1.43","4125","approach_avoid_sv1","""event"",""trial"",""time""
""focus"",""0"",""1""
""fullscreenenter"",""1"",""6077""
""fullscreenexit"",""9"",""26192""
","
","""event"",""trial"",""time""
""focus"",""0"",""1""
","""event"",""trial"",""time""
""fullscreenenter"",""1"",""6077""
","""event"",""trial"",""time""
""fullscreenexit"",""9"",""26192""
","","","","","","1602","images/chair2.png","","","memory_trial","2","maybe_old",""
"html-keyboard-response","132","315297","0.0-18.0-0.44","4125","approach_avoid_sv1","""event"",""trial"",""time""
""focus"",""0"",""1""
""fullscreenenter"",""1"",""6077""
""fullscreenexit"",""9"",""26192""
","
","""event"",""trial"",""time""
""focus"",""0"",""1""
","""event"",""trial"",""time""
""fullscreenenter"",""1"",""6077""
","""event"",""trial"",""time""
""fullscreenexit"",""9"",""26192""
","","","","","","null","<div style=""font-size:60px;"">+</div>","null","","fixation","","",""
"memory-trial","133","317242","0.0-18.0-1.44","4125","approach_avoid_sv1","""event"",""trial"",""time""
""focus"",""0"",""1""
""fullscreenenter"",""1"",""6077""
""fullscreenexit"",""9"",""26192""
","
","""event"",""trial"",""time""
""focus"",""0"",""1""
","""event"",""trial"",""time""
""fullscreenenter"",""1"",""6077""
","""event"",""trial"",""time""
""fullscreenexit"",""9"",""26192""
","","","","","","945","images/chair3.png","","","memory_trial","1","definitely_old",""
"html-keyboard-response","134","317742","0.0-18.0-0.45","4125","approach_avoid_sv1","""event"",""trial"",""time""
""focus"",""0"",""1""
""fullscreenenter"",""1"",""6077""
""fullscreenexit"",""9"",""26192""
","
","""event"",""trial"",""time""
""focus"",""0"",""1""
","""event"",""trial"",""time""
""fullscreenenter"",""1"",""6077""
","""event"",""trial"",""time""
""fullscreenexit"",""9"",""26192""
","","","","","","null","<div style=""font-size:60px;"">+</div>","null","","fixation","","",""
"memory-trial","135","319660","0.0-18.0-1.45","4125","approach_avoid_sv1","""event"",""trial"",""time""
""focus"",""0"",""1""
""fullscreenenter"",""1"",""6077""
""fullscreenexit"",""9"",""26192""
","
","""event"",""trial"",""time""
""focus"",""0"",""1""
","""event"",""trial"",""time""
""fullscreenenter"",""1"",""6077""
","""event"",""trial"",""time""
""fullscreenexit"",""9"",""26192""
","","","","","","914","images/bush7.png","","","memory_trial","1","definitely_old",""
"html-keyboard-response","136","320161","0.0-18.0-0.46","4125","approach_avoid_sv1","""event"",""trial"",""time""
""focus"",""0"",""1""
""fullscreenenter"",""1"",""6077""
""fullscreenexit"",""9"",""26192""
","
","""event"",""trial"",""time""
""focus"",""0"",""1""
","""event"",""trial"",""time""
""fullscreenenter"",""1"",""6077""
","""event"",""trial"",""time""
""fullscreenexit"",""9"",""26192""
","","","","","","null","<div style=""font-size:60px;"">+</div>","null","","fixation","","",""
"memory-trial","137","322749","0.0-18.0-1.46","4125","approach_avoid_sv1","""event"",""trial"",""time""
""focus"",""0"",""1""
""fullscreenenter"",""1"",""6077""
""fullscreenexit"",""9"",""26192""
","
","""event"",""trial"",""time""
""focus"",""0"",""1""
","""event"",""trial"",""time""
""fullscreenenter"",""1"",""6077""
","""event"",""trial"",""time""
""fullscreenexit"",""9"",""26192""
","","","","","","1583","images/cactus2.png","","","memory_trial","2","maybe_old",""
"html-keyboard-response","138","323251","0.0-18.0-0.47","4125","approach_avoid_sv1","""event"",""trial"",""time""
""focus"",""0"",""1""
""fullscreenenter"",""1"",""6077""
""fullscreenexit"",""9"",""26192""
","
","""event"",""trial"",""time""
""focus"",""0"",""1""
","""event"",""trial"",""time""
""fullscreenenter"",""1"",""6077""
","""event"",""trial"",""time""
""fullscreenexit"",""9"",""26192""
","","","","","","null","<div style=""font-size:60px;"">+</div>","null","","fixation","","",""
"memory-trial","139","325435","0.0-18.0-1.47","4125","approach_avoid_sv1","""event"",""trial"",""time""
""focus"",""0"",""1""
""fullscreenenter"",""1"",""6077""
""fullscreenexit"",""9"",""26192""
","
","""event"",""trial"",""time""
""focus"",""0"",""1""
","""event"",""trial"",""time""
""fullscreenenter"",""1"",""6077""
","""event"",""trial"",""time""
""fullscreenexit"",""9"",""26192""
","","","","","","1183","images/goat2.png","","","memory_trial","1","definitely_old",""
"html-keyboard-response","140","325936","0.0-18.0-0.48","4125","approach_avoid_sv1","""event"",""trial"",""time""
""focus"",""0"",""1""
""fullscreenenter"",""1"",""6077""
""fullscreenexit"",""9"",""26192""
","
","""event"",""trial"",""time""
""focus"",""0"",""1""
","""event"",""trial"",""time""
""fullscreenenter"",""1"",""6077""
","""event"",""trial"",""time""
""fullscreenexit"",""9"",""26192""
","","","","","","null","<div style=""font-size:60px;"">+</div>","null","","fixation","","",""
"memory-trial","141","327978","0.0-18.0-1.48","4125","approach_avoid_sv1","""event"",""trial"",""time""
""focus"",""0"",""1""
""fullscreenenter"",""1"",""6077""
""fullscreenexit"",""9"",""26192""
","
","""event"",""trial"",""time""
""focus"",""0"",""1""
","""event"",""trial"",""time""
""fullscreenenter"",""1"",""6077""
","""event"",""trial"",""time""
""fullscreenexit"",""9"",""26192""
","","","","","","1041","images/apple8.png","","","memory_trial","1","definitely_old",""
"html-keyboard-response","142","328480","0.0-18.0-0.49","4125","approach_avoid_sv1","""event"",""trial"",""time""
""focus"",""0"",""1""
""fullscreenenter"",""1"",""6077""
""fullscreenexit"",""9"",""26192""
","
","""event"",""trial"",""time""
""focus"",""0"",""1""
","""event"",""trial"",""time""
""fullscreenenter"",""1"",""6077""
","""event"",""trial"",""time""
""fullscreenexit"",""9"",""26192""
","","","","","","null","<div style=""font-size:60px;"">+</div>","null","","fixation","","",""
"memory-trial","143","330315","0.0-18.0-1.49","4125","approach_avoid_sv1","""event"",""trial"",""time""
""focus"",""0"",""1""
""fullscreenenter"",""1"",""6077""
""fullscreenexit"",""9"",""26192""
","
","""event"",""trial"",""time""
""focus"",""0"",""1""
","""event"",""trial"",""time""
""fullscreenenter"",""1"",""6077""
","""event"",""trial"",""time""
""fullscreenexit"",""9"",""26192""
","","","","","","834","images/chair1.png","","","memory_trial","1","definitely_old",""
"html-keyboard-response","144","330816","0.0-18.0-0.50","4125","approach_avoid_sv1","""event"",""trial"",""time""
""focus"",""0"",""1""
""fullscreenenter"",""1"",""6077""
""fullscreenexit"",""9"",""26192""
","
","""event"",""trial"",""time""
""focus"",""0"",""1""
","""event"",""trial"",""time""
""fullscreenenter"",""1"",""6077""
","""event"",""trial"",""time""
""fullscreenexit"",""9"",""26192""
","","","","","","null","<div style=""font-size:60px;"">+</div>","null","","fixation","","",""
"memory-trial","145","333066","0.0-18.0-1.50","4125","approach_avoid_sv1","""event"",""trial"",""time""
""focus"",""0"",""1""
""fullscreenenter"",""1"",""6077""
""fullscreenexit"",""9"",""26192""
","
","""event"",""trial"",""time""
""focus"",""0"",""1""
","""event"",""trial"",""time""
""fullscreenenter"",""1"",""6077""
","""event"",""trial"",""time""
""fullscreenexit"",""9"",""26192""
","","","","","","1249","images/cow4.png","","","memory_trial","3","maybe_new",""
"html-keyboard-response","146","333566","0.0-18.0-0.51","4125","approach_avoid_sv1","""event"",""trial"",""time""
""focus"",""0"",""1""
""fullscreenenter"",""1"",""6077""
""fullscreenexit"",""9"",""26192""
","
","""event"",""trial"",""time""
""focus"",""0"",""1""
","""event"",""trial"",""time""
""fullscreenenter"",""1"",""6077""
","""event"",""trial"",""time""
""fullscreenexit"",""9"",""26192""
","","","","","","null","<div style=""font-size:60px;"">+</div>","null","","fixation","","",""
"memory-trial","147","335546","0.0-18.0-1.51","4125","approach_avoid_sv1","""event"",""trial"",""time""
""focus"",""0"",""1""
""fullscreenenter"",""1"",""6077""
""fullscreenexit"",""9"",""26192""
","
","""event"",""trial"",""time""
""focus"",""0"",""1""
","""event"",""trial"",""time""
""fullscreenenter"",""1"",""6077""
","""event"",""trial"",""time""
""fullscreenexit"",""9"",""26192""
","","","","","","979","images/sheep2.png","","","memory_trial","1","definitely_old",""
"html-keyboard-response","148","336048","0.0-18.0-0.52","4125","approach_avoid_sv1","""event"",""trial"",""time""
""focus"",""0"",""1""
""fullscreenenter"",""1"",""6077""
""fullscreenexit"",""9"",""26192""
","
","""event"",""trial"",""time""
""focus"",""0"",""1""
","""event"",""trial"",""time""
""fullscreenenter"",""1"",""6077""
","""event"",""trial"",""time""
""fullscreenexit"",""9"",""26192""
","","","","","","null","<div style=""font-size:60px;"">+</div>","null","","fixation","","",""
"memory-trial","149","338139","0.0-18.0-1.52","4125","approach_avoid_sv1","""event"",""trial"",""time""
""focus"",""0"",""1""
""fullscreenenter"",""1"",""6077""
""fullscreenexit"",""9"",""26192""
","
","""event"",""trial"",""time""
""focus"",""0"",""1""
","""event"",""trial"",""time""
""fullscreenenter"",""1"",""6077""
","""event"",""trial"",""time""
""fullscreenexit"",""9"",""26192""
","","","","","","1090","images/rabbit7.png","","","memory_trial","1","definitely_old",""
"html-keyboard-response","150","338641","0.0-18.0-0.53","4125","approach_avoid_sv1","""event"",""trial"",""time""
""focus"",""0"",""1""
""fullscreenenter"",""1"",""6077""
""fullscreenexit"",""9"",""26192""
","
","""event"",""trial"",""time""
""focus"",""0"",""1""
","""event"",""trial"",""time""
""fullscreenenter"",""1"",""6077""
","""event"",""trial"",""time""
""fullscreenexit"",""9"",""26192""
","","","","","","null","<div style=""font-size:60px;"">+</div>","null","","fixation","","",""
"memory-trial","151","341260","0.0-18.0-1.53","4125","approach_avoid_sv1","""event"",""trial"",""time""
""focus"",""0"",""1""
""fullscreenenter"",""1"",""6077""
""fullscreenexit"",""9"",""26192""
","
","""event"",""trial"",""time""
""focus"",""0"",""1""
","""event"",""trial"",""time""
""fullscreenenter"",""1"",""6077""
","""event"",""trial"",""time""
""fullscreenexit"",""9"",""26192""
","","","","","","1615","images/boat2.png","","","memory_trial","2","maybe_old",""
"html-keyboard-response","152","341761","0.0-18.0-0.54","4125","approach_avoid_sv1","""event"",""trial"",""time""
""focus"",""0"",""1""
""fullscreenenter"",""1"",""6077""
""fullscreenexit"",""9"",""26192""
","
","""event"",""trial"",""time""
""focus"",""0"",""1""
","""event"",""trial"",""time""
""fullscreenenter"",""1"",""6077""
","""event"",""trial"",""time""
""fullscreenexit"",""9"",""26192""
","","","","","","null","<div style=""font-size:60px;"">+</div>","null","","fixation","","",""
"memory-trial","153","343773","0.0-18.0-1.54","4125","approach_avoid_sv1","""event"",""trial"",""time""
""focus"",""0"",""1""
""fullscreenenter"",""1"",""6077""
""fullscreenexit"",""9"",""26192""
","
","""event"",""trial"",""time""
""focus"",""0"",""1""
","""event"",""trial"",""time""
""fullscreenenter"",""1"",""6077""
","""event"",""trial"",""time""
""fullscreenexit"",""9"",""26192""
","","","","","","1008","images/cactus8.png","","","memory_trial","1","definitely_old",""
"html-keyboard-response","154","344275","0.0-18.0-0.55","4125","approach_avoid_sv1","""event"",""trial"",""time""
""focus"",""0"",""1""
""fullscreenenter"",""1"",""6077""
""fullscreenexit"",""9"",""26192""
","
","""event"",""trial"",""time""
""focus"",""0"",""1""
","""event"",""trial"",""time""
""fullscreenenter"",""1"",""6077""
","""event"",""trial"",""time""
""fullscreenexit"",""9"",""26192""
","","","","","","null","<div style=""font-size:60px;"">+</div>","null","","fixation","","",""
"memory-trial","155","346699","0.0-18.0-1.55","4125","approach_avoid_sv1","""event"",""trial"",""time""
""focus"",""0"",""1""
""fullscreenenter"",""1"",""6077""
""fullscreenexit"",""9"",""26192""
","
","""event"",""trial"",""time""
""focus"",""0"",""1""
","""event"",""trial"",""time""
""fullscreenenter"",""1"",""6077""
","""event"",""trial"",""time""
""fullscreenexit"",""9"",""26192""
","","","","","","1422","images/rabbit3.png","","","memory_trial","3","maybe_new",""
"html-keyboard-response","156","347200","0.0-18.0-0.56","4125","approach_avoid_sv1","""event"",""trial"",""time""
""focus"",""0"",""1""
""fullscreenenter"",""1"",""6077""
""fullscreenexit"",""9"",""26192""
","
","""event"",""trial"",""time""
""focus"",""0"",""1""
","""event"",""trial"",""time""
""fullscreenenter"",""1"",""6077""
","""event"",""trial"",""time""
""fullscreenexit"",""9"",""26192""
","","","","","","null","<div style=""font-size:60px;"">+</div>","null","","fixation","","",""
"memory-trial","157","349435","0.0-18.0-1.56","4125","approach_avoid_sv1","""event"",""trial"",""time""
""focus"",""0"",""1""
""fullscreenenter"",""1"",""6077""
""fullscreenexit"",""9"",""26192""
","
","""event"",""trial"",""time""
""focus"",""0"",""1""
","""event"",""trial"",""time""
""fullscreenenter"",""1"",""6077""
","""event"",""trial"",""time""
""fullscreenexit"",""9"",""26192""
","","","","","","1235","images/table8.png","","","memory_trial","2","maybe_old",""
"html-keyboard-response","158","349937","0.0-18.0-0.57","4125","approach_avoid_sv1","""event"",""trial"",""time""
""focus"",""0"",""1""
""fullscreenenter"",""1"",""6077""
""fullscreenexit"",""9"",""26192""
","
","""event"",""trial"",""time""
""focus"",""0"",""1""
","""event"",""trial"",""time""
""fullscreenenter"",""1"",""6077""
","""event"",""trial"",""time""
""fullscreenexit"",""9"",""26192""
","","","","","","null","<div style=""font-size:60px;"">+</div>","null","","fixation","","",""
"memory-trial","159","351754","0.0-18.0-1.57","4125","approach_avoid_sv1","""event"",""trial"",""time""
""focus"",""0"",""1""
""fullscreenenter"",""1"",""6077""
""fullscreenexit"",""9"",""26192""
","
","""event"",""trial"",""time""
""focus"",""0"",""1""
","""event"",""trial"",""time""
""fullscreenenter"",""1"",""6077""
","""event"",""trial"",""time""
""fullscreenexit"",""9"",""26192""
","","","","","","816","images/cactus4.png","","","memory_trial","1","definitely_old",""
"html-keyboard-response","160","352256","0.0-18.0-0.58","4125","approach_avoid_sv1","""event"",""trial"",""time""
""focus"",""0"",""1""
""fullscreenenter"",""1"",""6077""
""fullscreenexit"",""9"",""26192""
","
","""event"",""trial"",""time""
""focus"",""0"",""1""
","""event"",""trial"",""time""
""fullscreenenter"",""1"",""6077""
","""event"",""trial"",""time""
""fullscreenexit"",""9"",""26192""
","","","","","","null","<div style=""font-size:60px;"">+</div>","null","","fixation","","",""
"memory-trial","161","353931","0.0-18.0-1.58","4125","approach_avoid_sv1","""event"",""trial"",""time""
""focus"",""0"",""1""
""fullscreenenter"",""1"",""6077""
""fullscreenexit"",""9"",""26192""
","
","""event"",""trial"",""time""
""focus"",""0"",""1""
","""event"",""trial"",""time""
""fullscreenenter"",""1"",""6077""
","""event"",""trial"",""time""
""fullscreenexit"",""9"",""26192""
","","","","","","674","images/rabbit1.png","","","memory_trial","1","definitely_old",""
"html-keyboard-response","162","354433","0.0-18.0-0.59","4125","approach_avoid_sv1","""event"",""trial"",""time""
""focus"",""0"",""1""
""fullscreenenter"",""1"",""6077""
""fullscreenexit"",""9"",""26192""
","
","""event"",""trial"",""time""
""focus"",""0"",""1""
","""event"",""trial"",""time""
""fullscreenenter"",""1"",""6077""
","""event"",""trial"",""time""
""fullscreenexit"",""9"",""26192""
","","","","","","null","<div style=""font-size:60px;"">+</div>","null","","fixation","","",""
"memory-trial","163","357387","0.0-18.0-1.59","4125","approach_avoid_sv1","""event"",""trial"",""time""
""focus"",""0"",""1""
""fullscreenenter"",""1"",""6077""
""fullscreenexit"",""9"",""26192""
","
","""event"",""trial"",""time""
""focus"",""0"",""1""
","""event"",""trial"",""time""
""fullscreenenter"",""1"",""6077""
","""event"",""trial"",""time""
""fullscreenexit"",""9"",""26192""
","","","","","","1952","images/apple6.png","","","memory_trial","3","maybe_new",""
"html-keyboard-response","164","357887","0.0-18.0-0.60","4125","approach_avoid_sv1","""event"",""trial"",""time""
""focus"",""0"",""1""
""fullscreenenter"",""1"",""6077""
""fullscreenexit"",""9"",""26192""
","
","""event"",""trial"",""time""
""focus"",""0"",""1""
","""event"",""trial"",""time""
""fullscreenenter"",""1"",""6077""
","""event"",""trial"",""time""
""fullscreenexit"",""9"",""26192""
","","","","","","null","<div style=""font-size:60px;"">+</div>","null","","fixation","","",""
"memory-trial","165","360412","0.0-18.0-1.60","4125","approach_avoid_sv1","""event"",""trial"",""time""
""focus"",""0"",""1""
""fullscreenenter"",""1"",""6077""
""fullscreenexit"",""9"",""26192""
","
","""event"",""trial"",""time""
""focus"",""0"",""1""
","""event"",""trial"",""time""
""fullscreenenter"",""1"",""6077""
","""event"",""trial"",""time""
""fullscreenexit"",""9"",""26192""
","","","","","","1521","images/rodent3.png","","","memory_trial","3","maybe_new",""
"html-keyboard-response","166","360913","0.0-18.0-0.61","4125","approach_avoid_sv1","""event"",""trial"",""time""
""focus"",""0"",""1""
""fullscreenenter"",""1"",""6077""
""fullscreenexit"",""9"",""26192""
","
","""event"",""trial"",""time""
""focus"",""0"",""1""
","""event"",""trial"",""time""
""fullscreenenter"",""1"",""6077""
","""event"",""trial"",""time""
""fullscreenexit"",""9"",""26192""
","","","","","","null","<div style=""font-size:60px;"">+</div>","null","","fixation","","",""
"memory-trial","167","362891","0.0-18.0-1.61","4125","approach_avoid_sv1","""event"",""trial"",""time""
""focus"",""0"",""1""
""fullscreenenter"",""1"",""6077""
""fullscreenexit"",""9"",""26192""
","
","""event"",""trial"",""time""
""focus"",""0"",""1""
","""event"",""trial"",""time""
""fullscreenenter"",""1"",""6077""
","""event"",""trial"",""time""
""fullscreenexit"",""9"",""26192""
","","","","","","977","images/bush5.png","","","memory_trial","1","definitely_old",""
"html-keyboard-response","168","363392","0.0-18.0-0.62","4125","approach_avoid_sv1","""event"",""trial"",""time""
""focus"",""0"",""1""
""fullscreenenter"",""1"",""6077""
""fullscreenexit"",""9"",""26192""
","
","""event"",""trial"",""time""
""focus"",""0"",""1""
","""event"",""trial"",""time""
""fullscreenenter"",""1"",""6077""
","""event"",""trial"",""time""
""fullscreenexit"",""9"",""26192""
","","","","","","null","<div style=""font-size:60px;"">+</div>","null","","fixation","","",""
"memory-trial","169","365498","0.0-18.0-1.62","4125","approach_avoid_sv1","""event"",""trial"",""time""
""focus"",""0"",""1""
""fullscreenenter"",""1"",""6077""
""fullscreenexit"",""9"",""26192""
","
","""event"",""trial"",""time""
""focus"",""0"",""1""
","""event"",""trial"",""time""
""fullscreenenter"",""1"",""6077""
","""event"",""trial"",""time""
""fullscreenexit"",""9"",""26192""
","","","","","","1106","images/goat5.png","","","memory_trial","1","definitely_old",""
"html-keyboard-response","170","366000","0.0-18.0-0.63","4125","approach_avoid_sv1","""event"",""trial"",""time""
""focus"",""0"",""1""
""fullscreenenter"",""1"",""6077""
""fullscreenexit"",""9"",""26192""
","
","""event"",""trial"",""time""
""focus"",""0"",""1""
","""event"",""trial"",""time""
""fullscreenenter"",""1"",""6077""
","""event"",""trial"",""time""
""fullscreenexit"",""9"",""26192""
","","","","","","null","<div style=""font-size:60px;"">+</div>","null","","fixation","","",""
"memory-trial","171","368427","0.0-18.0-1.63","4125","approach_avoid_sv1","""event"",""trial"",""time""
""focus"",""0"",""1""
""fullscreenenter"",""1"",""6077""
""fullscreenexit"",""9"",""26192""
","
","""event"",""trial"",""time""
""focus"",""0"",""1""
","""event"",""trial"",""time""
""fullscreenenter"",""1"",""6077""
","""event"",""trial"",""time""
""fullscreenexit"",""9"",""26192""
","","","","","","1425","images/flower4.png","","","memory_trial","4","definitely_new",""
"html-keyboard-response","172","368928","0.0-18.0-0.64","4125","approach_avoid_sv1","""event"",""trial"",""time""
""focus"",""0"",""1""
""fullscreenenter"",""1"",""6077""
""fullscreenexit"",""9"",""26192""
","
","""event"",""trial"",""time""
""focus"",""0"",""1""
","""event"",""trial"",""time""
""fullscreenenter"",""1"",""6077""
","""event"",""trial"",""time""
""fullscreenexit"",""9"",""26192""
","","","","","","null","<div style=""font-size:60px;"">+</div>","null","","fixation","","",""
"memory-trial","173","371323","0.0-18.0-1.64","4125","approach_avoid_sv1","""event"",""trial"",""time""
""focus"",""0"",""1""
""fullscreenenter"",""1"",""6077""
""fullscreenexit"",""9"",""26192""
","
","""event"",""trial"",""time""
""focus"",""0"",""1""
","""event"",""trial"",""time""
""fullscreenenter"",""1"",""6077""
","""event"",""trial"",""time""
""fullscreenexit"",""9"",""26192""
","","","","","","1393","images/straw8.png","","","memory_trial","1","definitely_old",""
"html-keyboard-response","174","371824","0.0-18.0-0.65","4125","approach_avoid_sv1","""event"",""trial"",""time""
""focus"",""0"",""1""
""fullscreenenter"",""1"",""6077""
""fullscreenexit"",""9"",""26192""
","
","""event"",""trial"",""time""
""focus"",""0"",""1""
","""event"",""trial"",""time""
""fullscreenenter"",""1"",""6077""
","""event"",""trial"",""time""
""fullscreenexit"",""9"",""26192""
","","","","","","null","<div style=""font-size:60px;"">+</div>","null","","fixation","","",""
"memory-trial","175","373483","0.0-18.0-1.65","4125","approach_avoid_sv1","""event"",""trial"",""time""
""focus"",""0"",""1""
""fullscreenenter"",""1"",""6077""
""fullscreenexit"",""9"",""26192""
","
","""event"",""trial"",""time""
""focus"",""0"",""1""
","""event"",""trial"",""time""
""fullscreenenter"",""1"",""6077""
","""event"",""trial"",""time""
""fullscreenexit"",""9"",""26192""
","","","","","","656","images/orange8.png","","","memory_trial","1","definitely_old",""
"html-keyboard-response","176","373983","0.0-18.0-0.66","4125","approach_avoid_sv1","""event"",""trial"",""time""
""focus"",""0"",""1""
""fullscreenenter"",""1"",""6077""
""fullscreenexit"",""9"",""26192""
","
","""event"",""trial"",""time""
""focus"",""0"",""1""
","""event"",""trial"",""time""
""fullscreenenter"",""1"",""6077""
","""event"",""trial"",""time""
""fullscreenexit"",""9"",""26192""
","","","","","","null","<div style=""font-size:60px;"">+</div>","null","","fixation","","",""
"memory-trial","177","376540","0.0-18.0-1.66","4125","approach_avoid_sv1","""event"",""trial"",""time""
""focus"",""0"",""1""
""fullscreenenter"",""1"",""6077""
""fullscreenexit"",""9"",""26192""
","
","""event"",""trial"",""time""
""focus"",""0"",""1""
","""event"",""trial"",""time""
""fullscreenenter"",""1"",""6077""
","""event"",""trial"",""time""
""fullscreenexit"",""9"",""26192""
","","","","","","1554","images/sheep5.png","","","memory_trial","3","maybe_new",""
"html-keyboard-response","178","377041","0.0-18.0-0.67","4125","approach_avoid_sv1","""event"",""trial"",""time""
""focus"",""0"",""1""
""fullscreenenter"",""1"",""6077""
""fullscreenexit"",""9"",""26192""
","
","""event"",""trial"",""time""
""focus"",""0"",""1""
","""event"",""trial"",""time""
""fullscreenenter"",""1"",""6077""
","""event"",""trial"",""time""
""fullscreenexit"",""9"",""26192""
","","","","","","null","<div style=""font-size:60px;"">+</div>","null","","fixation","","",""
"memory-trial","179","379340","0.0-18.0-1.67","4125","approach_avoid_sv1","""event"",""trial"",""time""
""focus"",""0"",""1""
""fullscreenenter"",""1"",""6077""
""fullscreenexit"",""9"",""26192""
","
","""event"",""trial"",""time""
""focus"",""0"",""1""
","""event"",""trial"",""time""
""fullscreenenter"",""1"",""6077""
","""event"",""trial"",""time""
""fullscreenexit"",""9"",""26192""
","","","","","","1296","images/cow5.png","","","memory_trial","3","maybe_new",""
"html-keyboard-response","180","379840","0.0-18.0-0.68","4125","approach_avoid_sv1","""event"",""trial"",""time""
""focus"",""0"",""1""
""fullscreenenter"",""1"",""6077""
""fullscreenexit"",""9"",""26192""
","
","""event"",""trial"",""time""
""focus"",""0"",""1""
","""event"",""trial"",""time""
""fullscreenenter"",""1"",""6077""
","""event"",""trial"",""time""
""fullscreenexit"",""9"",""26192""
","","","","","","null","<div style=""font-size:60px;"">+</div>","null","","fixation","","",""
"memory-trial","181","381867","0.0-18.0-1.68","4125","approach_avoid_sv1","""event"",""trial"",""time""
""focus"",""0"",""1""
""fullscreenenter"",""1"",""6077""
""fullscreenexit"",""9"",""26192""
","
","""event"",""trial"",""time""
""focus"",""0"",""1""
","""event"",""trial"",""time""
""fullscreenenter"",""1"",""6077""
","""event"",""trial"",""time""
""fullscreenexit"",""9"",""26192""
","","","","","","1025","images/sheep7.png","","","memory_trial","1","definitely_old",""
"html-keyboard-response","182","382369","0.0-18.0-0.69","4125","approach_avoid_sv1","""event"",""trial"",""time""
""focus"",""0"",""1""
""fullscreenenter"",""1"",""6077""
""fullscreenexit"",""9"",""26192""
","
","""event"",""trial"",""time""
""focus"",""0"",""1""
","""event"",""trial"",""time""
""fullscreenenter"",""1"",""6077""
","""event"",""trial"",""time""
""fullscreenexit"",""9"",""26192""
","","","","","","null","<div style=""font-size:60px;"">+</div>","null","","fixation","","",""
"memory-trial","183","384635","0.0-18.0-1.69","4125","approach_avoid_sv1","""event"",""trial"",""time""
""focus"",""0"",""1""
""fullscreenenter"",""1"",""6077""
""fullscreenexit"",""9"",""26192""
","
","""event"",""trial"",""time""
""focus"",""0"",""1""
","""event"",""trial"",""time""
""fullscreenenter"",""1"",""6077""
","""event"",""trial"",""time""
""fullscreenexit"",""9"",""26192""
","","","","","","1264","images/apple7.png","","","memory_trial","1","definitely_old",""
"html-keyboard-response","184","385137","0.0-18.0-0.70","4125","approach_avoid_sv1","""event"",""trial"",""time""
""focus"",""0"",""1""
""fullscreenenter"",""1"",""6077""
""fullscreenexit"",""9"",""26192""
","
","""event"",""trial"",""time""
""focus"",""0"",""1""
","""event"",""trial"",""time""
""fullscreenenter"",""1"",""6077""
","""event"",""trial"",""time""
""fullscreenexit"",""9"",""26192""
","","","","","","null","<div style=""font-size:60px;"">+</div>","null","","fixation","","",""
"memory-trial","185","387147","0.0-18.0-1.70","4125","approach_avoid_sv1","""event"",""trial"",""time""
""focus"",""0"",""1""
""fullscreenenter"",""1"",""6077""
""fullscreenexit"",""9"",""26192""
","
","""event"",""trial"",""time""
""focus"",""0"",""1""
","""event"",""trial"",""time""
""fullscreenenter"",""1"",""6077""
","""event"",""trial"",""time""
""fullscreenexit"",""9"",""26192""
","","","","","","1008","images/truck5.png","","","memory_trial","2","maybe_old",""
"html-keyboard-response","186","387647","0.0-18.0-0.71","4125","approach_avoid_sv1","""event"",""trial"",""time""
""focus"",""0"",""1""
""fullscreenenter"",""1"",""6077""
""fullscreenexit"",""9"",""26192""
","
","""event"",""trial"",""time""
""focus"",""0"",""1""
","""event"",""trial"",""time""
""fullscreenenter"",""1"",""6077""
","""event"",""trial"",""time""
""fullscreenexit"",""9"",""26192""
","","","","","","null","<div style=""font-size:60px;"">+</div>","null","","fixation","","",""
"memory-trial","187","389674","0.0-18.0-1.71","4125","approach_avoid_sv1","""event"",""trial"",""time""
""focus"",""0"",""1""
""fullscreenenter"",""1"",""6077""
""fullscreenexit"",""9"",""26192""
","
","""event"",""trial"",""time""
""focus"",""0"",""1""
","""event"",""trial"",""time""
""fullscreenenter"",""1"",""6077""
","""event"",""trial"",""time""
""fullscreenexit"",""9"",""26192""
","","","","","","1024","images/truck7.png","","","memory_trial","2","maybe_old",""
"html-keyboard-response","188","390176","0.0-18.0-0.72","4125","approach_avoid_sv1","""event"",""trial"",""time""
""focus"",""0"",""1""
""fullscreenenter"",""1"",""6077""
""fullscreenexit"",""9"",""26192""
","
","""event"",""trial"",""time""
""focus"",""0"",""1""
","""event"",""trial"",""time""
""fullscreenenter"",""1"",""6077""
","""event"",""trial"",""time""
""fullscreenexit"",""9"",""26192""
","","","","","","null","<div style=""font-size:60px;"">+</div>","null","","fixation","","",""
"memory-trial","189","392250","0.0-18.0-1.72","4125","approach_avoid_sv1","""event"",""trial"",""time""
""focus"",""0"",""1""
""fullscreenenter"",""1"",""6077""
""fullscreenexit"",""9"",""26192""
","
","""event"",""trial"",""time""
""focus"",""0"",""1""
","""event"",""trial"",""time""
""fullscreenenter"",""1"",""6077""
","""event"",""trial"",""time""
""fullscreenexit"",""9"",""26192""
","","","","","","1072","images/dog1.png","","","memory_trial","1","definitely_old",""
"html-keyboard-response","190","392753","0.0-18.0-0.73","4125","approach_avoid_sv1","""event"",""trial"",""time""
""focus"",""0"",""1""
""fullscreenenter"",""1"",""6077""
""fullscreenexit"",""9"",""26192""
","
","""event"",""trial"",""time""
""focus"",""0"",""1""
","""event"",""trial"",""time""
""fullscreenenter"",""1"",""6077""
","""event"",""trial"",""time""
""fullscreenexit"",""9"",""26192""
","","","","","","null","<div style=""font-size:60px;"">+</div>","null","","fixation","","",""
"memory-trial","191","394811","0.0-18.0-1.73","4125","approach_avoid_sv1","""event"",""trial"",""time""
""focus"",""0"",""1""
""fullscreenenter"",""1"",""6077""
""fullscreenexit"",""9"",""26192""
","
","""event"",""trial"",""time""
""focus"",""0"",""1""
","""event"",""trial"",""time""
""fullscreenenter"",""1"",""6077""
","""event"",""trial"",""time""
""fullscreenexit"",""9"",""26192""
","","","","","","1055","images/apple1.png","","","memory_trial","1","definitely_old",""
"html-keyboard-response","192","395313","0.0-18.0-0.74","4125","approach_avoid_sv1","""event"",""trial"",""time""
""focus"",""0"",""1""
""fullscreenenter"",""1"",""6077""
""fullscreenexit"",""9"",""26192""
","
","""event"",""trial"",""time""
""focus"",""0"",""1""
","""event"",""trial"",""time""
""fullscreenenter"",""1"",""6077""
","""event"",""trial"",""time""
""fullscreenexit"",""9"",""26192""
","","","","","","null","<div style=""font-size:60px;"">+</div>","null","","fixation","","",""
"memory-trial","193","396938","0.0-18.0-1.74","4125","approach_avoid_sv1","""event"",""trial"",""time""
""focus"",""0"",""1""
""fullscreenenter"",""1"",""6077""
""fullscreenexit"",""9"",""26192""
","
","""event"",""trial"",""time""
""focus"",""0"",""1""
","""event"",""trial"",""time""
""fullscreenenter"",""1"",""6077""
","""event"",""trial"",""time""
""fullscreenexit"",""9"",""26192""
","","","","","","623","images/bush2.png","","","memory_trial","1","definitely_old",""
"html-keyboard-response","194","397440","0.0-18.0-0.75","4125","approach_avoid_sv1","""event"",""trial"",""time""
""focus"",""0"",""1""
""fullscreenenter"",""1"",""6077""
""fullscreenexit"",""9"",""26192""
","
","""event"",""trial"",""time""
""focus"",""0"",""1""
","""event"",""trial"",""time""
""fullscreenenter"",""1"",""6077""
","""event"",""trial"",""time""
""fullscreenexit"",""9"",""26192""
","","","","","","null","<div style=""font-size:60px;"">+</div>","null","","fixation","","",""
"memory-trial","195","399963","0.0-18.0-1.75","4125","approach_avoid_sv1","""event"",""trial"",""time""
""focus"",""0"",""1""
""fullscreenenter"",""1"",""6077""
""fullscreenexit"",""9"",""26192""
","
","""event"",""trial"",""time""
""focus"",""0"",""1""
","""event"",""trial"",""time""
""fullscreenenter"",""1"",""6077""
","""event"",""trial"",""time""
""fullscreenexit"",""9"",""26192""
","","","","","","1520","images/banana7.png","","","memory_trial","4","definitely_new",""
"html-keyboard-response","196","400463","0.0-18.0-0.76","4125","approach_avoid_sv1","""event"",""trial"",""time""
""focus"",""0"",""1""
""fullscreenenter"",""1"",""6077""
""fullscreenexit"",""9"",""26192""
","
","""event"",""trial"",""time""
""focus"",""0"",""1""
","""event"",""trial"",""time""
""fullscreenenter"",""1"",""6077""
","""event"",""trial"",""time""
""fullscreenexit"",""9"",""26192""
","","","","","","null","<div style=""font-size:60px;"">+</div>","null","","fixation","","",""
"memory-trial","197","403356","0.0-18.0-1.76","4125","approach_avoid_sv1","""event"",""trial"",""time""
""focus"",""0"",""1""
""fullscreenenter"",""1"",""6077""
""fullscreenexit"",""9"",""26192""
","
","""event"",""trial"",""time""
""focus"",""0"",""1""
","""event"",""trial"",""time""
""fullscreenenter"",""1"",""6077""
","""event"",""trial"",""time""
""fullscreenexit"",""9"",""26192""
","","","","","","1891","images/straw4.png","","","memory_trial","1","definitely_old",""
"html-keyboard-response","198","403857","0.0-18.0-0.77","4125","approach_avoid_sv1","""event"",""trial"",""time""
""focus"",""0"",""1""
""fullscreenenter"",""1"",""6077""
""fullscreenexit"",""9"",""26192""
","
