"trial_type","trial_index","time_elapsed","internal_node_id","subject_id","task_version","interactions","blur_events","focus_events","fullscreenenter_events","fullscreenexit_events","success","timeout","failed_images","failed_audio","failed_video","rt","stimulus","response","button_pressed","task_part","key_press","answer","correct"
"pavlovia","0","5","0.0-0.0","4363","approach_avoid_sv1","""event"",""trial"",""time""
""fullscreenenter"",""1"",""2440""
","
","
","""event"",""trial"",""time""
""fullscreenenter"",""1"",""2440""
","
","","","","","","","","","","","","",""
"fullscreen","1","3417","0.0-1.0","4363","approach_avoid_sv1","""event"",""trial"",""time""
""fullscreenenter"",""1"",""2440""
","
","
","""event"",""trial"",""time""
""fullscreenenter"",""1"",""2440""
","
","true","","","","","","","","","","","",""
"preload","2","7446","0.0-2.0","4363","approach_avoid_sv1","""event"",""trial"",""time""
""fullscreenenter"",""1"",""2440""
","
","
","""event"",""trial"",""time""
""fullscreenenter"",""1"",""2440""
","
","true","false","[]","[]","[]","","","","","","","",""
"preload","3","9257","0.0-3.0","4363","approach_avoid_sv1","""event"",""trial"",""time""
""fullscreenenter"",""1"",""2440""
","
","
","""event"",""trial"",""time""
""fullscreenenter"",""1"",""2440""
","
","true","false","[]","[]","[]","","","","","","","",""
"preload","4","9457","0.0-4.0","4363","approach_avoid_sv1","""event"",""trial"",""time""
""fullscreenenter"",""1"",""2440""
","
","
","""event"",""trial"",""time""
""fullscreenenter"",""1"",""2440""
","
","true","false","[]","[]","[]","","","","","","","",""
"audio-keyboard-response","5","11289","0.0-5.0","4363","approach_avoid_sv1","""event"",""trial"",""time""
""fullscreenenter"",""1"",""2440""
","
","
","""event"",""trial"",""time""
""fullscreenenter"",""1"",""2440""
","
","","","","","","1829.3333333333326","audio/beep_loop.wav"," ","","","","",""
"audio-button-response","6","13070","0.0-6.0","4363","approach_avoid_sv1","""event"",""trial"",""time""
""fullscreenenter"",""1"",""2440""
","
","
","""event"",""trial"",""time""
""fullscreenenter"",""1"",""2440""
","
","","","","","","1781","audio/turtle.wav","3","","","","",""
"audio-button-response","7","15129","0.0-7.0","4363","approach_avoid_sv1","""event"",""trial"",""time""
""fullscreenenter"",""1"",""2440""
","
","
","""event"",""trial"",""time""
""fullscreenenter"",""1"",""2440""
","
","","","","","","1048","audio/shark.wav","2","","","","",""
"preload","8","18543","0.0-8.0","4363","approach_avoid_sv1","""event"",""trial"",""time""
""fullscreenenter"",""1"",""2440""
","
","
","""event"",""trial"",""time""
""fullscreenenter"",""1"",""2440""
","
","true","false","[]","[]","[]","","","","","","","",""
"learning-instructions","9","24171","0.0-9.0-0.0","4363","approach_avoid_sv1","""event"",""trial"",""time""
""fullscreenenter"",""1"",""2440""
","
","
","""event"",""trial"",""time""
""fullscreenenter"",""1"",""2440""
","
","","","","","","1148","<p> Welcome back! </p><p> Last week, you had to make choices about lots of different items.  </p>","","0","instructions","","",""
"learning-instructions","10","28704","0.0-9.0-0.1","4363","approach_avoid_sv1","""event"",""trial"",""time""
""fullscreenenter"",""1"",""2440""
","
","
","""event"",""trial"",""time""
""fullscreenenter"",""1"",""2440""
","
","","","","","","410.20000000298023","<p> Today, we are going to ask you to try to remember all the items. </p>","","0","instructions","","",""
"learning-instructions","11","39293","0.0-9.0-0.2","4363","approach_avoid_sv1","""event"",""trial"",""time""
""fullscreenenter"",""1"",""2440""
","
","
","""event"",""trial"",""time""
""fullscreenenter"",""1"",""2440""
","
","","","","","","449","<p> On every trial, you will see an image. </p><p> The image may be an OLD image you saw during the games last week or it may be a NEW image that was not presented. </p>","","0","instructions","","",""
"learning-instructions","12","48300","0.0-9.0-0.3","4363","approach_avoid_sv1","""event"",""trial"",""time""
""fullscreenenter"",""1"",""2440""
","
","
","""event"",""trial"",""time""
""fullscreenenter"",""1"",""2440""
","
","","","","","","487.20000000298023","<p> You need to select whether the image is:  </p><p>  'Definitely old', 'Maybe old', 'Maybe new', or 'Definitely new.'  </p><div class=""mem-choice-instructions-grid""><div class=""choice-option"" id=""choice-option-1"" ><img src=""images/definitely_old_1.png"" id=""choice-option-img-1"" class=""choice-option-img"" stage=""1""></div><div class=""choice-option"" id=""choice-option-2"" ><img src=""images/maybe_old_1.png"" id=""choice-option-img-2"" class=""choice-option-img"" stage=""1""></div><div class=""choice-option"" id=""choice-option-3"" ><img src=""images/maybe_new_1.png"" id=""choice-option-img-3"" class=""choice-option-img"" stage=""1""></div><div class=""choice-option"" id=""choice-option-4"" > <img src=""images/definitely_new_1.png"" id=""choice-option-img-4"" class=""choice-option-img"" stage=""1""></div></div>","","0","instructions","","",""
"learning-instructions","13","55408","0.0-9.0-0.4","4363","approach_avoid_sv1","""event"",""trial"",""time""
""fullscreenenter"",""1"",""2440""
","
","
","""event"",""trial"",""time""
""fullscreenenter"",""1"",""2440""
","
","","","","","","594.2999999970198","<p> You should use the 1, 2, 3, and 4 keys to make your responses.  </p><div class=""mem-choice-instructions-grid""><div class=""choice-option"" id=""choice-option-1"" ><img src=""images/definitely_old.png"" id=""choice-option-img-1"" class=""choice-option-img"" stage=""1""></div><div class=""choice-option"" id=""choice-option-2"" ><img src=""images/maybe_old.png"" id=""choice-option-img-2"" class=""choice-option-img"" stage=""1""></div><div class=""choice-option"" id=""choice-option-3"" ><img src=""images/maybe_new.png"" id=""choice-option-img-3"" class=""choice-option-img"" stage=""1""></div><div class=""choice-option"" id=""choice-option-4"" > <img src=""images/definitely_new.png"" id=""choice-option-img-4"" class=""choice-option-img"" stage=""1""></div></div>","","0","instructions","","",""
"learning-instructions","14","62086","0.0-9.0-0.5","4363","approach_avoid_sv1","""event"",""trial"",""time""
""fullscreenenter"",""1"",""2440""
","
","
","""event"",""trial"",""time""
""fullscreenenter"",""1"",""2440""
","
","","","","","","333.40000000596046","<p> You will have 10 seconds to make each response.  </p><p>  Make sure to respond before time runs out! </p>","","0","instructions","","",""
"learning-instructions","15","69512","0.0-9.0-0.6","4363","approach_avoid_sv1","""event"",""trial"",""time""
""fullscreenenter"",""1"",""2440""
","
","
","""event"",""trial"",""time""
""fullscreenenter"",""1"",""2440""
","
","","","","","","338.5","<p> Today, you will see each image ONCE only.  </p><p>  That means none of the images will repeat. </p>","","0","instructions","","",""
"learning-instructions","16","82976","0.0-9.0-0.7","4363","approach_avoid_sv1","""event"",""trial"",""time""
""fullscreenenter"",""1"",""2440""
","
","
","""event"",""trial"",""time""
""fullscreenenter"",""1"",""2440""
","
","","","","","","782.1000000089407","<p> Before you play the real game, it is time to practice. </p><p>  Just like in the real game, some of the images in the practice will be ones you have seen before. </p><p>  Others will be entirely new. </p>","","0","instructions","","",""
"html-button-response","17","84824","0.0-10.0","4363","approach_avoid_sv1","""event"",""trial"",""time""
""fullscreenenter"",""1"",""2440""
","
","
","""event"",""trial"",""time""
""fullscreenenter"",""1"",""2440""
","
","","","","","","1728.9000000059605","<p> Ready to practice? </p><p> Remember, use the 1, 2, 3, and 4 keys to make your responses. </p>","0","","instructions","","",""
"html-keyboard-response","18","85439","0.0-11.0-0.0","4363","approach_avoid_sv1","""event"",""trial"",""time""
""fullscreenenter"",""1"",""2440""
","
","
","""event"",""trial"",""time""
""fullscreenenter"",""1"",""2440""
","
","","","","","","null","<div style=""font-size:60px;"">+</div>","null","","fixation","","",""
"memory-trial","19","88464","0.0-11.0-1.0","4363","approach_avoid_sv1","""event"",""trial"",""time""
""fullscreenenter"",""1"",""2440""
","
","
","""event"",""trial"",""time""
""fullscreenenter"",""1"",""2440""
","
","","","","","","2002.0999999940395","images/ball1.png","","","practice","1","definitely_old",""
"html-keyboard-response","20","88983","0.0-11.0-0.1","4363","approach_avoid_sv1","""event"",""trial"",""time""
""fullscreenenter"",""1"",""2440""
","
","
","""event"",""trial"",""time""
""fullscreenenter"",""1"",""2440""
","
","","","","","","null","<div style=""font-size:60px;"">+</div>","null","","fixation","","",""
"memory-trial","21","91562","0.0-11.0-1.1","4363","approach_avoid_sv1","""event"",""trial"",""time""
""fullscreenenter"",""1"",""2440""
","
","
","""event"",""trial"",""time""
""fullscreenenter"",""1"",""2440""
","
","","","","","","1575","images/racket5.png","","","practice","3","maybe_new",""
"html-keyboard-response","22","92065","0.0-11.0-0.2","4363","approach_avoid_sv1","""event"",""trial"",""time""
""fullscreenenter"",""1"",""2440""
","
","
","""event"",""trial"",""time""
""fullscreenenter"",""1"",""2440""
","
","","","","","","null","<div style=""font-size:60px;"">+</div>","null","","fixation","","",""
"memory-trial","23","95176","0.0-11.0-1.2","4363","approach_avoid_sv1","""event"",""trial"",""time""
""fullscreenenter"",""1"",""2440""
","
","
","""event"",""trial"",""time""
""fullscreenenter"",""1"",""2440""
","
","","","","","","2088.7000000029802","images/ball3.png","","","practice","4","definitely_new",""
"html-keyboard-response","24","95694","0.0-11.0-0.3","4363","approach_avoid_sv1","""event"",""trial"",""time""
""fullscreenenter"",""1"",""2440""
","
","
","""event"",""trial"",""time""
""fullscreenenter"",""1"",""2440""
","
","","","","","","null","<div style=""font-size:60px;"">+</div>","null","","fixation","","",""
"memory-trial","25","98920","0.0-11.0-1.3","4363","approach_avoid_sv1","""event"",""trial"",""time""
""fullscreenenter"",""1"",""2440""
","
","
","""event"",""trial"",""time""
""fullscreenenter"",""1"",""2440""
","
","","","","","","2210.9000000059605","images/racket3.png","","","practice","2","maybe_old",""
"html-keyboard-response","26","99437","0.0-11.0-0.4","4363","approach_avoid_sv1","""event"",""trial"",""time""
""fullscreenenter"",""1"",""2440""
","
","
","""event"",""trial"",""time""
""fullscreenenter"",""1"",""2440""
","
","","","","","","null","<div style=""font-size:60px;"">+</div>","null","","fixation","","",""
"memory-trial","27","103361","0.0-11.0-1.4","4363","approach_avoid_sv1","""event"",""trial"",""time""
""fullscreenenter"",""1"",""2440""
","
","
","""event"",""trial"",""time""
""fullscreenenter"",""1"",""2440""
","
","","","","","","2920","images/racket1.png","","","practice","2","maybe_old",""
"html-keyboard-response","28","103865","0.0-11.0-0.5","4363","approach_avoid_sv1","""event"",""trial"",""time""
""fullscreenenter"",""1"",""2440""
","
","
","""event"",""trial"",""time""
""fullscreenenter"",""1"",""2440""
","
","","","","","","null","<div style=""font-size:60px;"">+</div>","null","","fixation","","",""
"memory-trial","29","106831","0.0-11.0-1.5","4363","approach_avoid_sv1","""event"",""trial"",""time""
""fullscreenenter"",""1"",""2440""
","
","
","""event"",""trial"",""time""
""fullscreenenter"",""1"",""2440""
","
","","","","","","1948.5999999940395","images/ball2.png","","","practice","1","definitely_old",""
"html-keyboard-response","30","107350","0.0-11.0-0.6","4363","approach_avoid_sv1","""event"",""trial"",""time""
""fullscreenenter"",""1"",""2440""
","
","
","""event"",""trial"",""time""
""fullscreenenter"",""1"",""2440""
","
","","","","","","null","<div style=""font-size:60px;"">+</div>","null","","fixation","","",""
"memory-trial","31","110194","0.0-11.0-1.6","4363","approach_avoid_sv1","""event"",""trial"",""time""
""fullscreenenter"",""1"",""2440""
","
","
","""event"",""trial"",""time""
""fullscreenenter"",""1"",""2440""
","
","","","","","","1826.2000000029802","images/ball5.png","","","practice","2","maybe_old",""
"html-keyboard-response","32","110697","0.0-11.0-0.7","4363","approach_avoid_sv1","""event"",""trial"",""time""
""fullscreenenter"",""1"",""2440""
","
","
","""event"",""trial"",""time""
""fullscreenenter"",""1"",""2440""
","
","","","","","","null","<div style=""font-size:60px;"">+</div>","null","","fixation","","",""
"memory-trial","33","113618","0.0-11.0-1.7","4363","approach_avoid_sv1","""event"",""trial"",""time""
""fullscreenenter"",""1"",""2440""
","
","
","""event"",""trial"",""time""
""fullscreenenter"",""1"",""2440""
","
","","","","","","1911.7000000029802","images/racket2.png","","","practice","4","definitely_new",""
"learning-instructions","34","122323","0.0-12.0-0.0","4363","approach_avoid_sv1","""event"",""trial"",""time""
""fullscreenenter"",""1"",""2440""
","
","
","""event"",""trial"",""time""
""fullscreenenter"",""1"",""2440""
","
","","","","","","1398.9000000059605","<p> Great! You have completed the practice. </p><p> Before you start, we're going to ask you a few questions about how the game works.  </p>","","0","instructions","","",""
"preload","35","124167","0.0-13.0","4363","approach_avoid_sv1","""event"",""trial"",""time""
""fullscreenenter"",""1"",""2440""
","
","
","""event"",""trial"",""time""
""fullscreenenter"",""1"",""2440""
","
","true","false","[]","[]","[]","","","","","","","",""
"comp-q","36","130804","0.0-14.0-0.0","4363","approach_avoid_sv1","""event"",""trial"",""time""
""fullscreenenter"",""1"",""2440""
","
","
","""event"",""trial"",""time""
""fullscreenenter"",""1"",""2440""
","
","","","","","","810.7000000029802","<p> <b> True or False? </b> </p><p> In this game, you will only see each image once. </p>","","0","comp_question","","","true"
"comp-q","37","138201","0.0-14.0-1.0","4363","approach_avoid_sv1","""event"",""trial"",""time""
""fullscreenenter"",""1"",""2440""
","
","
","""event"",""trial"",""time""
""fullscreenenter"",""1"",""2440""
","
","","","","","","1056.300000011921","<p> <b> That's right! </b> You will see many different images <i> one time each </i> in this game. </p>","","0","comp_answer","","",""
"comp-q","38","144149","0.0-15.0-0.0","4363","approach_avoid_sv1","""event"",""trial"",""time""
""fullscreenenter"",""1"",""2440""
","
","
","""event"",""trial"",""time""
""fullscreenenter"",""1"",""2440""
","
","","","","","","934.7000000029802","<p> <b> True or False? </b> </p><p> You should use the mouse and click to make your response. </p>","","1","comp_question","","","true"
"comp-q","39","152075","0.0-15.0-1.0","4363","approach_avoid_sv1","""event"",""trial"",""time""
""fullscreenenter"",""1"",""2440""
","
","
","""event"",""trial"",""time""
""fullscreenenter"",""1"",""2440""
","
","","","","","","1421.0999999940395","<p><b> That's right! </b> You should use the '1', '2', '3', and '4' keys to make your response. </p>","","0","comp_answer","","",""
"comp-q","40","158637","0.0-16.0-0.0","4363","approach_avoid_sv1","""event"",""trial"",""time""
""fullscreenenter"",""1"",""2440""
","
","
","""event"",""trial"",""time""
""fullscreenenter"",""1"",""2440""
","
","","","","","","873","<p> <b> True or False? </b> </p><p> You will have as much time as you want to make each choice. </p>","","1","comp_question","","","true"
"comp-q","41","164373","0.0-16.0-1.0","4363","approach_avoid_sv1","""event"",""trial"",""time""
""fullscreenenter"",""1"",""2440""
","
","
","""event"",""trial"",""time""
""fullscreenenter"",""1"",""2440""
","
","","","","","","1029","<p> <b> That's right! </b> You will only have 10 seconds to make each choice. </p>","","0","comp_answer","","",""
"learning-instructions","42","174656","0.0-17.0","4363","approach_avoid_sv1","""event"",""trial"",""time""
""fullscreenenter"",""1"",""2440""
","
","
","""event"",""trial"",""time""
""fullscreenenter"",""1"",""2440""
","
","","","","","","1592","<p> Great! You are now ready to begin the game. </p><p> Remember, use the 1, 2, 3, and 4 keys to make your responses. </p>","","0","instructions","","",""
"html-keyboard-response","43","175287","0.0-18.0-0.0","4363","approach_avoid_sv1","""event"",""trial"",""time""
""fullscreenenter"",""1"",""2440""
","
","
","""event"",""trial"",""time""
""fullscreenenter"",""1"",""2440""
","
","","","","","","null","<div style=""font-size:60px;"">+</div>","null","","fixation","","",""
"memory-trial","44","177883","0.0-18.0-1.0","4363","approach_avoid_sv1","""event"",""trial"",""time""
""fullscreenenter"",""1"",""2440""
","
","
","""event"",""trial"",""time""
""fullscreenenter"",""1"",""2440""
","
","","","","","","1587.5999999940395","images/boat3.png","","","memory_trial","3","maybe_new",""
"html-keyboard-response","45","178400","0.0-18.0-0.1","4363","approach_avoid_sv1","""event"",""trial"",""time""
""fullscreenenter"",""1"",""2440""
","
","
","""event"",""trial"",""time""
""fullscreenenter"",""1"",""2440""
","
","","","","","","null","<div style=""font-size:60px;"">+</div>","null","","fixation","","",""
"memory-trial","46","180416","0.0-18.0-1.1","4363","approach_avoid_sv1","""event"",""trial"",""time""
""fullscreenenter"",""1"",""2440""
","
","
","""event"",""trial"",""time""
""fullscreenenter"",""1"",""2440""
","
","","","","","","1003.3999999910593","images/train2.png","","","memory_trial","2","maybe_old",""
"html-keyboard-response","47","180934","0.0-18.0-0.2","4363","approach_avoid_sv1","""event"",""trial"",""time""
""fullscreenenter"",""1"",""2440""
","
","
","""event"",""trial"",""time""
""fullscreenenter"",""1"",""2440""
","
","","","","","","null","<div style=""font-size:60px;"">+</div>","null","","fixation","","",""
"memory-trial","48","182919","0.0-18.0-1.2","4363","approach_avoid_sv1","""event"",""trial"",""time""
""fullscreenenter"",""1"",""2440""
","
","
","""event"",""trial"",""time""
""fullscreenenter"",""1"",""2440""
","
","","","","","","974.6999999880791","images/straw3.png","","","memory_trial","3","maybe_new",""
"html-keyboard-response","49","183437","0.0-18.0-0.3","4363","approach_avoid_sv1","""event"",""trial"",""time""
""fullscreenenter"",""1"",""2440""
","
","
","""event"",""trial"",""time""
""fullscreenenter"",""1"",""2440""
","
","","","","","","null","<div style=""font-size:60px;"">+</div>","null","","fixation","","",""
"memory-trial","50","185722","0.0-18.0-1.3","4363","approach_avoid_sv1","""event"",""trial"",""time""
""fullscreenenter"",""1"",""2440""
","
","
","""event"",""trial"",""time""
""fullscreenenter"",""1"",""2440""
","
","","","","","","1273.5","images/cow1.png","","","memory_trial","2","maybe_old",""
"html-keyboard-response","51","186239","0.0-18.0-0.4","4363","approach_avoid_sv1","""event"",""trial"",""time""
""fullscreenenter"",""1"",""2440""
","
","
","""event"",""trial"",""time""
""fullscreenenter"",""1"",""2440""
","
","","","","","","null","<div style=""font-size:60px;"">+</div>","null","","fixation","","",""
"memory-trial","52","188420","0.0-18.0-1.4","4363","approach_avoid_sv1","""event"",""trial"",""time""
""fullscreenenter"",""1"",""2440""
","
","
","""event"",""trial"",""time""
""fullscreenenter"",""1"",""2440""
","
","","","","","","1167.2999999970198","images/apple1.png","","","memory_trial","4","definitely_new",""
"html-keyboard-response","53","188937","0.0-18.0-0.5","4363","approach_avoid_sv1","""event"",""trial"",""time""
""fullscreenenter"",""1"",""2440""
","
","
","""event"",""trial"",""time""
""fullscreenenter"",""1"",""2440""
","
","","","","","","null","<div style=""font-size:60px;"">+</div>","null","","fixation","","",""
"memory-trial","54","191131","0.0-18.0-1.5","4363","approach_avoid_sv1","""event"",""trial"",""time""
""fullscreenenter"",""1"",""2440""
","
","
","""event"",""trial"",""time""
""fullscreenenter"",""1"",""2440""
","
","","","","","","1173.7000000029802","images/cow4.png","","","memory_trial","3","maybe_new",""
"html-keyboard-response","55","191650","0.0-18.0-0.6","4363","approach_avoid_sv1","""event"",""trial"",""time""
""fullscreenenter"",""1"",""2440""
","
","
","""event"",""trial"",""time""
""fullscreenenter"",""1"",""2440""
","
","","","","","","null","<div style=""font-size:60px;"">+</div>","null","","fixation","","",""
"memory-trial","56","193804","0.0-18.0-1.6","4363","approach_avoid_sv1","""event"",""trial"",""time""
""fullscreenenter"",""1"",""2440""
","
","
","""event"",""trial"",""time""
""fullscreenenter"",""1"",""2440""
","
","","","","","","1144.7999999970198","images/table3.png","","","memory_trial","4","definitely_new",""
"html-keyboard-response","57","194321","0.0-18.0-0.7","4363","approach_avoid_sv1","""event"",""trial"",""time""
""fullscreenenter"",""1"",""2440""
","
","
","""event"",""trial"",""time""
""fullscreenenter"",""1"",""2440""
","
","","","","","","null","<div style=""font-size:60px;"">+</div>","null","","fixation","","",""
"memory-trial","58","196714","0.0-18.0-1.7","4363","approach_avoid_sv1","""event"",""trial"",""time""
""fullscreenenter"",""1"",""2440""
","
","
","""event"",""trial"",""time""
""fullscreenenter"",""1"",""2440""
","
","","","","","","1383.6000000089407","images/rodent1.png","","","memory_trial","3","maybe_new",""
"html-keyboard-response","59","197217","0.0-18.0-0.8","4363","approach_avoid_sv1","""event"",""trial"",""time""
""fullscreenenter"",""1"",""2440""
","
","
","""event"",""trial"",""time""
""fullscreenenter"",""1"",""2440""
","
","","","","","","null","<div style=""font-size:60px;"">+</div>","null","","fixation","","",""
"memory-trial","60","199644","0.0-18.0-1.8","4363","approach_avoid_sv1","""event"",""trial"",""time""
""fullscreenenter"",""1"",""2440""
","
","
","""event"",""trial"",""time""
""fullscreenenter"",""1"",""2440""
","
","","","","","","1415.5999999940395","images/cat2.png","","","memory_trial","2","maybe_old",""
"html-keyboard-response","61","200165","0.0-18.0-0.9","4363","approach_avoid_sv1","""event"",""trial"",""time""
""fullscreenenter"",""1"",""2440""
","
","
","""event"",""trial"",""time""
""fullscreenenter"",""1"",""2440""
","
","","","","","","null","<div style=""font-size:60px;"">+</div>","null","","fixation","","",""
"memory-trial","62","202241","0.0-18.0-1.9","4363","approach_avoid_sv1","""event"",""trial"",""time""
""fullscreenenter"",""1"",""2440""
","
","
","""event"",""trial"",""time""
""fullscreenenter"",""1"",""2440""
","
","","","","","","1062.5","images/goat4.png","","","memory_trial","3","maybe_new",""
"html-keyboard-response","63","202746","0.0-18.0-0.10","4363","approach_avoid_sv1","""event"",""trial"",""time""
""fullscreenenter"",""1"",""2440""
","
","
","""event"",""trial"",""time""
""fullscreenenter"",""1"",""2440""
","
","","","","","","null","<div style=""font-size:60px;"">+</div>","null","","fixation","","",""
"memory-trial","64","204744","0.0-18.0-1.10","4363","approach_avoid_sv1","""event"",""trial"",""time""
""fullscreenenter"",""1"",""2440""
","
","
","""event"",""trial"",""time""
""fullscreenenter"",""1"",""2440""
","
","","","","","","987.9000000059605","images/cactus1.png","","","memory_trial","2","maybe_old",""
"html-keyboard-response","65","205248","0.0-18.0-0.11","4363","approach_avoid_sv1","""event"",""trial"",""time""
""fullscreenenter"",""1"",""2440""
","
","
","""event"",""trial"",""time""
""fullscreenenter"",""1"",""2440""
","
","","","","","","null","<div style=""font-size:60px;"">+</div>","null","","fixation","","",""
"memory-trial","66","207259","0.0-18.0-1.11","4363","approach_avoid_sv1","""event"",""trial"",""time""
""fullscreenenter"",""1"",""2440""
","
","
","""event"",""trial"",""time""
""fullscreenenter"",""1"",""2440""
","
","","","","","","1000.0999999940395","images/cow2.png","","","memory_trial","1","definitely_old",""
"html-keyboard-response","67","207778","0.0-18.0-0.12","4363","approach_avoid_sv1","""event"",""trial"",""time""
""fullscreenenter"",""1"",""2440""
","
","
","""event"",""trial"",""time""
""fullscreenenter"",""1"",""2440""
","
","","","","","","null","<div style=""font-size:60px;"">+</div>","null","","fixation","","",""
"memory-trial","68","210368","0.0-18.0-1.12","4363","approach_avoid_sv1","""event"",""trial"",""time""
""fullscreenenter"",""1"",""2440""
","
","
","""event"",""trial"",""time""
""fullscreenenter"",""1"",""2440""
","
","","","","","","1580.7999999970198","images/banana7.png","","","memory_trial","2","maybe_old",""
"html-keyboard-response","69","210873","0.0-18.0-0.13","4363","approach_avoid_sv1","""event"",""trial"",""time""
""fullscreenenter"",""1"",""2440""
","
","
","""event"",""trial"",""time""
""fullscreenenter"",""1"",""2440""
","
","","","","","","null","<div style=""font-size:60px;"">+</div>","null","","fixation","","",""
"memory-trial","70","213017","0.0-18.0-1.13","4363","approach_avoid_sv1","""event"",""trial"",""time""
""fullscreenenter"",""1"",""2440""
","
","
","""event"",""trial"",""time""
""fullscreenenter"",""1"",""2440""
","
","","","","","","1134.2000000029802","images/rabbit5.png","","","memory_trial","3","maybe_new",""
"html-keyboard-response","71","213529","0.0-18.0-0.14","4363","approach_avoid_sv1","""event"",""trial"",""time""
""fullscreenenter"",""1"",""2440""
","
","
","""event"",""trial"",""time""
""fullscreenenter"",""1"",""2440""
","
","","","","","","null","<div style=""font-size:60px;"">+</div>","null","","fixation","","",""
"memory-trial","72","215937","0.0-18.0-1.14","4363","approach_avoid_sv1","""event"",""trial"",""time""
""fullscreenenter"",""1"",""2440""
","
","
","""event"",""trial"",""time""
""fullscreenenter"",""1"",""2440""
","
","","","","","","1401.5","images/banana5.png","","","memory_trial","2","maybe_old",""
"html-keyboard-response","73","216440","0.0-18.0-0.15","4363","approach_avoid_sv1","""event"",""trial"",""time""
""fullscreenenter"",""1"",""2440""
","
","
","""event"",""trial"",""time""
""fullscreenenter"",""1"",""2440""
","
","","","","","","null","<div style=""font-size:60px;"">+</div>","null","","fixation","","",""
"memory-trial","74","218471","0.0-18.0-1.15","4363","approach_avoid_sv1","""event"",""trial"",""time""
""fullscreenenter"",""1"",""2440""
","
","
","""event"",""trial"",""time""
""fullscreenenter"",""1"",""2440""
","
","","","","","","1019.5999999940395","images/tree2.png","","","memory_trial","3","maybe_new",""
"html-keyboard-response","75","218974","0.0-18.0-0.16","4363","approach_avoid_sv1","""event"",""trial"",""time""
""fullscreenenter"",""1"",""2440""
","
","
","""event"",""trial"",""time""
""fullscreenenter"",""1"",""2440""
","
","","","","","","null","<div style=""font-size:60px;"">+</div>","null","","fixation","","",""
"memory-trial","76","220864","0.0-18.0-1.16","4363","approach_avoid_sv1","""event"",""trial"",""time""
""fullscreenenter"",""1"",""2440""
","
","
","""event"",""trial"",""time""
""fullscreenenter"",""1"",""2440""
","
","","","","","","882.2000000029802","images/chair2.png","","","memory_trial","2","maybe_old",""
"html-keyboard-response","77","221369","0.0-18.0-0.17","4363","approach_avoid_sv1","""event"",""trial"",""time""
""fullscreenenter"",""1"",""2440""
","
","
","""event"",""trial"",""time""
""fullscreenenter"",""1"",""2440""
","
","","","","","","null","<div style=""font-size:60px;"">+</div>","null","","fixation","","",""
"memory-trial","78","223841","0.0-18.0-1.17","4363","approach_avoid_sv1","""event"",""trial"",""time""
""fullscreenenter"",""1"",""2440""
","
","
","""event"",""trial"",""time""
""fullscreenenter"",""1"",""2440""
","
","","","","","","1463.5","images/train3.png","","","memory_trial","3","maybe_new",""
"html-keyboard-response","79","224345","0.0-18.0-0.18","4363","approach_avoid_sv1","""event"",""trial"",""time""
""fullscreenenter"",""1"",""2440""
","
","
","""event"",""trial"",""time""
""fullscreenenter"",""1"",""2440""
","
","","","","","","null","<div style=""font-size:60px;"">+</div>","null","","fixation","","",""
"memory-trial","80","226417","0.0-18.0-1.18","4363","approach_avoid_sv1","""event"",""trial"",""time""
""fullscreenenter"",""1"",""2440""
","
","
","""event"",""trial"",""time""
""fullscreenenter"",""1"",""2440""
","
","","","","","","1060.0999999940395","images/horse1.png","","","memory_trial","1","definitely_old",""
"html-keyboard-response","81","226926","0.0-18.0-0.19","4363","approach_avoid_sv1","""event"",""trial"",""time""
""fullscreenenter"",""1"",""2440""
","
","
","""event"",""trial"",""time""
""fullscreenenter"",""1"",""2440""
","
","","","","","","null","<div style=""font-size:60px;"">+</div>","null","","fixation","","",""
"memory-trial","82","228881","0.0-18.0-1.19","4363","approach_avoid_sv1","""event"",""trial"",""time""
""fullscreenenter"",""1"",""2440""
","
","
","""event"",""trial"",""time""
""fullscreenenter"",""1"",""2440""
","
","","","","","","952.2000000029802","images/cat3.png","","","memory_trial","1","definitely_old",""
"html-keyboard-response","83","229385","0.0-18.0-0.20","4363","approach_avoid_sv1","""event"",""trial"",""time""
""fullscreenenter"",""1"",""2440""
","
","
","""event"",""trial"",""time""
""fullscreenenter"",""1"",""2440""
","
","","","","","","null","<div style=""font-size:60px;"">+</div>","null","","fixation","","",""
"memory-trial","84","231720","0.0-18.0-1.20","4363","approach_avoid_sv1","""event"",""trial"",""time""
""fullscreenenter"",""1"",""2440""
","
","
","""event"",""trial"",""time""
""fullscreenenter"",""1"",""2440""
","
","","","","","","1328.2999999970198","images/bush3.png","","","memory_trial","2","maybe_old",""
"html-keyboard-response","85","232225","0.0-18.0-0.21","4363","approach_avoid_sv1","""event"",""trial"",""time""
""fullscreenenter"",""1"",""2440""
","
","
","""event"",""trial"",""time""
""fullscreenenter"",""1"",""2440""
","
","","","","","","null","<div style=""font-size:60px;"">+</div>","null","","fixation","","",""
"memory-trial","86","234061","0.0-18.0-1.21","4363","approach_avoid_sv1","""event"",""trial"",""time""
""fullscreenenter"",""1"",""2440""
","
","
","""event"",""trial"",""time""
""fullscreenenter"",""1"",""2440""
","
","","","","","","826.7999999970198","images/truck1.png","","","memory_trial","4","definitely_new",""
"html-keyboard-response","87","234568","0.0-18.0-0.22","4363","approach_avoid_sv1","""event"",""trial"",""time""
""fullscreenenter"",""1"",""2440""
","
","
","""event"",""trial"",""time""
""fullscreenenter"",""1"",""2440""
","
","","","","","","null","<div style=""font-size:60px;"">+</div>","null","","fixation","","",""
"memory-trial","88","236968","0.0-18.0-1.22","4363","approach_avoid_sv1","""event"",""trial"",""time""
""fullscreenenter"",""1"",""2440""
","
","
","""event"",""trial"",""time""
""fullscreenenter"",""1"",""2440""
","
","","","","","","1383.5","images/cactus6.png","","","memory_trial","3","maybe_new",""
"html-keyboard-response","89","237473","0.0-18.0-0.23","4363","approach_avoid_sv1","""event"",""trial"",""time""
""fullscreenenter"",""1"",""2440""
","
","
","""event"",""trial"",""time""
""fullscreenenter"",""1"",""2440""
","
","","","","","","null","<div style=""font-size:60px;"">+</div>","null","","fixation","","",""
"memory-trial","90","239873","0.0-18.0-1.23","4363","approach_avoid_sv1","""event"",""trial"",""time""
""fullscreenenter"",""1"",""2440""
","
","
","""event"",""trial"",""time""
""fullscreenenter"",""1"",""2440""
","
","","","","","","1392.2999999970198","images/flower7.png","","","memory_trial","1","definitely_old",""
"html-keyboard-response","91","240383","0.0-18.0-0.24","4363","approach_avoid_sv1","""event"",""trial"",""time""
""fullscreenenter"",""1"",""2440""
","
","
","""event"",""trial"",""time""
""fullscreenenter"",""1"",""2440""
","
","","","","","","null","<div style=""font-size:60px;"">+</div>","null","","fixation","","",""
"memory-trial","92","242706","0.0-18.0-1.24","4363","approach_avoid_sv1","""event"",""trial"",""time""
""fullscreenenter"",""1"",""2440""
","
","
","""event"",""trial"",""time""
""fullscreenenter"",""1"",""2440""
","
","","","","","","1308.3999999910593","images/cactus5.png","","","memory_trial","1","definitely_old",""
"html-keyboard-response","93","243208","0.0-18.0-0.25","4363","approach_avoid_sv1","""event"",""trial"",""time""
""fullscreenenter"",""1"",""2440""
","
","
","""event"",""trial"",""time""
""fullscreenenter"",""1"",""2440""
","
","","","","","","null","<div style=""font-size:60px;"">+</div>","null","","fixation","","",""
"memory-trial","94","245072","0.0-18.0-1.25","4363","approach_avoid_sv1","""event"",""trial"",""time""
""fullscreenenter"",""1"",""2440""
","
","
","""event"",""trial"",""time""
""fullscreenenter"",""1"",""2440""
","
","","","","","","859.2999999970198","images/sofa7.png","","","memory_trial","1","definitely_old",""
"html-keyboard-response","95","245584","0.0-18.0-0.26","4363","approach_avoid_sv1","""event"",""trial"",""time""
""fullscreenenter"",""1"",""2440""
","
","
","""event"",""trial"",""time""
""fullscreenenter"",""1"",""2440""
","
","","","","","","null","<div style=""font-size:60px;"">+</div>","null","","fixation","","",""
"memory-trial","96","248392","0.0-18.0-1.26","4363","approach_avoid_sv1","""event"",""trial"",""time""
""fullscreenenter"",""1"",""2440""
","
","
","""event"",""trial"",""time""
""fullscreenenter"",""1"",""2440""
","
","","","","","","1789.9000000059605","images/straw2.png","","","memory_trial","2","maybe_old",""
"html-keyboard-response","97","248897","0.0-18.0-0.27","4363","approach_avoid_sv1","""event"",""trial"",""time""
""fullscreenenter"",""1"",""2440""
","
","
","""event"",""trial"",""time""
""fullscreenenter"",""1"",""2440""
","
","","","","","","null","<div style=""font-size:60px;"">+</div>","null","","fixation","","",""
"memory-trial","98","250984","0.0-18.0-1.27","4363","approach_avoid_sv1","""event"",""trial"",""time""
""fullscreenenter"",""1"",""2440""
","
","
","""event"",""trial"",""time""
""fullscreenenter"",""1"",""2440""
","
","","","","","","1082.699999988079","images/train1.png","","","memory_trial","3","maybe_new",""
"html-keyboard-response","99","251499","0.0-18.0-0.28","4363","approach_avoid_sv1","""event"",""trial"",""time""
""fullscreenenter"",""1"",""2440""
","
","
","""event"",""trial"",""time""
""fullscreenenter"",""1"",""2440""
","
","","","","","","null","<div style=""font-size:60px;"">+</div>","null","","fixation","","",""
"memory-trial","100","253464","0.0-18.0-1.28","4363","approach_avoid_sv1","""event"",""trial"",""time""
""fullscreenenter"",""1"",""2440""
","
","
","""event"",""trial"",""time""
""fullscreenenter"",""1"",""2440""
","
","","","","","","962.5","images/cat5.png","","","memory_trial","2","maybe_old",""
"html-keyboard-response","101","253969","0.0-18.0-0.29","4363","approach_avoid_sv1","""event"",""trial"",""time""
""fullscreenenter"",""1"",""2440""
","
","
","""event"",""trial"",""time""
""fullscreenenter"",""1"",""2440""
","
","","","","","","null","<div style=""font-size:60px;"">+</div>","null","","fixation","","",""
"memory-trial","102","256009","0.0-18.0-1.29","4363","approach_avoid_sv1","""event"",""trial"",""time""
""fullscreenenter"",""1"",""2440""
","
","
","""event"",""trial"",""time""
""fullscreenenter"",""1"",""2440""
","
","","","","","","1028.2999999970198","images/goat6.png","","","memory_trial","3","maybe_new",""
"html-keyboard-response","103","256520","0.0-18.0-0.30","4363","approach_avoid_sv1","""event"",""trial"",""time""
""fullscreenenter"",""1"",""2440""
","
","
","""event"",""trial"",""time""
""fullscreenenter"",""1"",""2440""
","
","","","","","","null","<div style=""font-size:60px;"">+</div>","null","","fixation","","",""
"memory-trial","104","258457","0.0-18.0-1.30","4363","approach_avoid_sv1","""event"",""trial"",""time""
""fullscreenenter"",""1"",""2440""
","
","
","""event"",""trial"",""time""
""fullscreenenter"",""1"",""2440""
","
","","","","","","928.5","images/horse6.png","","","memory_trial","2","maybe_old",""
"html-keyboard-response","105","258962","0.0-18.0-0.31","4363","approach_avoid_sv1","""event"",""trial"",""time""
""fullscreenenter"",""1"",""2440""
","
","
","""event"",""trial"",""time""
""fullscreenenter"",""1"",""2440""
","
","","","","","","null","<div style=""font-size:60px;"">+</div>","null","","fixation","","",""
"memory-trial","106","261041","0.0-18.0-1.31","4363","approach_avoid_sv1","""event"",""trial"",""time""
""fullscreenenter"",""1"",""2440""
","
","
","""event"",""trial"",""time""
""fullscreenenter"",""1"",""2440""
","
","","","","","","1075.2999999970198","images/straw5.png","","","memory_trial","3","maybe_new",""
"html-keyboard-response","107","261554","0.0-18.0-0.32","4363","approach_avoid_sv1","""event"",""trial"",""time""
""fullscreenenter"",""1"",""2440""
","
","
","""event"",""trial"",""time""
""fullscreenenter"",""1"",""2440""
","
","","","","","","null","<div style=""font-size:60px;"">+</div>","null","","fixation","","",""
"memory-trial","108","263726","0.0-18.0-1.32","4363","approach_avoid_sv1","""event"",""trial"",""time""
""fullscreenenter"",""1"",""2440""
","
","
","""event"",""trial"",""time""
""fullscreenenter"",""1"",""2440""
","
","","","","","","1152.2999999970198","images/cow3.png","","","memory_trial","3","maybe_new",""
"html-keyboard-response","109","264234","0.0-18.0-0.33","4363","approach_avoid_sv1","""event"",""trial"",""time""
""fullscreenenter"",""1"",""2440""
","
","
","""event"",""trial"",""time""
""fullscreenenter"",""1"",""2440""
","
","","","","","","null","<div style=""font-size:60px;"">+</div>","null","","fixation","","",""
"memory-trial","110","266812","0.0-18.0-1.33","4363","approach_avoid_sv1","""event"",""trial"",""time""
""fullscreenenter"",""1"",""2440""
","
","
","""event"",""trial"",""time""
""fullscreenenter"",""1"",""2440""
","
","","","","","","1558.2999999970198","images/bush2.png","","","memory_trial","1","definitely_old",""
"html-keyboard-response","111","267321","0.0-18.0-0.34","4363","approach_avoid_sv1","""event"",""trial"",""time""
""fullscreenenter"",""1"",""2440""
","
","
","""event"",""trial"",""time""
""fullscreenenter"",""1"",""2440""
","
","","","","","","null","<div style=""font-size:60px;"">+</div>","null","","fixation","","",""
"memory-trial","112","269354","0.0-18.0-1.34","4363","approach_avoid_sv1","""event"",""trial"",""time""
""fullscreenenter"",""1"",""2440""
","
","
","""event"",""trial"",""time""
""fullscreenenter"",""1"",""2440""
","
","","","","","","1022.5","images/bush6.png","","","memory_trial","4","definitely_new",""
"html-keyboard-response","113","269857","0.0-18.0-0.35","4363","approach_avoid_sv1","""event"",""trial"",""time""
""fullscreenenter"",""1"",""2440""
","
","
","""event"",""trial"",""time""
""fullscreenenter"",""1"",""2440""
","
","","","","","","null","<div style=""font-size:60px;"">+</div>","null","","fixation","","",""
"memory-trial","114","271953","0.0-18.0-1.35","4363","approach_avoid_sv1","""event"",""trial"",""time""
""fullscreenenter"",""1"",""2440""
","
","
","""event"",""trial"",""time""
""fullscreenenter"",""1"",""2440""
","
","","","","","","1090.7000000029802","images/cactus4.png","","","memory_trial","1","definitely_old",""
"html-keyboard-response","115","272457","0.0-18.0-0.36","4363","approach_avoid_sv1","""event"",""trial"",""time""
""fullscreenenter"",""1"",""2440""
","
","
","""event"",""trial"",""time""
""fullscreenenter"",""1"",""2440""
","
","","","","","","null","<div style=""font-size:60px;"">+</div>","null","","fixation","","",""
"memory-trial","116","274554","0.0-18.0-1.36","4363","approach_avoid_sv1","""event"",""trial"",""time""
""fullscreenenter"",""1"",""2440""
","
","
","""event"",""trial"",""time""
""fullscreenenter"",""1"",""2440""
","
","","","","","","1089.5","images/bed7.png","","","memory_trial","1","definitely_old",""
"html-keyboard-response","117","275056","0.0-18.0-0.37","4363","approach_avoid_sv1","""event"",""trial"",""time""
""fullscreenenter"",""1"",""2440""
","
","
","""event"",""trial"",""time""
""fullscreenenter"",""1"",""2440""
","
","","","","","","null","<div style=""font-size:60px;"">+</div>","null","","fixation","","",""
"memory-trial","118","277137","0.0-18.0-1.37","4363","approach_avoid_sv1","""event"",""trial"",""time""
""fullscreenenter"",""1"",""2440""
","
","
","""event"",""trial"",""time""
""fullscreenenter"",""1"",""2440""
","
","","","","","","1071","images/cat8.png","","","memory_trial","4","definitely_new",""
"html-keyboard-response","119","277656","0.0-18.0-0.38","4363","approach_avoid_sv1","""event"",""trial"",""time""
""fullscreenenter"",""1"",""2440""
","
","
","""event"",""trial"",""time""
""fullscreenenter"",""1"",""2440""
","
","","","","","","null","<div style=""font-size:60px;"">+</div>","null","","fixation","","",""
"memory-trial","120","279393","0.0-18.0-1.38","4363","approach_avoid_sv1","""event"",""trial"",""time""
""fullscreenenter"",""1"",""2440""
","
","
","""event"",""trial"",""time""
""fullscreenenter"",""1"",""2440""
","
","","","","","","730.1000000089407","images/truck3.png","","","memory_trial","4","definitely_new",""
"html-keyboard-response","121","279897","0.0-18.0-0.39","4363","approach_avoid_sv1","""event"",""trial"",""time""
""fullscreenenter"",""1"",""2440""
","
","
","""event"",""trial"",""time""
""fullscreenenter"",""1"",""2440""
","
","","","","","","null","<div style=""font-size:60px;"">+</div>","null","","fixation","","",""
"memory-trial","122","282617","0.0-18.0-1.39","4363","approach_avoid_sv1","""event"",""trial"",""time""
""fullscreenenter"",""1"",""2440""
","
","
","""event"",""trial"",""time""
""fullscreenenter"",""1"",""2440""
","
","","","","","","1709.9000000059605","images/cow6.png","","","memory_trial","2","maybe_old",""
"html-keyboard-response","123","283121","0.0-18.0-0.40","4363","approach_avoid_sv1","""event"",""trial"",""time""
""fullscreenenter"",""1"",""2440""
","
","
","""event"",""trial"",""time""
""fullscreenenter"",""1"",""2440""
","
","","","","","","null","<div style=""font-size:60px;"">+</div>","null","","fixation","","",""
"memory-trial","124","285545","0.0-18.0-1.40","4363","approach_avoid_sv1","""event"",""trial"",""time""
""fullscreenenter"",""1"",""2440""
","
","
","""event"",""trial"",""time""
""fullscreenenter"",""1"",""2440""
","
","","","","","","1418.9000000059605","images/sofa1.png","","","memory_trial","4","definitely_new",""
"html-keyboard-response","125","286049","0.0-18.0-0.41","4363","approach_avoid_sv1","""event"",""trial"",""time""
""fullscreenenter"",""1"",""2440""
","
","
","""event"",""trial"",""time""
""fullscreenenter"",""1"",""2440""
","
","","","","","","null","<div style=""font-size:60px;"">+</div>","null","","fixation","","",""
"memory-trial","126","287932","0.0-18.0-1.41","4363","approach_avoid_sv1","""event"",""trial"",""time""
""fullscreenenter"",""1"",""2440""
","
","
","""event"",""trial"",""time""
""fullscreenenter"",""1"",""2440""
","
","","","","","","874.7999999970198","images/tree5.png","","","memory_trial","4","definitely_new",""
"html-button-response","127","290566","0.0-18.0-2.41-0.41","4363","approach_avoid_sv1","""event"",""trial"",""time""
""fullscreenenter"",""1"",""2440""
","
","
","""event"",""trial"",""time""
""fullscreenenter"",""1"",""2440""
","
","","","","","","2633.3999999910593","<p> Take a break! </p><p> Click the button to continue. </p>","0","","break","","",""
"html-keyboard-response","128","291072","0.0-18.0-0.42","4363","approach_avoid_sv1","""event"",""trial"",""time""
""fullscreenenter"",""1"",""2440""
","
","
","""event"",""trial"",""time""
""fullscreenenter"",""1"",""2440""
","
","","","","","","null","<div style=""font-size:60px;"">+</div>","null","","fixation","","",""
"memory-trial","129","293682","0.0-18.0-1.42","4363","approach_avoid_sv1","""event"",""trial"",""time""
""fullscreenenter"",""1"",""2440""
","
","
","""event"",""trial"",""time""
""fullscreenenter"",""1"",""2440""
","
","","","","","","1602.2999999970198","images/bed2.png","","","memory_trial","2","maybe_old",""
"html-keyboard-response","130","294184","0.0-18.0-0.43","4363","approach_avoid_sv1","""event"",""trial"",""time""
""fullscreenenter"",""1"",""2440""
","
","
","""event"",""trial"",""time""
""fullscreenenter"",""1"",""2440""
","
","","","","","","null","<div style=""font-size:60px;"">+</div>","null","","fixation","","",""
"memory-trial","131","296178","0.0-18.0-1.43","4363","approach_avoid_sv1","""event"",""trial"",""time""
""fullscreenenter"",""1"",""2440""
","
","
","""event"",""trial"",""time""
""fullscreenenter"",""1"",""2440""
","
","","","","","","981.3999999910593","images/train7.png","","","memory_trial","2","maybe_old",""
"html-keyboard-response","132","296681","0.0-18.0-0.44","4363","approach_avoid_sv1","""event"",""trial"",""time""
""fullscreenenter"",""1"",""2440""
","
","
","""event"",""trial"",""time""
""fullscreenenter"",""1"",""2440""
","
","","","","","","null","<div style=""font-size:60px;"">+</div>","null","","fixation","","",""
"memory-trial","133","298617","0.0-18.0-1.44","4363","approach_avoid_sv1","""event"",""trial"",""time""
""fullscreenenter"",""1"",""2440""
","
","
","""event"",""trial"",""time""
""fullscreenenter"",""1"",""2440""
","
","","","","","","928.0999999940395","images/orange1.png","","","memory_trial","3","maybe_new",""
"html-keyboard-response","134","299135","0.0-18.0-0.45","4363","approach_avoid_sv1","""event"",""trial"",""time""
""fullscreenenter"",""1"",""2440""
","
","
","""event"",""trial"",""time""
""fullscreenenter"",""1"",""2440""
","
","","","","","","null","<div style=""font-size:60px;"">+</div>","null","","fixation","","",""
"memory-trial","135","300978","0.0-18.0-1.45","4363","approach_avoid_sv1","""event"",""trial"",""time""
""fullscreenenter"",""1"",""2440""
","
","
","""event"",""trial"",""time""
""fullscreenenter"",""1"",""2440""
","
","","","","","","834.7000000029802","images/straw7.png","","","memory_trial","3","maybe_new",""
"html-keyboard-response","136","301481","0.0-18.0-0.46","4363","approach_avoid_sv1","""event"",""trial"",""time""
""fullscreenenter"",""1"",""2440""
","
","
","""event"",""trial"",""time""
""fullscreenenter"",""1"",""2440""
","
","","","","","","null","<div style=""font-size:60px;"">+</div>","null","","fixation","","",""
"memory-trial","137","303330","0.0-18.0-1.46","4363","approach_avoid_sv1","""event"",""trial"",""time""
""fullscreenenter"",""1"",""2440""
","
","
","""event"",""trial"",""time""
""fullscreenenter"",""1"",""2440""
","
","","","","","","841.2000000029802","images/dog2.png","","","memory_trial","3","maybe_new",""
"html-keyboard-response","138","303834","0.0-18.0-0.47","4363","approach_avoid_sv1","""event"",""trial"",""time""
""fullscreenenter"",""1"",""2440""
","
","
","""event"",""trial"",""time""
""fullscreenenter"",""1"",""2440""
","
","","","","","","null","<div style=""font-size:60px;"">+</div>","null","","fixation","","",""
"memory-trial","139","305793","0.0-18.0-1.47","4363","approach_avoid_sv1","""event"",""trial"",""time""
""fullscreenenter"",""1"",""2440""
","
","
","""event"",""trial"",""time""
""fullscreenenter"",""1"",""2440""
","
","","","","","","954","images/cat6.png","","","memory_trial","3","maybe_new",""
"html-keyboard-response","140","306296","0.0-18.0-0.48","4363","approach_avoid_sv1","""event"",""trial"",""time""
""fullscreenenter"",""1"",""2440""
","
","
","""event"",""trial"",""time""
""fullscreenenter"",""1"",""2440""
","
","","","","","","null","<div style=""font-size:60px;"">+</div>","null","","fixation","","",""
"memory-trial","141","308041","0.0-18.0-1.48","4363","approach_avoid_sv1","""event"",""trial"",""time""
""fullscreenenter"",""1"",""2440""
","
","
","""event"",""trial"",""time""
""fullscreenenter"",""1"",""2440""
","
","","","","","","735.9000000059605","images/cat1.png","","","memory_trial","3","maybe_new",""
"html-keyboard-response","142","308545","0.0-18.0-0.49","4363","approach_avoid_sv1","""event"",""trial"",""time""
""fullscreenenter"",""1"",""2440""
","
","
","""event"",""trial"",""time""
""fullscreenenter"",""1"",""2440""
","
","","","","","","null","<div style=""font-size:60px;"">+</div>","null","","fixation","","",""
"memory-trial","143","310785","0.0-18.0-1.49","4363","approach_avoid_sv1","""event"",""trial"",""time""
""fullscreenenter"",""1"",""2440""
","
","
","""event"",""trial"",""time""
""fullscreenenter"",""1"",""2440""
","
","","","","","","1237.2999999970198","images/boat5.png","","","memory_trial","2","maybe_old",""
"html-keyboard-response","144","311288","0.0-18.0-0.50","4363","approach_avoid_sv1","""event"",""trial"",""time""
""fullscreenenter"",""1"",""2440""
","
","
","""event"",""trial"",""time""
""fullscreenenter"",""1"",""2440""
","
","","","","","","null","<div style=""font-size:60px;"">+</div>","null","","fixation","","",""
"memory-trial","145","313089","0.0-18.0-1.50","4363","approach_avoid_sv1","""event"",""trial"",""time""
""fullscreenenter"",""1"",""2440""
","
","
","""event"",""trial"",""time""
""fullscreenenter"",""1"",""2440""
","
","","","","","","793.2999999970198","images/tree1.png","","","memory_trial","3","maybe_new",""
"html-keyboard-response","146","313593","0.0-18.0-0.51","4363","approach_avoid_sv1","""event"",""trial"",""time""
""fullscreenenter"",""1"",""2440""
","
","
","""event"",""trial"",""time""
""fullscreenenter"",""1"",""2440""
","
","","","","","","null","<div style=""font-size:60px;"">+</div>","null","","fixation","","",""
"memory-trial","147","315729","0.0-18.0-1.51","4363","approach_avoid_sv1","""event"",""trial"",""time""
""fullscreenenter"",""1"",""2440""
","
","
","""event"",""trial"",""time""
""fullscreenenter"",""1"",""2440""
","
","","","","","","1127.9000000059605","images/truck6.png","","","memory_trial","2","maybe_old",""
"html-keyboard-response","148","316233","0.0-18.0-0.52","4363","approach_avoid_sv1","""event"",""trial"",""time""
""fullscreenenter"",""1"",""2440""
","
","
","""event"",""trial"",""time""
""fullscreenenter"",""1"",""2440""
","
","","","","","","null","<div style=""font-size:60px;"">+</div>","null","","fixation","","",""
"memory-trial","149","318579","0.0-18.0-1.52","4363","approach_avoid_sv1","""event"",""trial"",""time""
""fullscreenenter"",""1"",""2440""
","
","
","""event"",""trial"",""time""
""fullscreenenter"",""1"",""2440""
","
","","","","","","1326.1000000089407","images/boat6.png","","","memory_trial","2","maybe_old",""
"html-keyboard-response","150","319082","0.0-18.0-0.53","4363","approach_avoid_sv1","""event"",""trial"",""time""
""fullscreenenter"",""1"",""2440""
","
","
","""event"",""trial"",""time""
""fullscreenenter"",""1"",""2440""
","
","","","","","","null","<div style=""font-size:60px;"">+</div>","null","","fixation","","",""
"memory-trial","151","321135","0.0-18.0-1.53","4363","approach_avoid_sv1","""event"",""trial"",""time""
""fullscreenenter"",""1"",""2440""
","
","
","""event"",""trial"",""time""
""fullscreenenter"",""1"",""2440""
","
","","","","","","1035","images/banana3.png","","","memory_trial","1","definitely_old",""
"html-keyboard-response","152","321641","0.0-18.0-0.54","4363","approach_avoid_sv1","""event"",""trial"",""time""
""fullscreenenter"",""1"",""2440""
","
","
","""event"",""trial"",""time""
""fullscreenenter"",""1"",""2440""
","
","","","","","","null","<div style=""font-size:60px;"">+</div>","null","","fixation","","",""
"memory-trial","153","323760","0.0-18.0-1.54","4363","approach_avoid_sv1","""event"",""trial"",""time""
""fullscreenenter"",""1"",""2440""
","
","
","""event"",""trial"",""time""
""fullscreenenter"",""1"",""2440""
","
","","","","","","1097.5999999940395","images/sheep1.png","","","memory_trial","3","maybe_new",""
"html-keyboard-response","154","324268","0.0-18.0-0.55","4363","approach_avoid_sv1","""event"",""trial"",""time""
""fullscreenenter"",""1"",""2440""
","
","
","""event"",""trial"",""time""
""fullscreenenter"",""1"",""2440""
","
","","","","","","null","<div style=""font-size:60px;"">+</div>","null","","fixation","","",""
"memory-trial","155","326017","0.0-18.0-1.55","4363","approach_avoid_sv1","""event"",""trial"",""time""
""fullscreenenter"",""1"",""2440""
","
","
","""event"",""trial"",""time""
""fullscreenenter"",""1"",""2440""
","
","","","","","","743.7000000029802","images/cactus7.png","","","memory_trial","1","definitely_old",""
"html-keyboard-response","156","326529","0.0-18.0-0.56","4363","approach_avoid_sv1","""event"",""trial"",""time""
""fullscreenenter"",""1"",""2440""
","
","
","""event"",""trial"",""time""
""fullscreenenter"",""1"",""2440""
","
","","","","","","null","<div style=""font-size:60px;"">+</div>","null","","fixation","","",""
"memory-trial","157","328426","0.0-18.0-1.56","4363","approach_avoid_sv1","""event"",""trial"",""time""
""fullscreenenter"",""1"",""2440""
","
","
","""event"",""trial"",""time""
""fullscreenenter"",""1"",""2440""
","
","","","","","","882.2000000029802","images/truck2.png","","","memory_trial","2","maybe_old",""
"html-keyboard-response","158","328928","0.0-18.0-0.57","4363","approach_avoid_sv1","""event"",""trial"",""time""
""fullscreenenter"",""1"",""2440""
","
","
","""event"",""trial"",""time""
""fullscreenenter"",""1"",""2440""
","
","","","","","","null","<div style=""font-size:60px;"">+</div>","null","","fixation","","",""
"memory-trial","159","331069","0.0-18.0-1.57","4363","approach_avoid_sv1","""event"",""trial"",""time""
""fullscreenenter"",""1"",""2440""
","
","
","""event"",""trial"",""time""
""fullscreenenter"",""1"",""2440""
","
","","","","","","1118.800000011921","images/sheep3.png","","","memory_trial","4","definitely_new",""
"html-keyboard-response","160","331578","0.0-18.0-0.58","4363","approach_avoid_sv1","""event"",""trial"",""time""
""fullscreenenter"",""1"",""2440""
","
","
","""event"",""trial"",""time""
""fullscreenenter"",""1"",""2440""
","
","","","","","","null","<div style=""font-size:60px;"">+</div>","null","","fixation","","",""
"memory-trial","161","333882","0.0-18.0-1.58","4363","approach_avoid_sv1","""event"",""trial"",""time""
""fullscreenenter"",""1"",""2440""
","
","
","""event"",""trial"",""time""
""fullscreenenter"",""1"",""2440""
","
","","","","","","1295.5999999940395","images/sofa8.png","","","memory_trial","2","maybe_old",""
"html-keyboard-response","162","334385","0.0-18.0-0.59","4363","approach_avoid_sv1","""event"",""trial"",""time""
""fullscreenenter"",""1"",""2440""
","
","
","""event"",""trial"",""time""
""fullscreenenter"",""1"",""2440""
","
","","","","","","null","<div style=""font-size:60px;"">+</div>","null","","fixation","","",""
"memory-trial","163","336297","0.0-18.0-1.59","4363","approach_avoid_sv1","""event"",""trial"",""time""
""fullscreenenter"",""1"",""2440""
","
","
","""event"",""trial"",""time""
""fullscreenenter"",""1"",""2440""
","
","","","","","","905.5","images/orange6.png","","","memory_trial","3","maybe_new",""
"html-keyboard-response","164","336805","0.0-18.0-0.60","4363","approach_avoid_sv1","""event"",""trial"",""time""
""fullscreenenter"",""1"",""2440""
","
","
","""event"",""trial"",""time""
""fullscreenenter"",""1"",""2440""
","
","","","","","","null","<div style=""font-size:60px;"">+</div>","null","","fixation","","",""
"memory-trial","165","339057","0.0-18.0-1.60","4363","approach_avoid_sv1","""event"",""trial"",""time""
""fullscreenenter"",""1"",""2440""
","
","
","""event"",""trial"",""time""
""fullscreenenter"",""1"",""2440""
","
","","","","","","1245.5","images/horse3.png","","","memory_trial","3","maybe_new",""
"html-keyboard-response","166","339561","0.0-18.0-0.61","4363","approach_avoid_sv1","""event"",""trial"",""time""
""fullscreenenter"",""1"",""2440""
","
","
","""event"",""trial"",""time""
""fullscreenenter"",""1"",""2440""
","
","","","","","","null","<div style=""font-size:60px;"">+</div>","null","","fixation","","",""
"memory-trial","167","341345","0.0-18.0-1.61","4363","approach_avoid_sv1","""event"",""trial"",""time""
""fullscreenenter"",""1"",""2440""
","
","
","""event"",""trial"",""time""
""fullscreenenter"",""1"",""2440""
","
","","","","","","768.5","images/banana8.png","","","memory_trial","3","maybe_new",""
"html-keyboard-response","168","341850","0.0-18.0-0.62","4363","approach_avoid_sv1","""event"",""trial"",""time""
""fullscreenenter"",""1"",""2440""
","
","
","""event"",""trial"",""time""
""fullscreenenter"",""1"",""2440""
","
","","","","","","null","<div style=""font-size:60px;"">+</div>","null","","fixation","","",""
"memory-trial","169","343715","0.0-18.0-1.62","4363","approach_avoid_sv1","""event"",""trial"",""time""
""fullscreenenter"",""1"",""2440""
","
","
","""event"",""trial"",""time""
""fullscreenenter"",""1"",""2440""
","
","","","","","","854.3999999910593","images/train6.png","","","memory_trial","2","maybe_old",""
"html-keyboard-response","170","344218","0.0-18.0-0.63","4363","approach_avoid_sv1","""event"",""trial"",""time""
""fullscreenenter"",""1"",""2440""
","
","
","""event"",""trial"",""time""
""fullscreenenter"",""1"",""2440""
","
","","","","","","null","<div style=""font-size:60px;"">+</div>","null","","fixation","","",""
"memory-trial","171","346041","0.0-18.0-1.63","4363","approach_avoid_sv1","""event"",""trial"",""time""
""fullscreenenter"",""1"",""2440""
","
","
","""event"",""trial"",""time""
""fullscreenenter"",""1"",""2440""
","
","","","","","","816.4000000059605","images/plane3.png","","","memory_trial","3","maybe_new",""
"html-keyboard-response","172","346545","0.0-18.0-0.64","4363","approach_avoid_sv1","""event"",""trial"",""time""
""fullscreenenter"",""1"",""2440""
","
","
","""event"",""trial"",""time""
""fullscreenenter"",""1"",""2440""
","
","","","","","","null","<div style=""font-size:60px;"">+</div>","null","","fixation","","",""
"memory-trial","173","348561","0.0-18.0-1.64","4363","approach_avoid_sv1","""event"",""trial"",""time""
""fullscreenenter"",""1"",""2440""
","
","
","""event"",""trial"",""time""
""fullscreenenter"",""1"",""2440""
","
","","","","","","1009.7000000029802","images/rabbit2.png","","","memory_trial","2","maybe_old",""
"html-keyboard-response","174","349066","0.0-18.0-0.65","4363","approach_avoid_sv1","""event"",""trial"",""time""
""fullscreenenter"",""1"",""2440""
","
","
","""event"",""trial"",""time""
""fullscreenenter"",""1"",""2440""
","
","","","","","","null","<div style=""font-size:60px;"">+</div>","null","","fixation","","",""
"memory-trial","175","350809","0.0-18.0-1.65","4363","approach_avoid_sv1","""event"",""trial"",""time""
""fullscreenenter"",""1"",""2440""
","
","
","""event"",""trial"",""time""
""fullscreenenter"",""1"",""2440""
","
","","","","","","735.7999999970198","images/rabbit7.png","","","memory_trial","2","maybe_old",""
"html-keyboard-response","176","351314","0.0-18.0-0.66","4363","approach_avoid_sv1","""event"",""trial"",""time""
""fullscreenenter"",""1"",""2440""
","
","
","""event"",""trial"",""time""
""fullscreenenter"",""1"",""2440""
","
","","","","","","null","<div style=""font-size:60px;"">+</div>","null","","fixation","","",""
"memory-trial","177","353113","0.0-18.0-1.66","4363","approach_avoid_sv1","""event"",""trial"",""time""
""fullscreenenter"",""1"",""2440""
","
","
","""event"",""trial"",""time""
""fullscreenenter"",""1"",""2440""
","
","","","","","","796.7999999970198","images/plane1.png","","","memory_trial","3","maybe_new",""
"html-keyboard-response","178","353616","0.0-18.0-0.67","4363","approach_avoid_sv1","""event"",""trial"",""time""
""fullscreenenter"",""1"",""2440""
","
","
","""event"",""trial"",""time""
""fullscreenenter"",""1"",""2440""
","
","","","","","","null","<div style=""font-size:60px;"">+</div>","null","","fixation","","",""
"memory-trial","179","355635","0.0-18.0-1.67","4363","approach_avoid_sv1","""event"",""trial"",""time""
""fullscreenenter"",""1"",""2440""
","
","
","""event"",""trial"",""time""
""fullscreenenter"",""1"",""2440""
","
","","","","","","998.7000000029802","images/rodent2.png","","","memory_trial","3","maybe_new",""
"html-keyboard-response","180","356137","0.0-18.0-0.68","4363","approach_avoid_sv1","""event"",""trial"",""time""
""fullscreenenter"",""1"",""2440""
","
","
","""event"",""trial"",""time""
""fullscreenenter"",""1"",""2440""
","
","","","","","","null","<div style=""font-size:60px;"">+</div>","null","","fixation","","",""
"memory-trial","181","358169","0.0-18.0-1.68","4363","approach_avoid_sv1","""event"",""trial"",""time""
""fullscreenenter"",""1"",""2440""
","
","
","""event"",""trial"",""time""
""fullscreenenter"",""1"",""2440""
","
","","","","","","1022.2000000029802","images/cat4.png","","","memory_trial","2","maybe_old",""
"html-keyboard-response","182","358674","0.0-18.0-0.69","4363","approach_avoid_sv1","""event"",""trial"",""time""
""fullscreenenter"",""1"",""2440""
","
","
","""event"",""trial"",""time""
""fullscreenenter"",""1"",""2440""
","
","","","","","","null","<div style=""font-size:60px;"">+</div>","null","","fixation","","",""
"memory-trial","183","360737","0.0-18.0-1.69","4363","approach_avoid_sv1","""event"",""trial"",""time""
""fullscreenenter"",""1"",""2440""
","
","
","""event"",""trial"",""time""
""fullscreenenter"",""1"",""2440""
","
","","","","","","1060.3999999910593","images/rabbit3.png","","","memory_trial","3","maybe_new",""
"html-keyboard-response","184","361241","0.0-18.0-0.70","4363","approach_avoid_sv1","""event"",""trial"",""time""
""fullscreenenter"",""1"",""2440""
","
","
","""event"",""trial"",""time""
""fullscreenenter"",""1"",""2440""
","
","","","","","","null","<div style=""font-size:60px;"">+</div>","null","","fixation","","",""
"memory-trial","185","363049","0.0-18.0-1.70","4363","approach_avoid_sv1","""event"",""trial"",""time""
""fullscreenenter"",""1"",""2440""
","
","
","""event"",""trial"",""time""
""fullscreenenter"",""1"",""2440""
","
","","","","","","804.2999999970198","images/table8.png","","","memory_trial","3","maybe_new",""
"html-keyboard-response","186","363553","0.0-18.0-0.71","4363","approach_avoid_sv1","""event"",""trial"",""time""
""fullscreenenter"",""1"",""2440""
","
","
","""event"",""trial"",""time""
""fullscreenenter"",""1"",""2440""
","
","","","","","","null","<div style=""font-size:60px;"">+</div>","null","","fixation","","",""
"memory-trial","187","365281","0.0-18.0-1.71","4363","approach_avoid_sv1","""event"",""trial"",""time""
""fullscreenenter"",""1"",""2440""
","
","
","""event"",""trial"",""time""
""fullscreenenter"",""1"",""2440""
","
","","","","","","723.6000000089407","images/straw6.png","","","memory_trial","3","maybe_new",""
"html-keyboard-response","188","365785","0.0-18.0-0.72","4363","approach_avoid_sv1","""event"",""trial"",""time""
""fullscreenenter"",""1"",""2440""
","
","
","""event"",""trial"",""time""
""fullscreenenter"",""1"",""2440""
","
","","","","","","null","<div style=""font-size:60px;"">+</div>","null","","fixation","","",""
"memory-trial","189","367937","0.0-18.0-1.72","4363","approach_avoid_sv1","""event"",""trial"",""time""
""fullscreenenter"",""1"",""2440""
","
","
","""event"",""trial"",""time""
""fullscreenenter"",""1"",""2440""
","
","","","","","","1143.2000000029802","images/goat1.png","","","memory_trial","3","maybe_new",""
"html-keyboard-response","190","368441","0.0-18.0-0.73","4363","approach_avoid_sv1","""event"",""trial"",""time""
""fullscreenenter"",""1"",""2440""
","
","
","""event"",""trial"",""time""
""fullscreenenter"",""1"",""2440""
","
","","","","","","null","<div style=""font-size:60px;"">+</div>","null","","fixation","","",""
"memory-trial","191","370401","0.0-18.0-1.73","4363","approach_avoid_sv1","""event"",""trial"",""time""
""fullscreenenter"",""1"",""2440""
","
","
","""event"",""trial"",""time""
""fullscreenenter"",""1"",""2440""
","
","","","","","","953.2000000029802","images/plane2.png","","","memory_trial","4","definitely_new",""
"html-keyboard-response","192","370908","0.0-18.0-0.74","4363","approach_avoid_sv1","""event"",""trial"",""time""
""fullscreenenter"",""1"",""2440""
","
","
","""event"",""trial"",""time""
""fullscreenenter"",""1"",""2440""
","
","","","","","","null","<div style=""font-size:60px;"">+</div>","null","","fixation","","",""
"memory-trial","193","373361","0.0-18.0-1.74","4363","approach_avoid_sv1","""event"",""trial"",""time""
""fullscreenenter"",""1"",""2440""
","
","
","""event"",""trial"",""time""
""fullscreenenter"",""1"",""2440""
","
","","","","","","1446.8999999910593","images/apple5.png","","","memory_trial","3","maybe_new",""
"html-keyboard-response","194","373864","0.0-18.0-0.75","4363","approach_avoid_sv1","""event"",""trial"",""time""
""fullscreenenter"",""1"",""2440""
","
","
","""event"",""trial"",""time""
""fullscreenenter"",""1"",""2440""
","
","","","","","","null","<div style=""font-size:60px;"">+</div>","null","","fixation","","",""
"memory-trial","195","376094","0.0-18.0-1.75","4363","approach_avoid_sv1","""event"",""trial"",""time""
""fullscreenenter"",""1"",""2440""
","
","
","""event"",""trial"",""time""
""fullscreenenter"",""1"",""2440""
","
","","","","","","1213.2999999970198","images/goat3.png","","","memory_trial","3","maybe_new",""
"html-keyboard-response","196","376602","0.0-18.0-0.76","4363","approach_avoid_sv1","""event"",""trial"",""time""
""fullscreenenter"",""1"",""2440""
","
","
","""event"",""trial"",""time""
""fullscreenenter"",""1"",""2440""
","
","","","","","","null","<div style=""font-size:60px;"">+</div>","null","","fixation","","",""
"memory-trial","197","378576","0.0-18.0-1.76","4363","approach_avoid_sv1","""event"",""trial"",""time""
""fullscreenenter"",""1"",""2440""
","
","
","""event"",""trial"",""time""
""fullscreenenter"",""1"",""2440""
","
","","","","","","964.9000000059605","images/chair6.png","","","memory_trial","2","maybe_old",""
"html-keyboard-response","198","379081","0.0-18.0-0.77","4363","approach_avoid_sv1","""event"",""trial"",""time""
""fullscreenenter"",""1"",""2440""
","
","
","""event"",""trial"",""time""
""fullscreenenter"",""1"",""2440""
","
","","","","","","null","<div style=""font-size:60px;"">+</div>","null","","fixation","","",""
"memory-trial","199","381392","0.0-18.0-1.77","4363","approach_avoid_sv1","""event"",""trial"",""time""
""fullscreenenter"",""1"",""2440""
","
","
","""event"",""trial"",""time""
""fullscreenenter"",""1"",""2440""
","
","","","","","","1306","images/bush5.png","","","memory_trial","4","definitely_new",""
"html-keyboard-response","200","381896","0.0-18.0-0.78","4363","approach_avoid_sv1","""event"",""trial"",""time""
""fullscreenenter"",""1"",""2440""
","
","
","""event"",""trial"",""time""
""fullscreenenter"",""1"",""2440""
","
","","","","","","null","<div style=""font-size:60px;"">+</div>","null","","fixation","","",""
"memory-trial","201","384321","0.0-18.0-1.78","4363","approach_avoid_sv1","""event"",""trial"",""time""
""fullscreenenter"",""1"",""2440""
","
","
","""event"",""trial"",""time""
""fullscreenenter"",""1"",""2440""
","
","","","","","","1419.7999999970198","images/train5.png","","","memory_trial","2","maybe_old",""
"html-keyboard-response","202","384825","0.0-18.0-0.79","4363","approach_avoid_sv1","""event"",""trial"",""time""
""fullscreenenter"",""1"",""2440""
","
","
","""event"",""trial"",""time""
""fullscreenenter"",""1"",""2440""
","
","","","","","","null","<div style=""font-size:60px;"">+</div>","null","","fixation","","",""
"memory-trial","203","386798","0.0-18.0-1.79","4363","approach_avoid_sv1","""event"",""trial"",""time""
""fullscreenenter"",""1"",""2440""
","
","
","""event"",""trial"",""time""
""fullscreenenter"",""1"",""2440""
","
","","","","","","953","images/apple7.png","","","memory_trial","3","maybe_new",""
"html-keyboard-response","204","387305","0.0-18.0-0.80","4363","approach_avoid_sv1","""event"",""trial"",""time""
""fullscreenenter"",""1"",""2440""
","
","
","""event"",""trial"",""time""
""fullscreenenter"",""1"",""2440""
","
","","","","","","null","<div style=""font-size:60px;"">+</div>","null","","fixation","","",""
"memory-trial","205","388945","0.0-18.0-1.80","4363","approach_avoid_sv1","""event"",""trial"",""time""
""fullscreenenter"",""1"",""2440""
","
","
","""event"",""trial"",""time""
""fullscreenenter"",""1"",""2440""
","
","","","","","","634.5999999940395","images/orange2.png","","","memory_trial","3","maybe_new",""
"html-keyboard-response","206","389448","0.0-18.0-0.81","4363","approach_avoid_sv1","""event"",""trial"",""time""
""fullscreenenter"",""1"",""2440""
","
","
","""event"",""trial"",""time""
""fullscreenenter"",""1"",""2440""
","
","","","","","","null","<div style=""font-size:60px;"">+</div>","null","","fixation","","",""
"memory-trial","207","391216","0.0-18.0-1.81","4363","approach_avoid_sv1","""event"",""trial"",""time""
""fullscreenenter"",""1"",""2440""
","
","
","""event"",""trial"",""time""
""fullscreenenter"",""1"",""2440""
","
","","","","","","764.9000000059605","images/truck8.png","","","memory_trial","2","maybe_old",""
"html-keyboard-response","208","391721","0.0-18.0-0.82","4363","approach_avoid_sv1","""event"",""trial"",""time""
""fullscreenenter"",""1"",""2440""
","
","
","""event"",""trial"",""time""
""fullscreenenter"",""1"",""2440""
","
","","","","","","null","<div style=""font-size:60px;"">+</div>","null","","fixation","","",""
"memory-trial","209","393552","0.0-18.0-1.82","4363","approach_avoid_sv1","""event"",""trial"",""time""
""fullscreenenter"",""1"",""2440""
","
","
","""event"",""trial"",""time""
""fullscreenenter"",""1"",""2440""
","
","","","","","","821.1000000089407","images/rodent6.png","","","memory_trial","3","maybe_new",""
"html-keyboard-response","210","394057","0.0-18.0-0.83","4363","approach_avoid_sv1","""event"",""trial"",""time""
""fullscreenenter"",""1"",""2440""
","
","
","""event"",""trial"",""time""
""fullscreenenter"",""1"",""2440""
","
","","","","","","null","<div style=""font-size:60px;"">+</div>","null","","fixation","","",""
"memory-trial","211","396073","0.0-18.0-1.83","4363","approach_avoid_sv1","""event"",""trial"",""time""
""fullscreenenter"",""1"",""2440""
","
","
","""event"",""trial"",""time""
""fullscreenenter"",""1"",""2440""
","
","","","","","","1007.8000000119209","images/horse2.png","","","memory_trial","3","maybe_new",""
"html-keyboard-response","212","396576","0.0-18.0-0.84","4363","approach_avoid_sv1","""event"",""trial"",""time""
""fullscreenenter"",""1"",""2440""
","
","
","""event"",""trial"",""time""
""fullscreenenter"",""1"",""2440""
","
","","","","","","null","<div style=""font-size:60px;"">+</div>","null","","fixation","","",""
"memory-trial","213","398385","0.0-18.0-1.84","4363","approach_avoid_sv1","""event"",""trial"",""time""
""fullscreenenter"",""1"",""2440""
","
","
","""event"",""trial"",""time""
""fullscreenenter"",""1"",""2440""
","
","","","","","","801.7999999970198","images/orange7.png","","","memory_trial","2","maybe_old",""
"html-keyboard-response","214","398902","0.0-18.0-0.85","4363","approach_avoid_sv1","""event"",""trial"",""time""
""fullscreenenter"",""1"",""2440""
","
","
","""event"",""trial"",""time""
""fullscreenenter"",""1"",""2440""
","
","","","","","","null","<div style=""font-size:60px;"">+</div>","null","","fixation","","",""
"memory-trial","215","400960","0.0-18.0-1.85","4363","approach_avoid_sv1","""event"",""trial"",""time""
""fullscreenenter"",""1"",""2440""
","
","
","""event"",""trial"",""time""
""fullscreenenter"",""1"",""2440""
","
","","","","","","1048.5999999940395","images/sofa6.png","","","memory_trial","2","maybe_old",""
"html-keyboard-response","216","401465","0.0-18.0-0.86","4363","approach_avoid_sv1","""event"",""trial"",""time""
""fullscreenenter"",""1"",""2440""
","
","
","""event"",""trial"",""time""
""fullscreenenter"",""1"",""2440""
","
","","","","","","null","<div style=""font-size:60px;"">+</div>","null","","fixation","","",""
"memory-trial","217","403241","0.0-18.0-1.86","4363","approach_avoid_sv1","""event"",""trial"",""time""
""fullscreenenter"",""1"",""2440""
","
","
","""event"",""trial"",""time""
""fullscreenenter"",""1"",""2440""
","
","","","","","","768.0999999940395","images/dog4.png","","","memory_trial","3","maybe_new",""
"html-keyboard-response","218","403745","0.0-18.0-0.87","4363","approach_avoid_sv1","""event"",""trial"",""time""
""fullscreenenter"",""1"",""2440""
","
","
","""event"",""trial"",""time""
""fullscreenenter"",""1"",""2440""
","
","","","","","","null","<div style=""font-size:60px;"">+</div>","null","","fixation","","",""
"memory-trial","219","405425","0.0-18.0-1.87","4363","approach_avoid_sv1","""event"",""trial"",""time""
""fullscreenenter"",""1"",""2440""
","
","
","""event"",""trial"",""time""
""fullscreenenter"",""1"",""2440""
","
","","","","","","675.2000000029802","images/apple8.png","","","memory_trial","3","maybe_new",""
"html-keyboard-response","220","405929","0.0-18.0-0.88","4363","approach_avoid_sv1","""event"",""trial"",""time""
""fullscreenenter"",""1"",""2440""
","
","
","""event"",""trial"",""time""
""fullscreenenter"",""1"",""2440""
","
","","","","","","null","<div style=""font-size:60px;"">+</div>","null","","fixation","","",""
"memory-trial","221","408001","0.0-18.0-1.88","4363","approach_avoid_sv1","""event"",""trial"",""time""
""fullscreenenter"",""1"",""2440""
","
","
","""event"",""trial"",""time""
""fullscreenenter"",""1"",""2440""
","
","","","","","","1065","images/plane4.png","","","memory_trial","4","definitely_new",""
"html-keyboard-response","222","408504","0.0-18.0-0.89","4363","approach_avoid_sv1","""event"",""trial"",""time""
""fullscreenenter"",""1"",""2440""
","
","
","""event"",""trial"",""time""
""fullscreenenter"",""1"",""2440""
","
","","","","","","null","<div style=""font-size:60px;"">+</div>","null","","fixation","","",""
"memory-trial","223","410947","0.0-18.0-1.89","4363","approach_avoid_sv1","""event"",""trial"",""time""
""fullscreenenter"",""1"",""2440""
","
","
","""event"",""trial"",""time""
""fullscreenenter"",""1"",""2440""
","
","","","","","","1431.699999988079","images/flower4.png","","","memory_trial","2","maybe_old",""
"html-keyboard-response","224","411449","0.0-18.0-0.90","4363","approach_avoid_sv1","""event"",""trial"",""time""
""fullscreenenter"",""1"",""2440""
","
","
","""event"",""trial"",""time""
""fullscreenenter"",""1"",""2440""
","
","","","","","","null","<div style=""font-size:60px;"">+</div>","null","","fixation","","",""
"memory-trial","225","413257","0.0-18.0-1.90","4363","approach_avoid_sv1","""event"",""trial"",""time""
""fullscreenenter"",""1"",""2440""
","
","
","""event"",""trial"",""time""
""fullscreenenter"",""1"",""2440""
","
","","","","","","794.4000000059605","images/sheep2.png","","","memory_trial","3","maybe_new",""
"html-keyboard-response","226","413761","0.0-18.0-0.91","4363","approach_avoid_sv1","""event"",""trial"",""time""
""fullscreenenter"",""1"",""2440""
","
","
","""event"",""trial"",""time""
""fullscreenenter"",""1"",""2440""
","
","","","","","","null","<div style=""font-size:60px;"">+</div>","null","","fixation","","",""
"memory-trial","227","415665","0.0-18.0-1.91","4363","approach_avoid_sv1","""event"",""trial"",""time""
""fullscreenenter"",""1"",""2440""
","
","
","""event"",""trial"",""time""
""fullscreenenter"",""1"",""2440""
","
","","","","","","895.2000000029802","images/sheep8.png","","","memory_trial","3","maybe_new",""
"html-button-response","228","417193","0.0-18.0-2.91-0.91","4363","approach_avoid_sv1","""event"",""trial"",""time""
""fullscreenenter"",""1"",""2440""
","
","
","""event"",""trial"",""time""
""fullscreenenter"",""1"",""2440""
","
","","","","","","1526.5999999940395","<p> Take a break! </p><p> Click the button to continue. </p>","0","","break","","",""
"html-keyboard-response","229","417697","0.0-18.0-0.92","4363","approach_avoid_sv1","""event"",""trial"",""time""
""fullscreenenter"",""1"",""2440""
","
","
","""event"",""trial"",""time""
""fullscreenenter"",""1"",""2440""
","
","","","","","","null","<div style=""font-size:60px;"">+</div>","null","","fixation","","",""
"memory-trial","230","420436","0.0-18.0-1.92","4363","approach_avoid_sv1","""event"",""trial"",""time""
""fullscreenenter"",""1"",""2440""
","
","
","""event"",""trial"",""time""
""fullscreenenter"",""1"",""2440""
","
","","","","","","1723.2000000029802","images/plane6.png","","","memory_trial","3","maybe_new",""
"html-keyboard-response","231","420945","0.0-18.0-0.93","4363","approach_avoid_sv1","""event"",""trial"",""time""
""fullscreenenter"",""1"",""2440""
","
","
","""event"",""trial"",""time""
""fullscreenenter"",""1"",""2440""
","
","","","","","","null","<div style=""font-size:60px;"">+</div>","null","","fixation","","",""
"memory-trial","232","422632","0.0-18.0-1.93","4363","approach_avoid_sv1","""event"",""trial"",""time""
""fullscreenenter"",""1"",""2440""
","
","
","""event"",""trial"",""time""
""fullscreenenter"",""1"",""2440""
","
","","","","","","677.9000000059605","images/goat2.png","","","memory_trial","3","maybe_new",""
"html-keyboard-response","233","423137","0.0-18.0-0.94","4363","approach_avoid_sv1","""event"",""trial"",""time""
""fullscreenenter"",""1"",""2440""
","
","
","""event"",""trial"",""time""
""fullscreenenter"",""1"",""2440""
","
","","","","","","null","<div style=""font-size:60px;"">+</div>","null","","fixation","","",""
"memory-trial","234","425113","0.0-18.0-1.94","4363","approach_avoid_sv1","""event"",""trial"",""time""
""fullscreenenter"",""1"",""2440""
","
","
","""event"",""trial"",""time""
""fullscreenenter"",""1"",""2440""
","
","","","","","","966.3999999910593","images/straw8.png","","","memory_trial","3","maybe_new",""
"html-keyboard-response","235","425617","0.0-18.0-0.95","4363","approach_avoid_sv1","""event"",""trial"",""time""
""fullscreenenter"",""1"",""2440""
","
","
","""event"",""trial"",""time""
""fullscreenenter"",""1"",""2440""
","
","","","","","","null","<div style=""font-size:60px;"">+</div>","null","","fixation","","",""
"memory-trial","236","427617","0.0-18.0-1.95","4363","approach_avoid_sv1","""event"",""trial"",""time""
""fullscreenenter"",""1"",""2440""
","
","
","""event"",""trial"",""time""
""fullscreenenter"",""1"",""2440""
","
","","","","","","991.5","images/boat2.png","","","memory_trial","3","maybe_new",""
"html-keyboard-response","237","428120","0.0-18.0-0.96","4363","approach_avoid_sv1","""event"",""trial"",""time""
""fullscreenenter"",""1"",""2440""
","
","
","""event"",""trial"",""time""
""fullscreenenter"",""1"",""2440""
","
","","","","","","null","<div style=""font-size:60px;"">+</div>","null","","fixation","","",""
"memory-trial","238","430088","0.0-18.0-1.96","4363","approach_avoid_sv1","""event"",""trial"",""time""
""fullscreenenter"",""1"",""2440""
","
","
","""event"",""trial"",""time""
""fullscreenenter"",""1"",""2440""
","
","","","","","","960.5999999940395","images/train8.png","","","memory_trial","3","maybe_new",""
"html-keyboard-response","239","430602","0.0-18.0-0.97","4363","approach_avoid_sv1","""event"",""trial"",""time""
""fullscreenenter"",""1"",""2440""
","
","
","""event"",""trial"",""time""
""fullscreenenter"",""1"",""2440""
","
","","","","","","null","<div style=""font-size:60px;"">+</div>","null","","fixation","","",""
"memory-trial","240","432442","0.0-18.0-1.97","4363","approach_avoid_sv1","""event"",""trial"",""time""
""fullscreenenter"",""1"",""2440""
","
","
","""event"",""trial"",""time""
""fullscreenenter"",""1"",""2440""
","
","","","","","","830.7999999970198","images/sheep4.png","","","memory_trial","2","maybe_old",""
"html-keyboard-response","241","432959","0.0-18.0-0.98","4363","approach_avoid_sv1","""event"",""trial"",""time""
""fullscreenenter"",""1"",""2440""
","
","
","""event"",""trial"",""time""
""fullscreenenter"",""1"",""2440""
","
","","","","","","null","<div style=""font-size:60px;"">+</div>","null","","fixation","","",""
"memory-trial","242","434954","0.0-18.0-1.98","4363","approach_avoid_sv1","""event"",""trial"",""time""
""fullscreenenter"",""1"",""2440""
","
","
","""event"",""trial"",""time""
""fullscreenenter"",""1"",""2440""
","
","","","","","","988","images/sofa5.png","","","memory_trial","2","maybe_old",""
"html-keyboard-response","243","435463","0.0-18.0-0.99","4363","approach_avoid_sv1","""event"",""trial"",""time""
""fullscreenenter"",""1"",""2440""
","
","
","""event"",""trial"",""time""
""fullscreenenter"",""1"",""2440""
","
","","","","","","null","<div style=""font-size:60px;"">+</div>","null","","fixation","","",""
"memory-trial","244","437169","0.0-18.0-1.99","4363","approach_avoid_sv1","""event"",""trial"",""time""
""fullscreenenter"",""1"",""2440""
","
","
","""event"",""trial"",""time""
""fullscreenenter"",""1"",""2440""
","
","","","","","","702.7000000029802","images/chair1.png","","","memory_trial","2","maybe_old",""
"html-keyboard-response","245","437675","0.0-18.0-0.100","4363","approach_avoid_sv1","""event"",""trial"",""time""
""fullscreenenter"",""1"",""2440""
","
","
","""event"",""trial"",""time""
""fullscreenenter"",""1"",""2440""
","
","","","","","","null","<div style=""font-size:60px;"">+</div>","null","","fixation","","",""
"memory-trial","246","439446","0.0-18.0-1.100","4363","approach_avoid_sv1","""event"",""trial"",""time""
""fullscreenenter"",""1"",""2440""
","
","
","""event"",""trial"",""time""
""fullscreenenter"",""1"",""2440""
","
","","","","","","749.1000000089407","images/chair8.png","","","memory_trial","2","maybe_old",""
"html-keyboard-response","247","439953","0.0-18.0-0.101","4363","approach_avoid_sv1","""event"",""trial"",""time""
""fullscreenenter"",""1"",""2440""
","
","
","""event"",""trial"",""time""
""fullscreenenter"",""1"",""2440""
","
","","","","","","null","<div style=""font-size:60px;"">+</div>","null","","fixation","","",""
"memory-trial","248","442136","0.0-18.0-1.101","4363","approach_avoid_sv1","""event"",""trial"",""time""
""fullscreenenter"",""1"",""2440""
","
","
","""event"",""trial"",""time""
""fullscreenenter"",""1"",""2440""
","
","","","","","","1174.199999988079","images/bed6.png","","","memory_trial","3","maybe_new",""
"html-keyboard-response","249","442642","0.0-18.0-0.102","4363","approach_avoid_sv1","""event"",""trial"",""time""
""fullscreenenter"",""1"",""2440""
","
","
","""event"",""trial"",""time""
""fullscreenenter"",""1"",""2440""
","
","","","","","","null","<div style=""font-size:60px;"">+</div>","null","","fixation","","",""
"memory-trial","250","444473","0.0-18.0-1.102","4363","approach_avoid_sv1","""event"",""trial"",""time""
""fullscreenenter"",""1"",""2440""
","
","
","""event"",""trial"",""time""
""fullscreenenter"",""1"",""2440""
","
","","","","","","820.5","images/dog8.png","","","memory_trial","3","maybe_new",""
"html-keyboard-response","251","444977","0.0-18.0-0.103","4363","approach_avoid_sv1","""event"",""trial"",""time""
""fullscreenenter"",""1"",""2440""
","
","
","""event"",""trial"",""time""
""fullscreenenter"",""1"",""2440""
","
","","","","","","null","<div style=""font-size:60px;"">+</div>","null","","fixation","","",""
"memory-trial","252","446833","0.0-18.0-1.103","4363","approach_avoid_sv1","""event"",""trial"",""time""
""fullscreenenter"",""1"",""2440""
","
","
","""event"",""trial"",""time""
""fullscreenenter"",""1"",""2440""
","
","","","","","","850.6999999880791","images/bed4.png","","","memory_trial","2","maybe_old",""
"html-keyboard-response","253","447336","0.0-18.0-0.104","4363","approach_avoid_sv1","""event"",""trial"",""time""
""fullscreenenter"",""1"",""2440""
","
","
","""event"",""trial"",""time""
""fullscreenenter"",""1"",""2440""
","
","","","","","","null","<div style=""font-size:60px;"">+</div>","null","","fixation","","",""
"memory-trial","254","449313","0.0-18.0-1.104","4363","approach_avoid_sv1","""event"",""trial"",""time""
""fullscreenenter"",""1"",""2440""
","
","
","""event"",""trial"",""time""
""fullscreenenter"",""1"",""2440""
","
","","","","","","974.0999999940395","images/orange3.png","","","memory_trial","3","maybe_new",""
"html-keyboard-response","255","449820","0.0-18.0-0.105","4363","approach_avoid_sv1","""event"",""trial"",""time""
""fullscreenenter"",""1"",""2440""
","
","
","""event"",""trial"",""time""
""fullscreenenter"",""1"",""2440""
","
","","","","","","null","<div style=""font-size:60px;"">+</div>","null","","fixation","","",""
"memory-trial","256","451929","0.0-18.0-1.105","4363","approach_avoid_sv1","""event"",""trial"",""time""
""fullscreenenter"",""1"",""2440""
","
","
","""event"",""trial"",""time""
""fullscreenenter"",""1"",""2440""
","
","","","","","","1099.0999999940395","images/banana4.png","","","memory_trial","2","maybe_old",""
"html-keyboard-response","257","452433","0.0-18.0-0.106","4363","approach_avoid_sv1","""event"",""trial"",""time""
""fullscreenenter"",""1"",""2440""
","
","
","""event"",""trial"",""time""
""fullscreenenter"",""1"",""2440""
","
","","","","","","null","<div style=""font-size:60px;"">+</div>","null","","fixation","","",""
"memory-trial","258","454346","0.0-18.0-1.106","4363","approach_avoid_sv1","""event"",""trial"",""time""
""fullscreenenter"",""1"",""2440""
","
","
","""event"",""trial"",""time""
""fullscreenenter"",""1"",""2440""
","
","","","","","","905.1000000089407","images/straw1.png","","","memory_trial","3","maybe_new",""
"html-keyboard-response","259","454849","0.0-18.0-0.107","4363","approach_avoid_sv1","""event"",""trial"",""time""
""fullscreenenter"",""1"",""2440""
","
","
","""event"",""trial"",""time""
""fullscreenenter"",""1"",""2440""
","
","","","","","","null","<div style=""font-size:60px;"">+</div>","null","","fixation","","",""
"memory-trial","260","456942","0.0-18.0-1.107","4363","approach_avoid_sv1","""event"",""trial"",""time""
""fullscreenenter"",""1"",""2440""
","
","
","""event"",""trial"",""time""
""fullscreenenter"",""1"",""2440""
","
","","","","","","1073.7000000029802","images/rodent4.png","","","memory_trial","4","definitely_new",""
"html-keyboard-response","261","457452","0.0-18.0-0.108","4363","approach_avoid_sv1","""event"",""trial"",""time""
""fullscreenenter"",""1"",""2440""
","
","
","""event"",""trial"",""time""
""fullscreenenter"",""1"",""2440""
","
","","","","","","null","<div style=""font-size:60px;"">+</div>","null","","fixation","","",""
"memory-trial","262","460194","0.0-18.0-1.108","4363","approach_avoid_sv1","""event"",""trial"",""time""
""fullscreenenter"",""1"",""2440""
","
","
","""event"",""trial"",""time""
""fullscreenenter"",""1"",""2440""
","
","","","","","","1729.1000000089407","images/flower2.png","","","memory_trial","3","maybe_new",""
"html-keyboard-response","263","460697","0.0-18.0-0.109","4363","approach_avoid_sv1","""event"",""trial"",""time""
""fullscreenenter"",""1"",""2440""
","
","
","""event"",""trial"",""time""
""fullscreenenter"",""1"",""2440""
","
","","","","","","null","<div style=""font-size:60px;"">+</div>","null","","fixation","","",""
"memory-trial","264","462473","0.0-18.0-1.109","4363","approach_avoid_sv1","""event"",""trial"",""time""
""fullscreenenter"",""1"",""2440""
","
","
","""event"",""trial"",""time""
""fullscreenenter"",""1"",""2440""
","
","","","","","","766","images/banana2.png","","","memory_trial","2","maybe_old",""
"html-keyboard-response","265","462980","0.0-18.0-0.110","4363","approach_avoid_sv1","""event"",""trial"",""time""
""fullscreenenter"",""1"",""2440""
","
","
","""event"",""trial"",""time""
""fullscreenenter"",""1"",""2440""
","
","","","","","","null","<div style=""font-size:60px;"">+</div>","null","","fixation","","",""
"memory-trial","266","465121","0.0-18.0-1.110","4363","approach_avoid_sv1","""event"",""trial"",""time""
""fullscreenenter"",""1"",""2440""
","
","
","""event"",""trial"",""time""
""fullscreenenter"",""1"",""2440""
","
","","","","","","1132.1000000089407","images/sheep5.png","","","memory_trial","3","maybe_new",""
"html-keyboard-response","267","465625","0.0-18.0-0.111","4363","approach_avoid_sv1","""event"",""trial"",""time""
""fullscreenenter"",""1"",""2440""
","
","
","""event"",""trial"",""time""
""fullscreenenter"",""1"",""2440""
","
","","","","","","null","<div style=""font-size:60px;"">+</div>","null","","fixation","","",""
"memory-trial","268","467601","0.0-18.0-1.111","4363","approach_avoid_sv1","""event"",""trial"",""time""
""fullscreenenter"",""1"",""2440""
","
","
","""event"",""trial"",""time""
""fullscreenenter"",""1"",""2440""
","
","","","","","","966.5","images/horse8.png","","","memory_trial","3","maybe_new",""
"html-keyboard-response","269","468105","0.0-18.0-0.112","4363","approach_avoid_sv1","""event"",""trial"",""time""
""fullscreenenter"",""1"",""2440""
","
","
","""event"",""trial"",""time""
""fullscreenenter"",""1"",""2440""
","
","","","","","","null","<div style=""font-size:60px;"">+</div>","null","","fixation","","",""
"memory-trial","270","470466","0.0-18.0-1.112","4363","approach_avoid_sv1","""event"",""trial"",""time""
""fullscreenenter"",""1"",""2440""
","
","
","""event"",""trial"",""time""
""fullscreenenter"",""1"",""2440""
","
","","","","","","1345.2999999970198","images/flower5.png","","","memory_trial","4","definitely_new",""
"html-keyboard-response","271","470968","0.0-18.0-0.113","4363","approach_avoid_sv1","""event"",""trial"",""time""
""fullscreenenter"",""1"",""2440""
","
","
","""event"",""trial"",""time""
""fullscreenenter"",""1"",""2440""
","
","","","","","","null","<div style=""font-size:60px;"">+</div>","null","","fixation","","",""
"memory-trial","272","472849","0.0-18.0-1.113","4363","approach_avoid_sv1","""event"",""trial"",""time""
""fullscreenenter"",""1"",""2440""
","
","
","""event"",""trial"",""time""
""fullscreenenter"",""1"",""2440""
","
","","","","","","874.8999999910593","images/chair3.png","","","memory_trial","2","maybe_old",""
"html-keyboard-response","273","473364","0.0-18.0-0.114","4363","approach_avoid_sv1","""event"",""trial"",""time""
""fullscreenenter"",""1"",""2440""
","
","
","""event"",""trial"",""time""
""fullscreenenter"",""1"",""2440""
","
","","","","","","null","<div style=""font-size:60px;"">+</div>","null","","fixation","","",""
"memory-trial","274","475371","0.0-18.0-1.114","4363","approach_avoid_sv1","""event"",""trial"",""time""
""fullscreenenter"",""1"",""2440""
","
","
","""event"",""trial"",""time""
""fullscreenenter"",""1"",""2440""
","
","","","","","","1000.7999999970198","images/banana6.png","","","memory_trial","3","maybe_new",""
"html-keyboard-response","275","475872","0.0-18.0-0.115","4363","approach_avoid_sv1","""event"",""trial"",""time""
""fullscreenenter"",""1"",""2440""
","
","
","""event"",""trial"",""time""
""fullscreenenter"",""1"",""2440""
","
","","","","","","null","<div style=""font-size:60px;"">+</div>","null","","fixation","","",""
"memory-trial","276","478142","0.0-18.0-1.115","4363","approach_avoid_sv1","""event"",""trial"",""time""
""fullscreenenter"",""1"",""2440""
","
","
","""event"",""trial"",""time""
""fullscreenenter"",""1"",""2440""
","
","","","","","","1249.5999999940395","images/cow5.png","","","memory_trial","3","maybe_new",""
"html-keyboard-response","277","478649","0.0-18.0-0.116","4363","approach_avoid_sv1","""event"",""trial"",""time""
""fullscreenenter"",""1"",""2440""
","
","
","""event"",""trial"",""time""
""fullscreenenter"",""1"",""2440""
","
","","","","","","null","<div style=""font-size:60px;"">+</div>","null","","fixation","","",""
"memory-trial","278","481441","0.0-18.0-1.116","4363","approach_avoid_sv1","""event"",""trial"",""time""
""fullscreenenter"",""1"",""2440""
","
","
","""event"",""trial"",""time""
""fullscreenenter"",""1"",""2440""
","
","","","","","","1783.699999988079","images/bed1.png","","","memory_trial","2","maybe_old",""
"html-keyboard-response","279","481945","0.0-18.0-0.117","4363","approach_avoid_sv1","""event"",""trial"",""time""
""fullscreenenter"",""1"",""2440""
","
","
","""event"",""trial"",""time""
""fullscreenenter"",""1"",""2440""
","
","","","","","","null","<div style=""font-size:60px;"">+</div>","null","","fixation","","",""
"memory-trial","280","484033","0.0-18.0-1.117","4363","approach_avoid_sv1","""event"",""trial"",""time""
""fullscreenenter"",""1"",""2440""
","
","
","""event"",""trial"",""time""
""fullscreenenter"",""1"",""2440""
","
","","","","","","1080.5999999940395","images/orange4.png","","","memory_trial","3","maybe_new",""
"html-keyboard-response","281","484545","0.0-18.0-0.118","4363","approach_avoid_sv1","""event"",""trial"",""time""
""fullscreenenter"",""1"",""2440""
","
","
","""event"",""trial"",""time""
""fullscreenenter"",""1"",""2440""
","
","","","","","","null","<div style=""font-size:60px;"">+</div>","null","","fixation","","",""
"memory-trial","282","486474","0.0-18.0-1.118","4363","approach_avoid_sv1","""event"",""trial"",""time""
""fullscreenenter"",""1"",""2440""
","
","
","""event"",""trial"",""time""
""fullscreenenter"",""1"",""2440""
","
","","","","","","925.5","images/boat1.png","","","memory_trial","3","maybe_new",""
"html-keyboard-response","283","486977","0.0-18.0-0.119","4363","approach_avoid_sv1","""event"",""trial"",""time""
""fullscreenenter"",""1"",""2440""
","
","
","""event"",""trial"",""time""
""fullscreenenter"",""1"",""2440""
","
","","","","","","null","<div style=""font-size:60px;"">+</div>","null","","fixation","","",""
"memory-trial","284","488847","0.0-18.0-1.119","4363","approach_avoid_sv1","""event"",""trial"",""time""
""fullscreenenter"",""1"",""2440""
","
","
","""event"",""trial"",""time""
""fullscreenenter"",""1"",""2440""
","
","","","","","","854.8999999910593","images/chair4.png","","","memory_trial","3","maybe_new",""
"html-keyboard-response","285","489353","0.0-18.0-0.120","4363","approach_avoid_sv1","""event"",""trial"",""time""
""fullscreenenter"",""1"",""2440""
","
","
","""event"",""trial"",""time""
""fullscreenenter"",""1"",""2440""
","
","","","","","","null","<div style=""font-size:60px;"">+</div>","null","","fixation","","",""
"memory-trial","286","491289","0.0-18.0-1.120","4363","approach_avoid_sv1","""event"",""trial"",""time""
""fullscreenenter"",""1"",""2440""
","
","
","""event"",""trial"",""time""
""fullscreenenter"",""1"",""2440""
","
","","","","","","929.5999999940395","images/cactus2.png","","","memory_trial","3","maybe_new",""
"html-keyboard-response","287","491793","0.0-18.0-0.121","4363","approach_avoid_sv1","""event"",""trial"",""time""
""fullscreenenter"",""1"",""2440""
","
","
","""event"",""trial"",""time""
""fullscreenenter"",""1"",""2440""
","
","","","","","","null","<div style=""font-size:60px;"">+</div>","null","","fixation","","",""
"memory-trial","288","493910","0.0-18.0-1.121","4363","approach_avoid_sv1","""event"",""trial"",""time""
""fullscreenenter"",""1"",""2440""
","
","
","""event"",""trial"",""time""
""fullscreenenter"",""1"",""2440""
","
","","","","","","1108","images/dog3.png","","","memory_trial","2","maybe_old",""
"html-keyboard-response","289","494417","0.0-18.0-0.122","4363","approach_avoid_sv1","""event"",""trial"",""time""
""fullscreenenter"",""1"",""2440""
","
","
","""event"",""trial"",""time""
""fullscreenenter"",""1"",""2440""
","
","","","","","","null","<div style=""font-size:60px;"">+</div>","null","","fixation","","",""
"memory-trial","290","496238","0.0-18.0-1.122","4363","approach_avoid_sv1","""event"",""trial"",""time""
""fullscreenenter"",""1"",""2440""
","
","
","""event"",""trial"",""time""
""fullscreenenter"",""1"",""2440""
","
","","","","","","809.2999999970198","images/apple6.png","","","memory_trial","3","maybe_new",""
"html-keyboard-response","291","496745","0.0-18.0-0.123","4363","approach_avoid_sv1","""event"",""trial"",""time""
""fullscreenenter"",""1"",""2440""
","
","
","""event"",""trial"",""time""
""fullscreenenter"",""1"",""2440""
","
","","","","","","null","<div style=""font-size:60px;"">+</div>","null","","fixation","","",""
"memory-trial","292","498815","0.0-18.0-1.123","4363","approach_avoid_sv1","""event"",""trial"",""time""
""fullscreenenter"",""1"",""2440""
","
","
","""event"",""trial"",""time""
""fullscreenenter"",""1"",""2440""
","
","","","","","","1051.7999999970198","images/tree3.png","","","memory_trial","4","definitely_new",""
"html-keyboard-response","293","499333","0.0-18.0-0.124","4363","approach_avoid_sv1","""event"",""trial"",""time""
""fullscreenenter"",""1"",""2440""
","
","
","""event"",""trial"",""time""
""fullscreenenter"",""1"",""2440""
","
","","","","","","null","<div style=""font-size:60px;"">+</div>","null","","fixation","","",""
"memory-trial","294","501625","0.0-18.0-1.124","4363","approach_avoid_sv1","""event"",""trial"",""time""
""fullscreenenter"",""1"",""2440""
","
","
","""event"",""trial"",""time""
""fullscreenenter"",""1"",""2440""
","
","","","","","","1281.7000000029802","images/rabbit6.png","","","memory_trial","2","maybe_old",""
"html-keyboard-response","295","502129","0.0-18.0-0.125","4363","approach_avoid_sv1","""event"",""trial"",""time""
""fullscreenenter"",""1"",""2440""
","
","
","""event"",""trial"",""time""
""fullscreenenter"",""1"",""2440""
","
","","","","","","null","<div style=""font-size:60px;"">+</div>","null","","fixation","","",""
"memory-trial","296","504848","0.0-18.0-1.125","4363","approach_avoid_sv1","""event"",""trial"",""time""
""fullscreenenter"",""1"",""2440""
","
","
","""event"",""trial"",""time""
""fullscreenenter"",""1"",""2440""
","
","","","","","","1712.9000000059605","images/bush7.png","","","memory_trial","2","maybe_old",""
"html-keyboard-response","297","505359","0.0-18.0-0.126","4363","approach_avoid_sv1","""event"",""trial"",""time""
""fullscreenenter"",""1"",""2440""
","
","
","""event"",""trial"",""time""
""fullscreenenter"",""1"",""2440""
","
","","","","","","null","<div style=""font-size:60px;"">+</div>","null","","fixation","","",""
"memory-trial","298","507612","0.0-18.0-1.126","4363","approach_avoid_sv1","""event"",""trial"",""time""
""fullscreenenter"",""1"",""2440""
","
","
","""event"",""trial"",""time""
