"trial_type","trial_index","time_elapsed","internal_node_id","subject_id","task_version","interactions","blur_events","focus_events","fullscreenenter_events","fullscreenexit_events","success","timeout","failed_images","failed_audio","failed_video","rt","stimulus","response","button_pressed","task_part","key_press","answer","correct"
"pavlovia","0","3","0.0-0.0","8550","approach_avoid_sv1","""event"",""trial"",""time""
""fullscreenenter"",""1"",""2173""
","
","
","""event"",""trial"",""time""
""fullscreenenter"",""1"",""2173""
","
","","","","","","","","","","","","",""
"fullscreen","1","3158","0.0-1.0","8550","approach_avoid_sv1","""event"",""trial"",""time""
""fullscreenenter"",""1"",""2173""
""fullscreenexit"",""2"",""4195""
","
","
","""event"",""trial"",""time""
""fullscreenenter"",""1"",""2173""
","""event"",""trial"",""time""
""fullscreenexit"",""2"",""4195""
","true","","","","","","","","","","","",""
"preload","2","9764","0.0-2.0","8550","approach_avoid_sv1","""event"",""trial"",""time""
""fullscreenenter"",""1"",""2173""
""fullscreenexit"",""2"",""4195""
","
","
","""event"",""trial"",""time""
""fullscreenenter"",""1"",""2173""
","""event"",""trial"",""time""
""fullscreenexit"",""2"",""4195""
","true","false","[]","[]","[]","","","","","","","",""
"preload","3","14373","0.0-3.0","8550","approach_avoid_sv1","""event"",""trial"",""time""
""fullscreenenter"",""1"",""2173""
""fullscreenexit"",""2"",""4195""
","
","
","""event"",""trial"",""time""
""fullscreenenter"",""1"",""2173""
","""event"",""trial"",""time""
""fullscreenexit"",""2"",""4195""
","true","false","[]","[]","[]","","","","","","","",""
"preload","4","15505","0.0-4.0","8550","approach_avoid_sv1","""event"",""trial"",""time""
""fullscreenenter"",""1"",""2173""
""fullscreenexit"",""2"",""4195""
","
","
","""event"",""trial"",""time""
""fullscreenenter"",""1"",""2173""
","""event"",""trial"",""time""
""fullscreenexit"",""2"",""4195""
","true","false","[]","[]","[]","","","","","","","",""
"audio-keyboard-response","5","19669","0.0-5.0","8550","approach_avoid_sv1","""event"",""trial"",""time""
""fullscreenenter"",""1"",""2173""
""fullscreenexit"",""2"",""4195""
","
","
","""event"",""trial"",""time""
""fullscreenenter"",""1"",""2173""
","""event"",""trial"",""time""
""fullscreenexit"",""2"",""4195""
","","","","","","4160","audio/beep_loop.wav"," ","","","","",""
"audio-button-response","6","21989","0.0-6.0","8550","approach_avoid_sv1","""event"",""trial"",""time""
""fullscreenenter"",""1"",""2173""
""fullscreenexit"",""2"",""4195""
","
","
","""event"",""trial"",""time""
""fullscreenenter"",""1"",""2173""
","""event"",""trial"",""time""
""fullscreenexit"",""2"",""4195""
","","","","","","2320","audio/turtle.wav","3","","","","",""
"audio-button-response","7","24892","0.0-7.0","8550","approach_avoid_sv1","""event"",""trial"",""time""
""fullscreenenter"",""1"",""2173""
""fullscreenexit"",""2"",""4195""
","
","
","""event"",""trial"",""time""
""fullscreenenter"",""1"",""2173""
","""event"",""trial"",""time""
""fullscreenexit"",""2"",""4195""
","","","","","","1891","audio/shark.wav","2","","","","",""
"preload","8","31642","0.0-8.0","8550","approach_avoid_sv1","""event"",""trial"",""time""
""fullscreenenter"",""1"",""2173""
""fullscreenexit"",""2"",""4195""
","
","
","""event"",""trial"",""time""
""fullscreenenter"",""1"",""2173""
","""event"",""trial"",""time""
""fullscreenexit"",""2"",""4195""
","true","false","[]","[]","[]","","","","","","","",""
"learning-instructions","9","44733","0.0-9.0-0.0","8550","approach_avoid_sv1","""event"",""trial"",""time""
""fullscreenenter"",""1"",""2173""
""fullscreenexit"",""2"",""4195""
","
","
","""event"",""trial"",""time""
""fullscreenenter"",""1"",""2173""
","""event"",""trial"",""time""
""fullscreenexit"",""2"",""4195""
","","","","","","8608.400000095367","<p> Welcome back! </p><p> Last week, you had to make choices about lots of different items.  </p>","","0","instructions","","",""
"learning-instructions","10","56014","0.0-9.0-0.1","8550","approach_avoid_sv1","""event"",""trial"",""time""
""fullscreenenter"",""1"",""2173""
""fullscreenexit"",""2"",""4195""
","
","
","""event"",""trial"",""time""
""fullscreenenter"",""1"",""2173""
","""event"",""trial"",""time""
""fullscreenexit"",""2"",""4195""
","","","","","","7149.099999904633","<p> Today, we are going to ask you to try to remember all the items. </p>","","0","instructions","","",""
"learning-instructions","11","68982","0.0-9.0-0.2","8550","approach_avoid_sv1","""event"",""trial"",""time""
""fullscreenenter"",""1"",""2173""
""fullscreenexit"",""2"",""4195""
","
","
","""event"",""trial"",""time""
""fullscreenenter"",""1"",""2173""
","""event"",""trial"",""time""
""fullscreenexit"",""2"",""4195""
","","","","","","2836.1000003814697","<p> On every trial, you will see an image. </p><p> The image may be an OLD image you saw during the games last week or it may be a NEW image that was not presented. </p>","","0","instructions","","",""
"learning-instructions","12","79622","0.0-9.0-0.3","8550","approach_avoid_sv1","""event"",""trial"",""time""
""fullscreenenter"",""1"",""2173""
""fullscreenexit"",""2"",""4195""
","
","
","""event"",""trial"",""time""
""fullscreenenter"",""1"",""2173""
","""event"",""trial"",""time""
""fullscreenexit"",""2"",""4195""
","","","","","","2135","<p> You need to select whether the image is:  </p><p>  'Definitely old', 'Maybe old', 'Maybe new', or 'Definitely new.'  </p><div class=""mem-choice-instructions-grid""><div class=""choice-option"" id=""choice-option-1"" ><img src=""images/definitely_old_1.png"" id=""choice-option-img-1"" class=""choice-option-img"" stage=""1""></div><div class=""choice-option"" id=""choice-option-2"" ><img src=""images/maybe_old_1.png"" id=""choice-option-img-2"" class=""choice-option-img"" stage=""1""></div><div class=""choice-option"" id=""choice-option-3"" ><img src=""images/maybe_new_1.png"" id=""choice-option-img-3"" class=""choice-option-img"" stage=""1""></div><div class=""choice-option"" id=""choice-option-4"" > <img src=""images/definitely_new_1.png"" id=""choice-option-img-4"" class=""choice-option-img"" stage=""1""></div></div>","","0","instructions","","",""
"learning-instructions","13","87951","0.0-9.0-0.4","8550","approach_avoid_sv1","""event"",""trial"",""time""
""fullscreenenter"",""1"",""2173""
""fullscreenexit"",""2"",""4195""
","
","
","""event"",""trial"",""time""
""fullscreenenter"",""1"",""2173""
","""event"",""trial"",""time""
""fullscreenexit"",""2"",""4195""
","","","","","","1813.1999998092651","<p> You should use the 1, 2, 3, and 4 keys to make your responses.  </p><div class=""mem-choice-instructions-grid""><div class=""choice-option"" id=""choice-option-1"" ><img src=""images/definitely_old.png"" id=""choice-option-img-1"" class=""choice-option-img"" stage=""1""></div><div class=""choice-option"" id=""choice-option-2"" ><img src=""images/maybe_old.png"" id=""choice-option-img-2"" class=""choice-option-img"" stage=""1""></div><div class=""choice-option"" id=""choice-option-3"" ><img src=""images/maybe_new.png"" id=""choice-option-img-3"" class=""choice-option-img"" stage=""1""></div><div class=""choice-option"" id=""choice-option-4"" > <img src=""images/definitely_new.png"" id=""choice-option-img-4"" class=""choice-option-img"" stage=""1""></div></div>","","0","instructions","","",""
"learning-instructions","14","95935","0.0-9.0-0.5","8550","approach_avoid_sv1","""event"",""trial"",""time""
""fullscreenenter"",""1"",""2173""
""fullscreenexit"",""2"",""4195""
","
","
","""event"",""trial"",""time""
""fullscreenenter"",""1"",""2173""
","""event"",""trial"",""time""
""fullscreenexit"",""2"",""4195""
","","","","","","1648.2000002861023","<p> You will have 10 seconds to make each response.  </p><p>  Make sure to respond before time runs out! </p>","","0","instructions","","",""
"learning-instructions","15","103591","0.0-9.0-0.6","8550","approach_avoid_sv1","""event"",""trial"",""time""
""fullscreenenter"",""1"",""2173""
""fullscreenexit"",""2"",""4195""
","
","
","""event"",""trial"",""time""
""fullscreenenter"",""1"",""2173""
","""event"",""trial"",""time""
""fullscreenexit"",""2"",""4195""
","","","","","","564.7000002861023","<p> Today, you will see each image ONCE only.  </p><p>  That means none of the images will repeat. </p>","","0","instructions","","",""
"learning-instructions","16","117680","0.0-9.0-0.7","8550","approach_avoid_sv1","""event"",""trial"",""time""
""fullscreenenter"",""1"",""2173""
""fullscreenexit"",""2"",""4195""
","
","
","""event"",""trial"",""time""
""fullscreenenter"",""1"",""2173""
","""event"",""trial"",""time""
""fullscreenexit"",""2"",""4195""
","","","","","","1412.2999997138977","<p> Before you play the real game, it is time to practice. </p><p>  Just like in the real game, some of the images in the practice will be ones you have seen before. </p><p>  Others will be entirely new. </p>","","0","instructions","","",""
"html-button-response","17","129136","0.0-10.0","8550","approach_avoid_sv1","""event"",""trial"",""time""
""fullscreenenter"",""1"",""2173""
""fullscreenexit"",""2"",""4195""
","
","
","""event"",""trial"",""time""
""fullscreenenter"",""1"",""2173""
","""event"",""trial"",""time""
""fullscreenexit"",""2"",""4195""
","","","","","","11343.599999904633","<p> Ready to practice? </p><p> Remember, use the 1, 2, 3, and 4 keys to make your responses. </p>","0","","instructions","","",""
"html-keyboard-response","18","129772","0.0-11.0-0.0","8550","approach_avoid_sv1","""event"",""trial"",""time""
""fullscreenenter"",""1"",""2173""
""fullscreenexit"",""2"",""4195""
","
","
","""event"",""trial"",""time""
""fullscreenenter"",""1"",""2173""
","""event"",""trial"",""time""
""fullscreenexit"",""2"",""4195""
","","","","","","null","<div style=""font-size:60px;"">+</div>","null","","fixation","","",""
"memory-trial","19","131692","0.0-11.0-1.0","8550","approach_avoid_sv1","""event"",""trial"",""time""
""fullscreenenter"",""1"",""2173""
""fullscreenexit"",""2"",""4195""
","
","
","""event"",""trial"",""time""
""fullscreenenter"",""1"",""2173""
","""event"",""trial"",""time""
""fullscreenexit"",""2"",""4195""
","","","","","","900.0999999046326","images/ball5.png","","","practice","3","maybe_new",""
"html-keyboard-response","20","132211","0.0-11.0-0.1","8550","approach_avoid_sv1","""event"",""trial"",""time""
""fullscreenenter"",""1"",""2173""
""fullscreenexit"",""2"",""4195""
","
","
","""event"",""trial"",""time""
""fullscreenenter"",""1"",""2173""
","""event"",""trial"",""time""
""fullscreenexit"",""2"",""4195""
","","","","","","null","<div style=""font-size:60px;"">+</div>","null","","fixation","","",""
"memory-trial","21","134071","0.0-11.0-1.1","8550","approach_avoid_sv1","""event"",""trial"",""time""
""fullscreenenter"",""1"",""2173""
""fullscreenexit"",""2"",""4195""
","
","
","""event"",""trial"",""time""
""fullscreenenter"",""1"",""2173""
","""event"",""trial"",""time""
""fullscreenexit"",""2"",""4195""
","","","","","","839.9000000953674","images/ball3.png","","","practice","4","definitely_new",""
"html-keyboard-response","22","134591","0.0-11.0-0.2","8550","approach_avoid_sv1","""event"",""trial"",""time""
""fullscreenenter"",""1"",""2173""
""fullscreenexit"",""2"",""4195""
","
","
","""event"",""trial"",""time""
""fullscreenenter"",""1"",""2173""
","""event"",""trial"",""time""
""fullscreenexit"",""2"",""4195""
","","","","","","null","<div style=""font-size:60px;"">+</div>","null","","fixation","","",""
"memory-trial","23","136392","0.0-11.0-1.2","8550","approach_avoid_sv1","""event"",""trial"",""time""
""fullscreenenter"",""1"",""2173""
""fullscreenexit"",""2"",""4195""
","
","
","""event"",""trial"",""time""
""fullscreenenter"",""1"",""2173""
","""event"",""trial"",""time""
""fullscreenexit"",""2"",""4195""
","","","","","","795.9000000953674","images/racket1.png","","","practice","4","definitely_new",""
"html-keyboard-response","24","136912","0.0-11.0-0.3","8550","approach_avoid_sv1","""event"",""trial"",""time""
""fullscreenenter"",""1"",""2173""
""fullscreenexit"",""2"",""4195""
","
","
","""event"",""trial"",""time""
""fullscreenenter"",""1"",""2173""
","""event"",""trial"",""time""
""fullscreenexit"",""2"",""4195""
","","","","","","null","<div style=""font-size:60px;"">+</div>","null","","fixation","","",""
"memory-trial","25","138562","0.0-11.0-1.3","8550","approach_avoid_sv1","""event"",""trial"",""time""
""fullscreenenter"",""1"",""2173""
""fullscreenexit"",""2"",""4195""
","
","
","""event"",""trial"",""time""
""fullscreenenter"",""1"",""2173""
","""event"",""trial"",""time""
""fullscreenexit"",""2"",""4195""
","","","","","","627.6999998092651","images/racket3.png","","","practice","4","definitely_new",""
"html-keyboard-response","26","139082","0.0-11.0-0.4","8550","approach_avoid_sv1","""event"",""trial"",""time""
""fullscreenenter"",""1"",""2173""
""fullscreenexit"",""2"",""4195""
","
","
","""event"",""trial"",""time""
""fullscreenenter"",""1"",""2173""
","""event"",""trial"",""time""
""fullscreenexit"",""2"",""4195""
","","","","","","null","<div style=""font-size:60px;"">+</div>","null","","fixation","","",""
"memory-trial","27","140742","0.0-11.0-1.4","8550","approach_avoid_sv1","""event"",""trial"",""time""
""fullscreenenter"",""1"",""2173""
""fullscreenexit"",""2"",""4195""
","
","
","""event"",""trial"",""time""
""fullscreenenter"",""1"",""2173""
","""event"",""trial"",""time""
""fullscreenexit"",""2"",""4195""
","","","","","","641.7999997138977","images/racket2.png","","","practice","4","definitely_new",""
"html-keyboard-response","28","141252","0.0-11.0-0.5","8550","approach_avoid_sv1","""event"",""trial"",""time""
""fullscreenenter"",""1"",""2173""
""fullscreenexit"",""2"",""4195""
","
","
","""event"",""trial"",""time""
""fullscreenenter"",""1"",""2173""
","""event"",""trial"",""time""
""fullscreenexit"",""2"",""4195""
","","","","","","null","<div style=""font-size:60px;"">+</div>","null","","fixation","","",""
"memory-trial","29","142982","0.0-11.0-1.5","8550","approach_avoid_sv1","""event"",""trial"",""time""
""fullscreenenter"",""1"",""2173""
""fullscreenexit"",""2"",""4195""
","
","
","""event"",""trial"",""time""
""fullscreenenter"",""1"",""2173""
","""event"",""trial"",""time""
""fullscreenexit"",""2"",""4195""
","","","","","","711.7000002861023","images/racket5.png","","","practice","4","definitely_new",""
"html-keyboard-response","30","143502","0.0-11.0-0.6","8550","approach_avoid_sv1","""event"",""trial"",""time""
""fullscreenenter"",""1"",""2173""
""fullscreenexit"",""2"",""4195""
","
","
","""event"",""trial"",""time""
""fullscreenenter"",""1"",""2173""
","""event"",""trial"",""time""
""fullscreenexit"",""2"",""4195""
","","","","","","null","<div style=""font-size:60px;"">+</div>","null","","fixation","","",""
"memory-trial","31","145392","0.0-11.0-1.6","8550","approach_avoid_sv1","""event"",""trial"",""time""
""fullscreenenter"",""1"",""2173""
""fullscreenexit"",""2"",""4195""
","
","
","""event"",""trial"",""time""
""fullscreenenter"",""1"",""2173""
","""event"",""trial"",""time""
""fullscreenexit"",""2"",""4195""
","","","","","","885.0999999046326","images/ball2.png","","","practice","4","definitely_new",""
"html-keyboard-response","32","145912","0.0-11.0-0.7","8550","approach_avoid_sv1","""event"",""trial"",""time""
""fullscreenenter"",""1"",""2173""
""fullscreenexit"",""2"",""4195""
","
","
","""event"",""trial"",""time""
""fullscreenenter"",""1"",""2173""
","""event"",""trial"",""time""
""fullscreenexit"",""2"",""4195""
","","","","","","null","<div style=""font-size:60px;"">+</div>","null","","fixation","","",""
"memory-trial","33","148566","0.0-11.0-1.7","8550","approach_avoid_sv1","""event"",""trial"",""time""
""fullscreenenter"",""1"",""2173""
""fullscreenexit"",""2"",""4195""
","
","
","""event"",""trial"",""time""
""fullscreenenter"",""1"",""2173""
","""event"",""trial"",""time""
""fullscreenexit"",""2"",""4195""
","","","","","","1649.6000003814697","images/ball1.png","","","practice","1","definitely_old",""
"learning-instructions","34","158017","0.0-12.0-0.0","8550","approach_avoid_sv1","""event"",""trial"",""time""
""fullscreenenter"",""1"",""2173""
""fullscreenexit"",""2"",""4195""
","
","
","""event"",""trial"",""time""
""fullscreenenter"",""1"",""2173""
","""event"",""trial"",""time""
""fullscreenexit"",""2"",""4195""
","","","","","","2155.9000000953674","<p> Great! You have completed the practice. </p><p> Before you start, we're going to ask you a few questions about how the game works.  </p>","","0","instructions","","",""
"preload","35","162621","0.0-13.0","8550","approach_avoid_sv1","""event"",""trial"",""time""
""fullscreenenter"",""1"",""2173""
""fullscreenexit"",""2"",""4195""
","
","
","""event"",""trial"",""time""
""fullscreenenter"",""1"",""2173""
","""event"",""trial"",""time""
""fullscreenexit"",""2"",""4195""
","true","false","[]","[]","[]","","","","","","","",""
"comp-q","36","170305","0.0-14.0-0.0","8550","approach_avoid_sv1","""event"",""trial"",""time""
""fullscreenenter"",""1"",""2173""
""fullscreenexit"",""2"",""4195""
","
","
","""event"",""trial"",""time""
""fullscreenenter"",""1"",""2173""
","""event"",""trial"",""time""
""fullscreenexit"",""2"",""4195""
","","","","","","1853.9000000953674","<p> <b> True or False? </b> </p><p> In this game, you will only see each image once. </p>","","0","comp_question","","","true"
"comp-q","37","179690","0.0-14.0-1.0","8550","approach_avoid_sv1","""event"",""trial"",""time""
""fullscreenenter"",""1"",""2173""
""fullscreenexit"",""2"",""4195""
","
","
","""event"",""trial"",""time""
""fullscreenenter"",""1"",""2173""
","""event"",""trial"",""time""
""fullscreenexit"",""2"",""4195""
","","","","","","3038.2000002861023","<p> <b> That's right! </b> You will see many different images <i> one time each </i> in this game. </p>","","0","comp_answer","","",""
"comp-q","38","186154","0.0-15.0-0.0","8550","approach_avoid_sv1","""event"",""trial"",""time""
""fullscreenenter"",""1"",""2173""
""fullscreenexit"",""2"",""4195""
""blur"",""39"",""193800""
""focus"",""39"",""193803""
","""event"",""trial"",""time""
""blur"",""39"",""193800""
","""event"",""trial"",""time""
""focus"",""39"",""193803""
","""event"",""trial"",""time""
""fullscreenenter"",""1"",""2173""
","""event"",""trial"",""time""
""fullscreenexit"",""2"",""4195""
","","","","","","1452.6999998092651","<p> <b> True or False? </b> </p><p> You should use the mouse and click to make your response. </p>","","1","comp_question","","","true"
"comp-q","39","195990","0.0-15.0-1.0","8550","approach_avoid_sv1","""event"",""trial"",""time""
""fullscreenenter"",""1"",""2173""
""fullscreenexit"",""2"",""4195""
""blur"",""39"",""193800""
""focus"",""39"",""193803""
","""event"",""trial"",""time""
""blur"",""39"",""193800""
","""event"",""trial"",""time""
""focus"",""39"",""193803""
","""event"",""trial"",""time""
""fullscreenenter"",""1"",""2173""
","""event"",""trial"",""time""
""fullscreenexit"",""2"",""4195""
","","","","","","2189.2999997138977","<p><b> That's right! </b> You should use the '1', '2', '3', and '4' keys to make your response. </p>","","0","comp_answer","","",""
"comp-q","40","202286","0.0-16.0-0.0","8550","approach_avoid_sv1","""event"",""trial"",""time""
""fullscreenenter"",""1"",""2173""
""fullscreenexit"",""2"",""4195""
""blur"",""39"",""193800""
""focus"",""39"",""193803""
","""event"",""trial"",""time""
""blur"",""39"",""193800""
","""event"",""trial"",""time""
""focus"",""39"",""193803""
","""event"",""trial"",""time""
""fullscreenenter"",""1"",""2173""
","""event"",""trial"",""time""
""fullscreenexit"",""2"",""4195""
","","","","","","618.0999999046326","<p> <b> True or False? </b> </p><p> You will have as much time as you want to make each choice. </p>","","1","comp_question","","","true"
"comp-q","41","208558","0.0-16.0-1.0","8550","approach_avoid_sv1","""event"",""trial"",""time""
""fullscreenenter"",""1"",""2173""
""fullscreenexit"",""2"",""4195""
""blur"",""39"",""193800""
""focus"",""39"",""193803""
","""event"",""trial"",""time""
""blur"",""39"",""193800""
","""event"",""trial"",""time""
""focus"",""39"",""193803""
","""event"",""trial"",""time""
""fullscreenenter"",""1"",""2173""
","""event"",""trial"",""time""
""fullscreenexit"",""2"",""4195""
","","","","","","1570.5999999046326","<p> <b> That's right! </b> You will only have 10 seconds to make each choice. </p>","","0","comp_answer","","",""
"learning-instructions","42","220550","0.0-17.0","8550","approach_avoid_sv1","""event"",""trial"",""time""
""fullscreenenter"",""1"",""2173""
""fullscreenexit"",""2"",""4195""
""blur"",""39"",""193800""
""focus"",""39"",""193803""
","""event"",""trial"",""time""
""blur"",""39"",""193800""
","""event"",""trial"",""time""
""focus"",""39"",""193803""
","""event"",""trial"",""time""
""fullscreenenter"",""1"",""2173""
","""event"",""trial"",""time""
""fullscreenexit"",""2"",""4195""
","","","","","","3312.0999999046326","<p> Great! You are now ready to begin the game. </p><p> Remember, use the 1, 2, 3, and 4 keys to make your responses. </p>","","0","instructions","","",""
"html-keyboard-response","43","221162","0.0-18.0-0.0","8550","approach_avoid_sv1","""event"",""trial"",""time""
""fullscreenenter"",""1"",""2173""
""fullscreenexit"",""2"",""4195""
""blur"",""39"",""193800""
""focus"",""39"",""193803""
","""event"",""trial"",""time""
""blur"",""39"",""193800""
","""event"",""trial"",""time""
""focus"",""39"",""193803""
","""event"",""trial"",""time""
""fullscreenenter"",""1"",""2173""
","""event"",""trial"",""time""
""fullscreenexit"",""2"",""4195""
","","","","","","null","<div style=""font-size:60px;"">+</div>","null","","fixation","","",""
"memory-trial","44","224322","0.0-18.0-1.0","8550","approach_avoid_sv1","""event"",""trial"",""time""
""fullscreenenter"",""1"",""2173""
""fullscreenexit"",""2"",""4195""
""blur"",""39"",""193800""
""focus"",""39"",""193803""
","""event"",""trial"",""time""
""blur"",""39"",""193800""
","""event"",""trial"",""time""
""focus"",""39"",""193803""
","""event"",""trial"",""time""
""fullscreenenter"",""1"",""2173""
","""event"",""trial"",""time""
""fullscreenexit"",""2"",""4195""
","","","","","","2142.5999999046326","images/orange7.png","","","memory_trial","4","definitely_new",""
"html-keyboard-response","45","224842","0.0-18.0-0.1","8550","approach_avoid_sv1","""event"",""trial"",""time""
""fullscreenenter"",""1"",""2173""
""fullscreenexit"",""2"",""4195""
""blur"",""39"",""193800""
""focus"",""39"",""193803""
","""event"",""trial"",""time""
""blur"",""39"",""193800""
","""event"",""trial"",""time""
""focus"",""39"",""193803""
","""event"",""trial"",""time""
""fullscreenenter"",""1"",""2173""
","""event"",""trial"",""time""
""fullscreenexit"",""2"",""4195""
","","","","","","null","<div style=""font-size:60px;"">+</div>","null","","fixation","","",""
"memory-trial","46","227253","0.0-18.0-1.1","8550","approach_avoid_sv1","""event"",""trial"",""time""
""fullscreenenter"",""1"",""2173""
""fullscreenexit"",""2"",""4195""
""blur"",""39"",""193800""
""focus"",""39"",""193803""
","""event"",""trial"",""time""
""blur"",""39"",""193800""
","""event"",""trial"",""time""
""focus"",""39"",""193803""
","""event"",""trial"",""time""
""fullscreenenter"",""1"",""2173""
","""event"",""trial"",""time""
""fullscreenexit"",""2"",""4195""
","","","","","","1401.5","images/bush2.png","","","memory_trial","1","definitely_old",""
"html-keyboard-response","47","227772","0.0-18.0-0.2","8550","approach_avoid_sv1","""event"",""trial"",""time""
""fullscreenenter"",""1"",""2173""
""fullscreenexit"",""2"",""4195""
""blur"",""39"",""193800""
""focus"",""39"",""193803""
","""event"",""trial"",""time""
""blur"",""39"",""193800""
","""event"",""trial"",""time""
""focus"",""39"",""193803""
","""event"",""trial"",""time""
""fullscreenenter"",""1"",""2173""
","""event"",""trial"",""time""
""fullscreenexit"",""2"",""4195""
","","","","","","null","<div style=""font-size:60px;"">+</div>","null","","fixation","","",""
"memory-trial","48","229942","0.0-18.0-1.2","8550","approach_avoid_sv1","""event"",""trial"",""time""
""fullscreenenter"",""1"",""2173""
""fullscreenexit"",""2"",""4195""
""blur"",""39"",""193800""
""focus"",""39"",""193803""
","""event"",""trial"",""time""
""blur"",""39"",""193800""
","""event"",""trial"",""time""
""focus"",""39"",""193803""
","""event"",""trial"",""time""
""fullscreenenter"",""1"",""2173""
","""event"",""trial"",""time""
""fullscreenexit"",""2"",""4195""
","","","","","","1147.4000000953674","images/sheep5.png","","","memory_trial","1","definitely_old",""
"html-keyboard-response","49","230462","0.0-18.0-0.3","8550","approach_avoid_sv1","""event"",""trial"",""time""
""fullscreenenter"",""1"",""2173""
""fullscreenexit"",""2"",""4195""
""blur"",""39"",""193800""
""focus"",""39"",""193803""
","""event"",""trial"",""time""
""blur"",""39"",""193800""
","""event"",""trial"",""time""
""focus"",""39"",""193803""
","""event"",""trial"",""time""
""fullscreenenter"",""1"",""2173""
","""event"",""trial"",""time""
""fullscreenexit"",""2"",""4195""
","","","","","","null","<div style=""font-size:60px;"">+</div>","null","","fixation","","",""
"memory-trial","50","232173","0.0-18.0-1.3","8550","approach_avoid_sv1","""event"",""trial"",""time""
""fullscreenenter"",""1"",""2173""
""fullscreenexit"",""2"",""4195""
""blur"",""39"",""193800""
""focus"",""39"",""193803""
","""event"",""trial"",""time""
""blur"",""39"",""193800""
","""event"",""trial"",""time""
""focus"",""39"",""193803""
","""event"",""trial"",""time""
""fullscreenenter"",""1"",""2173""
","""event"",""trial"",""time""
""fullscreenexit"",""2"",""4195""
","","","","","","692","images/tree8.png","","","memory_trial","1","definitely_old",""
"html-keyboard-response","51","232683","0.0-18.0-0.4","8550","approach_avoid_sv1","""event"",""trial"",""time""
""fullscreenenter"",""1"",""2173""
""fullscreenexit"",""2"",""4195""
""blur"",""39"",""193800""
""focus"",""39"",""193803""
","""event"",""trial"",""time""
""blur"",""39"",""193800""
","""event"",""trial"",""time""
""focus"",""39"",""193803""
","""event"",""trial"",""time""
""fullscreenenter"",""1"",""2173""
","""event"",""trial"",""time""
""fullscreenexit"",""2"",""4195""
","","","","","","null","<div style=""font-size:60px;"">+</div>","null","","fixation","","",""
"memory-trial","52","235093","0.0-18.0-1.4","8550","approach_avoid_sv1","""event"",""trial"",""time""
""fullscreenenter"",""1"",""2173""
""fullscreenexit"",""2"",""4195""
""blur"",""39"",""193800""
""focus"",""39"",""193803""
","""event"",""trial"",""time""
""blur"",""39"",""193800""
","""event"",""trial"",""time""
""focus"",""39"",""193803""
","""event"",""trial"",""time""
""fullscreenenter"",""1"",""2173""
","""event"",""trial"",""time""
""fullscreenexit"",""2"",""4195""
","","","","","","1399.5999999046326","images/rodent6.png","","","memory_trial","4","definitely_new",""
"html-keyboard-response","53","235613","0.0-18.0-0.5","8550","approach_avoid_sv1","""event"",""trial"",""time""
""fullscreenenter"",""1"",""2173""
""fullscreenexit"",""2"",""4195""
""blur"",""39"",""193800""
""focus"",""39"",""193803""
","""event"",""trial"",""time""
""blur"",""39"",""193800""
","""event"",""trial"",""time""
""focus"",""39"",""193803""
","""event"",""trial"",""time""
""fullscreenenter"",""1"",""2173""
","""event"",""trial"",""time""
""fullscreenexit"",""2"",""4195""
","","","","","","null","<div style=""font-size:60px;"">+</div>","null","","fixation","","",""
"memory-trial","54","237902","0.0-18.0-1.5","8550","approach_avoid_sv1","""event"",""trial"",""time""
""fullscreenenter"",""1"",""2173""
""fullscreenexit"",""2"",""4195""
""blur"",""39"",""193800""
""focus"",""39"",""193803""
","""event"",""trial"",""time""
""blur"",""39"",""193800""
","""event"",""trial"",""time""
""focus"",""39"",""193803""
","""event"",""trial"",""time""
""fullscreenenter"",""1"",""2173""
","""event"",""trial"",""time""
""fullscreenexit"",""2"",""4195""
","","","","","","1284.5","images/cat6.png","","","memory_trial","4","definitely_new",""
"html-keyboard-response","55","238422","0.0-18.0-0.6","8550","approach_avoid_sv1","""event"",""trial"",""time""
""fullscreenenter"",""1"",""2173""
""fullscreenexit"",""2"",""4195""
""blur"",""39"",""193800""
""focus"",""39"",""193803""
","""event"",""trial"",""time""
""blur"",""39"",""193800""
","""event"",""trial"",""time""
""focus"",""39"",""193803""
","""event"",""trial"",""time""
""fullscreenenter"",""1"",""2173""
","""event"",""trial"",""time""
""fullscreenexit"",""2"",""4195""
","","","","","","null","<div style=""font-size:60px;"">+</div>","null","","fixation","","",""
"memory-trial","56","240223","0.0-18.0-1.6","8550","approach_avoid_sv1","""event"",""trial"",""time""
""fullscreenenter"",""1"",""2173""
""fullscreenexit"",""2"",""4195""
""blur"",""39"",""193800""
""focus"",""39"",""193803""
","""event"",""trial"",""time""
""blur"",""39"",""193800""
","""event"",""trial"",""time""
""focus"",""39"",""193803""
","""event"",""trial"",""time""
""fullscreenenter"",""1"",""2173""
","""event"",""trial"",""time""
""fullscreenexit"",""2"",""4195""
","","","","","","781.4000000953674","images/table8.png","","","memory_trial","4","definitely_new",""
"html-keyboard-response","57","240742","0.0-18.0-0.7","8550","approach_avoid_sv1","""event"",""trial"",""time""
""fullscreenenter"",""1"",""2173""
""fullscreenexit"",""2"",""4195""
""blur"",""39"",""193800""
""focus"",""39"",""193803""
","""event"",""trial"",""time""
""blur"",""39"",""193800""
","""event"",""trial"",""time""
""focus"",""39"",""193803""
","""event"",""trial"",""time""
""fullscreenenter"",""1"",""2173""
","""event"",""trial"",""time""
""fullscreenexit"",""2"",""4195""
","","","","","","null","<div style=""font-size:60px;"">+</div>","null","","fixation","","",""
"memory-trial","58","243903","0.0-18.0-1.7","8550","approach_avoid_sv1","""event"",""trial"",""time""
""fullscreenenter"",""1"",""2173""
""fullscreenexit"",""2"",""4195""
""blur"",""39"",""193800""
""focus"",""39"",""193803""
","""event"",""trial"",""time""
""blur"",""39"",""193800""
","""event"",""trial"",""time""
""focus"",""39"",""193803""
","""event"",""trial"",""time""
""fullscreenenter"",""1"",""2173""
","""event"",""trial"",""time""
""fullscreenexit"",""2"",""4195""
","","","","","","2157.5","images/plane1.png","","","memory_trial","4","definitely_new",""
"html-keyboard-response","59","244423","0.0-18.0-0.8","8550","approach_avoid_sv1","""event"",""trial"",""time""
""fullscreenenter"",""1"",""2173""
""fullscreenexit"",""2"",""4195""
""blur"",""39"",""193800""
""focus"",""39"",""193803""
","""event"",""trial"",""time""
""blur"",""39"",""193800""
","""event"",""trial"",""time""
""focus"",""39"",""193803""
","""event"",""trial"",""time""
""fullscreenenter"",""1"",""2173""
","""event"",""trial"",""time""
""fullscreenexit"",""2"",""4195""
","","","","","","null","<div style=""font-size:60px;"">+</div>","null","","fixation","","",""
"memory-trial","60","246433","0.0-18.0-1.8","8550","approach_avoid_sv1","""event"",""trial"",""time""
""fullscreenenter"",""1"",""2173""
""fullscreenexit"",""2"",""4195""
""blur"",""39"",""193800""
""focus"",""39"",""193803""
","""event"",""trial"",""time""
""blur"",""39"",""193800""
","""event"",""trial"",""time""
""focus"",""39"",""193803""
","""event"",""trial"",""time""
""fullscreenenter"",""1"",""2173""
","""event"",""trial"",""time""
""fullscreenexit"",""2"",""4195""
","","","","","","986.5","images/rodent4.png","","","memory_trial","4","definitely_new",""
"html-keyboard-response","61","246953","0.0-18.0-0.9","8550","approach_avoid_sv1","""event"",""trial"",""time""
""fullscreenenter"",""1"",""2173""
""fullscreenexit"",""2"",""4195""
""blur"",""39"",""193800""
""focus"",""39"",""193803""
","""event"",""trial"",""time""
""blur"",""39"",""193800""
","""event"",""trial"",""time""
""focus"",""39"",""193803""
","""event"",""trial"",""time""
""fullscreenenter"",""1"",""2173""
","""event"",""trial"",""time""
""fullscreenexit"",""2"",""4195""
","","","","","","null","<div style=""font-size:60px;"">+</div>","null","","fixation","","",""
"memory-trial","62","248700","0.0-18.0-1.9","8550","approach_avoid_sv1","""event"",""trial"",""time""
""fullscreenenter"",""1"",""2173""
""fullscreenexit"",""2"",""4195""
""blur"",""39"",""193800""
""focus"",""39"",""193803""
","""event"",""trial"",""time""
""blur"",""39"",""193800""
","""event"",""trial"",""time""
""focus"",""39"",""193803""
","""event"",""trial"",""time""
""fullscreenenter"",""1"",""2173""
","""event"",""trial"",""time""
""fullscreenexit"",""2"",""4195""
","","","","","","743.4000000953674","images/straw5.png","","","memory_trial","4","definitely_new",""
"html-keyboard-response","63","249206","0.0-18.0-0.10","8550","approach_avoid_sv1","""event"",""trial"",""time""
""fullscreenenter"",""1"",""2173""
""fullscreenexit"",""2"",""4195""
""blur"",""39"",""193800""
""focus"",""39"",""193803""
","""event"",""trial"",""time""
""blur"",""39"",""193800""
","""event"",""trial"",""time""
""focus"",""39"",""193803""
","""event"",""trial"",""time""
""fullscreenenter"",""1"",""2173""
","""event"",""trial"",""time""
""fullscreenexit"",""2"",""4195""
","","","","","","null","<div style=""font-size:60px;"">+</div>","null","","fixation","","",""
"memory-trial","64","251475","0.0-18.0-1.10","8550","approach_avoid_sv1","""event"",""trial"",""time""
""fullscreenenter"",""1"",""2173""
""fullscreenexit"",""2"",""4195""
""blur"",""39"",""193800""
""focus"",""39"",""193803""
","""event"",""trial"",""time""
""blur"",""39"",""193800""
","""event"",""trial"",""time""
""focus"",""39"",""193803""
","""event"",""trial"",""time""
""fullscreenenter"",""1"",""2173""
","""event"",""trial"",""time""
""fullscreenexit"",""2"",""4195""
","","","","","","1265.4000000953674","images/orange5.png","","","memory_trial","1","definitely_old",""
"html-keyboard-response","65","251978","0.0-18.0-0.11","8550","approach_avoid_sv1","""event"",""trial"",""time""
""fullscreenenter"",""1"",""2173""
""fullscreenexit"",""2"",""4195""
""blur"",""39"",""193800""
""focus"",""39"",""193803""
","""event"",""trial"",""time""
""blur"",""39"",""193800""
","""event"",""trial"",""time""
""focus"",""39"",""193803""
","""event"",""trial"",""time""
""fullscreenenter"",""1"",""2173""
","""event"",""trial"",""time""
""fullscreenexit"",""2"",""4195""
","","","","","","null","<div style=""font-size:60px;"">+</div>","null","","fixation","","",""
"memory-trial","66","254019","0.0-18.0-1.11","8550","approach_avoid_sv1","""event"",""trial"",""time""
""fullscreenenter"",""1"",""2173""
""fullscreenexit"",""2"",""4195""
""blur"",""39"",""193800""
""focus"",""39"",""193803""
","""event"",""trial"",""time""
""blur"",""39"",""193800""
","""event"",""trial"",""time""
""focus"",""39"",""193803""
","""event"",""trial"",""time""
""fullscreenenter"",""1"",""2173""
","""event"",""trial"",""time""
""fullscreenexit"",""2"",""4195""
","","","","","","1036.9000000953674","images/plane7.png","","","memory_trial","4","definitely_new",""
"html-keyboard-response","67","254521","0.0-18.0-0.12","8550","approach_avoid_sv1","""event"",""trial"",""time""
""fullscreenenter"",""1"",""2173""
""fullscreenexit"",""2"",""4195""
""blur"",""39"",""193800""
""focus"",""39"",""193803""
","""event"",""trial"",""time""
""blur"",""39"",""193800""
","""event"",""trial"",""time""
""focus"",""39"",""193803""
","""event"",""trial"",""time""
""fullscreenenter"",""1"",""2173""
","""event"",""trial"",""time""
""fullscreenexit"",""2"",""4195""
","","","","","","null","<div style=""font-size:60px;"">+</div>","null","","fixation","","",""
"memory-trial","68","256881","0.0-18.0-1.12","8550","approach_avoid_sv1","""event"",""trial"",""time""
""fullscreenenter"",""1"",""2173""
""fullscreenexit"",""2"",""4195""
""blur"",""39"",""193800""
""focus"",""39"",""193803""
","""event"",""trial"",""time""
""blur"",""39"",""193800""
","""event"",""trial"",""time""
""focus"",""39"",""193803""
","""event"",""trial"",""time""
""fullscreenenter"",""1"",""2173""
","""event"",""trial"",""time""
""fullscreenexit"",""2"",""4195""
","","","","","","1357","images/chair7.png","","","memory_trial","4","definitely_new",""
"html-keyboard-response","69","257388","0.0-18.0-0.13","8550","approach_avoid_sv1","""event"",""trial"",""time""
""fullscreenenter"",""1"",""2173""
""fullscreenexit"",""2"",""4195""
""blur"",""39"",""193800""
""focus"",""39"",""193803""
","""event"",""trial"",""time""
""blur"",""39"",""193800""
","""event"",""trial"",""time""
""focus"",""39"",""193803""
","""event"",""trial"",""time""
""fullscreenenter"",""1"",""2173""
","""event"",""trial"",""time""
""fullscreenexit"",""2"",""4195""
","","","","","","null","<div style=""font-size:60px;"">+</div>","null","","fixation","","",""
"memory-trial","70","259660","0.0-18.0-1.13","8550","approach_avoid_sv1","""event"",""trial"",""time""
""fullscreenenter"",""1"",""2173""
""fullscreenexit"",""2"",""4195""
""blur"",""39"",""193800""
""focus"",""39"",""193803""
","""event"",""trial"",""time""
""blur"",""39"",""193800""
","""event"",""trial"",""time""
""focus"",""39"",""193803""
","""event"",""trial"",""time""
""fullscreenenter"",""1"",""2173""
","""event"",""trial"",""time""
""fullscreenexit"",""2"",""4195""
","","","","","","1266.6999998092651","images/cow6.png","","","memory_trial","1","definitely_old",""
"html-keyboard-response","71","260162","0.0-18.0-0.14","8550","approach_avoid_sv1","""event"",""trial"",""time""
""fullscreenenter"",""1"",""2173""
""fullscreenexit"",""2"",""4195""
""blur"",""39"",""193800""
""focus"",""39"",""193803""
","""event"",""trial"",""time""
""blur"",""39"",""193800""
","""event"",""trial"",""time""
""focus"",""39"",""193803""
","""event"",""trial"",""time""
""fullscreenenter"",""1"",""2173""
","""event"",""trial"",""time""
""fullscreenexit"",""2"",""4195""
","","","","","","null","<div style=""font-size:60px;"">+</div>","null","","fixation","","",""
"memory-trial","72","262810","0.0-18.0-1.14","8550","approach_avoid_sv1","""event"",""trial"",""time""
""fullscreenenter"",""1"",""2173""
""fullscreenexit"",""2"",""4195""
""blur"",""39"",""193800""
""focus"",""39"",""193803""
","""event"",""trial"",""time""
""blur"",""39"",""193800""
","""event"",""trial"",""time""
""focus"",""39"",""193803""
","""event"",""trial"",""time""
""fullscreenenter"",""1"",""2173""
","""event"",""trial"",""time""
""fullscreenexit"",""2"",""4195""
","","","","","","1646.8999996185303","images/sofa2.png","","","memory_trial","4","definitely_new",""
"html-keyboard-response","73","263312","0.0-18.0-0.15","8550","approach_avoid_sv1","""event"",""trial"",""time""
""fullscreenenter"",""1"",""2173""
""fullscreenexit"",""2"",""4195""
""blur"",""39"",""193800""
""focus"",""39"",""193803""
","""event"",""trial"",""time""
""blur"",""39"",""193800""
","""event"",""trial"",""time""
""focus"",""39"",""193803""
","""event"",""trial"",""time""
""fullscreenenter"",""1"",""2173""
","""event"",""trial"",""time""
""fullscreenexit"",""2"",""4195""
","","","","","","null","<div style=""font-size:60px;"">+</div>","null","","fixation","","",""
"memory-trial","74","265387","0.0-18.0-1.15","8550","approach_avoid_sv1","""event"",""trial"",""time""
""fullscreenenter"",""1"",""2173""
""fullscreenexit"",""2"",""4195""
""blur"",""39"",""193800""
""focus"",""39"",""193803""
","""event"",""trial"",""time""
""blur"",""39"",""193800""
","""event"",""trial"",""time""
""focus"",""39"",""193803""
","""event"",""trial"",""time""
""fullscreenenter"",""1"",""2173""
","""event"",""trial"",""time""
""fullscreenexit"",""2"",""4195""
","","","","","","1072.2000002861023","images/sofa5.png","","","memory_trial","1","definitely_old",""
"html-keyboard-response","75","265889","0.0-18.0-0.16","8550","approach_avoid_sv1","""event"",""trial"",""time""
""fullscreenenter"",""1"",""2173""
""fullscreenexit"",""2"",""4195""
""blur"",""39"",""193800""
""focus"",""39"",""193803""
","""event"",""trial"",""time""
""blur"",""39"",""193800""
","""event"",""trial"",""time""
""focus"",""39"",""193803""
","""event"",""trial"",""time""
""fullscreenenter"",""1"",""2173""
","""event"",""trial"",""time""
""fullscreenexit"",""2"",""4195""
","","","","","","null","<div style=""font-size:60px;"">+</div>","null","","fixation","","",""
"memory-trial","76","268787","0.0-18.0-1.16","8550","approach_avoid_sv1","""event"",""trial"",""time""
""fullscreenenter"",""1"",""2173""
""fullscreenexit"",""2"",""4195""
""blur"",""39"",""193800""
""focus"",""39"",""193803""
","""event"",""trial"",""time""
""blur"",""39"",""193800""
","""event"",""trial"",""time""
""focus"",""39"",""193803""
","""event"",""trial"",""time""
""fullscreenenter"",""1"",""2173""
","""event"",""trial"",""time""
""fullscreenexit"",""2"",""4195""
","","","","","","1896.7999997138977","images/cactus4.png","","","memory_trial","4","definitely_new",""
"html-keyboard-response","77","269289","0.0-18.0-0.17","8550","approach_avoid_sv1","""event"",""trial"",""time""
""fullscreenenter"",""1"",""2173""
""fullscreenexit"",""2"",""4195""
""blur"",""39"",""193800""
""focus"",""39"",""193803""
","""event"",""trial"",""time""
""blur"",""39"",""193800""
","""event"",""trial"",""time""
""focus"",""39"",""193803""
","""event"",""trial"",""time""
""fullscreenenter"",""1"",""2173""
","""event"",""trial"",""time""
""fullscreenexit"",""2"",""4195""
","","","","","","null","<div style=""font-size:60px;"">+</div>","null","","fixation","","",""
"memory-trial","78","271291","0.0-18.0-1.17","8550","approach_avoid_sv1","""event"",""trial"",""time""
""fullscreenenter"",""1"",""2173""
""fullscreenexit"",""2"",""4195""
""blur"",""39"",""193800""
""focus"",""39"",""193803""
","""event"",""trial"",""time""
""blur"",""39"",""193800""
","""event"",""trial"",""time""
""focus"",""39"",""193803""
","""event"",""trial"",""time""
""fullscreenenter"",""1"",""2173""
","""event"",""trial"",""time""
""fullscreenexit"",""2"",""4195""
","","","","","","1000.7999997138977","images/goat1.png","","","memory_trial","4","definitely_new",""
"html-keyboard-response","79","271805","0.0-18.0-0.18","8550","approach_avoid_sv1","""event"",""trial"",""time""
""fullscreenenter"",""1"",""2173""
""fullscreenexit"",""2"",""4195""
""blur"",""39"",""193800""
""focus"",""39"",""193803""
","""event"",""trial"",""time""
""blur"",""39"",""193800""
","""event"",""trial"",""time""
""focus"",""39"",""193803""
","""event"",""trial"",""time""
""fullscreenenter"",""1"",""2173""
","""event"",""trial"",""time""
""fullscreenexit"",""2"",""4195""
","","","","","","null","<div style=""font-size:60px;"">+</div>","null","","fixation","","",""
"memory-trial","80","273666","0.0-18.0-1.18","8550","approach_avoid_sv1","""event"",""trial"",""time""
""fullscreenenter"",""1"",""2173""
""fullscreenexit"",""2"",""4195""
""blur"",""39"",""193800""
""focus"",""39"",""193803""
","""event"",""trial"",""time""
""blur"",""39"",""193800""
","""event"",""trial"",""time""
""focus"",""39"",""193803""
","""event"",""trial"",""time""
""fullscreenenter"",""1"",""2173""
","""event"",""trial"",""time""
""fullscreenexit"",""2"",""4195""
","","","","","","842.6999998092651","images/bed2.png","","","memory_trial","4","definitely_new",""
"html-keyboard-response","81","274167","0.0-18.0-0.19","8550","approach_avoid_sv1","""event"",""trial"",""time""
""fullscreenenter"",""1"",""2173""
""fullscreenexit"",""2"",""4195""
""blur"",""39"",""193800""
""focus"",""39"",""193803""
","""event"",""trial"",""time""
""blur"",""39"",""193800""
","""event"",""trial"",""time""
""focus"",""39"",""193803""
","""event"",""trial"",""time""
""fullscreenenter"",""1"",""2173""
","""event"",""trial"",""time""
""fullscreenexit"",""2"",""4195""
","","","","","","null","<div style=""font-size:60px;"">+</div>","null","","fixation","","",""
"memory-trial","82","276012","0.0-18.0-1.19","8550","approach_avoid_sv1","""event"",""trial"",""time""
""fullscreenenter"",""1"",""2173""
""fullscreenexit"",""2"",""4195""
""blur"",""39"",""193800""
""focus"",""39"",""193803""
","""event"",""trial"",""time""
""blur"",""39"",""193800""
","""event"",""trial"",""time""
""focus"",""39"",""193803""
","""event"",""trial"",""time""
""fullscreenenter"",""1"",""2173""
","""event"",""trial"",""time""
""fullscreenexit"",""2"",""4195""
","","","","","","841.4000000953674","images/flower4.png","","","memory_trial","4","definitely_new",""
"html-keyboard-response","83","276514","0.0-18.0-0.20","8550","approach_avoid_sv1","""event"",""trial"",""time""
""fullscreenenter"",""1"",""2173""
""fullscreenexit"",""2"",""4195""
""blur"",""39"",""193800""
""focus"",""39"",""193803""
","""event"",""trial"",""time""
""blur"",""39"",""193800""
","""event"",""trial"",""time""
""focus"",""39"",""193803""
","""event"",""trial"",""time""
""fullscreenenter"",""1"",""2173""
","""event"",""trial"",""time""
""fullscreenexit"",""2"",""4195""
","","","","","","null","<div style=""font-size:60px;"">+</div>","null","","fixation","","",""
"memory-trial","84","278722","0.0-18.0-1.20","8550","approach_avoid_sv1","""event"",""trial"",""time""
""fullscreenenter"",""1"",""2173""
""fullscreenexit"",""2"",""4195""
""blur"",""39"",""193800""
""focus"",""39"",""193803""
","""event"",""trial"",""time""
""blur"",""39"",""193800""
","""event"",""trial"",""time""
""focus"",""39"",""193803""
","""event"",""trial"",""time""
""fullscreenenter"",""1"",""2173""
","""event"",""trial"",""time""
""fullscreenexit"",""2"",""4195""
","","","","","","1205.3000001907349","images/table5.png","","","memory_trial","1","definitely_old",""
"html-keyboard-response","85","279224","0.0-18.0-0.21","8550","approach_avoid_sv1","""event"",""trial"",""time""
""fullscreenenter"",""1"",""2173""
""fullscreenexit"",""2"",""4195""
""blur"",""39"",""193800""
""focus"",""39"",""193803""
","""event"",""trial"",""time""
""blur"",""39"",""193800""
","""event"",""trial"",""time""
""focus"",""39"",""193803""
","""event"",""trial"",""time""
""fullscreenenter"",""1"",""2173""
","""event"",""trial"",""time""
""fullscreenexit"",""2"",""4195""
","","","","","","null","<div style=""font-size:60px;"">+</div>","null","","fixation","","",""
"memory-trial","86","281658","0.0-18.0-1.21","8550","approach_avoid_sv1","""event"",""trial"",""time""
""fullscreenenter"",""1"",""2173""
""fullscreenexit"",""2"",""4195""
""blur"",""39"",""193800""
""focus"",""39"",""193803""
","""event"",""trial"",""time""
""blur"",""39"",""193800""
","""event"",""trial"",""time""
""focus"",""39"",""193803""
","""event"",""trial"",""time""
""fullscreenenter"",""1"",""2173""
","""event"",""trial"",""time""
""fullscreenexit"",""2"",""4195""
","","","","","","1432.4000000953674","images/train1.png","","","memory_trial","4","definitely_new",""
"html-keyboard-response","87","282160","0.0-18.0-0.22","8550","approach_avoid_sv1","""event"",""trial"",""time""
""fullscreenenter"",""1"",""2173""
""fullscreenexit"",""2"",""4195""
""blur"",""39"",""193800""
""focus"",""39"",""193803""
","""event"",""trial"",""time""
""blur"",""39"",""193800""
","""event"",""trial"",""time""
""focus"",""39"",""193803""
","""event"",""trial"",""time""
""fullscreenenter"",""1"",""2173""
","""event"",""trial"",""time""
""fullscreenexit"",""2"",""4195""
","","","","","","null","<div style=""font-size:60px;"">+</div>","null","","fixation","","",""
"memory-trial","88","284122","0.0-18.0-1.22","8550","approach_avoid_sv1","""event"",""trial"",""time""
""fullscreenenter"",""1"",""2173""
""fullscreenexit"",""2"",""4195""
""blur"",""39"",""193800""
""focus"",""39"",""193803""
","""event"",""trial"",""time""
""blur"",""39"",""193800""
","""event"",""trial"",""time""
""focus"",""39"",""193803""
","""event"",""trial"",""time""
""fullscreenenter"",""1"",""2173""
","""event"",""trial"",""time""
""fullscreenexit"",""2"",""4195""
","","","","","","958.5","images/orange1.png","","","memory_trial","1","definitely_old",""
"html-keyboard-response","89","284624","0.0-18.0-0.23","8550","approach_avoid_sv1","""event"",""trial"",""time""
""fullscreenenter"",""1"",""2173""
""fullscreenexit"",""2"",""4195""
""blur"",""39"",""193800""
""focus"",""39"",""193803""
","""event"",""trial"",""time""
""blur"",""39"",""193800""
","""event"",""trial"",""time""
""focus"",""39"",""193803""
","""event"",""trial"",""time""
""fullscreenenter"",""1"",""2173""
","""event"",""trial"",""time""
""fullscreenexit"",""2"",""4195""
","","","","","","null","<div style=""font-size:60px;"">+</div>","null","","fixation","","",""
"memory-trial","90","287340","0.0-18.0-1.23","8550","approach_avoid_sv1","""event"",""trial"",""time""
""fullscreenenter"",""1"",""2173""
""fullscreenexit"",""2"",""4195""
""blur"",""39"",""193800""
""focus"",""39"",""193803""
","""event"",""trial"",""time""
""blur"",""39"",""193800""
","""event"",""trial"",""time""
""focus"",""39"",""193803""
","""event"",""trial"",""time""
""fullscreenenter"",""1"",""2173""
","""event"",""trial"",""time""
""fullscreenexit"",""2"",""4195""
","","","","","","1713.0999999046326","images/rabbit7.png","","","memory_trial","4","definitely_new",""
"html-keyboard-response","91","287841","0.0-18.0-0.24","8550","approach_avoid_sv1","""event"",""trial"",""time""
""fullscreenenter"",""1"",""2173""
""fullscreenexit"",""2"",""4195""
""blur"",""39"",""193800""
""focus"",""39"",""193803""
","""event"",""trial"",""time""
""blur"",""39"",""193800""
","""event"",""trial"",""time""
""focus"",""39"",""193803""
","""event"",""trial"",""time""
""fullscreenenter"",""1"",""2173""
","""event"",""trial"",""time""
""fullscreenexit"",""2"",""4195""
","","","","","","null","<div style=""font-size:60px;"">+</div>","null","","fixation","","",""
"memory-trial","92","290165","0.0-18.0-1.24","8550","approach_avoid_sv1","""event"",""trial"",""time""
""fullscreenenter"",""1"",""2173""
""fullscreenexit"",""2"",""4195""
""blur"",""39"",""193800""
""focus"",""39"",""193803""
","""event"",""trial"",""time""
""blur"",""39"",""193800""
","""event"",""trial"",""time""
""focus"",""39"",""193803""
","""event"",""trial"",""time""
""fullscreenenter"",""1"",""2173""
","""event"",""trial"",""time""
""fullscreenexit"",""2"",""4195""
","","","","","","1318.7000002861023","images/chair1.png","","","memory_trial","1","definitely_old",""
"html-keyboard-response","93","290667","0.0-18.0-0.25","8550","approach_avoid_sv1","""event"",""trial"",""time""
""fullscreenenter"",""1"",""2173""
""fullscreenexit"",""2"",""4195""
""blur"",""39"",""193800""
""focus"",""39"",""193803""
","""event"",""trial"",""time""
""blur"",""39"",""193800""
","""event"",""trial"",""time""
""focus"",""39"",""193803""
","""event"",""trial"",""time""
""fullscreenenter"",""1"",""2173""
","""event"",""trial"",""time""
""fullscreenexit"",""2"",""4195""
","","","","","","null","<div style=""font-size:60px;"">+</div>","null","","fixation","","",""
"memory-trial","94","292476","0.0-18.0-1.25","8550","approach_avoid_sv1","""event"",""trial"",""time""
""fullscreenenter"",""1"",""2173""
""fullscreenexit"",""2"",""4195""
""blur"",""39"",""193800""
""focus"",""39"",""193803""
","""event"",""trial"",""time""
""blur"",""39"",""193800""
","""event"",""trial"",""time""
""focus"",""39"",""193803""
","""event"",""trial"",""time""
""fullscreenenter"",""1"",""2173""
","""event"",""trial"",""time""
""fullscreenexit"",""2"",""4195""
","","","","","","806.5","images/chair8.png","","","memory_trial","1","definitely_old",""
"html-keyboard-response","95","292978","0.0-18.0-0.26","8550","approach_avoid_sv1","""event"",""trial"",""time""
""fullscreenenter"",""1"",""2173""
""fullscreenexit"",""2"",""4195""
""blur"",""39"",""193800""
""focus"",""39"",""193803""
","""event"",""trial"",""time""
""blur"",""39"",""193800""
","""event"",""trial"",""time""
""focus"",""39"",""193803""
","""event"",""trial"",""time""
""fullscreenenter"",""1"",""2173""
","""event"",""trial"",""time""
""fullscreenexit"",""2"",""4195""
","","","","","","null","<div style=""font-size:60px;"">+</div>","null","","fixation","","",""
"memory-trial","96","295229","0.0-18.0-1.26","8550","approach_avoid_sv1","""event"",""trial"",""time""
""fullscreenenter"",""1"",""2173""
""fullscreenexit"",""2"",""4195""
""blur"",""39"",""193800""
""focus"",""39"",""193803""
","""event"",""trial"",""time""
""blur"",""39"",""193800""
","""event"",""trial"",""time""
""focus"",""39"",""193803""
","""event"",""trial"",""time""
""fullscreenenter"",""1"",""2173""
","""event"",""trial"",""time""
""fullscreenexit"",""2"",""4195""
","","","","","","1246.5999999046326","images/sheep6.png","","","memory_trial","4","definitely_new",""
"html-keyboard-response","97","295730","0.0-18.0-0.27","8550","approach_avoid_sv1","""event"",""trial"",""time""
""fullscreenenter"",""1"",""2173""
""fullscreenexit"",""2"",""4195""
""blur"",""39"",""193800""
""focus"",""39"",""193803""
","""event"",""trial"",""time""
""blur"",""39"",""193800""
","""event"",""trial"",""time""
""focus"",""39"",""193803""
","""event"",""trial"",""time""
""fullscreenenter"",""1"",""2173""
","""event"",""trial"",""time""
""fullscreenexit"",""2"",""4195""
","","","","","","null","<div style=""font-size:60px;"">+</div>","null","","fixation","","",""
"memory-trial","98","298861","0.0-18.0-1.27","8550","approach_avoid_sv1","""event"",""trial"",""time""
""fullscreenenter"",""1"",""2173""
""fullscreenexit"",""2"",""4195""
""blur"",""39"",""193800""
""focus"",""39"",""193803""
","""event"",""trial"",""time""
""blur"",""39"",""193800""
","""event"",""trial"",""time""
""focus"",""39"",""193803""
","""event"",""trial"",""time""
""fullscreenenter"",""1"",""2173""
","""event"",""trial"",""time""
""fullscreenexit"",""2"",""4195""
","","","","","","2128.4000000953674","images/apple6.png","","","memory_trial","1","definitely_old",""
"html-keyboard-response","99","299362","0.0-18.0-0.28","8550","approach_avoid_sv1","""event"",""trial"",""time""
""fullscreenenter"",""1"",""2173""
""fullscreenexit"",""2"",""4195""
""blur"",""39"",""193800""
""focus"",""39"",""193803""
","""event"",""trial"",""time""
""blur"",""39"",""193800""
","""event"",""trial"",""time""
""focus"",""39"",""193803""
","""event"",""trial"",""time""
""fullscreenenter"",""1"",""2173""
","""event"",""trial"",""time""
""fullscreenexit"",""2"",""4195""
","","","","","","null","<div style=""font-size:60px;"">+</div>","null","","fixation","","",""
"memory-trial","100","301788","0.0-18.0-1.28","8550","approach_avoid_sv1","""event"",""trial"",""time""
""fullscreenenter"",""1"",""2173""
""fullscreenexit"",""2"",""4195""
""blur"",""39"",""193800""
""focus"",""39"",""193803""
","""event"",""trial"",""time""
""blur"",""39"",""193800""
","""event"",""trial"",""time""
""focus"",""39"",""193803""
","""event"",""trial"",""time""
""fullscreenenter"",""1"",""2173""
","""event"",""trial"",""time""
""fullscreenexit"",""2"",""4195""
","","","","","","1423.6999998092651","images/plane5.png","","","memory_trial","4","definitely_new",""
"html-keyboard-response","101","302290","0.0-18.0-0.29","8550","approach_avoid_sv1","""event"",""trial"",""time""
""fullscreenenter"",""1"",""2173""
""fullscreenexit"",""2"",""4195""
""blur"",""39"",""193800""
""focus"",""39"",""193803""
","""event"",""trial"",""time""
""blur"",""39"",""193800""
","""event"",""trial"",""time""
""focus"",""39"",""193803""
","""event"",""trial"",""time""
""fullscreenenter"",""1"",""2173""
","""event"",""trial"",""time""
""fullscreenexit"",""2"",""4195""
","","","","","","null","<div style=""font-size:60px;"">+</div>","null","","fixation","","",""
"memory-trial","102","304524","0.0-18.0-1.29","8550","approach_avoid_sv1","""event"",""trial"",""time""
""fullscreenenter"",""1"",""2173""
""fullscreenexit"",""2"",""4195""
""blur"",""39"",""193800""
""focus"",""39"",""193803""
","""event"",""trial"",""time""
""blur"",""39"",""193800""
","""event"",""trial"",""time""
""focus"",""39"",""193803""
","""event"",""trial"",""time""
""fullscreenenter"",""1"",""2173""
","""event"",""trial"",""time""
""fullscreenexit"",""2"",""4195""
","","","","","","1230.2999997138977","images/train4.png","","","memory_trial","1","definitely_old",""
"html-keyboard-response","103","305026","0.0-18.0-0.30","8550","approach_avoid_sv1","""event"",""trial"",""time""
""fullscreenenter"",""1"",""2173""
""fullscreenexit"",""2"",""4195""
""blur"",""39"",""193800""
""focus"",""39"",""193803""
","""event"",""trial"",""time""
""blur"",""39"",""193800""
","""event"",""trial"",""time""
""focus"",""39"",""193803""
","""event"",""trial"",""time""
""fullscreenenter"",""1"",""2173""
","""event"",""trial"",""time""
""fullscreenexit"",""2"",""4195""
","","","","","","null","<div style=""font-size:60px;"">+</div>","null","","fixation","","",""
"memory-trial","104","307421","0.0-18.0-1.30","8550","approach_avoid_sv1","""event"",""trial"",""time""
""fullscreenenter"",""1"",""2173""
""fullscreenexit"",""2"",""4195""
""blur"",""39"",""193800""
""focus"",""39"",""193803""
","""event"",""trial"",""time""
""blur"",""39"",""193800""
","""event"",""trial"",""time""
""focus"",""39"",""193803""
","""event"",""trial"",""time""
""fullscreenenter"",""1"",""2173""
","""event"",""trial"",""time""
""fullscreenexit"",""2"",""4195""
","","","","","","1390.8999996185303","images/cow5.png","","","memory_trial","4","definitely_new",""
"html-keyboard-response","105","307923","0.0-18.0-0.31","8550","approach_avoid_sv1","""event"",""trial"",""time""
""fullscreenenter"",""1"",""2173""
""fullscreenexit"",""2"",""4195""
""blur"",""39"",""193800""
""focus"",""39"",""193803""
","""event"",""trial"",""time""
""blur"",""39"",""193800""
","""event"",""trial"",""time""
""focus"",""39"",""193803""
","""event"",""trial"",""time""
""fullscreenenter"",""1"",""2173""
","""event"",""trial"",""time""
""fullscreenexit"",""2"",""4195""
","","","","","","null","<div style=""font-size:60px;"">+</div>","null","","fixation","","",""
"memory-trial","106","309744","0.0-18.0-1.31","8550","approach_avoid_sv1","""event"",""trial"",""time""
""fullscreenenter"",""1"",""2173""
""fullscreenexit"",""2"",""4195""
""blur"",""39"",""193800""
""focus"",""39"",""193803""
","""event"",""trial"",""time""
""blur"",""39"",""193800""
","""event"",""trial"",""time""
""focus"",""39"",""193803""
","""event"",""trial"",""time""
""fullscreenenter"",""1"",""2173""
","""event"",""trial"",""time""
""fullscreenexit"",""2"",""4195""
","","","","","","812.6999998092651","images/chair4.png","","","memory_trial","4","definitely_new",""
"html-keyboard-response","107","310246","0.0-18.0-0.32","8550","approach_avoid_sv1","""event"",""trial"",""time""
""fullscreenenter"",""1"",""2173""
""fullscreenexit"",""2"",""4195""
""blur"",""39"",""193800""
""focus"",""39"",""193803""
","""event"",""trial"",""time""
""blur"",""39"",""193800""
","""event"",""trial"",""time""
""focus"",""39"",""193803""
","""event"",""trial"",""time""
""fullscreenenter"",""1"",""2173""
","""event"",""trial"",""time""
""fullscreenexit"",""2"",""4195""
","","","","","","null","<div style=""font-size:60px;"">+</div>","null","","fixation","","",""
"memory-trial","108","312685","0.0-18.0-1.32","8550","approach_avoid_sv1","""event"",""trial"",""time""
""fullscreenenter"",""1"",""2173""
""fullscreenexit"",""2"",""4195""
""blur"",""39"",""193800""
""focus"",""39"",""193803""
","""event"",""trial"",""time""
""blur"",""39"",""193800""
","""event"",""trial"",""time""
""focus"",""39"",""193803""
","""event"",""trial"",""time""
""fullscreenenter"",""1"",""2173""
","""event"",""trial"",""time""
""fullscreenexit"",""2"",""4195""
","","","","","","1435.4000000953674","images/horse1.png","","","memory_trial","1","definitely_old",""
"html-keyboard-response","109","313187","0.0-18.0-0.33","8550","approach_avoid_sv1","""event"",""trial"",""time""
""fullscreenenter"",""1"",""2173""
""fullscreenexit"",""2"",""4195""
""blur"",""39"",""193800""
""focus"",""39"",""193803""
","""event"",""trial"",""time""
""blur"",""39"",""193800""
","""event"",""trial"",""time""
""focus"",""39"",""193803""
","""event"",""trial"",""time""
""fullscreenenter"",""1"",""2173""
","""event"",""trial"",""time""
""fullscreenexit"",""2"",""4195""
","","","","","","null","<div style=""font-size:60px;"">+</div>","null","","fixation","","",""
"memory-trial","110","315508","0.0-18.0-1.33","8550","approach_avoid_sv1","""event"",""trial"",""time""
""fullscreenenter"",""1"",""2173""
""fullscreenexit"",""2"",""4195""
""blur"",""39"",""193800""
""focus"",""39"",""193803""
","""event"",""trial"",""time""
""blur"",""39"",""193800""
","""event"",""trial"",""time""
""focus"",""39"",""193803""
","""event"",""trial"",""time""
""fullscreenenter"",""1"",""2173""
","""event"",""trial"",""time""
""fullscreenexit"",""2"",""4195""
","","","","","","1318","images/tree4.png","","","memory_trial","4","definitely_new",""
"html-keyboard-response","111","316011","0.0-18.0-0.34","8550","approach_avoid_sv1","""event"",""trial"",""time""
""fullscreenenter"",""1"",""2173""
""fullscreenexit"",""2"",""4195""
""blur"",""39"",""193800""
""focus"",""39"",""193803""
","""event"",""trial"",""time""
""blur"",""39"",""193800""
","""event"",""trial"",""time""
""focus"",""39"",""193803""
","""event"",""trial"",""time""
""fullscreenenter"",""1"",""2173""
","""event"",""trial"",""time""
""fullscreenexit"",""2"",""4195""
","","","","","","null","<div style=""font-size:60px;"">+</div>","null","","fixation","","",""
"memory-trial","112","317984","0.0-18.0-1.34","8550","approach_avoid_sv1","""event"",""trial"",""time""
""fullscreenenter"",""1"",""2173""
""fullscreenexit"",""2"",""4195""
""blur"",""39"",""193800""
""focus"",""39"",""193803""
","""event"",""trial"",""time""
""blur"",""39"",""193800""
","""event"",""trial"",""time""
""focus"",""39"",""193803""
","""event"",""trial"",""time""
""fullscreenenter"",""1"",""2173""
","""event"",""trial"",""time""
""fullscreenexit"",""2"",""4195""
","","","","","","956.9000000953674","images/boat2.png","","","memory_trial","1","definitely_old",""
"html-keyboard-response","113","318486","0.0-18.0-0.35","8550","approach_avoid_sv1","""event"",""trial"",""time""
""fullscreenenter"",""1"",""2173""
""fullscreenexit"",""2"",""4195""
""blur"",""39"",""193800""
""focus"",""39"",""193803""
","""event"",""trial"",""time""
""blur"",""39"",""193800""
","""event"",""trial"",""time""
""focus"",""39"",""193803""
","""event"",""trial"",""time""
""fullscreenenter"",""1"",""2173""
","""event"",""trial"",""time""
""fullscreenexit"",""2"",""4195""
","","","","","","null","<div style=""font-size:60px;"">+</div>","null","","fixation","","",""
"memory-trial","114","320411","0.0-18.0-1.35","8550","approach_avoid_sv1","""event"",""trial"",""time""
""fullscreenenter"",""1"",""2173""
""fullscreenexit"",""2"",""4195""
""blur"",""39"",""193800""
""focus"",""39"",""193803""
","""event"",""trial"",""time""
""blur"",""39"",""193800""
","""event"",""trial"",""time""
""focus"",""39"",""193803""
","""event"",""trial"",""time""
""fullscreenenter"",""1"",""2173""
","""event"",""trial"",""time""
""fullscreenexit"",""2"",""4195""
","","","","","","922.5","images/orange4.png","","","memory_trial","1","definitely_old",""
"html-keyboard-response","115","320913","0.0-18.0-0.36","8550","approach_avoid_sv1","""event"",""trial"",""time""
""fullscreenenter"",""1"",""2173""
""fullscreenexit"",""2"",""4195""
""blur"",""39"",""193800""
""focus"",""39"",""193803""
","""event"",""trial"",""time""
""blur"",""39"",""193800""
","""event"",""trial"",""time""
""focus"",""39"",""193803""
","""event"",""trial"",""time""
""fullscreenenter"",""1"",""2173""
","""event"",""trial"",""time""
""fullscreenexit"",""2"",""4195""
","","","","","","null","<div style=""font-size:60px;"">+</div>","null","","fixation","","",""
"memory-trial","116","322869","0.0-18.0-1.36","8550","approach_avoid_sv1","""event"",""trial"",""time""
""fullscreenenter"",""1"",""2173""
""fullscreenexit"",""2"",""4195""
""blur"",""39"",""193800""
""focus"",""39"",""193803""
","""event"",""trial"",""time""
""blur"",""39"",""193800""
","""event"",""trial"",""time""
""focus"",""39"",""193803""
","""event"",""trial"",""time""
""fullscreenenter"",""1"",""2173""
","""event"",""trial"",""time""
""fullscreenexit"",""2"",""4195""
","","","","","","952","images/goat3.png","","","memory_trial","4","definitely_new",""
"html-keyboard-response","117","323370","0.0-18.0-0.37","8550","approach_avoid_sv1","""event"",""trial"",""time""
""fullscreenenter"",""1"",""2173""
""fullscreenexit"",""2"",""4195""
""blur"",""39"",""193800""
""focus"",""39"",""193803""
","""event"",""trial"",""time""
""blur"",""39"",""193800""
","""event"",""trial"",""time""
""focus"",""39"",""193803""
","""event"",""trial"",""time""
""fullscreenenter"",""1"",""2173""
","""event"",""trial"",""time""
""fullscreenexit"",""2"",""4195""
","","","","","","null","<div style=""font-size:60px;"">+</div>","null","","fixation","","",""
"memory-trial","118","325228","0.0-18.0-1.37","8550","approach_avoid_sv1","""event"",""trial"",""time""
""fullscreenenter"",""1"",""2173""
""fullscreenexit"",""2"",""4195""
""blur"",""39"",""193800""
""focus"",""39"",""193803""
","""event"",""trial"",""time""
""blur"",""39"",""193800""
","""event"",""trial"",""time""
""focus"",""39"",""193803""
","""event"",""trial"",""time""
""fullscreenenter"",""1"",""2173""
","""event"",""trial"",""time""
""fullscreenexit"",""2"",""4195""
","","","","","","855.3000001907349","images/flower3.png","","","memory_trial","4","definitely_new",""
"html-keyboard-response","119","325731","0.0-18.0-0.38","8550","approach_avoid_sv1","""event"",""trial"",""time""
""fullscreenenter"",""1"",""2173""
""fullscreenexit"",""2"",""4195""
""blur"",""39"",""193800""
""focus"",""39"",""193803""
","""event"",""trial"",""time""
""blur"",""39"",""193800""
","""event"",""trial"",""time""
""focus"",""39"",""193803""
","""event"",""trial"",""time""
""fullscreenenter"",""1"",""2173""
","""event"",""trial"",""time""
""fullscreenexit"",""2"",""4195""
","","","","","","null","<div style=""font-size:60px;"">+</div>","null","","fixation","","",""
"memory-trial","120","327292","0.0-18.0-1.38","8550","approach_avoid_sv1","""event"",""trial"",""time""
""fullscreenenter"",""1"",""2173""
""fullscreenexit"",""2"",""4195""
""blur"",""39"",""193800""
""focus"",""39"",""193803""
","""event"",""trial"",""time""
""blur"",""39"",""193800""
","""event"",""trial"",""time""
""focus"",""39"",""193803""
","""event"",""trial"",""time""
""fullscreenenter"",""1"",""2173""
","""event"",""trial"",""time""
""fullscreenexit"",""2"",""4195""
","","","","","","558.7000002861023","images/dog7.png","","","memory_trial","4","definitely_new",""
"html-keyboard-response","121","327795","0.0-18.0-0.39","8550","approach_avoid_sv1","""event"",""trial"",""time""
""fullscreenenter"",""1"",""2173""
""fullscreenexit"",""2"",""4195""
""blur"",""39"",""193800""
""focus"",""39"",""193803""
","""event"",""trial"",""time""
""blur"",""39"",""193800""
","""event"",""trial"",""time""
""focus"",""39"",""193803""
","""event"",""trial"",""time""
""fullscreenenter"",""1"",""2173""
","""event"",""trial"",""time""
""fullscreenexit"",""2"",""4195""
","","","","","","null","<div style=""font-size:60px;"">+</div>","null","","fixation","","",""
"memory-trial","122","330054","0.0-18.0-1.39","8550","approach_avoid_sv1","""event"",""trial"",""time""
""fullscreenenter"",""1"",""2173""
""fullscreenexit"",""2"",""4195""
""blur"",""39"",""193800""
""focus"",""39"",""193803""
","""event"",""trial"",""time""
""blur"",""39"",""193800""
","""event"",""trial"",""time""
""focus"",""39"",""193803""
","""event"",""trial"",""time""
""fullscreenenter"",""1"",""2173""
","""event"",""trial"",""time""
""fullscreenexit"",""2"",""4195""
","","","","","","1255.2000002861023","images/truck7.png","","","memory_trial","1","definitely_old",""
"html-keyboard-response","123","330556","0.0-18.0-0.40","8550","approach_avoid_sv1","""event"",""trial"",""time""
""fullscreenenter"",""1"",""2173""
""fullscreenexit"",""2"",""4195""
""blur"",""39"",""193800""
""focus"",""39"",""193803""
","""event"",""trial"",""time""
""blur"",""39"",""193800""
","""event"",""trial"",""time""
""focus"",""39"",""193803""
","""event"",""trial"",""time""
""fullscreenenter"",""1"",""2173""
","""event"",""trial"",""time""
""fullscreenexit"",""2"",""4195""
","","","","","","null","<div style=""font-size:60px;"">+</div>","null","","fixation","","",""
"memory-trial","124","332749","0.0-18.0-1.40","8550","approach_avoid_sv1","""event"",""trial"",""time""
""fullscreenenter"",""1"",""2173""
""fullscreenexit"",""2"",""4195""
""blur"",""39"",""193800""
""focus"",""39"",""193803""
","""event"",""trial"",""time""
""blur"",""39"",""193800""
","""event"",""trial"",""time""
""focus"",""39"",""193803""
","""event"",""trial"",""time""
""fullscreenenter"",""1"",""2173""
","""event"",""trial"",""time""
""fullscreenexit"",""2"",""4195""
","","","","","","1189.3000001907349","images/tree1.png","","","memory_trial","1","definitely_old",""
"html-keyboard-response","125","333250","0.0-18.0-0.41","8550","approach_avoid_sv1","""event"",""trial"",""time""
""fullscreenenter"",""1"",""2173""
""fullscreenexit"",""2"",""4195""
""blur"",""39"",""193800""
""focus"",""39"",""193803""
","""event"",""trial"",""time""
""blur"",""39"",""193800""
","""event"",""trial"",""time""
""focus"",""39"",""193803""
","""event"",""trial"",""time""
""fullscreenenter"",""1"",""2173""
","""event"",""trial"",""time""
""fullscreenexit"",""2"",""4195""
","","","","","","null","<div style=""font-size:60px;"">+</div>","null","","fixation","","",""
"memory-trial","126","335493","0.0-18.0-1.41","8550","approach_avoid_sv1","""event"",""trial"",""time""
""fullscreenenter"",""1"",""2173""
""fullscreenexit"",""2"",""4195""
""blur"",""39"",""193800""
""focus"",""39"",""193803""
","""event"",""trial"",""time""
""blur"",""39"",""193800""
","""event"",""trial"",""time""
""focus"",""39"",""193803""
","""event"",""trial"",""time""
""fullscreenenter"",""1"",""2173""
","""event"",""trial"",""time""
""fullscreenexit"",""2"",""4195""
","","","","","","1239.5999999046326","images/sheep1.png","","","memory_trial","4","definitely_new",""
"html-button-response","127","343199","0.0-18.0-2.41-0.41","8550","approach_avoid_sv1","""event"",""trial"",""time""
""fullscreenenter"",""1"",""2173""
""fullscreenexit"",""2"",""4195""
""blur"",""39"",""193800""
""focus"",""39"",""193803""
","""event"",""trial"",""time""
""blur"",""39"",""193800""
","""event"",""trial"",""time""
""focus"",""39"",""193803""
","""event"",""trial"",""time""
""fullscreenenter"",""1"",""2173""
","""event"",""trial"",""time""
""fullscreenexit"",""2"",""4195""
","","","","","","7704.400000095367","<p> Take a break! </p><p> Click the button to continue. </p>","0","","break","","",""
"html-keyboard-response","128","343700","0.0-18.0-0.42","8550","approach_avoid_sv1","""event"",""trial"",""time""
""fullscreenenter"",""1"",""2173""
""fullscreenexit"",""2"",""4195""
""blur"",""39"",""193800""
""focus"",""39"",""193803""
","""event"",""trial"",""time""
""blur"",""39"",""193800""
","""event"",""trial"",""time""
""focus"",""39"",""193803""
","""event"",""trial"",""time""
""fullscreenenter"",""1"",""2173""
","""event"",""trial"",""time""
""fullscreenexit"",""2"",""4195""
","","","","","","null","<div style=""font-size:60px;"">+</div>","null","","fixation","","",""
"memory-trial","129","346358","0.0-18.0-1.42","8550","approach_avoid_sv1","""event"",""trial"",""time""
""fullscreenenter"",""1"",""2173""
""fullscreenexit"",""2"",""4195""
""blur"",""39"",""193800""
""focus"",""39"",""193803""
","""event"",""trial"",""time""
""blur"",""39"",""193800""
","""event"",""trial"",""time""
""focus"",""39"",""193803""
","""event"",""trial"",""time""
""fullscreenenter"",""1"",""2173""
","""event"",""trial"",""time""
""fullscreenexit"",""2"",""4195""
","","","","","","1655.6999998092651","images/banana7.png","","","memory_trial","4","definitely_new",""
"html-keyboard-response","130","346860","0.0-18.0-0.43","8550","approach_avoid_sv1","""event"",""trial"",""time""
""fullscreenenter"",""1"",""2173""
""fullscreenexit"",""2"",""4195""
""blur"",""39"",""193800""
""focus"",""39"",""193803""
","""event"",""trial"",""time""
""blur"",""39"",""193800""
","""event"",""trial"",""time""
""focus"",""39"",""193803""
","""event"",""trial"",""time""
""fullscreenenter"",""1"",""2173""
","""event"",""trial"",""time""
""fullscreenexit"",""2"",""4195""
","","","","","","null","<div style=""font-size:60px;"">+</div>","null","","fixation","","",""
"memory-trial","131","348821","0.0-18.0-1.43","8550","approach_avoid_sv1","""event"",""trial"",""time""
""fullscreenenter"",""1"",""2173""
""fullscreenexit"",""2"",""4195""
""blur"",""39"",""193800""
""focus"",""39"",""193803""
","""event"",""trial"",""time""
""blur"",""39"",""193800""
","""event"",""trial"",""time""
""focus"",""39"",""193803""
","""event"",""trial"",""time""
""fullscreenenter"",""1"",""2173""
","""event"",""trial"",""time""
""fullscreenexit"",""2"",""4195""
","","","","","","957.4000000953674","images/bush8.png","","","memory_trial","1","definitely_old",""
"html-keyboard-response","132","349333","0.0-18.0-0.44","8550","approach_avoid_sv1","""event"",""trial"",""time""
""fullscreenenter"",""1"",""2173""
""fullscreenexit"",""2"",""4195""
""blur"",""39"",""193800""
""focus"",""39"",""193803""
","""event"",""trial"",""time""
""blur"",""39"",""193800""
","""event"",""trial"",""time""
""focus"",""39"",""193803""
","""event"",""trial"",""time""
""fullscreenenter"",""1"",""2173""
","""event"",""trial"",""time""
""fullscreenexit"",""2"",""4195""
","","","","","","null","<div style=""font-size:60px;"">+</div>","null","","fixation","","",""
"memory-trial","133","351429","0.0-18.0-1.44","8550","approach_avoid_sv1","""event"",""trial"",""time""
""fullscreenenter"",""1"",""2173""
""fullscreenexit"",""2"",""4195""
""blur"",""39"",""193800""
""focus"",""39"",""193803""
","""event"",""trial"",""time""
""blur"",""39"",""193800""
","""event"",""trial"",""time""
""focus"",""39"",""193803""
","""event"",""trial"",""time""
""fullscreenenter"",""1"",""2173""
","""event"",""trial"",""time""
""fullscreenexit"",""2"",""4195""
","","","","","","1093.3999996185303","images/tree7.png","","","memory_trial","4","definitely_new",""
"html-keyboard-response","134","351931","0.0-18.0-0.45","8550","approach_avoid_sv1","""event"",""trial"",""time""
""fullscreenenter"",""1"",""2173""
""fullscreenexit"",""2"",""4195""
""blur"",""39"",""193800""
""focus"",""39"",""193803""
","""event"",""trial"",""time""
""blur"",""39"",""193800""
","""event"",""trial"",""time""
""focus"",""39"",""193803""
","""event"",""trial"",""time""
""fullscreenenter"",""1"",""2173""
","""event"",""trial"",""time""
""fullscreenexit"",""2"",""4195""
","","","","","","null","<div style=""font-size:60px;"">+</div>","null","","fixation","","",""
"memory-trial","135","354262","0.0-18.0-1.45","8550","approach_avoid_sv1","""event"",""trial"",""time""
""fullscreenenter"",""1"",""2173""
""fullscreenexit"",""2"",""4195""
""blur"",""39"",""193800""
""focus"",""39"",""193803""
","""event"",""trial"",""time""
""blur"",""39"",""193800""
","""event"",""trial"",""time""
""focus"",""39"",""193803""
","""event"",""trial"",""time""
""fullscreenenter"",""1"",""2173""
","""event"",""trial"",""time""
""fullscreenexit"",""2"",""4195""
","","","","","","1327.1999998092651","images/flower7.png","","","memory_trial","1","definitely_old",""
"html-keyboard-response","136","354764","0.0-18.0-0.46","8550","approach_avoid_sv1","""event"",""trial"",""time""
""fullscreenenter"",""1"",""2173""
""fullscreenexit"",""2"",""4195""
""blur"",""39"",""193800""
""focus"",""39"",""193803""
","""event"",""trial"",""time""
""blur"",""39"",""193800""
","""event"",""trial"",""time""
""focus"",""39"",""193803""
","""event"",""trial"",""time""
""fullscreenenter"",""1"",""2173""
","""event"",""trial"",""time""
""fullscreenexit"",""2"",""4195""
","","","","","","null","<div style=""font-size:60px;"">+</div>","null","","fixation","","",""
"memory-trial","137","357157","0.0-18.0-1.46","8550","approach_avoid_sv1","""event"",""trial"",""time""
""fullscreenenter"",""1"",""2173""
""fullscreenexit"",""2"",""4195""
""blur"",""39"",""193800""
""focus"",""39"",""193803""
","""event"",""trial"",""time""
""blur"",""39"",""193800""
","""event"",""trial"",""time""
""focus"",""39"",""193803""
","""event"",""trial"",""time""
""fullscreenenter"",""1"",""2173""
","""event"",""trial"",""time""
""fullscreenexit"",""2"",""4195""
","","","","","","1390.9000000953674","images/plane6.png","","","memory_trial","1","definitely_old",""
"html-keyboard-response","138","357660","0.0-18.0-0.47","8550","approach_avoid_sv1","""event"",""trial"",""time""
""fullscreenenter"",""1"",""2173""
""fullscreenexit"",""2"",""4195""
""blur"",""39"",""193800""
""focus"",""39"",""193803""
","""event"",""trial"",""time""
""blur"",""39"",""193800""
","""event"",""trial"",""time""
""focus"",""39"",""193803""
","""event"",""trial"",""time""
""fullscreenenter"",""1"",""2173""
","""event"",""trial"",""time""
""fullscreenexit"",""2"",""4195""
","","","","","","null","<div style=""font-size:60px;"">+</div>","null","","fixation","","",""
"memory-trial","139","359965","0.0-18.0-1.47","8550","approach_avoid_sv1","""event"",""trial"",""time""
""fullscreenenter"",""1"",""2173""
""fullscreenexit"",""2"",""4195""
""blur"",""39"",""193800""
""focus"",""39"",""193803""
","""event"",""trial"",""time""
""blur"",""39"",""193800""
","""event"",""trial"",""time""
""focus"",""39"",""193803""
","""event"",""trial"",""time""
""fullscreenenter"",""1"",""2173""
","""event"",""trial"",""time""
""fullscreenexit"",""2"",""4195""
","","","","","","1303.1999998092651","images/goat8.png","","","memory_trial","1","definitely_old",""
"html-keyboard-response","140","360467","0.0-18.0-0.48","8550","approach_avoid_sv1","""event"",""trial"",""time""
""fullscreenenter"",""1"",""2173""
""fullscreenexit"",""2"",""4195""
""blur"",""39"",""193800""
""focus"",""39"",""193803""
","""event"",""trial"",""time""
""blur"",""39"",""193800""
","""event"",""trial"",""time""
""focus"",""39"",""193803""
","""event"",""trial"",""time""
""fullscreenenter"",""1"",""2173""
","""event"",""trial"",""time""
""fullscreenexit"",""2"",""4195""
","","","","","","null","<div style=""font-size:60px;"">+</div>","null","","fixation","","",""
"memory-trial","141","362534","0.0-18.0-1.48","8550","approach_avoid_sv1","""event"",""trial"",""time""
""fullscreenenter"",""1"",""2173""
""fullscreenexit"",""2"",""4195""
""blur"",""39"",""193800""
""focus"",""39"",""193803""
","""event"",""trial"",""time""
""blur"",""39"",""193800""
","""event"",""trial"",""time""
""focus"",""39"",""193803""
","""event"",""trial"",""time""
""fullscreenenter"",""1"",""2173""
","""event"",""trial"",""time""
""fullscreenexit"",""2"",""4195""
","","","","","","1062.5","images/banana2.png","","","memory_trial","4","definitely_new",""
"html-keyboard-response","142","363036","0.0-18.0-0.49","8550","approach_avoid_sv1","""event"",""trial"",""time""
""fullscreenenter"",""1"",""2173""
""fullscreenexit"",""2"",""4195""
""blur"",""39"",""193800""
""focus"",""39"",""193803""
","""event"",""trial"",""time""
""blur"",""39"",""193800""
","""event"",""trial"",""time""
""focus"",""39"",""193803""
","""event"",""trial"",""time""
""fullscreenenter"",""1"",""2173""
","""event"",""trial"",""time""
""fullscreenexit"",""2"",""4195""
","","","","","","null","<div style=""font-size:60px;"">+</div>","null","","fixation","","",""
"memory-trial","143","364903","0.0-18.0-1.49","8550","approach_avoid_sv1","""event"",""trial"",""time""
""fullscreenenter"",""1"",""2173""
""fullscreenexit"",""2"",""4195""
""blur"",""39"",""193800""
""focus"",""39"",""193803""
","""event"",""trial"",""time""
""blur"",""39"",""193800""
","""event"",""trial"",""time""
""focus"",""39"",""193803""
","""event"",""trial"",""time""
""fullscreenenter"",""1"",""2173""
","""event"",""trial"",""time""
""fullscreenexit"",""2"",""4195""
","","","","","","863.4000000953674","images/goat4.png","","","memory_trial","4","definitely_new",""
"html-keyboard-response","144","365405","0.0-18.0-0.50","8550","approach_avoid_sv1","""event"",""trial"",""time""
""fullscreenenter"",""1"",""2173""
""fullscreenexit"",""2"",""4195""
""blur"",""39"",""193800""
""focus"",""39"",""193803""
","""event"",""trial"",""time""
""blur"",""39"",""193800""
","""event"",""trial"",""time""
""focus"",""39"",""193803""
","""event"",""trial"",""time""
""fullscreenenter"",""1"",""2173""
","""event"",""trial"",""time""
""fullscreenexit"",""2"",""4195""
","","","","","","null","<div style=""font-size:60px;"">+</div>","null","","fixation","","",""
"memory-trial","145","367470","0.0-18.0-1.50","8550","approach_avoid_sv1","""event"",""trial"",""time""
""fullscreenenter"",""1"",""2173""
""fullscreenexit"",""2"",""4195""
""blur"",""39"",""193800""
""focus"",""39"",""193803""
","""event"",""trial"",""time""
""blur"",""39"",""193800""
","""event"",""trial"",""time""
""focus"",""39"",""193803""
","""event"",""trial"",""time""
""fullscreenenter"",""1"",""2173""
","""event"",""trial"",""time""
""fullscreenexit"",""2"",""4195""
","","","","","","1062.3999996185303","images/horse7.png","","","memory_trial","4","definitely_new",""
"html-keyboard-response","146","367972","0.0-18.0-0.51","8550","approach_avoid_sv1","""event"",""trial"",""time""
""fullscreenenter"",""1"",""2173""
""fullscreenexit"",""2"",""4195""
""blur"",""39"",""193800""
""focus"",""39"",""193803""
","""event"",""trial"",""time""
""blur"",""39"",""193800""
","""event"",""trial"",""time""
""focus"",""39"",""193803""
","""event"",""trial"",""time""
""fullscreenenter"",""1"",""2173""
","""event"",""trial"",""time""
""fullscreenexit"",""2"",""4195""
","","","","","","null","<div style=""font-size:60px;"">+</div>","null","","fixation","","",""
"memory-trial","147","370061","0.0-18.0-1.51","8550","approach_avoid_sv1","""event"",""trial"",""time""
""fullscreenenter"",""1"",""2173""
""fullscreenexit"",""2"",""4195""
""blur"",""39"",""193800""
""focus"",""39"",""193803""
","""event"",""trial"",""time""
""blur"",""39"",""193800""
","""event"",""trial"",""time""
""focus"",""39"",""193803""
","""event"",""trial"",""time""
""fullscreenenter"",""1"",""2173""
","""event"",""trial"",""time""
""fullscreenexit"",""2"",""4195""
","","","","","","1084.9000000953674","images/truck2.png","","","memory_trial","1","definitely_old",""
"html-keyboard-response","148","370562","0.0-18.0-0.52","8550","approach_avoid_sv1","""event"",""trial"",""time""
""fullscreenenter"",""1"",""2173""
""fullscreenexit"",""2"",""4195""
""blur"",""39"",""193800""
""focus"",""39"",""193803""
","""event"",""trial"",""time""
""blur"",""39"",""193800""
","""event"",""trial"",""time""
""focus"",""39"",""193803""
","""event"",""trial"",""time""
""fullscreenenter"",""1"",""2173""
","""event"",""trial"",""time""
""fullscreenexit"",""2"",""4195""
","","","","","","null","<div style=""font-size:60px;"">+</div>","null","","fixation","","",""
"memory-trial","149","372630","0.0-18.0-1.52","8550","approach_avoid_sv1","""event"",""trial"",""time""
""fullscreenenter"",""1"",""2173""
""fullscreenexit"",""2"",""4195""
""blur"",""39"",""193800""
""focus"",""39"",""193803""
","""event"",""trial"",""time""
""blur"",""39"",""193800""
","""event"",""trial"",""time""
""focus"",""39"",""193803""
","""event"",""trial"",""time""
""fullscreenenter"",""1"",""2173""
","""event"",""trial"",""time""
""fullscreenexit"",""2"",""4195""
","","","","","","1065.4000000953674","images/cat8.png","","","memory_trial","4","definitely_new",""
"html-keyboard-response","150","373132","0.0-18.0-0.53","8550","approach_avoid_sv1","""event"",""trial"",""time""
""fullscreenenter"",""1"",""2173""
""fullscreenexit"",""2"",""4195""
""blur"",""39"",""193800""
""focus"",""39"",""193803""
","""event"",""trial"",""time""
""blur"",""39"",""193800""
","""event"",""trial"",""time""
""focus"",""39"",""193803""
","""event"",""trial"",""time""
""fullscreenenter"",""1"",""2173""
","""event"",""trial"",""time""
""fullscreenexit"",""2"",""4195""
","","","","","","null","<div style=""font-size:60px;"">+</div>","null","","fixation","","",""
"memory-trial","151","375039","0.0-18.0-1.53","8550","approach_avoid_sv1","""event"",""trial"",""time""
""fullscreenenter"",""1"",""2173""
""fullscreenexit"",""2"",""4195""
""blur"",""39"",""193800""
""focus"",""39"",""193803""
","""event"",""trial"",""time""
""blur"",""39"",""193800""
","""event"",""trial"",""time""
""focus"",""39"",""193803""
","""event"",""trial"",""time""
""fullscreenenter"",""1"",""2173""
","""event"",""trial"",""time""
""fullscreenexit"",""2"",""4195""
","","","","","","904.2000002861023","images/banana3.png","","","memory_trial","4","definitely_new",""
"html-keyboard-response","152","375541","0.0-18.0-0.54","8550","approach_avoid_sv1","""event"",""trial"",""time""
""fullscreenenter"",""1"",""2173""
""fullscreenexit"",""2"",""4195""
""blur"",""39"",""193800""
""focus"",""39"",""193803""
","""event"",""trial"",""time""
""blur"",""39"",""193800""
","""event"",""trial"",""time""
""focus"",""39"",""193803""
","""event"",""trial"",""time""
""fullscreenenter"",""1"",""2173""
","""event"",""trial"",""time""
""fullscreenexit"",""2"",""4195""
","","","","","","null","<div style=""font-size:60px;"">+</div>","null","","fixation","","",""
"memory-trial","153","377206","0.0-18.0-1.54","8550","approach_avoid_sv1","""event"",""trial"",""time""
""fullscreenenter"",""1"",""2173""
""fullscreenexit"",""2"",""4195""
""blur"",""39"",""193800""
""focus"",""39"",""193803""
","""event"",""trial"",""time""
""blur"",""39"",""193800""
","""event"",""trial"",""time""
""focus"",""39"",""193803""
","""event"",""trial"",""time""
""fullscreenenter"",""1"",""2173""
","""event"",""trial"",""time""
""fullscreenexit"",""2"",""4195""
","","","","","","662.5999999046326","images/horse6.png","","","memory_trial","4","definitely_new",""
"html-keyboard-response","154","377708","0.0-18.0-0.55","8550","approach_avoid_sv1","""event"",""trial"",""time""
""fullscreenenter"",""1"",""2173""
""fullscreenexit"",""2"",""4195""
""blur"",""39"",""193800""
""focus"",""39"",""193803""
","""event"",""trial"",""time""
""blur"",""39"",""193800""
","""event"",""trial"",""time""
""focus"",""39"",""193803""
","""event"",""trial"",""time""
""fullscreenenter"",""1"",""2173""
","""event"",""trial"",""time""
""fullscreenexit"",""2"",""4195""
","","","","","","null","<div style=""font-size:60px;"">+</div>","null","","fixation","","",""
"memory-trial","155","379629","0.0-18.0-1.55","8550","approach_avoid_sv1","""event"",""trial"",""time""
""fullscreenenter"",""1"",""2173""
""fullscreenexit"",""2"",""4195""
""blur"",""39"",""193800""
""focus"",""39"",""193803""
","""event"",""trial"",""time""
""blur"",""39"",""193800""
","""event"",""trial"",""time""
""focus"",""39"",""193803""
","""event"",""trial"",""time""
""fullscreenenter"",""1"",""2173""
","""event"",""trial"",""time""
""fullscreenexit"",""2"",""4195""
","","","","","","905.1999998092651","images/truck8.png","","","memory_trial","1","definitely_old",""
"html-keyboard-response","156","380131","0.0-18.0-0.56","8550","approach_avoid_sv1","""event"",""trial"",""time""
""fullscreenenter"",""1"",""2173""
""fullscreenexit"",""2"",""4195""
""blur"",""39"",""193800""
""focus"",""39"",""193803""
","""event"",""trial"",""time""
""blur"",""39"",""193800""
","""event"",""trial"",""time""
""focus"",""39"",""193803""
","""event"",""trial"",""time""
""fullscreenenter"",""1"",""2173""
","""event"",""trial"",""time""
""fullscreenexit"",""2"",""4195""
","","","","","","null","<div style=""font-size:60px;"">+</div>","null","","fixation","","",""
"memory-trial","157","382150","0.0-18.0-1.56","8550","approach_avoid_sv1","""event"",""trial"",""time""
""fullscreenenter"",""1"",""2173""
""fullscreenexit"",""2"",""4195""
""blur"",""39"",""193800""
""focus"",""39"",""193803""
","""event"",""trial"",""time""
""blur"",""39"",""193800""
","""event"",""trial"",""time""
""focus"",""39"",""193803""
","""event"",""trial"",""time""
""fullscreenenter"",""1"",""2173""
","""event"",""trial"",""time""
""fullscreenexit"",""2"",""4195""
","","","","","","1014.5","images/orange8.png","","","memory_trial","1","definitely_old",""
"html-keyboard-response","158","382651","0.0-18.0-0.57","8550","approach_avoid_sv1","""event"",""trial"",""time""
""fullscreenenter"",""1"",""2173""
""fullscreenexit"",""2"",""4195""
""blur"",""39"",""193800""
""focus"",""39"",""193803""
","""event"",""trial"",""time""
""blur"",""39"",""193800""
","""event"",""trial"",""time""
""focus"",""39"",""193803""
","""event"",""trial"",""time""
""fullscreenenter"",""1"",""2173""
","""event"",""trial"",""time""
""fullscreenexit"",""2"",""4195""
","","","","","","null","<div style=""font-size:60px;"">+</div>","null","","fixation","","",""
"memory-trial","159","384639","0.0-18.0-1.57","8550","approach_avoid_sv1","""event"",""trial"",""time""
""fullscreenenter"",""1"",""2173""
""fullscreenexit"",""2"",""4195""
""blur"",""39"",""193800""
""focus"",""39"",""193803""
","""event"",""trial"",""time""
""blur"",""39"",""193800""
","""event"",""trial"",""time""
""focus"",""39"",""193803""
","""event"",""trial"",""time""
""fullscreenenter"",""1"",""2173""
","""event"",""trial"",""time""
""fullscreenexit"",""2"",""4195""
","","","","","","984.6000003814697","images/cactus6.png","","","memory_trial","1","definitely_old",""
"html-keyboard-response","160","385141","0.0-18.0-0.58","8550","approach_avoid_sv1","""event"",""trial"",""time""
""fullscreenenter"",""1"",""2173""
""fullscreenexit"",""2"",""4195""
""blur"",""39"",""193800""
""focus"",""39"",""193803""
","""event"",""trial"",""time""
""blur"",""39"",""193800""
","""event"",""trial"",""time""
""focus"",""39"",""193803""
","""event"",""trial"",""time""
""fullscreenenter"",""1"",""2173""
","""event"",""trial"",""time""
""fullscreenexit"",""2"",""4195""
","","","","","","null","<div style=""font-size:60px;"">+</div>","null","","fixation","","",""
"memory-trial","161","387173","0.0-18.0-1.58","8550","approach_avoid_sv1","""event"",""trial"",""time""
""fullscreenenter"",""1"",""2173""
""fullscreenexit"",""2"",""4195""
""blur"",""39"",""193800""
""focus"",""39"",""193803""
","""event"",""trial"",""time""
""blur"",""39"",""193800""
","""event"",""trial"",""time""
""focus"",""39"",""193803""
","""event"",""trial"",""time""
""fullscreenenter"",""1"",""2173""
","""event"",""trial"",""time""
""fullscreenexit"",""2"",""4195""
","","","","","","1029.0999999046326","images/cow8.png","","","memory_trial","1","definitely_old",""
"html-keyboard-response","162","387675","0.0-18.0-0.59","8550","approach_avoid_sv1","""event"",""trial"",""time""
""fullscreenenter"",""1"",""2173""
""fullscreenexit"",""2"",""4195""
""blur"",""39"",""193800""
""focus"",""39"",""193803""
","""event"",""trial"",""time""
""blur"",""39"",""193800""
","""event"",""trial"",""time""
""focus"",""39"",""193803""
","""event"",""trial"",""time""
""fullscreenenter"",""1"",""2173""
","""event"",""trial"",""time""
""fullscreenexit"",""2"",""4195""
","","","","","","null","<div style=""font-size:60px;"">+</div>","null","","fixation","","",""
"memory-trial","163","389672","0.0-18.0-1.59","8550","approach_avoid_sv1","""event"",""trial"",""time""
""fullscreenenter"",""1"",""2173""
""fullscreenexit"",""2"",""4195""
""blur"",""39"",""193800""
""focus"",""39"",""193803""
","""event"",""trial"",""time""
""blur"",""39"",""193800""
","""event"",""trial"",""time""
""focus"",""39"",""193803""
","""event"",""trial"",""time""
""fullscreenenter"",""1"",""2173""
","""event"",""trial"",""time""
""fullscreenexit"",""2"",""4195""
","","","","","","992.7999997138977","images/rabbit2.png","","","memory_trial","4","definitely_new",""
"html-keyboard-response","164","390178","0.0-18.0-0.60","8550","approach_avoid_sv1","""event"",""trial"",""time""
""fullscreenenter"",""1"",""2173""
""fullscreenexit"",""2"",""4195""
""blur"",""39"",""193800""
""focus"",""39"",""193803""
","""event"",""trial"",""time""
""blur"",""39"",""193800""
","""event"",""trial"",""time""
""focus"",""39"",""193803""
","""event"",""trial"",""time""
""fullscreenenter"",""1"",""2173""
","""event"",""trial"",""time""
""fullscreenexit"",""2"",""4195""
","","","","","","null","<div style=""font-size:60px;"">+</div>","null","","fixation","","",""
"memory-trial","165","392111","0.0-18.0-1.60","8550","approach_avoid_sv1","""event"",""trial"",""time""
""fullscreenenter"",""1"",""2173""
""fullscreenexit"",""2"",""4195""
""blur"",""39"",""193800""
""focus"",""39"",""193803""
","""event"",""trial"",""time""
""blur"",""39"",""193800""
","""event"",""trial"",""time""
""focus"",""39"",""193803""
","""event"",""trial"",""time""
""fullscreenenter"",""1"",""2173""
","""event"",""trial"",""time""
""fullscreenexit"",""2"",""4195""
","","","","","","930.5999999046326","images/tree2.png","","","memory_trial","4","definitely_new",""
"html-keyboard-response","166","392612","0.0-18.0-0.61","8550","approach_avoid_sv1","""event"",""trial"",""time""
""fullscreenenter"",""1"",""2173""
""fullscreenexit"",""2"",""4195""
""blur"",""39"",""193800""
""focus"",""39"",""193803""
","""event"",""trial"",""time""
""blur"",""39"",""193800""
","""event"",""trial"",""time""
""focus"",""39"",""193803""
","""event"",""trial"",""time""
""fullscreenenter"",""1"",""2173""
","""event"",""trial"",""time""
""fullscreenexit"",""2"",""4195""
","","","","","","null","<div style=""font-size:60px;"">+</div>","null","","fixation","","",""
"memory-trial","167","394432","0.0-18.0-1.61","8550","approach_avoid_sv1","""event"",""trial"",""time""
""fullscreenenter"",""1"",""2173""
""fullscreenexit"",""2"",""4195""
""blur"",""39"",""193800""
""focus"",""39"",""193803""
","""event"",""trial"",""time""
""blur"",""39"",""193800""
","""event"",""trial"",""time""
""focus"",""39"",""193803""
","""event"",""trial"",""time""
""fullscreenenter"",""1"",""2173""
","""event"",""trial"",""time""
""fullscreenexit"",""2"",""4195""
","","","","","","816.4000000953674","images/banana8.png","","","memory_trial","4","definitely_new",""
"html-keyboard-response","168","394933","0.0-18.0-0.62","8550","approach_avoid_sv1","""event"",""trial"",""time""
""fullscreenenter"",""1"",""2173""
""fullscreenexit"",""2"",""4195""
""blur"",""39"",""193800""
""focus"",""39"",""193803""
","""event"",""trial"",""time""
""blur"",""39"",""193800""
","""event"",""trial"",""time""
""focus"",""39"",""193803""
","""event"",""trial"",""time""
""fullscreenenter"",""1"",""2173""
","""event"",""trial"",""time""
""fullscreenexit"",""2"",""4195""
","","","","","","null","<div style=""font-size:60px;"">+</div>","null","","fixation","","",""
"memory-trial","169","396710","0.0-18.0-1.62","8550","approach_avoid_sv1","""event"",""trial"",""time""
""fullscreenenter"",""1"",""2173""
""fullscreenexit"",""2"",""4195""
""blur"",""39"",""193800""
""focus"",""39"",""193803""
","""event"",""trial"",""time""
""blur"",""39"",""193800""
","""event"",""trial"",""time""
""focus"",""39"",""193803""
","""event"",""trial"",""time""
""fullscreenenter"",""1"",""2173""
","""event"",""trial"",""time""
""fullscreenexit"",""2"",""4195""
","","","","","","773.9000000953674","images/rabbit5.png","","","memory_trial","4","definitely_new",""
"html-keyboard-response","170","397211","0.0-18.0-0.63","8550","approach_avoid_sv1","""event"",""trial"",""time""
""fullscreenenter"",""1"",""2173""
""fullscreenexit"",""2"",""4195""
""blur"",""39"",""193800""
""focus"",""39"",""193803""
","""event"",""trial"",""time""
""blur"",""39"",""193800""
","""event"",""trial"",""time""
""focus"",""39"",""193803""
","""event"",""trial"",""time""
""fullscreenenter"",""1"",""2173""
","""event"",""trial"",""time""
""fullscreenexit"",""2"",""4195""
","","","","","","null","<div style=""font-size:60px;"">+</div>","null","","fixation","","",""
"memory-trial","171","399425","0.0-18.0-1.63","8550","approach_avoid_sv1","""event"",""trial"",""time""
""fullscreenenter"",""1"",""2173""
""fullscreenexit"",""2"",""4195""
""blur"",""39"",""193800""
""focus"",""39"",""193803""
","""event"",""trial"",""time""
""blur"",""39"",""193800""
","""event"",""trial"",""time""
""focus"",""39"",""193803""
","""event"",""trial"",""time""
""fullscreenenter"",""1"",""2173""
","""event"",""trial"",""time""
""fullscreenexit"",""2"",""4195""
","","","","","","1210.0999999046326","images/cat7.png","","","memory_trial","4","definitely_new",""
"html-keyboard-response","172","399926","0.0-18.0-0.64","8550","approach_avoid_sv1","""event"",""trial"",""time""
""fullscreenenter"",""1"",""2173""
""fullscreenexit"",""2"",""4195""
""blur"",""39"",""193800""
""focus"",""39"",""193803""
","""event"",""trial"",""time""
""blur"",""39"",""193800""
","""event"",""trial"",""time""
""focus"",""39"",""193803""
","""event"",""trial"",""time""
""fullscreenenter"",""1"",""2173""
","""event"",""trial"",""time""
""fullscreenexit"",""2"",""4195""
","","","","","","null","<div style=""font-size:60px;"">+</div>","null","","fixation","","",""
"memory-trial","173","401920","0.0-18.0-1.64","8550","approach_avoid_sv1","""event"",""trial"",""time""
""fullscreenenter"",""1"",""2173""
""fullscreenexit"",""2"",""4195""
""blur"",""39"",""193800""
""focus"",""39"",""193803""
","""event"",""trial"",""time""
""blur"",""39"",""193800""
","""event"",""trial"",""time""
""focus"",""39"",""193803""
","""event"",""trial"",""time""
""fullscreenenter"",""1"",""2173""
","""event"",""trial"",""time""
""fullscreenexit"",""2"",""4195""
","","","","","","989.1000003814697","images/dog6.png","","","memory_trial","4","definitely_new",""
"html-keyboard-response","174","402422","0.0-18.0-0.65","8550","approach_avoid_sv1","""event"",""trial"",""time""
""fullscreenenter"",""1"",""2173""
""fullscreenexit"",""2"",""4195""
""blur"",""39"",""193800""
""focus"",""39"",""193803""
","""event"",""trial"",""time""
""blur"",""39"",""193800""
