"trial_type","trial_index","time_elapsed","internal_node_id","subject_id","task_version","interactions","blur_events","focus_events","fullscreenenter_events","fullscreenexit_events","success","timeout","failed_images","failed_audio","failed_video","rt","stimulus","response","button_pressed","task_part","key_press","answer","correct"
"pavlovia","0","4","0.0-0.0","5335","approach_avoid_sv1","""event"",""trial"",""time""
""fullscreenenter"",""1"",""5398""
","
","
","""event"",""trial"",""time""
""fullscreenenter"",""1"",""5398""
","
","","","","","","","","","","","","",""
"fullscreen","1","6391","0.0-1.0","5335","approach_avoid_sv1","""event"",""trial"",""time""
""fullscreenenter"",""1"",""5398""
","
","
","""event"",""trial"",""time""
""fullscreenenter"",""1"",""5398""
","
","true","","","","","","","","","","","",""
"preload","2","27956","0.0-2.0","5335","approach_avoid_sv1","""event"",""trial"",""time""
""fullscreenenter"",""1"",""5398""
","
","
","""event"",""trial"",""time""
""fullscreenenter"",""1"",""5398""
","
","true","false","[]","[]","[]","","","","","","","",""
"preload","3","62546","0.0-3.0","5335","approach_avoid_sv1","""event"",""trial"",""time""
""fullscreenenter"",""1"",""5398""
","
","
","""event"",""trial"",""time""
""fullscreenenter"",""1"",""5398""
","
","true","false","[]","[]","[]","","","","","","","",""
"preload","4","64384","0.0-4.0","5335","approach_avoid_sv1","""event"",""trial"",""time""
""fullscreenenter"",""1"",""5398""
","
","
","""event"",""trial"",""time""
""fullscreenenter"",""1"",""5398""
","
","true","false","[]","[]","[]","","","","","","","",""
"audio-keyboard-response","5","67634","0.0-5.0","5335","approach_avoid_sv1","""event"",""trial"",""time""
""fullscreenenter"",""1"",""5398""
","
","
","""event"",""trial"",""time""
""fullscreenenter"",""1"",""5398""
","
","","","","","","3240","audio/beep_loop.wav"," ","","","","",""
"audio-button-response","6","69521","0.0-6.0","5335","approach_avoid_sv1","""event"",""trial"",""time""
""fullscreenenter"",""1"",""5398""
","
","
","""event"",""trial"",""time""
""fullscreenenter"",""1"",""5398""
","
","","","","","","1888","audio/turtle.wav","3","","","","",""
"audio-button-response","7","72111","0.0-7.0","5335","approach_avoid_sv1","""event"",""trial"",""time""
""fullscreenenter"",""1"",""5398""
","
","
","""event"",""trial"",""time""
""fullscreenenter"",""1"",""5398""
","
","","","","","","1571","audio/shark.wav","2","","","","",""
"preload","8","103542","0.0-8.0","5335","approach_avoid_sv1","""event"",""trial"",""time""
""fullscreenenter"",""1"",""5398""
","
","
","""event"",""trial"",""time""
""fullscreenenter"",""1"",""5398""
","
","true","false","[]","[]","[]","","","","","","","",""
"learning-instructions","9","110564","0.0-9.0-0.0","5335","approach_avoid_sv1","""event"",""trial"",""time""
""fullscreenenter"",""1"",""5398""
","
","
","""event"",""trial"",""time""
""fullscreenenter"",""1"",""5398""
","
","","","","","","2548","<p> Welcome back! </p><p> Last week, you had to make choices about lots of different items.  </p>","","0","instructions","","",""
"learning-instructions","10","116178","0.0-9.0-0.1","5335","approach_avoid_sv1","""event"",""trial"",""time""
""fullscreenenter"",""1"",""5398""
","
","
","""event"",""trial"",""time""
""fullscreenenter"",""1"",""5398""
","
","","","","","","1482.7000000029802","<p> Today, we are going to ask you to try to remember all the items. </p>","","0","instructions","","",""
"learning-instructions","11","128474","0.0-9.0-0.2","5335","approach_avoid_sv1","""event"",""trial"",""time""
""fullscreenenter"",""1"",""5398""
","
","
","""event"",""trial"",""time""
""fullscreenenter"",""1"",""5398""
","
","","","","","","2158.4000000059605","<p> On every trial, you will see an image. </p><p> The image may be an OLD image you saw during the games last week or it may be a NEW image that was not presented. </p>","","0","instructions","","",""
"learning-instructions","12","139043","0.0-9.0-0.3","5335","approach_avoid_sv1","""event"",""trial"",""time""
""fullscreenenter"",""1"",""5398""
","
","
","""event"",""trial"",""time""
""fullscreenenter"",""1"",""5398""
","
","","","","","","2056.7999999970198","<p> You need to select whether the image is:  </p><p>  'Definitely old', 'Maybe old', 'Maybe new', or 'Definitely new.'  </p><div class=""mem-choice-instructions-grid""><div class=""choice-option"" id=""choice-option-1"" ><img src=""images/definitely_old_1.png"" id=""choice-option-img-1"" class=""choice-option-img"" stage=""1""></div><div class=""choice-option"" id=""choice-option-2"" ><img src=""images/maybe_old_1.png"" id=""choice-option-img-2"" class=""choice-option-img"" stage=""1""></div><div class=""choice-option"" id=""choice-option-3"" ><img src=""images/maybe_new_1.png"" id=""choice-option-img-3"" class=""choice-option-img"" stage=""1""></div><div class=""choice-option"" id=""choice-option-4"" > <img src=""images/definitely_new_1.png"" id=""choice-option-img-4"" class=""choice-option-img"" stage=""1""></div></div>","","0","instructions","","",""
"learning-instructions","13","146980","0.0-9.0-0.4","5335","approach_avoid_sv1","""event"",""trial"",""time""
""fullscreenenter"",""1"",""5398""
","
","
","""event"",""trial"",""time""
""fullscreenenter"",""1"",""5398""
","
","","","","","","1413.7000000029802","<p> You should use the 1, 2, 3, and 4 keys to make your responses.  </p><div class=""mem-choice-instructions-grid""><div class=""choice-option"" id=""choice-option-1"" ><img src=""images/definitely_old.png"" id=""choice-option-img-1"" class=""choice-option-img"" stage=""1""></div><div class=""choice-option"" id=""choice-option-2"" ><img src=""images/maybe_old.png"" id=""choice-option-img-2"" class=""choice-option-img"" stage=""1""></div><div class=""choice-option"" id=""choice-option-3"" ><img src=""images/maybe_new.png"" id=""choice-option-img-3"" class=""choice-option-img"" stage=""1""></div><div class=""choice-option"" id=""choice-option-4"" > <img src=""images/definitely_new.png"" id=""choice-option-img-4"" class=""choice-option-img"" stage=""1""></div></div>","","0","instructions","","",""
"learning-instructions","14","163095","0.0-9.0-0.5","5335","approach_avoid_sv1","""event"",""trial"",""time""
""fullscreenenter"",""1"",""5398""
","
","
","""event"",""trial"",""time""
""fullscreenenter"",""1"",""5398""
","
","","","","","","9759.70000000298","<p> You will have 10 seconds to make each response.  </p><p>  Make sure to respond before time runs out! </p>","","0","instructions","","",""
"learning-instructions","15","171106","0.0-9.0-0.6","5335","approach_avoid_sv1","""event"",""trial"",""time""
""fullscreenenter"",""1"",""5398""
","
","
","""event"",""trial"",""time""
""fullscreenenter"",""1"",""5398""
","
","","","","","","929.8000000044703","<p> Today, you will see each image ONCE only.  </p><p>  That means none of the images will repeat. </p>","","0","instructions","","",""
"learning-instructions","16","185445","0.0-9.0-0.7","5335","approach_avoid_sv1","""event"",""trial"",""time""
""fullscreenenter"",""1"",""5398""
","
","
","""event"",""trial"",""time""
""fullscreenenter"",""1"",""5398""
","
","","","","","","1660.4000000059605","<p> Before you play the real game, it is time to practice. </p><p>  Just like in the real game, some of the images in the practice will be ones you have seen before. </p><p>  Others will be entirely new. </p>","","0","instructions","","",""
"html-button-response","17","189778","0.0-10.0","5335","approach_avoid_sv1","""event"",""trial"",""time""
""fullscreenenter"",""1"",""5398""
","
","
","""event"",""trial"",""time""
""fullscreenenter"",""1"",""5398""
","
","","","","","","4211.69999999553","<p> Ready to practice? </p><p> Remember, use the 1, 2, 3, and 4 keys to make your responses. </p>","0","","instructions","","",""
"html-keyboard-response","18","190394","0.0-11.0-0.0","5335","approach_avoid_sv1","""event"",""trial"",""time""
""fullscreenenter"",""1"",""5398""
","
","
","""event"",""trial"",""time""
""fullscreenenter"",""1"",""5398""
","
","","","","","","null","<div style=""font-size:60px;"">+</div>","null","","fixation","","",""
"memory-trial","19","195164","0.0-11.0-1.0","5335","approach_avoid_sv1","""event"",""trial"",""time""
""fullscreenenter"",""1"",""5398""
","
","
","""event"",""trial"",""time""
""fullscreenenter"",""1"",""5398""
","
","","","","","","3758.3000000044703","images/racket3.png","","","practice","2","maybe_old",""
"html-keyboard-response","20","195674","0.0-11.0-0.1","5335","approach_avoid_sv1","""event"",""trial"",""time""
""fullscreenenter"",""1"",""5398""
","
","
","""event"",""trial"",""time""
""fullscreenenter"",""1"",""5398""
","
","","","","","","null","<div style=""font-size:60px;"">+</div>","null","","fixation","","",""
"memory-trial","21","198144","0.0-11.0-1.1","5335","approach_avoid_sv1","""event"",""trial"",""time""
""fullscreenenter"",""1"",""5398""
","
","
","""event"",""trial"",""time""
""fullscreenenter"",""1"",""5398""
","
","","","","","","1459.1000000014901","images/racket1.png","","","practice","2","maybe_old",""
"html-keyboard-response","22","198654","0.0-11.0-0.2","5335","approach_avoid_sv1","""event"",""trial"",""time""
""fullscreenenter"",""1"",""5398""
","
","
","""event"",""trial"",""time""
""fullscreenenter"",""1"",""5398""
","
","","","","","","null","<div style=""font-size:60px;"">+</div>","null","","fixation","","",""
"memory-trial","23","201655","0.0-11.0-1.2","5335","approach_avoid_sv1","""event"",""trial"",""time""
""fullscreenenter"",""1"",""5398""
","
","
","""event"",""trial"",""time""
""fullscreenenter"",""1"",""5398""
","
","","","","","","1989","images/racket5.png","","","practice","3","maybe_new",""
"html-keyboard-response","24","202164","0.0-11.0-0.3","5335","approach_avoid_sv1","""event"",""trial"",""time""
""fullscreenenter"",""1"",""5398""
","
","
","""event"",""trial"",""time""
""fullscreenenter"",""1"",""5398""
","
","","","","","","null","<div style=""font-size:60px;"">+</div>","null","","fixation","","",""
"memory-trial","25","204494","0.0-11.0-1.3","5335","approach_avoid_sv1","""event"",""trial"",""time""
""fullscreenenter"",""1"",""5398""
","
","
","""event"",""trial"",""time""
""fullscreenenter"",""1"",""5398""
","
","","","","","","1313.1999999955297","images/ball5.png","","","practice","1","definitely_old",""
"html-keyboard-response","26","205004","0.0-11.0-0.4","5335","approach_avoid_sv1","""event"",""trial"",""time""
""fullscreenenter"",""1"",""5398""
","
","
","""event"",""trial"",""time""
""fullscreenenter"",""1"",""5398""
","
","","","","","","null","<div style=""font-size:60px;"">+</div>","null","","fixation","","",""
"memory-trial","27","206494","0.0-11.0-1.4","5335","approach_avoid_sv1","""event"",""trial"",""time""
""fullscreenenter"",""1"",""5398""
","
","
","""event"",""trial"",""time""
""fullscreenenter"",""1"",""5398""
","
","","","","","","473.29999999701977","images/ball1.png","","","practice","1","definitely_old",""
"html-keyboard-response","28","207014","0.0-11.0-0.5","5335","approach_avoid_sv1","""event"",""trial"",""time""
""fullscreenenter"",""1"",""5398""
","
","
","""event"",""trial"",""time""
""fullscreenenter"",""1"",""5398""
","
","","","","","","null","<div style=""font-size:60px;"">+</div>","null","","fixation","","",""
"memory-trial","29","209144","0.0-11.0-1.5","5335","approach_avoid_sv1","""event"",""trial"",""time""
""fullscreenenter"",""1"",""5398""
","
","
","""event"",""trial"",""time""
""fullscreenenter"",""1"",""5398""
","
","","","","","","1107.1999999955297","images/racket2.png","","","practice","3","maybe_new",""
"html-keyboard-response","30","209653","0.0-11.0-0.6","5335","approach_avoid_sv1","""event"",""trial"",""time""
""fullscreenenter"",""1"",""5398""
","
","
","""event"",""trial"",""time""
""fullscreenenter"",""1"",""5398""
","
","","","","","","null","<div style=""font-size:60px;"">+</div>","null","","fixation","","",""
"memory-trial","31","212494","0.0-11.0-1.6","5335","approach_avoid_sv1","""event"",""trial"",""time""
""fullscreenenter"",""1"",""5398""
","
","
","""event"",""trial"",""time""
""fullscreenenter"",""1"",""5398""
","
","","","","","","1820.8000000044703","images/ball3.png","","","practice","2","maybe_old",""
"html-keyboard-response","32","213004","0.0-11.0-0.7","5335","approach_avoid_sv1","""event"",""trial"",""time""
""fullscreenenter"",""1"",""5398""
","
","
","""event"",""trial"",""time""
""fullscreenenter"",""1"",""5398""
","
","","","","","","null","<div style=""font-size:60px;"">+</div>","null","","fixation","","",""
"memory-trial","33","215046","0.0-11.0-1.7","5335","approach_avoid_sv1","""event"",""trial"",""time""
""fullscreenenter"",""1"",""5398""
","
","
","""event"",""trial"",""time""
""fullscreenenter"",""1"",""5398""
","
","","","","","","1029.0999999940395","images/ball2.png","","","practice","2","maybe_old",""
"learning-instructions","34","223521","0.0-12.0-0.0","5335","approach_avoid_sv1","""event"",""trial"",""time""
""fullscreenenter"",""1"",""5398""
","
","
","""event"",""trial"",""time""
""fullscreenenter"",""1"",""5398""
","
","","","","","","1169.7000000029802","<p> Great! You have completed the practice. </p><p> Before you start, we're going to ask you a few questions about how the game works.  </p>","","0","instructions","","",""
"preload","35","234593","0.0-13.0","5335","approach_avoid_sv1","""event"",""trial"",""time""
""fullscreenenter"",""1"",""5398""
","
","
","""event"",""trial"",""time""
""fullscreenenter"",""1"",""5398""
","
","true","false","[]","[]","[]","","","","","","","",""
"comp-q","36","241581","0.0-14.0-0.0","5335","approach_avoid_sv1","""event"",""trial"",""time""
""fullscreenenter"",""1"",""5398""
","
","
","""event"",""trial"",""time""
""fullscreenenter"",""1"",""5398""
","
","","","","","","1159","<p> <b> True or False? </b> </p><p> In this game, you will only see each image once. </p>","","0","comp_question","","","true"
"comp-q","37","249011","0.0-14.0-1.0","5335","approach_avoid_sv1","""event"",""trial"",""time""
""fullscreenenter"",""1"",""5398""
","
","
","""event"",""trial"",""time""
""fullscreenenter"",""1"",""5398""
","
","","","","","","1080.9000000059605","<p> <b> That's right! </b> You will see many different images <i> one time each </i> in this game. </p>","","0","comp_answer","","",""
"comp-q","38","254818","0.0-15.0-0.0","5335","approach_avoid_sv1","""event"",""trial"",""time""
""fullscreenenter"",""1"",""5398""
","
","
","""event"",""trial"",""time""
""fullscreenenter"",""1"",""5398""
","
","","","","","","777.5","<p> <b> True or False? </b> </p><p> You should use the mouse and click to make your response. </p>","","1","comp_question","","","true"
"comp-q","39","262391","0.0-15.0-1.0","5335","approach_avoid_sv1","""event"",""trial"",""time""
""fullscreenenter"",""1"",""5398""
","
","
","""event"",""trial"",""time""
""fullscreenenter"",""1"",""5398""
","
","","","","","","1071.2999999970198","<p><b> That's right! </b> You should use the '1', '2', '3', and '4' keys to make your response. </p>","","0","comp_answer","","",""
"comp-q","40","268947","0.0-16.0-0.0","5335","approach_avoid_sv1","""event"",""trial"",""time""
""fullscreenenter"",""1"",""5398""
","
","
","""event"",""trial"",""time""
""fullscreenenter"",""1"",""5398""
","
","","","","","","866.7999999970198","<p> <b> True or False? </b> </p><p> You will have as much time as you want to make each choice. </p>","","1","comp_question","","","true"
"comp-q","41","277183","0.0-16.0-1.0","5335","approach_avoid_sv1","""event"",""trial"",""time""
""fullscreenenter"",""1"",""5398""
","
","
","""event"",""trial"",""time""
""fullscreenenter"",""1"",""5398""
","
","","","","","","3533.2000000029802","<p> <b> That's right! </b> You will only have 10 seconds to make each choice. </p>","","0","comp_answer","","",""
"learning-instructions","42","287873","0.0-17.0","5335","approach_avoid_sv1","""event"",""trial"",""time""
""fullscreenenter"",""1"",""5398""
","
","
","""event"",""trial"",""time""
""fullscreenenter"",""1"",""5398""
","
","","","","","","2013.3999999985099","<p> Great! You are now ready to begin the game. </p><p> Remember, use the 1, 2, 3, and 4 keys to make your responses. </p>","","0","instructions","","",""
"html-keyboard-response","43","288487","0.0-18.0-0.0","5335","approach_avoid_sv1","""event"",""trial"",""time""
""fullscreenenter"",""1"",""5398""
","
","
","""event"",""trial"",""time""
""fullscreenenter"",""1"",""5398""
","
","","","","","","null","<div style=""font-size:60px;"">+</div>","null","","fixation","","",""
"memory-trial","44","291328","0.0-18.0-1.0","5335","approach_avoid_sv1","""event"",""trial"",""time""
""fullscreenenter"",""1"",""5398""
","
","
","""event"",""trial"",""time""
""fullscreenenter"",""1"",""5398""
","
","","","","","","1826.4000000059605","images/truck4.png","","","memory_trial","1","definitely_old",""
"html-keyboard-response","45","291838","0.0-18.0-0.1","5335","approach_avoid_sv1","""event"",""trial"",""time""
""fullscreenenter"",""1"",""5398""
","
","
","""event"",""trial"",""time""
""fullscreenenter"",""1"",""5398""
","
","","","","","","null","<div style=""font-size:60px;"">+</div>","null","","fixation","","",""
"memory-trial","46","294358","0.0-18.0-1.1","5335","approach_avoid_sv1","""event"",""trial"",""time""
""fullscreenenter"",""1"",""5398""
","
","
","""event"",""trial"",""time""
""fullscreenenter"",""1"",""5398""
","
","","","","","","1509.6999999955297","images/sheep7.png","","","memory_trial","3","maybe_new",""
"html-keyboard-response","47","294868","0.0-18.0-0.2","5335","approach_avoid_sv1","""event"",""trial"",""time""
""fullscreenenter"",""1"",""5398""
","
","
","""event"",""trial"",""time""
""fullscreenenter"",""1"",""5398""
","
","","","","","","null","<div style=""font-size:60px;"">+</div>","null","","fixation","","",""
"memory-trial","48","297228","0.0-18.0-1.2","5335","approach_avoid_sv1","""event"",""trial"",""time""
""fullscreenenter"",""1"",""5398""
","
","
","""event"",""trial"",""time""
""fullscreenenter"",""1"",""5398""
","
","","","","","","1350.2999999970198","images/boat5.png","","","memory_trial","2","maybe_old",""
"html-keyboard-response","49","297738","0.0-18.0-0.3","5335","approach_avoid_sv1","""event"",""trial"",""time""
""fullscreenenter"",""1"",""5398""
","
","
","""event"",""trial"",""time""
""fullscreenenter"",""1"",""5398""
","
","","","","","","null","<div style=""font-size:60px;"">+</div>","null","","fixation","","",""
"memory-trial","50","300308","0.0-18.0-1.3","5335","approach_avoid_sv1","""event"",""trial"",""time""
""fullscreenenter"",""1"",""5398""
","
","
","""event"",""trial"",""time""
""fullscreenenter"",""1"",""5398""
","
","","","","","","1554.3000000044703","images/bed6.png","","","memory_trial","4","definitely_new",""
"html-keyboard-response","51","300818","0.0-18.0-0.4","5335","approach_avoid_sv1","""event"",""trial"",""time""
""fullscreenenter"",""1"",""5398""
","
","
","""event"",""trial"",""time""
""fullscreenenter"",""1"",""5398""
","
","","","","","","null","<div style=""font-size:60px;"">+</div>","null","","fixation","","",""
"memory-trial","52","302978","0.0-18.0-1.4","5335","approach_avoid_sv1","""event"",""trial"",""time""
""fullscreenenter"",""1"",""5398""
","
","
","""event"",""trial"",""time""
""fullscreenenter"",""1"",""5398""
","
","","","","","","1149.1000000014901","images/rabbit7.png","","","memory_trial","1","definitely_old",""
"html-keyboard-response","53","303487","0.0-18.0-0.5","5335","approach_avoid_sv1","""event"",""trial"",""time""
""fullscreenenter"",""1"",""5398""
","
","
","""event"",""trial"",""time""
""fullscreenenter"",""1"",""5398""
","
","","","","","","null","<div style=""font-size:60px;"">+</div>","null","","fixation","","",""
"memory-trial","54","305428","0.0-18.0-1.5","5335","approach_avoid_sv1","""event"",""trial"",""time""
""fullscreenenter"",""1"",""5398""
","
","
","""event"",""trial"",""time""
""fullscreenenter"",""1"",""5398""
","
","","","","","","930.8999999985099","images/boat3.png","","","memory_trial","1","definitely_old",""
"html-keyboard-response","55","305936","0.0-18.0-0.6","5335","approach_avoid_sv1","""event"",""trial"",""time""
""fullscreenenter"",""1"",""5398""
","
","
","""event"",""trial"",""time""
""fullscreenenter"",""1"",""5398""
","
","","","","","","null","<div style=""font-size:60px;"">+</div>","null","","fixation","","",""
"memory-trial","56","307657","0.0-18.0-1.6","5335","approach_avoid_sv1","""event"",""trial"",""time""
""fullscreenenter"",""1"",""5398""
","
","
","""event"",""trial"",""time""
""fullscreenenter"",""1"",""5398""
","
","","","","","","708.5","images/sofa8.png","","","memory_trial","1","definitely_old",""
"html-keyboard-response","57","308167","0.0-18.0-0.7","5335","approach_avoid_sv1","""event"",""trial"",""time""
""fullscreenenter"",""1"",""5398""
","
","
","""event"",""trial"",""time""
""fullscreenenter"",""1"",""5398""
","
","","","","","","null","<div style=""font-size:60px;"">+</div>","null","","fixation","","",""
"memory-trial","58","310008","0.0-18.0-1.7","5335","approach_avoid_sv1","""event"",""trial"",""time""
""fullscreenenter"",""1"",""5398""
","
","
","""event"",""trial"",""time""
""fullscreenenter"",""1"",""5398""
","
","","","","","","828.3999999985099","images/rabbit5.png","","","memory_trial","1","definitely_old",""
"html-keyboard-response","59","310518","0.0-18.0-0.8","5335","approach_avoid_sv1","""event"",""trial"",""time""
""fullscreenenter"",""1"",""5398""
","
","
","""event"",""trial"",""time""
""fullscreenenter"",""1"",""5398""
","
","","","","","","null","<div style=""font-size:60px;"">+</div>","null","","fixation","","",""
"memory-trial","60","312458","0.0-18.0-1.8","5335","approach_avoid_sv1","""event"",""trial"",""time""
""fullscreenenter"",""1"",""5398""
","
","
","""event"",""trial"",""time""
""fullscreenenter"",""1"",""5398""
","
","","","","","","930.8999999985099","images/orange3.png","","","memory_trial","1","definitely_old",""
"html-keyboard-response","61","312978","0.0-18.0-0.9","5335","approach_avoid_sv1","""event"",""trial"",""time""
""fullscreenenter"",""1"",""5398""
","
","
","""event"",""trial"",""time""
""fullscreenenter"",""1"",""5398""
","
","","","","","","null","<div style=""font-size:60px;"">+</div>","null","","fixation","","",""
"memory-trial","62","316038","0.0-18.0-1.9","5335","approach_avoid_sv1","""event"",""trial"",""time""
""fullscreenenter"",""1"",""5398""
","
","
","""event"",""trial"",""time""
""fullscreenenter"",""1"",""5398""
","
","","","","","","2042.1999999955297","images/boat4.png","","","memory_trial","2","maybe_old",""
"html-keyboard-response","63","316550","0.0-18.0-0.10","5335","approach_avoid_sv1","""event"",""trial"",""time""
""fullscreenenter"",""1"",""5398""
","
","
","""event"",""trial"",""time""
""fullscreenenter"",""1"",""5398""
","
","","","","","","null","<div style=""font-size:60px;"">+</div>","null","","fixation","","",""
"memory-trial","64","318565","0.0-18.0-1.10","5335","approach_avoid_sv1","""event"",""trial"",""time""
""fullscreenenter"",""1"",""5398""
","
","
","""event"",""trial"",""time""
""fullscreenenter"",""1"",""5398""
","
","","","","","","1006","images/bush3.png","","","memory_trial","1","definitely_old",""
"html-keyboard-response","65","319066","0.0-18.0-0.11","5335","approach_avoid_sv1","""event"",""trial"",""time""
""fullscreenenter"",""1"",""5398""
","
","
","""event"",""trial"",""time""
""fullscreenenter"",""1"",""5398""
","
","","","","","","null","<div style=""font-size:60px;"">+</div>","null","","fixation","","",""
"memory-trial","66","320690","0.0-18.0-1.11","5335","approach_avoid_sv1","""event"",""trial"",""time""
""fullscreenenter"",""1"",""5398""
","
","
","""event"",""trial"",""time""
""fullscreenenter"",""1"",""5398""
","
","","","","","","608.5","images/flower7.png","","","memory_trial","1","definitely_old",""
"html-keyboard-response","67","321200","0.0-18.0-0.12","5335","approach_avoid_sv1","""event"",""trial"",""time""
""fullscreenenter"",""1"",""5398""
","
","
","""event"",""trial"",""time""
""fullscreenenter"",""1"",""5398""
","
","","","","","","null","<div style=""font-size:60px;"">+</div>","null","","fixation","","",""
"memory-trial","68","322875","0.0-18.0-1.12","5335","approach_avoid_sv1","""event"",""trial"",""time""
""fullscreenenter"",""1"",""5398""
","
","
","""event"",""trial"",""time""
""fullscreenenter"",""1"",""5398""
","
","","","","","","668.3999999985099","images/boat2.png","","","memory_trial","1","definitely_old",""
"html-keyboard-response","69","323395","0.0-18.0-0.13","5335","approach_avoid_sv1","""event"",""trial"",""time""
""fullscreenenter"",""1"",""5398""
","
","
","""event"",""trial"",""time""
""fullscreenenter"",""1"",""5398""
","
","","","","","","null","<div style=""font-size:60px;"">+</div>","null","","fixation","","",""
"memory-trial","70","325889","0.0-18.0-1.13","5335","approach_avoid_sv1","""event"",""trial"",""time""
""fullscreenenter"",""1"",""5398""
","
","
","""event"",""trial"",""time""
""fullscreenenter"",""1"",""5398""
","
","","","","","","1484","images/orange6.png","","","memory_trial","3","maybe_new",""
"html-keyboard-response","71","326399","0.0-18.0-0.14","5335","approach_avoid_sv1","""event"",""trial"",""time""
""fullscreenenter"",""1"",""5398""
","
","
","""event"",""trial"",""time""
""fullscreenenter"",""1"",""5398""
","
","","","","","","null","<div style=""font-size:60px;"">+</div>","null","","fixation","","",""
"memory-trial","72","328314","0.0-18.0-1.14","5335","approach_avoid_sv1","""event"",""trial"",""time""
""fullscreenenter"",""1"",""5398""
","
","
","""event"",""trial"",""time""
""fullscreenenter"",""1"",""5398""
","
","","","","","","903.2999999970198","images/train3.png","","","memory_trial","1","definitely_old",""
"html-keyboard-response","73","328826","0.0-18.0-0.15","5335","approach_avoid_sv1","""event"",""trial"",""time""
""fullscreenenter"",""1"",""5398""
","
","
","""event"",""trial"",""time""
""fullscreenenter"",""1"",""5398""
","
","","","","","","null","<div style=""font-size:60px;"">+</div>","null","","fixation","","",""
"memory-trial","74","330503","0.0-18.0-1.15","5335","approach_avoid_sv1","""event"",""trial"",""time""
""fullscreenenter"",""1"",""5398""
","
","
","""event"",""trial"",""time""
""fullscreenenter"",""1"",""5398""
","
","","","","","","659.5","images/sofa7.png","","","memory_trial","1","definitely_old",""
"html-keyboard-response","75","331012","0.0-18.0-0.16","5335","approach_avoid_sv1","""event"",""trial"",""time""
""fullscreenenter"",""1"",""5398""
","
","
","""event"",""trial"",""time""
""fullscreenenter"",""1"",""5398""
","
","","","","","","null","<div style=""font-size:60px;"">+</div>","null","","fixation","","",""
"memory-trial","76","332696","0.0-18.0-1.16","5335","approach_avoid_sv1","""event"",""trial"",""time""
""fullscreenenter"",""1"",""5398""
","
","
","""event"",""trial"",""time""
""fullscreenenter"",""1"",""5398""
","
","","","","","","669.5","images/dog7.png","","","memory_trial","1","definitely_old",""
"html-keyboard-response","77","333208","0.0-18.0-0.17","5335","approach_avoid_sv1","""event"",""trial"",""time""
""fullscreenenter"",""1"",""5398""
","
","
","""event"",""trial"",""time""
""fullscreenenter"",""1"",""5398""
","
","","","","","","null","<div style=""font-size:60px;"">+</div>","null","","fixation","","",""
"memory-trial","78","335304","0.0-18.0-1.17","5335","approach_avoid_sv1","""event"",""trial"",""time""
""fullscreenenter"",""1"",""5398""
","
","
","""event"",""trial"",""time""
""fullscreenenter"",""1"",""5398""
","
","","","","","","1081.9000000059605","images/orange4.png","","","memory_trial","3","maybe_new",""
"html-keyboard-response","79","335815","0.0-18.0-0.18","5335","approach_avoid_sv1","""event"",""trial"",""time""
""fullscreenenter"",""1"",""5398""
","
","
","""event"",""trial"",""time""
""fullscreenenter"",""1"",""5398""
","
","","","","","","null","<div style=""font-size:60px;"">+</div>","null","","fixation","","",""
"memory-trial","80","337717","0.0-18.0-1.18","5335","approach_avoid_sv1","""event"",""trial"",""time""
""fullscreenenter"",""1"",""5398""
","
","
","""event"",""trial"",""time""
""fullscreenenter"",""1"",""5398""
","
","","","","","","892.4000000059605","images/table2.png","","","memory_trial","1","definitely_old",""
"html-keyboard-response","81","338232","0.0-18.0-0.19","5335","approach_avoid_sv1","""event"",""trial"",""time""
""fullscreenenter"",""1"",""5398""
","
","
","""event"",""trial"",""time""
""fullscreenenter"",""1"",""5398""
","
","","","","","","null","<div style=""font-size:60px;"">+</div>","null","","fixation","","",""
"memory-trial","82","339966","0.0-18.0-1.19","5335","approach_avoid_sv1","""event"",""trial"",""time""
""fullscreenenter"",""1"",""5398""
","
","
","""event"",""trial"",""time""
""fullscreenenter"",""1"",""5398""
","
","","","","","","723.1000000014901","images/cow3.png","","","memory_trial","1","definitely_old",""
"html-keyboard-response","83","340479","0.0-18.0-0.20","5335","approach_avoid_sv1","""event"",""trial"",""time""
""fullscreenenter"",""1"",""5398""
","
","
","""event"",""trial"",""time""
""fullscreenenter"",""1"",""5398""
","
","","","","","","null","<div style=""font-size:60px;"">+</div>","null","","fixation","","",""
"memory-trial","84","342832","0.0-18.0-1.20","5335","approach_avoid_sv1","""event"",""trial"",""time""
""fullscreenenter"",""1"",""5398""
","
","
","""event"",""trial"",""time""
""fullscreenenter"",""1"",""5398""
","
","","","","","","1347.2000000029802","images/plane4.png","","","memory_trial","3","maybe_new",""
"html-keyboard-response","85","343343","0.0-18.0-0.21","5335","approach_avoid_sv1","""event"",""trial"",""time""
""fullscreenenter"",""1"",""5398""
","
","
","""event"",""trial"",""time""
""fullscreenenter"",""1"",""5398""
","
","","","","","","null","<div style=""font-size:60px;"">+</div>","null","","fixation","","",""
"memory-trial","86","345136","0.0-18.0-1.21","5335","approach_avoid_sv1","""event"",""trial"",""time""
""fullscreenenter"",""1"",""5398""
","
","
","""event"",""trial"",""time""
""fullscreenenter"",""1"",""5398""
","
","","","","","","788.2999999970198","images/bush8.png","","","memory_trial","1","definitely_old",""
"html-keyboard-response","87","345649","0.0-18.0-0.22","5335","approach_avoid_sv1","""event"",""trial"",""time""
""fullscreenenter"",""1"",""5398""
","
","
","""event"",""trial"",""time""
""fullscreenenter"",""1"",""5398""
","
","","","","","","null","<div style=""font-size:60px;"">+</div>","null","","fixation","","",""
"memory-trial","88","347351","0.0-18.0-1.22","5335","approach_avoid_sv1","""event"",""trial"",""time""
""fullscreenenter"",""1"",""5398""
","
","
","""event"",""trial"",""time""
""fullscreenenter"",""1"",""5398""
","
","","","","","","691.6999999955297","images/sheep6.png","","","memory_trial","1","definitely_old",""
"html-keyboard-response","89","347861","0.0-18.0-0.23","5335","approach_avoid_sv1","""event"",""trial"",""time""
""fullscreenenter"",""1"",""5398""
","
","
","""event"",""trial"",""time""
""fullscreenenter"",""1"",""5398""
","
","","","","","","null","<div style=""font-size:60px;"">+</div>","null","","fixation","","",""
"memory-trial","90","350799","0.0-18.0-1.23","5335","approach_avoid_sv1","""event"",""trial"",""time""
""fullscreenenter"",""1"",""5398""
","
","
","""event"",""trial"",""time""
""fullscreenenter"",""1"",""5398""
","
","","","","","","1923.6999999955297","images/sofa6.png","","","memory_trial","3","maybe_new",""
"html-keyboard-response","91","351309","0.0-18.0-0.24","5335","approach_avoid_sv1","""event"",""trial"",""time""
""fullscreenenter"",""1"",""5398""
","
","
","""event"",""trial"",""time""
""fullscreenenter"",""1"",""5398""
","
","","","","","","null","<div style=""font-size:60px;"">+</div>","null","","fixation","","",""
"memory-trial","92","353337","0.0-18.0-1.24","5335","approach_avoid_sv1","""event"",""trial"",""time""
""fullscreenenter"",""1"",""5398""
","
","
","""event"",""trial"",""time""
""fullscreenenter"",""1"",""5398""
","
","","","","","","1015","images/dog2.png","","","memory_trial","1","definitely_old",""
"html-keyboard-response","93","353848","0.0-18.0-0.25","5335","approach_avoid_sv1","""event"",""trial"",""time""
""fullscreenenter"",""1"",""5398""
","
","
","""event"",""trial"",""time""
""fullscreenenter"",""1"",""5398""
","
","","","","","","null","<div style=""font-size:60px;"">+</div>","null","","fixation","","",""
"memory-trial","94","355841","0.0-18.0-1.25","5335","approach_avoid_sv1","""event"",""trial"",""time""
""fullscreenenter"",""1"",""5398""
","
","
","""event"",""trial"",""time""
""fullscreenenter"",""1"",""5398""
","
","","","","","","986.8999999985099","images/cactus8.png","","","memory_trial","3","maybe_new",""
"html-keyboard-response","95","356351","0.0-18.0-0.26","5335","approach_avoid_sv1","""event"",""trial"",""time""
""fullscreenenter"",""1"",""5398""
","
","
","""event"",""trial"",""time""
""fullscreenenter"",""1"",""5398""
","
","","","","","","null","<div style=""font-size:60px;"">+</div>","null","","fixation","","",""
"memory-trial","96","358144","0.0-18.0-1.26","5335","approach_avoid_sv1","""event"",""trial"",""time""
""fullscreenenter"",""1"",""5398""
","
","
","""event"",""trial"",""time""
""fullscreenenter"",""1"",""5398""
","
","","","","","","774.6000000014901","images/straw3.png","","","memory_trial","4","definitely_new",""
"html-keyboard-response","97","358656","0.0-18.0-0.27","5335","approach_avoid_sv1","""event"",""trial"",""time""
""fullscreenenter"",""1"",""5398""
","
","
","""event"",""trial"",""time""
""fullscreenenter"",""1"",""5398""
","
","","","","","","null","<div style=""font-size:60px;"">+</div>","null","","fixation","","",""
"memory-trial","98","360591","0.0-18.0-1.27","5335","approach_avoid_sv1","""event"",""trial"",""time""
""fullscreenenter"",""1"",""5398""
","
","
","""event"",""trial"",""time""
""fullscreenenter"",""1"",""5398""
","
","","","","","","924","images/bed1.png","","","memory_trial","4","definitely_new",""
"html-keyboard-response","99","361099","0.0-18.0-0.28","5335","approach_avoid_sv1","""event"",""trial"",""time""
""fullscreenenter"",""1"",""5398""
","
","
","""event"",""trial"",""time""
""fullscreenenter"",""1"",""5398""
","
","","","","","","null","<div style=""font-size:60px;"">+</div>","null","","fixation","","",""
"memory-trial","100","362984","0.0-18.0-1.28","5335","approach_avoid_sv1","""event"",""trial"",""time""
""fullscreenenter"",""1"",""5398""
","
","
","""event"",""trial"",""time""
""fullscreenenter"",""1"",""5398""
","
","","","","","","877.5","images/banana7.png","","","memory_trial","1","definitely_old",""
"html-keyboard-response","101","363488","0.0-18.0-0.29","5335","approach_avoid_sv1","""event"",""trial"",""time""
""fullscreenenter"",""1"",""5398""
","
","
","""event"",""trial"",""time""
""fullscreenenter"",""1"",""5398""
","
","","","","","","null","<div style=""font-size:60px;"">+</div>","null","","fixation","","",""
"memory-trial","102","366248","0.0-18.0-1.29","5335","approach_avoid_sv1","""event"",""trial"",""time""
""fullscreenenter"",""1"",""5398""
","
","
","""event"",""trial"",""time""
""fullscreenenter"",""1"",""5398""
","
","","","","","","1755.7999999970198","images/plane5.png","","","memory_trial","3","maybe_new",""
"html-keyboard-response","103","366759","0.0-18.0-0.30","5335","approach_avoid_sv1","""event"",""trial"",""time""
""fullscreenenter"",""1"",""5398""
","
","
","""event"",""trial"",""time""
""fullscreenenter"",""1"",""5398""
","
","","","","","","null","<div style=""font-size:60px;"">+</div>","null","","fixation","","",""
"memory-trial","104","368536","0.0-18.0-1.30","5335","approach_avoid_sv1","""event"",""trial"",""time""
""fullscreenenter"",""1"",""5398""
","
","
","""event"",""trial"",""time""
""fullscreenenter"",""1"",""5398""
","
","","","","","","759.7999999970198","images/tree4.png","","","memory_trial","1","definitely_old",""
"html-keyboard-response","105","369046","0.0-18.0-0.31","5335","approach_avoid_sv1","""event"",""trial"",""time""
""fullscreenenter"",""1"",""5398""
","
","
","""event"",""trial"",""time""
""fullscreenenter"",""1"",""5398""
","
","","","","","","null","<div style=""font-size:60px;"">+</div>","null","","fixation","","",""
"memory-trial","106","370481","0.0-18.0-1.31","5335","approach_avoid_sv1","""event"",""trial"",""time""
""fullscreenenter"",""1"",""5398""
","
","
","""event"",""trial"",""time""
""fullscreenenter"",""1"",""5398""
","
","","","","","","428.6000000014901","images/tree1.png","","","memory_trial","1","definitely_old",""
"html-keyboard-response","107","370992","0.0-18.0-0.32","5335","approach_avoid_sv1","""event"",""trial"",""time""
""fullscreenenter"",""1"",""5398""
","
","
","""event"",""trial"",""time""
""fullscreenenter"",""1"",""5398""
","
","","","","","","null","<div style=""font-size:60px;"">+</div>","null","","fixation","","",""
"memory-trial","108","372586","0.0-18.0-1.32","5335","approach_avoid_sv1","""event"",""trial"",""time""
""fullscreenenter"",""1"",""5398""
","
","
","""event"",""trial"",""time""
""fullscreenenter"",""1"",""5398""
","
","","","","","","585.3000000044703","images/rabbit8.png","","","memory_trial","1","definitely_old",""
"html-keyboard-response","109","373105","0.0-18.0-0.33","5335","approach_avoid_sv1","""event"",""trial"",""time""
""fullscreenenter"",""1"",""5398""
","
","
","""event"",""trial"",""time""
""fullscreenenter"",""1"",""5398""
","
","","","","","","null","<div style=""font-size:60px;"">+</div>","null","","fixation","","",""
"memory-trial","110","374820","0.0-18.0-1.33","5335","approach_avoid_sv1","""event"",""trial"",""time""
""fullscreenenter"",""1"",""5398""
","
","
","""event"",""trial"",""time""
""fullscreenenter"",""1"",""5398""
","
","","","","","","707.3000000044703","images/table1.png","","","memory_trial","1","definitely_old",""
"html-keyboard-response","111","375328","0.0-18.0-0.34","5335","approach_avoid_sv1","""event"",""trial"",""time""
""fullscreenenter"",""1"",""5398""
","
","
","""event"",""trial"",""time""
""fullscreenenter"",""1"",""5398""
","
","","","","","","null","<div style=""font-size:60px;"">+</div>","null","","fixation","","",""
"memory-trial","112","377535","0.0-18.0-1.34","5335","approach_avoid_sv1","""event"",""trial"",""time""
""fullscreenenter"",""1"",""5398""
","
","
","""event"",""trial"",""time""
""fullscreenenter"",""1"",""5398""
","
","","","","","","1182.6000000014901","images/banana4.png","","","memory_trial","3","maybe_new",""
"html-keyboard-response","113","378044","0.0-18.0-0.35","5335","approach_avoid_sv1","""event"",""trial"",""time""
""fullscreenenter"",""1"",""5398""
","
","
","""event"",""trial"",""time""
""fullscreenenter"",""1"",""5398""
","
","","","","","","null","<div style=""font-size:60px;"">+</div>","null","","fixation","","",""
"memory-trial","114","379890","0.0-18.0-1.35","5335","approach_avoid_sv1","""event"",""trial"",""time""
""fullscreenenter"",""1"",""5398""
","
","
","""event"",""trial"",""time""
""fullscreenenter"",""1"",""5398""
","
","","","","","","838.6999999955297","images/horse4.png","","","memory_trial","3","maybe_new",""
"html-keyboard-response","115","380398","0.0-18.0-0.36","5335","approach_avoid_sv1","""event"",""trial"",""time""
""fullscreenenter"",""1"",""5398""
","
","
","""event"",""trial"",""time""
""fullscreenenter"",""1"",""5398""
","
","","","","","","null","<div style=""font-size:60px;"">+</div>","null","","fixation","","",""
"memory-trial","116","382079","0.0-18.0-1.36","5335","approach_avoid_sv1","""event"",""trial"",""time""
""fullscreenenter"",""1"",""5398""
","
","
","""event"",""trial"",""time""
""fullscreenenter"",""1"",""5398""
","
","","","","","","670.3999999985099","images/cactus3.png","","","memory_trial","3","maybe_new",""
"html-keyboard-response","117","382587","0.0-18.0-0.37","5335","approach_avoid_sv1","""event"",""trial"",""time""
""fullscreenenter"",""1"",""5398""
","
","
","""event"",""trial"",""time""
""fullscreenenter"",""1"",""5398""
","
","","","","","","null","<div style=""font-size:60px;"">+</div>","null","","fixation","","",""
"memory-trial","118","384720","0.0-18.0-1.37","5335","approach_avoid_sv1","""event"",""trial"",""time""
""fullscreenenter"",""1"",""5398""
","
","
","""event"",""trial"",""time""
""fullscreenenter"",""1"",""5398""
","
","","","","","","1122.1000000014901","images/banana5.png","","","memory_trial","2","maybe_old",""
"html-keyboard-response","119","385227","0.0-18.0-0.38","5335","approach_avoid_sv1","""event"",""trial"",""time""
""fullscreenenter"",""1"",""5398""
","
","
","""event"",""trial"",""time""
""fullscreenenter"",""1"",""5398""
","
","","","","","","null","<div style=""font-size:60px;"">+</div>","null","","fixation","","",""
"memory-trial","120","387371","0.0-18.0-1.38","5335","approach_avoid_sv1","""event"",""trial"",""time""
""fullscreenenter"",""1"",""5398""
","
","
","""event"",""trial"",""time""
""fullscreenenter"",""1"",""5398""
","
","","","","","","1131.1999999955297","images/cat4.png","","","memory_trial","1","definitely_old",""
"html-keyboard-response","121","387887","0.0-18.0-0.39","5335","approach_avoid_sv1","""event"",""trial"",""time""
""fullscreenenter"",""1"",""5398""
","
","
","""event"",""trial"",""time""
""fullscreenenter"",""1"",""5398""
","
","","","","","","null","<div style=""font-size:60px;"">+</div>","null","","fixation","","",""
"memory-trial","122","389720","0.0-18.0-1.39","5335","approach_avoid_sv1","""event"",""trial"",""time""
""fullscreenenter"",""1"",""5398""
","
","
","""event"",""trial"",""time""
""fullscreenenter"",""1"",""5398""
","
","","","","","","819.2999999970198","images/straw8.png","","","memory_trial","4","definitely_new",""
"html-keyboard-response","123","390231","0.0-18.0-0.40","5335","approach_avoid_sv1","""event"",""trial"",""time""
""fullscreenenter"",""1"",""5398""
","
","
","""event"",""trial"",""time""
""fullscreenenter"",""1"",""5398""
","
","","","","","","null","<div style=""font-size:60px;"">+</div>","null","","fixation","","",""
"memory-trial","124","392417","0.0-18.0-1.40","5335","approach_avoid_sv1","""event"",""trial"",""time""
""fullscreenenter"",""1"",""5398""
","
","
","""event"",""trial"",""time""
""fullscreenenter"",""1"",""5398""
","
","","","","","","1179.3999999985099","images/boat8.png","","","memory_trial","3","maybe_new",""
"html-keyboard-response","125","392929","0.0-18.0-0.41","5335","approach_avoid_sv1","""event"",""trial"",""time""
""fullscreenenter"",""1"",""5398""
","
","
","""event"",""trial"",""time""
""fullscreenenter"",""1"",""5398""
","
","","","","","","null","<div style=""font-size:60px;"">+</div>","null","","fixation","","",""
"memory-trial","126","395243","0.0-18.0-1.41","5335","approach_avoid_sv1","""event"",""trial"",""time""
""fullscreenenter"",""1"",""5398""
","
","
","""event"",""trial"",""time""
""fullscreenenter"",""1"",""5398""
","
","","","","","","1296.7000000029802","images/rodent4.png","","","memory_trial","4","definitely_new",""
"html-button-response","127","398445","0.0-18.0-2.41-0.41","5335","approach_avoid_sv1","""event"",""trial"",""time""
""fullscreenenter"",""1"",""5398""
","
","
","""event"",""trial"",""time""
""fullscreenenter"",""1"",""5398""
","
","","","","","","3201.10000000149","<p> Take a break! </p><p> Click the button to continue. </p>","0","","break","","",""
"html-keyboard-response","128","398954","0.0-18.0-0.42","5335","approach_avoid_sv1","""event"",""trial"",""time""
""fullscreenenter"",""1"",""5398""
","
","
","""event"",""trial"",""time""
""fullscreenenter"",""1"",""5398""
","
","","","","","","null","<div style=""font-size:60px;"">+</div>","null","","fixation","","",""
"memory-trial","129","401125","0.0-18.0-1.42","5335","approach_avoid_sv1","""event"",""trial"",""time""
""fullscreenenter"",""1"",""5398""
","
","
","""event"",""trial"",""time""
""fullscreenenter"",""1"",""5398""
","
","","","","","","1162.5","images/tree6.png","","","memory_trial","1","definitely_old",""
"html-keyboard-response","130","401635","0.0-18.0-0.43","5335","approach_avoid_sv1","""event"",""trial"",""time""
""fullscreenenter"",""1"",""5398""
","
","
","""event"",""trial"",""time""
""fullscreenenter"",""1"",""5398""
","
","","","","","","null","<div style=""font-size:60px;"">+</div>","null","","fixation","","",""
"memory-trial","131","403692","0.0-18.0-1.43","5335","approach_avoid_sv1","""event"",""trial"",""time""
""fullscreenenter"",""1"",""5398""
","
","
","""event"",""trial"",""time""
""fullscreenenter"",""1"",""5398""
","
","","","","","","1049.2000000029802","images/orange5.png","","","memory_trial","1","definitely_old",""
"html-keyboard-response","132","404205","0.0-18.0-0.44","5335","approach_avoid_sv1","""event"",""trial"",""time""
""fullscreenenter"",""1"",""5398""
","
","
","""event"",""trial"",""time""
""fullscreenenter"",""1"",""5398""
","
","","","","","","null","<div style=""font-size:60px;"">+</div>","null","","fixation","","",""
"memory-trial","133","406857","0.0-18.0-1.44","5335","approach_avoid_sv1","""event"",""trial"",""time""
""fullscreenenter"",""1"",""5398""
","
","
","""event"",""trial"",""time""
""fullscreenenter"",""1"",""5398""
","
","","","","","","1639.6000000014901","images/flower5.png","","","memory_trial","3","maybe_new",""
"html-keyboard-response","134","407366","0.0-18.0-0.45","5335","approach_avoid_sv1","""event"",""trial"",""time""
""fullscreenenter"",""1"",""5398""
","
","
","""event"",""trial"",""time""
""fullscreenenter"",""1"",""5398""
","
","","","","","","null","<div style=""font-size:60px;"">+</div>","null","","fixation","","",""
"memory-trial","135","409233","0.0-18.0-1.45","5335","approach_avoid_sv1","""event"",""trial"",""time""
""fullscreenenter"",""1"",""5398""
","
","
","""event"",""trial"",""time""
""fullscreenenter"",""1"",""5398""
","
","","","","","","858.3999999985099","images/rodent2.png","","","memory_trial","3","maybe_new",""
"html-keyboard-response","136","409738","0.0-18.0-0.46","5335","approach_avoid_sv1","""event"",""trial"",""time""
""fullscreenenter"",""1"",""5398""
","
","
","""event"",""trial"",""time""
""fullscreenenter"",""1"",""5398""
","
","","","","","","null","<div style=""font-size:60px;"">+</div>","null","","fixation","","",""
"memory-trial","137","412001","0.0-18.0-1.46","5335","approach_avoid_sv1","""event"",""trial"",""time""
""fullscreenenter"",""1"",""5398""
","
","
","""event"",""trial"",""time""
""fullscreenenter"",""1"",""5398""
","
","","","","","","1253","images/plane1.png","","","memory_trial","4","definitely_new",""
"html-keyboard-response","138","412514","0.0-18.0-0.47","5335","approach_avoid_sv1","""event"",""trial"",""time""
""fullscreenenter"",""1"",""5398""
","
","
","""event"",""trial"",""time""
""fullscreenenter"",""1"",""5398""
","
","","","","","","null","<div style=""font-size:60px;"">+</div>","null","","fixation","","",""
"memory-trial","139","414326","0.0-18.0-1.47","5335","approach_avoid_sv1","""event"",""trial"",""time""
""fullscreenenter"",""1"",""5398""
","
","
","""event"",""trial"",""time""
""fullscreenenter"",""1"",""5398""
","
","","","","","","796.7000000029802","images/rodent6.png","","","memory_trial","4","definitely_new",""
"html-keyboard-response","140","414837","0.0-18.0-0.48","5335","approach_avoid_sv1","""event"",""trial"",""time""
""fullscreenenter"",""1"",""5398""
","
","
","""event"",""trial"",""time""
""fullscreenenter"",""1"",""5398""
","
","","","","","","null","<div style=""font-size:60px;"">+</div>","null","","fixation","","",""
"memory-trial","141","417430","0.0-18.0-1.48","5335","approach_avoid_sv1","""event"",""trial"",""time""
""fullscreenenter"",""1"",""5398""
","
","
","""event"",""trial"",""time""
""fullscreenenter"",""1"",""5398""
","
","","","","","","1576.6000000014901","images/banana2.png","","","memory_trial","3","maybe_new",""
"html-keyboard-response","142","417942","0.0-18.0-0.49","5335","approach_avoid_sv1","""event"",""trial"",""time""
""fullscreenenter"",""1"",""5398""
","
","
","""event"",""trial"",""time""
""fullscreenenter"",""1"",""5398""
","
","","","","","","null","<div style=""font-size:60px;"">+</div>","null","","fixation","","",""
"memory-trial","143","419874","0.0-18.0-1.49","5335","approach_avoid_sv1","""event"",""trial"",""time""
""fullscreenenter"",""1"",""5398""
","
","
","""event"",""trial"",""time""
""fullscreenenter"",""1"",""5398""
","
","","","","","","922.7000000029802","images/flower1.png","","","memory_trial","1","definitely_old",""
"html-keyboard-response","144","420386","0.0-18.0-0.50","5335","approach_avoid_sv1","""event"",""trial"",""time""
""fullscreenenter"",""1"",""5398""
","
","
","""event"",""trial"",""time""
""fullscreenenter"",""1"",""5398""
","
","","","","","","null","<div style=""font-size:60px;"">+</div>","null","","fixation","","",""
"memory-trial","145","422769","0.0-18.0-1.50","5335","approach_avoid_sv1","""event"",""trial"",""time""
""fullscreenenter"",""1"",""5398""
","
","
","""event"",""trial"",""time""
""fullscreenenter"",""1"",""5398""
","
","","","","","","1370","images/goat1.png","","","memory_trial","2","maybe_old",""
"html-keyboard-response","146","423281","0.0-18.0-0.51","5335","approach_avoid_sv1","""event"",""trial"",""time""
""fullscreenenter"",""1"",""5398""
","
","
","""event"",""trial"",""time""
""fullscreenenter"",""1"",""5398""
","
","","","","","","null","<div style=""font-size:60px;"">+</div>","null","","fixation","","",""
"memory-trial","147","424985","0.0-18.0-1.51","5335","approach_avoid_sv1","""event"",""trial"",""time""
""fullscreenenter"",""1"",""5398""
","
","
","""event"",""trial"",""time""
""fullscreenenter"",""1"",""5398""
","
","","","","","","698.1000000014901","images/chair5.png","","","memory_trial","1","definitely_old",""
"html-keyboard-response","148","425494","0.0-18.0-0.52","5335","approach_avoid_sv1","""event"",""trial"",""time""
""fullscreenenter"",""1"",""5398""
","
","
","""event"",""trial"",""time""
""fullscreenenter"",""1"",""5398""
","
","","","","","","null","<div style=""font-size:60px;"">+</div>","null","","fixation","","",""
"memory-trial","149","427591","0.0-18.0-1.52","5335","approach_avoid_sv1","""event"",""trial"",""time""
""fullscreenenter"",""1"",""5398""
","
","
","""event"",""trial"",""time""
""fullscreenenter"",""1"",""5398""
","
","","","","","","1083.3999999985099","images/flower3.png","","","memory_trial","3","maybe_new",""
"html-keyboard-response","150","428099","0.0-18.0-0.53","5335","approach_avoid_sv1","""event"",""trial"",""time""
""fullscreenenter"",""1"",""5398""
","
","
","""event"",""trial"",""time""
""fullscreenenter"",""1"",""5398""
","
","","","","","","null","<div style=""font-size:60px;"">+</div>","null","","fixation","","",""
"memory-trial","151","430489","0.0-18.0-1.53","5335","approach_avoid_sv1","""event"",""trial"",""time""
""fullscreenenter"",""1"",""5398""
","
","
","""event"",""trial"",""time""
""fullscreenenter"",""1"",""5398""
","
","","","","","","1374.1999999955297","images/goat6.png","","","memory_trial","4","definitely_new",""
"html-keyboard-response","152","430996","0.0-18.0-0.54","5335","approach_avoid_sv1","""event"",""trial"",""time""
""fullscreenenter"",""1"",""5398""
","
","
","""event"",""trial"",""time""
""fullscreenenter"",""1"",""5398""
","
","","","","","","null","<div style=""font-size:60px;"">+</div>","null","","fixation","","",""
"memory-trial","153","432663","0.0-18.0-1.54","5335","approach_avoid_sv1","""event"",""trial"",""time""
""fullscreenenter"",""1"",""5398""
","
","
","""event"",""trial"",""time""
""fullscreenenter"",""1"",""5398""
","
","","","","","","654.3999999985099","images/cat2.png","","","memory_trial","1","definitely_old",""
"html-keyboard-response","154","433175","0.0-18.0-0.55","5335","approach_avoid_sv1","""event"",""trial"",""time""
""fullscreenenter"",""1"",""5398""
","
","
","""event"",""trial"",""time""
""fullscreenenter"",""1"",""5398""
","
","","","","","","null","<div style=""font-size:60px;"">+</div>","null","","fixation","","",""
"memory-trial","155","435498","0.0-18.0-1.55","5335","approach_avoid_sv1","""event"",""trial"",""time""
""fullscreenenter"",""1"",""5398""
","
","
","""event"",""trial"",""time""
""fullscreenenter"",""1"",""5398""
","
","","","","","","1311.6000000014901","images/chair4.png","","","memory_trial","3","maybe_new",""
"html-keyboard-response","156","436008","0.0-18.0-0.56","5335","approach_avoid_sv1","""event"",""trial"",""time""
""fullscreenenter"",""1"",""5398""
","
","
","""event"",""trial"",""time""
""fullscreenenter"",""1"",""5398""
","
","","","","","","null","<div style=""font-size:60px;"">+</div>","null","","fixation","","",""
"memory-trial","157","437842","0.0-18.0-1.56","5335","approach_avoid_sv1","""event"",""trial"",""time""
""fullscreenenter"",""1"",""5398""
","
","
","""event"",""trial"",""time""
""fullscreenenter"",""1"",""5398""
","
","","","","","","821.1999999955297","images/rabbit6.png","","","memory_trial","3","maybe_new",""
"html-keyboard-response","158","438344","0.0-18.0-0.57","5335","approach_avoid_sv1","""event"",""trial"",""time""
""fullscreenenter"",""1"",""5398""
","
","
","""event"",""trial"",""time""
""fullscreenenter"",""1"",""5398""
","
","","","","","","null","<div style=""font-size:60px;"">+</div>","null","","fixation","","",""
"memory-trial","159","440235","0.0-18.0-1.57","5335","approach_avoid_sv1","""event"",""trial"",""time""
""fullscreenenter"",""1"",""5398""
","
","
","""event"",""trial"",""time""
""fullscreenenter"",""1"",""5398""
","
","","","","","","883.7000000029802","images/chair3.png","","","memory_trial","1","definitely_old",""
"html-keyboard-response","160","440752","0.0-18.0-0.58","5335","approach_avoid_sv1","""event"",""trial"",""time""
""fullscreenenter"",""1"",""5398""
","
","
","""event"",""trial"",""time""
""fullscreenenter"",""1"",""5398""
","
","","","","","","null","<div style=""font-size:60px;"">+</div>","null","","fixation","","",""
"memory-trial","161","443166","0.0-18.0-1.58","5335","approach_avoid_sv1","""event"",""trial"",""time""
""fullscreenenter"",""1"",""5398""
","
","
","""event"",""trial"",""time""
""fullscreenenter"",""1"",""5398""
","
","","","","","","1400.5999999940395","images/bed4.png","","","memory_trial","3","maybe_new",""
"html-keyboard-response","162","443677","0.0-18.0-0.59","5335","approach_avoid_sv1","""event"",""trial"",""time""
""fullscreenenter"",""1"",""5398""
","
","
","""event"",""trial"",""time""
""fullscreenenter"",""1"",""5398""
","
","","","","","","null","<div style=""font-size:60px;"">+</div>","null","","fixation","","",""
"memory-trial","163","446363","0.0-18.0-1.59","5335","approach_avoid_sv1","""event"",""trial"",""time""
""fullscreenenter"",""1"",""5398""
","
","
","""event"",""trial"",""time""
""fullscreenenter"",""1"",""5398""
","
","","","","","","1669.7999999970198","images/dog6.png","","","memory_trial","1","definitely_old",""
"html-keyboard-response","164","446873","0.0-18.0-0.60","5335","approach_avoid_sv1","""event"",""trial"",""time""
""fullscreenenter"",""1"",""5398""
","
","
","""event"",""trial"",""time""
""fullscreenenter"",""1"",""5398""
","
","","","","","","null","<div style=""font-size:60px;"">+</div>","null","","fixation","","",""
"memory-trial","165","448837","0.0-18.0-1.60","5335","approach_avoid_sv1","""event"",""trial"",""time""
""fullscreenenter"",""1"",""5398""
","
","
","""event"",""trial"",""time""
""fullscreenenter"",""1"",""5398""
","
","","","","","","940.7000000029802","images/sofa5.png","","","memory_trial","3","maybe_new",""
"html-keyboard-response","166","449347","0.0-18.0-0.61","5335","approach_avoid_sv1","""event"",""trial"",""time""
""fullscreenenter"",""1"",""5398""
","
","
","""event"",""trial"",""time""
""fullscreenenter"",""1"",""5398""
","
","","","","","","null","<div style=""font-size:60px;"">+</div>","null","","fixation","","",""
"memory-trial","167","452345","0.0-18.0-1.61","5335","approach_avoid_sv1","""event"",""trial"",""time""
""fullscreenenter"",""1"",""5398""
","
","
","""event"",""trial"",""time""
""fullscreenenter"",""1"",""5398""
","
","","","","","","1990.2999999970198","images/dog5.png","","","memory_trial","2","maybe_old",""
"html-keyboard-response","168","452849","0.0-18.0-0.62","5335","approach_avoid_sv1","""event"",""trial"",""time""
""fullscreenenter"",""1"",""5398""
","
","
","""event"",""trial"",""time""
""fullscreenenter"",""1"",""5398""
","
","","","","","","null","<div style=""font-size:60px;"">+</div>","null","","fixation","","",""
"memory-trial","169","454831","0.0-18.0-1.62","5335","approach_avoid_sv1","""event"",""trial"",""time""
""fullscreenenter"",""1"",""5398""
","
","
","""event"",""trial"",""time""
""fullscreenenter"",""1"",""5398""
","
","","","","","","969.1000000014901","images/plane7.png","","","memory_trial","3","maybe_new",""
"html-keyboard-response","170","455337","0.0-18.0-0.63","5335","approach_avoid_sv1","""event"",""trial"",""time""
""fullscreenenter"",""1"",""5398""
","
","
","""event"",""trial"",""time""
""fullscreenenter"",""1"",""5398""
","
","","","","","","null","<div style=""font-size:60px;"">+</div>","null","","fixation","","",""
"memory-trial","171","457443","0.0-18.0-1.63","5335","approach_avoid_sv1","""event"",""trial"",""time""
""fullscreenenter"",""1"",""5398""
","
","
","""event"",""trial"",""time""
""fullscreenenter"",""1"",""5398""
","
","","","","","","1093.5","images/sheep1.png","","","memory_trial","1","definitely_old",""
"html-keyboard-response","172","457961","0.0-18.0-0.64","5335","approach_avoid_sv1","""event"",""trial"",""time""
""fullscreenenter"",""1"",""5398""
","
","
","""event"",""trial"",""time""
""fullscreenenter"",""1"",""5398""
","
","","","","","","null","<div style=""font-size:60px;"">+</div>","null","","fixation","","",""
"memory-trial","173","459822","0.0-18.0-1.64","5335","approach_avoid_sv1","""event"",""trial"",""time""
""fullscreenenter"",""1"",""5398""
","
","
","""event"",""trial"",""time""
""fullscreenenter"",""1"",""5398""
","
","","","","","","844.1000000014901","images/cow8.png","","","memory_trial","1","definitely_old",""
"html-keyboard-response","174","460327","0.0-18.0-0.65","5335","approach_avoid_sv1","""event"",""trial"",""time""
""fullscreenenter"",""1"",""5398""
","
","
","""event"",""trial"",""time""
""fullscreenenter"",""1"",""5398""
","
","","","","","","null","<div style=""font-size:60px;"">+</div>","null","","fixation","","",""
"memory-trial","175","462470","0.0-18.0-1.65","5335","approach_avoid_sv1","""event"",""trial"",""time""
""fullscreenenter"",""1"",""5398""
","
","
","""event"",""trial"",""time""
""fullscreenenter"",""1"",""5398""
","
","","","","","","1129.3000000044703","images/bed3.png","","","memory_trial","3","maybe_new",""
"html-keyboard-response","176","462975","0.0-18.0-0.66","5335","approach_avoid_sv1","""event"",""trial"",""time""
""fullscreenenter"",""1"",""5398""
","
","
","""event"",""trial"",""time""
""fullscreenenter"",""1"",""5398""
","
","","","","","","null","<div style=""font-size:60px;"">+</div>","null","","fixation","","",""
"memory-trial","177","464784","0.0-18.0-1.66","5335","approach_avoid_sv1","""event"",""trial"",""time""
""fullscreenenter"",""1"",""5398""
","
","
","""event"",""trial"",""time""
""fullscreenenter"",""1"",""5398""
","
","","","","","","796.6000000014901","images/apple5.png","","","memory_trial","4","definitely_new",""
"html-keyboard-response","178","465289","0.0-18.0-0.67","5335","approach_avoid_sv1","""event"",""trial"",""time""
""fullscreenenter"",""1"",""5398""
","
","
","""event"",""trial"",""time""
""fullscreenenter"",""1"",""5398""
","
","","","","","","null","<div style=""font-size:60px;"">+</div>","null","","fixation","","",""
"memory-trial","179","467065","0.0-18.0-1.67","5335","approach_avoid_sv1","""event"",""trial"",""time""
""fullscreenenter"",""1"",""5398""
","
","
","""event"",""trial"",""time""
""fullscreenenter"",""1"",""5398""
","
","","","","","","768.1999999955297","images/straw7.png","","","memory_trial","4","definitely_new",""
"html-keyboard-response","180","467578","0.0-18.0-0.68","5335","approach_avoid_sv1","""event"",""trial"",""time""
""fullscreenenter"",""1"",""5398""
","
","
","""event"",""trial"",""time""
""fullscreenenter"",""1"",""5398""
","
","","","","","","null","<div style=""font-size:60px;"">+</div>","null","","fixation","","",""
"memory-trial","181","469933","0.0-18.0-1.68","5335","approach_avoid_sv1","""event"",""trial"",""time""
""fullscreenenter"",""1"",""5398""
","
","
","""event"",""trial"",""time""
""fullscreenenter"",""1"",""5398""
","
","","","","","","1346.2999999970198","images/goat4.png","","","memory_trial","2","maybe_old",""
"html-keyboard-response","182","470444","0.0-18.0-0.69","5335","approach_avoid_sv1","""event"",""trial"",""time""
""fullscreenenter"",""1"",""5398""
","
","
","""event"",""trial"",""time""
""fullscreenenter"",""1"",""5398""
","
","","","","","","null","<div style=""font-size:60px;"">+</div>","null","","fixation","","",""
"memory-trial","183","472161","0.0-18.0-1.69","5335","approach_avoid_sv1","""event"",""trial"",""time""
""fullscreenenter"",""1"",""5398""
","
","
","""event"",""trial"",""time""
""fullscreenenter"",""1"",""5398""
","
","","","","","","698.3999999985099","images/tree5.png","","","memory_trial","1","definitely_old",""
"html-keyboard-response","184","472669","0.0-18.0-0.70","5335","approach_avoid_sv1","""event"",""trial"",""time""
""fullscreenenter"",""1"",""5398""
","
","
","""event"",""trial"",""time""
""fullscreenenter"",""1"",""5398""
","
","","","","","","null","<div style=""font-size:60px;"">+</div>","null","","fixation","","",""
"memory-trial","185","475224","0.0-18.0-1.70","5335","approach_avoid_sv1","""event"",""trial"",""time""
""fullscreenenter"",""1"",""5398""
","
","
","""event"",""trial"",""time""
""fullscreenenter"",""1"",""5398""
","
","","","","","","1549.5","images/bed7.png","","","memory_trial","3","maybe_new",""
"html-keyboard-response","186","475732","0.0-18.0-0.71","5335","approach_avoid_sv1","""event"",""trial"",""time""
""fullscreenenter"",""1"",""5398""
","
","
","""event"",""trial"",""time""
""fullscreenenter"",""1"",""5398""
","
","","","","","","null","<div style=""font-size:60px;"">+</div>","null","","fixation","","",""
"memory-trial","187","477396","0.0-18.0-1.71","5335","approach_avoid_sv1","""event"",""trial"",""time""
""fullscreenenter"",""1"",""5398""
","
","
","""event"",""trial"",""time""
""fullscreenenter"",""1"",""5398""
","
","","","","","","655.2000000029802","images/straw6.png","","","memory_trial","3","maybe_new",""
"html-keyboard-response","188","477910","0.0-18.0-0.72","5335","approach_avoid_sv1","""event"",""trial"",""time""
""fullscreenenter"",""1"",""5398""
","
","
","""event"",""trial"",""time""
""fullscreenenter"",""1"",""5398""
","
","","","","","","null","<div style=""font-size:60px;"">+</div>","null","","fixation","","",""
"memory-trial","189","481014","0.0-18.0-1.72","5335","approach_avoid_sv1","""event"",""trial"",""time""
""fullscreenenter"",""1"",""5398""
","
","
","""event"",""trial"",""time""
""fullscreenenter"",""1"",""5398""
","
","","","","","","2092.39999999851","images/apple4.png","","","memory_trial","2","maybe_old",""
"html-keyboard-response","190","481537","0.0-18.0-0.73","5335","approach_avoid_sv1","""event"",""trial"",""time""
""fullscreenenter"",""1"",""5398""
","
","
","""event"",""trial"",""time""
""fullscreenenter"",""1"",""5398""
","
","","","","","","null","<div style=""font-size:60px;"">+</div>","null","","fixation","","",""
"memory-trial","191","483720","0.0-18.0-1.73","5335","approach_avoid_sv1","""event"",""trial"",""time""
""fullscreenenter"",""1"",""5398""
","
","
","""event"",""trial"",""time""
""fullscreenenter"",""1"",""5398""
","
","","","","","","1171.5","images/horse6.png","","","memory_trial","1","definitely_old",""
"html-keyboard-response","192","484229","0.0-18.0-0.74","5335","approach_avoid_sv1","""event"",""trial"",""time""
""fullscreenenter"",""1"",""5398""
","
","
","""event"",""trial"",""time""
""fullscreenenter"",""1"",""5398""
","
","","","","","","null","<div style=""font-size:60px;"">+</div>","null","","fixation","","",""
"memory-trial","193","486750","0.0-18.0-1.74","5335","approach_avoid_sv1","""event"",""trial"",""time""
""fullscreenenter"",""1"",""5398""
","
","
","""event"",""trial"",""time""
""fullscreenenter"",""1"",""5398""
","
","","","","","","1508","images/orange7.png","","","memory_trial","3","maybe_new",""
"html-keyboard-response","194","487263","0.0-18.0-0.75","5335","approach_avoid_sv1","""event"",""trial"",""time""
""fullscreenenter"",""1"",""5398""
","
","
","""event"",""trial"",""time""
""fullscreenenter"",""1"",""5398""
","
","","","","","","null","<div style=""font-size:60px;"">+</div>","null","","fixation","","",""
"memory-trial","195","489285","0.0-18.0-1.75","5335","approach_avoid_sv1","""event"",""trial"",""time""
""fullscreenenter"",""1"",""5398""
","
","
","""event"",""trial"",""time""
""fullscreenenter"",""1"",""5398""
","
","","","","","","1008.4000000059605","images/rodent8.png","","","memory_trial","4","definitely_new",""
"html-keyboard-response","196","489795","0.0-18.0-0.76","5335","approach_avoid_sv1","""event"",""trial"",""time""
""fullscreenenter"",""1"",""5398""
","
","
","""event"",""trial"",""time""
""fullscreenenter"",""1"",""5398""
","
","","","","","","null","<div style=""font-size:60px;"">+</div>","null","","fixation","","",""
"memory-trial","197","491727","0.0-18.0-1.76","5335","approach_avoid_sv1","""event"",""trial"",""time""
""fullscreenenter"",""1"",""5398""
","
","
","""event"",""trial"",""time""
""fullscreenenter"",""1"",""5398""
","
","","","","","","923.5","images/sofa2.png","","","memory_trial","1","definitely_old",""
"html-keyboard-response","198","492235","0.0-18.0-0.77","5335","approach_avoid_sv1","""event"",""trial"",""time""
""fullscreenenter"",""1"",""5398""
","
","
","""event"",""trial"",""time""
""fullscreenenter"",""1"",""5398""
","
","","","","","","null","<div style=""font-size:60px;"">+</div>","null","","fixation","","",""
"memory-trial","199","494338","0.0-18.0-1.77","5335","approach_avoid_sv1","""event"",""trial"",""time""
""fullscreenenter"",""1"",""5398""
","
","
","""event"",""trial"",""time""
""fullscreenenter"",""1"",""5398""
","
","","","","","","1090.0999999940395","images/rabbit3.png","","","memory_trial","2","maybe_old",""
"html-keyboard-response","200","494846","0.0-18.0-0.78","5335","approach_avoid_sv1","""event"",""trial"",""time""
""fullscreenenter"",""1"",""5398""
","
","
","""event"",""trial"",""time""
""fullscreenenter"",""1"",""5398""
","
","","","","","","null","<div style=""font-size:60px;"">+</div>","null","","fixation","","",""
"memory-trial","201","496631","0.0-18.0-1.78","5335","approach_avoid_sv1","""event"",""trial"",""time""
""fullscreenenter"",""1"",""5398""
","
","
","""event"",""trial"",""time""
""fullscreenenter"",""1"",""5398""
","
","","","","","","766.7999999970198","images/bed2.png","","","memory_trial","4","definitely_new",""
"html-keyboard-response","202","497137","0.0-18.0-0.79","5335","approach_avoid_sv1","""event"",""trial"",""time""
""fullscreenenter"",""1"",""5398""
","
","
","""event"",""trial"",""time""
""fullscreenenter"",""1"",""5398""
","
","","","","","","null","<div style=""font-size:60px;"">+</div>","null","","fixation","","",""
"memory-trial","203","499037","0.0-18.0-1.79","5335","approach_avoid_sv1","""event"",""trial"",""time""
""fullscreenenter"",""1"",""5398""
","
","
","""event"",""trial"",""time""
""fullscreenenter"",""1"",""5398""
","
","","","","","","886.6999999955297","images/train6.png","","","memory_trial","1","definitely_old",""
"html-keyboard-response","204","499546","0.0-18.0-0.80","5335","approach_avoid_sv1","""event"",""trial"",""time""
""fullscreenenter"",""1"",""5398""
","
","
","""event"",""trial"",""time""
""fullscreenenter"",""1"",""5398""
","
","","","","","","null","<div style=""font-size:60px;"">+</div>","null","","fixation","","",""
"memory-trial","205","501890","0.0-18.0-1.80","5335","approach_avoid_sv1","""event"",""trial"",""time""
""fullscreenenter"",""1"",""5398""
","
","
","""event"",""trial"",""time""
""fullscreenenter"",""1"",""5398""
","
","","","","","","1336.1999999955297","images/cow2.png","","","memory_trial","3","maybe_new",""
"html-keyboard-response","206","502401","0.0-18.0-0.81","5335","approach_avoid_sv1","""event"",""trial"",""time""
""fullscreenenter"",""1"",""5398""
","
","
","""event"",""trial"",""time""
""fullscreenenter"",""1"",""5398""
","
","","","","","","null","<div style=""font-size:60px;"">+</div>","null","","fixation","","",""
"memory-trial","207","504404","0.0-18.0-1.81","5335","approach_avoid_sv1","""event"",""trial"",""time""
""fullscreenenter"",""1"",""5398""
","
","
","""event"",""trial"",""time""
""fullscreenenter"",""1"",""5398""
","
","","","","","","990.7000000029802","images/sheep5.png","","","memory_trial","1","definitely_old",""
"html-keyboard-response","208","504927","0.0-18.0-0.82","5335","approach_avoid_sv1","""event"",""trial"",""time""
""fullscreenenter"",""1"",""5398""
","
","
","""event"",""trial"",""time""
""fullscreenenter"",""1"",""5398""
","
","","","","","","null","<div style=""font-size:60px;"">+</div>","null","","fixation","","",""
"memory-trial","209","506841","0.0-18.0-1.82","5335","approach_avoid_sv1","""event"",""trial"",""time""
""fullscreenenter"",""1"",""5398""
","
","
","""event"",""trial"",""time""
""fullscreenenter"",""1"",""5398""
","
","","","","","","898.7999999970198","images/tree3.png","","","memory_trial","1","definitely_old",""
"html-keyboard-response","210","507351","0.0-18.0-0.83","5335","approach_avoid_sv1","""event"",""trial"",""time""
""fullscreenenter"",""1"",""5398""
","
","
","""event"",""trial"",""time""
""fullscreenenter"",""1"",""5398""
","
","","","","","","null","<div style=""font-size:60px;"">+</div>","null","","fixation","","",""
"memory-trial","211","509728","0.0-18.0-1.83","5335","approach_avoid_sv1","""event"",""trial"",""time""
""fullscreenenter"",""1"",""5398""
","
","
","""event"",""trial"",""time""
""fullscreenenter"",""1"",""5398""
","
","","","","","","1358.7000000029802","images/train7.png","","","memory_trial","4","definitely_new",""
"html-keyboard-response","212","510237","0.0-18.0-0.84","5335","approach_avoid_sv1","""event"",""trial"",""time""
""fullscreenenter"",""1"",""5398""
","
","
","""event"",""trial"",""time""
""fullscreenenter"",""1"",""5398""
","
","","","","","","null","<div style=""font-size:60px;"">+</div>","null","","fixation","","",""
"memory-trial","213","512977","0.0-18.0-1.84","5335","approach_avoid_sv1","""event"",""trial"",""time""
""fullscreenenter"",""1"",""5398""
","
","
","""event"",""trial"",""time""
""fullscreenenter"",""1"",""5398""
","
","","","","","","1723.8999999985099","images/train1.png","","","memory_trial","2","maybe_old",""
"html-keyboard-response","214","513486","0.0-18.0-0.85","5335","approach_avoid_sv1","""event"",""trial"",""time""
""fullscreenenter"",""1"",""5398""
","
","
","""event"",""trial"",""time""
""fullscreenenter"",""1"",""5398""
","
","","","","","","null","<div style=""font-size:60px;"">+</div>","null","","fixation","","",""
"memory-trial","215","515491","0.0-18.0-1.85","5335","approach_avoid_sv1","""event"",""trial"",""time""
""fullscreenenter"",""1"",""5398""
","
","
","""event"",""trial"",""time""
""fullscreenenter"",""1"",""5398""
","
","","","","","","992.3999999985099","images/truck3.png","","","memory_trial","1","definitely_old",""
"html-keyboard-response","216","516000","0.0-18.0-0.86","5335","approach_avoid_sv1","""event"",""trial"",""time""
""fullscreenenter"",""1"",""5398""
","
","
","""event"",""trial"",""time""
""fullscreenenter"",""1"",""5398""
","
","","","","","","null","<div style=""font-size:60px;"">+</div>","null","","fixation","","",""
"memory-trial","217","517760","0.0-18.0-1.86","5335","approach_avoid_sv1","""event"",""trial"",""time""
""fullscreenenter"",""1"",""5398""
","
","
","""event"",""trial"",""time""
""fullscreenenter"",""1"",""5398""
","
","","","","","","756.7999999970198","images/goat5.png","","","memory_trial","1","definitely_old",""
"html-keyboard-response","218","518272","0.0-18.0-0.87","5335","approach_avoid_sv1","""event"",""trial"",""time""
""fullscreenenter"",""1"",""5398""
","
","
","""event"",""trial"",""time""
""fullscreenenter"",""1"",""5398""
","
","","","","","","null","<div style=""font-size:60px;"">+</div>","null","","fixation","","",""
"memory-trial","219","520157","0.0-18.0-1.87","5335","approach_avoid_sv1","""event"",""trial"",""time""
""fullscreenenter"",""1"",""5398""
","
","
","""event"",""trial"",""time""
""fullscreenenter"",""1"",""5398""
","
","","","","","","870.5","images/horse2.png","","","memory_trial","4","definitely_new",""
"html-keyboard-response","220","520667","0.0-18.0-0.88","5335","approach_avoid_sv1","""event"",""trial"",""time""
""fullscreenenter"",""1"",""5398""
","
","
","""event"",""trial"",""time""
""fullscreenenter"",""1"",""5398""
","
","","","","","","null","<div style=""font-size:60px;"">+</div>","null","","fixation","","",""
"memory-trial","221","522828","0.0-18.0-1.88","5335","approach_avoid_sv1","""event"",""trial"",""time""
""fullscreenenter"",""1"",""5398""
","
","
","""event"",""trial"",""time""
""fullscreenenter"",""1"",""5398""
","
","","","","","","1146.7999999970198","images/tree7.png","","","memory_trial","3","maybe_new",""
"html-keyboard-response","222","523343","0.0-18.0-0.89","5335","approach_avoid_sv1","""event"",""trial"",""time""
""fullscreenenter"",""1"",""5398""
","
","
","""event"",""trial"",""time""
""fullscreenenter"",""1"",""5398""
","
","","","","","","null","<div style=""font-size:60px;"">+</div>","null","","fixation","","",""
"memory-trial","223","525393","0.0-18.0-1.89","5335","approach_avoid_sv1","""event"",""trial"",""time""
""fullscreenenter"",""1"",""5398""
","
","
","""event"",""trial"",""time""
""fullscreenenter"",""1"",""5398""
","
","","","","","","1045.2999999970198","images/chair7.png","","","memory_trial","4","definitely_new",""
"html-keyboard-response","224","525896","0.0-18.0-0.90","5335","approach_avoid_sv1","""event"",""trial"",""time""
""fullscreenenter"",""1"",""5398""
","
","
","""event"",""trial"",""time""
""fullscreenenter"",""1"",""5398""
","
","","","","","","null","<div style=""font-size:60px;"">+</div>","null","","fixation","","",""
"memory-trial","225","527960","0.0-18.0-1.90","5335","approach_avoid_sv1","""event"",""trial"",""time""
""fullscreenenter"",""1"",""5398""
","
","
","""event"",""trial"",""time""
""fullscreenenter"",""1"",""5398""
","
","","","","","","1046","images/goat2.png","","","memory_trial","4","definitely_new",""
"html-keyboard-response","226","528471","0.0-18.0-0.91","5335","approach_avoid_sv1","""event"",""trial"",""time""
""fullscreenenter"",""1"",""5398""
","
","
","""event"",""trial"",""time""
""fullscreenenter"",""1"",""5398""
","
","","","","","","null","<div style=""font-size:60px;"">+</div>","null","","fixation","","",""
"memory-trial","227","530297","0.0-18.0-1.91","5335","approach_avoid_sv1","""event"",""trial"",""time""
""fullscreenenter"",""1"",""5398""
","
","
","""event"",""trial"",""time""
""fullscreenenter"",""1"",""5398""
","
","","","","","","811.5","images/cat7.png","","","memory_trial","1","definitely_old",""
"html-button-response","228","532043","0.0-18.0-2.91-0.91","5335","approach_avoid_sv1","""event"",""trial"",""time""
""fullscreenenter"",""1"",""5398""
","
","
","""event"",""trial"",""time""
""fullscreenenter"",""1"",""5398""
","
","","","","","","1743.8999999985099","<p> Take a break! </p><p> Click the button to continue. </p>","0","","break","","",""
"html-keyboard-response","229","532550","0.0-18.0-0.92","5335","approach_avoid_sv1","""event"",""trial"",""time""
""fullscreenenter"",""1"",""5398""
","
","
","""event"",""trial"",""time""
""fullscreenenter"",""1"",""5398""
","
","","","","","","null","<div style=""font-size:60px;"">+</div>","null","","fixation","","",""
"memory-trial","230","534793","0.0-18.0-1.92","5335","approach_avoid_sv1","""event"",""trial"",""time""
""fullscreenenter"",""1"",""5398""
","
","
","""event"",""trial"",""time""
""fullscreenenter"",""1"",""5398""
","
","","","","","","1228.6000000014901","images/plane8.png","","","memory_trial","4","definitely_new",""
"html-keyboard-response","231","535304","0.0-18.0-0.93","5335","approach_avoid_sv1","""event"",""trial"",""time""
""fullscreenenter"",""1"",""5398""
","
","
","""event"",""trial"",""time""
""fullscreenenter"",""1"",""5398""
","
","","","","","","null","<div style=""font-size:60px;"">+</div>","null","","fixation","","",""
"memory-trial","232","537738","0.0-18.0-1.93","5335","approach_avoid_sv1","""event"",""trial"",""time""
""fullscreenenter"",""1"",""5398""
","
","
","""event"",""trial"",""time""
""fullscreenenter"",""1"",""5398""
","
","","","","","","1424.1999999955297","images/rabbit4.png","","","memory_trial","2","maybe_old",""
"html-keyboard-response","233","538249","0.0-18.0-0.94","5335","approach_avoid_sv1","""event"",""trial"",""time""
""fullscreenenter"",""1"",""5398""
","
","
","""event"",""trial"",""time""
""fullscreenenter"",""1"",""5398""
","
","","","","","","null","<div style=""font-size:60px;"">+</div>","null","","fixation","","",""
"memory-trial","234","541645","0.0-18.0-1.94","5335","approach_avoid_sv1","""event"",""trial"",""time""
""fullscreenenter"",""1"",""5398""
","
","
","""event"",""trial"",""time""
""fullscreenenter"",""1"",""5398""
","
","","","","","","2379.1999999955297","images/truck6.png","","","memory_trial","3","maybe_new",""
"html-keyboard-response","235","542156","0.0-18.0-0.95","5335","approach_avoid_sv1","""event"",""trial"",""time""
""fullscreenenter"",""1"",""5398""
","
","
","""event"",""trial"",""time""
""fullscreenenter"",""1"",""5398""
","
","","","","","","null","<div style=""font-size:60px;"">+</div>","null","","fixation","","",""
"memory-trial","236","544312","0.0-18.0-1.95","5335","approach_avoid_sv1","""event"",""trial"",""time""
""fullscreenenter"",""1"",""5398""
","
","
","""event"",""trial"",""time""
""fullscreenenter"",""1"",""5398""
","
","","","","","","1138.1000000014901","images/sofa4.png","","","memory_trial","1","definitely_old",""
"html-keyboard-response","237","544823","0.0-18.0-0.96","5335","approach_avoid_sv1","""event"",""trial"",""time""
""fullscreenenter"",""1"",""5398""
","
","
","""event"",""trial"",""time""
""fullscreenenter"",""1"",""5398""
","
","","","","","","null","<div style=""font-size:60px;"">+</div>","null","","fixation","","",""
"memory-trial","238","547037","0.0-18.0-1.96","5335","approach_avoid_sv1","""event"",""trial"",""time""
""fullscreenenter"",""1"",""5398""
","
","
","""event"",""trial"",""time""
""fullscreenenter"",""1"",""5398""
","
","","","","","","1202.8999999985099","images/apple8.png","","","memory_trial","1","definitely_old",""
"html-keyboard-response","239","547551","0.0-18.0-0.97","5335","approach_avoid_sv1","""event"",""trial"",""time""
""fullscreenenter"",""1"",""5398""
","
","
","""event"",""trial"",""time""
""fullscreenenter"",""1"",""5398""
","
","","","","","","null","<div style=""font-size:60px;"">+</div>","null","","fixation","","",""
"memory-trial","240","549472","0.0-18.0-1.97","5335","approach_avoid_sv1","""event"",""trial"",""time""
""fullscreenenter"",""1"",""5398""
","
","
","""event"",""trial"",""time""
""fullscreenenter"",""1"",""5398""
","
","","","","","","906.2000000029802","images/flower8.png","","","memory_trial","1","definitely_old",""
"html-keyboard-response","241","549984","0.0-18.0-0.98","5335","approach_avoid_sv1","""event"",""trial"",""time""
""fullscreenenter"",""1"",""5398""
","
","
","""event"",""trial"",""time""
""fullscreenenter"",""1"",""5398""
","
","","","","","","null","<div style=""font-size:60px;"">+</div>","null","","fixation","","",""
"memory-trial","242","551837","0.0-18.0-1.98","5335","approach_avoid_sv1","""event"",""trial"",""time""
""fullscreenenter"",""1"",""5398""
","
","
","""event"",""trial"",""time""
""fullscreenenter"",""1"",""5398""
","
","","","","","","839.3999999985099","images/banana1.png","","","memory_trial","1","definitely_old",""
"html-keyboard-response","243","552349","0.0-18.0-0.99","5335","approach_avoid_sv1","""event"",""trial"",""time""
""fullscreenenter"",""1"",""5398""
","
","
","""event"",""trial"",""time""
""fullscreenenter"",""1"",""5398""
","
","","","","","","null","<div style=""font-size:60px;"">+</div>","null","","fixation","","",""
"memory-trial","244","554224","0.0-18.0-1.99","5335","approach_avoid_sv1","""event"",""trial"",""time""
""fullscreenenter"",""1"",""5398""
","
","
","""event"",""trial"",""time""
""fullscreenenter"",""1"",""5398""
","
","","","","","","857.1000000014901","images/chair1.png","","","memory_trial","1","definitely_old",""
"html-keyboard-response","245","554732","0.0-18.0-0.100","5335","approach_avoid_sv1","""event"",""trial"",""time""
""fullscreenenter"",""1"",""5398""
","
","
","""event"",""trial"",""time""
""fullscreenenter"",""1"",""5398""
","
","","","","","","null","<div style=""font-size:60px;"">+</div>","null","","fixation","","",""
"memory-trial","246","557660","0.0-18.0-1.100","5335","approach_avoid_sv1","""event"",""trial"",""time""
""fullscreenenter"",""1"",""5398""
","
","
","""event"",""trial"",""time""
""fullscreenenter"",""1"",""5398""
","
","","","","","","1919.2000000029802","images/bush5.png","","","memory_trial","1","definitely_old",""
"html-keyboard-response","247","558177","0.0-18.0-0.101","5335","approach_avoid_sv1","""event"",""trial"",""time""
""fullscreenenter"",""1"",""5398""
","
","
","""event"",""trial"",""time""
""fullscreenenter"",""1"",""5398""
","
","","","","","","null","<div style=""font-size:60px;"">+</div>","null","","fixation","","",""
"memory-trial","248","560426","0.0-18.0-1.101","5335","approach_avoid_sv1","""event"",""trial"",""time""
""fullscreenenter"",""1"",""5398""
","
","
","""event"",""trial"",""time""
""fullscreenenter"",""1"",""5398""
","
","","","","","","1238.7999999970198","images/cactus2.png","","","memory_trial","4","definitely_new",""
"html-keyboard-response","249","560934","0.0-18.0-0.102","5335","approach_avoid_sv1","""event"",""trial"",""time""
""fullscreenenter"",""1"",""5398""
","
","
","""event"",""trial"",""time""
""fullscreenenter"",""1"",""5398""
","
","","","","","","null","<div style=""font-size:60px;"">+</div>","null","","fixation","","",""
"memory-trial","250","562836","0.0-18.0-1.102","5335","approach_avoid_sv1","""event"",""trial"",""time""
""fullscreenenter"",""1"",""5398""
","
","
","""event"",""trial"",""time""
""fullscreenenter"",""1"",""5398""
","
","","","","","","889.5999999940395","images/rodent1.png","","","memory_trial","4","definitely_new",""
"html-keyboard-response","251","563349","0.0-18.0-0.103","5335","approach_avoid_sv1","""event"",""trial"",""time""
""fullscreenenter"",""1"",""5398""
","
","
","""event"",""trial"",""time""
""fullscreenenter"",""1"",""5398""
","
","","","","","","null","<div style=""font-size:60px;"">+</div>","null","","fixation","","",""
"memory-trial","252","565266","0.0-18.0-1.103","5335","approach_avoid_sv1","""event"",""trial"",""time""
""fullscreenenter"",""1"",""5398""
","
","
","""event"",""trial"",""time""
""fullscreenenter"",""1"",""5398""
","
","","","","","","905.2999999970198","images/apple6.png","","","memory_trial","4","definitely_new",""
"html-keyboard-response","253","565772","0.0-18.0-0.104","5335","approach_avoid_sv1","""event"",""trial"",""time""
""fullscreenenter"",""1"",""5398""
","
","
","""event"",""trial"",""time""
""fullscreenenter"",""1"",""5398""
","
","","","","","","null","<div style=""font-size:60px;"">+</div>","null","","fixation","","",""
"memory-trial","254","567495","0.0-18.0-1.104","5335","approach_avoid_sv1","""event"",""trial"",""time""
""fullscreenenter"",""1"",""5398""
","
","
","""event"",""trial"",""time""
""fullscreenenter"",""1"",""5398""
","
","","","","","","710.3000000044703","images/bush1.png","","","memory_trial","1","definitely_old",""
"html-keyboard-response","255","568006","0.0-18.0-0.105","5335","approach_avoid_sv1","""event"",""trial"",""time""
""fullscreenenter"",""1"",""5398""
","
","
","""event"",""trial"",""time""
""fullscreenenter"",""1"",""5398""
","
","","","","","","null","<div style=""font-size:60px;"">+</div>","null","","fixation","","",""
"memory-trial","256","570213","0.0-18.0-1.105","5335","approach_avoid_sv1","""event"",""trial"",""time""
""fullscreenenter"",""1"",""5398""
","
","
","""event"",""trial"",""time""
""fullscreenenter"",""1"",""5398""
","
","","","","","","1192.3999999985099","images/train5.png","","","memory_trial","2","maybe_old",""
"html-keyboard-response","257","570722","0.0-18.0-0.106","5335","approach_avoid_sv1","""event"",""trial"",""time""
""fullscreenenter"",""1"",""5398""
","
","
","""event"",""trial"",""time""
""fullscreenenter"",""1"",""5398""
","
","","","","","","null","<div style=""font-size:60px;"">+</div>","null","","fixation","","",""
"memory-trial","258","572587","0.0-18.0-1.106","5335","approach_avoid_sv1","""event"",""trial"",""time""
""fullscreenenter"",""1"",""5398""
","
","
","""event"",""trial"",""time""
""fullscreenenter"",""1"",""5398""
","
","","","","","","855.3999999985099","images/cow7.png","","","memory_trial","1","definitely_old",""
"html-keyboard-response","259","573099","0.0-18.0-0.107","5335","approach_avoid_sv1","""event"",""trial"",""time""
""fullscreenenter"",""1"",""5398""
","
","
","""event"",""trial"",""time""
""fullscreenenter"",""1"",""5398""
","
","","","","","","null","<div style=""font-size:60px;"">+</div>","null","","fixation","","",""
"memory-trial","260","575256","0.0-18.0-1.107","5335","approach_avoid_sv1","""event"",""trial"",""time""
""fullscreenenter"",""1"",""5398""
","
","
","""event"",""trial"",""time""
""fullscreenenter"",""1"",""5398""
","
","","","","","","1145.1000000014901","images/cactus1.png","","","memory_trial","4","definitely_new",""
"html-keyboard-response","261","575768","0.0-18.0-0.108","5335","approach_avoid_sv1","""event"",""trial"",""time""
""fullscreenenter"",""1"",""5398""
","
","
","""event"",""trial"",""time""
""fullscreenenter"",""1"",""5398""
","
","","","","","","null","<div style=""font-size:60px;"">+</div>","null","","fixation","","",""
"memory-trial","262","577672","0.0-18.0-1.108","5335","approach_avoid_sv1","""event"",""trial"",""time""
""fullscreenenter"",""1"",""5398""
","
","
","""event"",""trial"",""time""
""fullscreenenter"",""1"",""5398""
","
","","","","","","886.1999999955297","images/rabbit1.png","","","memory_trial","1","definitely_old",""
"html-keyboard-response","263","578180","0.0-18.0-0.109","5335","approach_avoid_sv1","""event"",""trial"",""time""
""fullscreenenter"",""1"",""5398""
","
","
","""event"",""trial"",""time""
""fullscreenenter"",""1"",""5398""
","
","","","","","","null","<div style=""font-size:60px;"">+</div>","null","","fixation","","",""
"memory-trial","264","580775","0.0-18.0-1.109","5335","approach_avoid_sv1","""event"",""trial"",""time""
""fullscreenenter"",""1"",""5398""
","
","
","""event"",""trial"",""time""
""fullscreenenter"",""1"",""5398""
","
","","","","","","1568.8999999985099","images/straw2.png","","","memory_trial","2","maybe_old",""
"html-keyboard-response","265","581285","0.0-18.0-0.110","5335","approach_avoid_sv1","""event"",""trial"",""time""
""fullscreenenter"",""1"",""5398""
","
","
","""event"",""trial"",""time""
""fullscreenenter"",""1"",""5398""
","
","","","","","","null","<div style=""font-size:60px;"">+</div>","null","","fixation","","",""
"memory-trial","266","583162","0.0-18.0-1.110","5335","approach_avoid_sv1","""event"",""trial"",""time""
""fullscreenenter"",""1"",""5398""
","
","
","""event"",""trial"",""time""
""fullscreenenter"",""1"",""5398""
","
","","","","","","857.6999999955297","images/bush4.png","","","memory_trial","1","definitely_old",""
"html-keyboard-response","267","583671","0.0-18.0-0.111","5335","approach_avoid_sv1","""event"",""trial"",""time""
""fullscreenenter"",""1"",""5398""
","
","
","""event"",""trial"",""time""
""fullscreenenter"",""1"",""5398""
","
","","","","","","null","<div style=""font-size:60px;"">+</div>","null","","fixation","","",""
"memory-trial","268","585603","0.0-18.0-1.111","5335","approach_avoid_sv1","""event"",""trial"",""time""
""fullscreenenter"",""1"",""5398""
","
","
","""event"",""trial"",""time""
""fullscreenenter"",""1"",""5398""
","
","","","","","","925.7999999970198","images/rodent3.png","","","memory_trial","4","definitely_new",""
"html-keyboard-response","269","586113","0.0-18.0-0.112","5335","approach_avoid_sv1","""event"",""trial"",""time""
""fullscreenenter"",""1"",""5398""
","
","
","""event"",""trial"",""time""
""fullscreenenter"",""1"",""5398""
","
","","","","","","null","<div style=""font-size:60px;"">+</div>","null","","fixation","","",""
"memory-trial","270","587770","0.0-18.0-1.112","5335","approach_avoid_sv1","""event"",""trial"",""time""
""fullscreenenter"",""1"",""5398""
","
","
","""event"",""trial"",""time""
""fullscreenenter"",""1"",""5398""
","
","","","","","","644.2999999970198","images/horse1.png","","","memory_trial","4","definitely_new",""
"html-keyboard-response","271","588272","0.0-18.0-0.113","5335","approach_avoid_sv1","""event"",""trial"",""time""
""fullscreenenter"",""1"",""5398""
","
","
","""event"",""trial"",""time""
""fullscreenenter"",""1"",""5398""
","
","","","","","","null","<div style=""font-size:60px;"">+</div>","null","","fixation","","",""
"memory-trial","272","590030","0.0-18.0-1.113","5335","approach_avoid_sv1","""event"",""trial"",""time""
""fullscreenenter"",""1"",""5398""
","
","
","""event"",""trial"",""time""
""fullscreenenter"",""1"",""5398""
","
","","","","","","747.6999999955297","images/table5.png","","","memory_trial","4","definitely_new",""
"html-keyboard-response","273","590540","0.0-18.0-0.114","5335","approach_avoid_sv1","""event"",""trial"",""time""
""fullscreenenter"",""1"",""5398""
","
","
","""event"",""trial"",""time""
""fullscreenenter"",""1"",""5398""
","
","","","","","","null","<div style=""font-size:60px;"">+</div>","null","","fixation","","",""
"memory-trial","274","593091","0.0-18.0-1.114","5335","approach_avoid_sv1","""event"",""trial"",""time""
""fullscreenenter"",""1"",""5398""
","
","
","""event"",""trial"",""time""
""fullscreenenter"",""1"",""5398""
","
","","","","","","1541.1000000014901","images/truck5.png","","","memory_trial","2","maybe_old",""
"html-keyboard-response","275","593604","0.0-18.0-0.115","5335","approach_avoid_sv1","""event"",""trial"",""time""
""fullscreenenter"",""1"",""5398""
","
","
","""event"",""trial"",""time""
""fullscreenenter"",""1"",""5398""
","
","","","","","","null","<div style=""font-size:60px;"">+</div>","null","","fixation","","",""
"memory-trial","276","595388","0.0-18.0-1.115","5335","approach_avoid_sv1","""event"",""trial"",""time""
""fullscreenenter"",""1"",""5398""
","
","
","""event"",""trial"",""time""
""fullscreenenter"",""1"",""5398""
","
","","","","","","776.7000000029802","images/dog3.png","","","memory_trial","1","definitely_old",""
"html-keyboard-response","277","595900","0.0-18.0-0.116","5335","approach_avoid_sv1","""event"",""trial"",""time""
""fullscreenenter"",""1"",""5398""
","
","
","""event"",""trial"",""time""
""fullscreenenter"",""1"",""5398""
","
","","","","","","null","<div style=""font-size:60px;"">+</div>","null","","fixation","","",""
"memory-trial","278","597593","0.0-18.0-1.116","5335","approach_avoid_sv1","""event"",""trial"",""time""
""fullscreenenter"",""1"",""5398""
","
","
","""event"",""trial"",""time""
""fullscreenenter"",""1"",""5398""
","
","","","","","","683.0999999940395","images/cat8.png","","","memory_trial","1","definitely_old",""
"html-keyboard-response","279","598104","0.0-18.0-0.117","5335","approach_avoid_sv1","""event"",""trial"",""time""
""fullscreenenter"",""1"",""5398""
","
","
","""event"",""trial"",""time""
""fullscreenenter"",""1"",""5398""
","
","","","","","","null","<div style=""font-size:60px;"">+</div>","null","","fixation","","",""
"memory-trial","280","600309","0.0-18.0-1.117","5335","approach_avoid_sv1","""event"",""trial"",""time""
""fullscreenenter"",""1"",""5398""
","
","
","""event"",""trial"",""time""
""fullscreenenter"",""1"",""5398""
","
","","","","","","1194.9000000059605","images/flower6.png","","","memory_trial","3","maybe_new",""
"html-keyboard-response","281","600819","0.0-18.0-0.118","5335","approach_avoid_sv1","""event"",""trial"",""time""
""fullscreenenter"",""1"",""5398""
","
","
","""event"",""trial"",""time""
""fullscreenenter"",""1"",""5398""
","
","","","","","","null","<div style=""font-size:60px;"">+</div>","null","","fixation","","",""
"memory-trial","282","602836","0.0-18.0-1.118","5335","approach_avoid_sv1","""event"",""trial"",""time""
""fullscreenenter"",""1"",""5398""
","
","
","""event"",""trial"",""time""
""fullscreenenter"",""1"",""5398""
","
","","","","","","1006.4000000059605","images/straw4.png","","","memory_trial","3","maybe_new",""
"html-keyboard-response","283","603349","0.0-18.0-0.119","5335","approach_avoid_sv1","""event"",""trial"",""time""
""fullscreenenter"",""1"",""5398""
","
","
","""event"",""trial"",""time""
""fullscreenenter"",""1"",""5398""
","
","","","","","","null","<div style=""font-size:60px;"">+</div>","null","","fixation","","",""
"memory-trial","284","605455","0.0-18.0-1.119","5335","approach_avoid_sv1","""event"",""trial"",""time""
""fullscreenenter"",""1"",""5398""
","
","
","""event"",""trial"",""time""
""fullscreenenter"",""1"",""5398""
","
","","","","","","1094.2999999970198","images/sofa1.png","","","memory_trial","3","maybe_new",""
"html-keyboard-response","285","605973","0.0-18.0-0.120","5335","approach_avoid_sv1","""event"",""trial"",""time""
""fullscreenenter"",""1"",""5398""
","
","
","""event"",""trial"",""time""
""fullscreenenter"",""1"",""5398""
","
","","","","","","null","<div style=""font-size:60px;"">+</div>","null","","fixation","","",""
"memory-trial","286","607928","0.0-18.0-1.120","5335","approach_avoid_sv1","""event"",""trial"",""time""
""fullscreenenter"",""1"",""5398""
","
","
","""event"",""trial"",""time""
""fullscreenenter"",""1"",""5398""
","
","","","","","","943.8999999985099","images/banana6.png","","","memory_trial","3","maybe_new",""
"html-keyboard-response","287","608438","0.0-18.0-0.121","5335","approach_avoid_sv1","""event"",""trial"",""time""
""fullscreenenter"",""1"",""5398""
","
","
","""event"",""trial"",""time""
""fullscreenenter"",""1"",""5398""
","
","","","","","","null","<div style=""font-size:60px;"">+</div>","null","","fixation","","",""
"memory-trial","288","610991","0.0-18.0-1.121","5335","approach_avoid_sv1","""event"",""trial"",""time""
""fullscreenenter"",""1"",""5398""
","
","
","""event"",""trial"",""time""
""fullscreenenter"",""1"",""5398""
","
","","","","","","1536.3000000044703","images/boat6.png","","","memory_trial","1","definitely_old",""
"html-keyboard-response","289","611502","0.0-18.0-0.122","5335","approach_avoid_sv1","""event"",""trial"",""time""
""fullscreenenter"",""1"",""5398""
","
","
","""event"",""trial"",""time""
""fullscreenenter"",""1"",""5398""
","
","","","","","","null","<div style=""font-size:60px;"">+</div>","null","","fixation","","",""
"memory-trial","290","614389","0.0-18.0-1.122","5335","approach_avoid_sv1","""event"",""trial"",""time""
""fullscreenenter"",""1"",""5398""
","
","
","""event"",""trial"",""time""
""fullscreenenter"",""1"",""5398""
","
","","","","","","1875.0999999940395","images/apple1.png","","","memory_trial","3","maybe_new",""
"html-keyboard-response","291","614901","0.0-18.0-0.123","5335","approach_avoid_sv1","""event"",""trial"",""time""
""fullscreenenter"",""1"",""5398""
","
","
","""event"",""trial"",""time""
""fullscreenenter"",""1"",""5398""
","
","","","","","","null","<div style=""font-size:60px;"">+</div>","null","","fixation","","",""
"memory-trial","292","616798","0.0-18.0-1.123","5335","approach_avoid_sv1","""event"",""trial"",""time""
""fullscreenenter"",""1"",""5398""
","
","
","""event"",""trial"",""time""
""fullscreenenter"",""1"",""5398""
","
","","","","","","879.2000000029802","images/dog1.png","","","memory_trial","1","definitely_old",""
"html-keyboard-response","293","617306","0.0-18.0-0.124","5335","approach_avoid_sv1","""event"",""trial"",""time""
""fullscreenenter"",""1"",""5398""
","
","
","""event"",""trial"",""time""
""fullscreenenter"",""1"",""5398""
","
","","","","","","null","<div style=""font-size:60px;"">+</div>","null","","fixation","","",""
"memory-trial","294","619392","0.0-18.0-1.124","5335","approach_avoid_sv1","""event"",""trial"",""time""
""fullscreenenter"",""1"",""5398""
","
","
","""event"",""trial"",""time""
""fullscreenenter"",""1"",""5398""
","
","","","","","","1069.8999999985099","images/cow5.png","","","memory_trial","1","definitely_old",""
"html-keyboard-response","295","619902","0.0-18.0-0.125","5335","approach_avoid_sv1","""event"",""trial"",""time""
""fullscreenenter"",""1"",""5398""
","
","
","""event"",""trial"",""time""
""fullscreenenter"",""1"",""5398""
","
","","","","","","null","<div style=""font-size:60px;"">+</div>","null","","fixation","","",""
"memory-trial","296","622378","0.0-18.0-1.125","5335","approach_avoid_sv1","""event"",""trial"",""time""
""fullscreenenter"",""1"",""5398""
","
","
","""event"",""trial"",""time""
""fullscreenenter"",""1"",""5398""
","
","","","","","","1463.8999999985099","images/tree2.png","","","memory_trial","4","definitely_new",""
"html-keyboard-response","297","622889","0.0-18.0-0.126","5335","approach_avoid_sv1","""event"",""trial"",""time""
""fullscreenenter"",""1"",""5398""
