"trial_type","trial_index","time_elapsed","internal_node_id","subject_id","task_version","interactions","blur_events","focus_events","fullscreenenter_events","fullscreenexit_events","success","timeout","failed_images","failed_audio","failed_video","rt","stimulus","response","button_pressed","task_part","key_press","answer","correct"
"pavlovia","0","4","0.0-0.0","7719","approach_avoid_sv1","""event"",""trial"",""time""
""fullscreenenter"",""1"",""2157""
","
","
","""event"",""trial"",""time""
""fullscreenenter"",""1"",""2157""
","
","","","","","","","","","","","","",""
"fullscreen","1","3139","0.0-1.0","7719","approach_avoid_sv1","""event"",""trial"",""time""
""fullscreenenter"",""1"",""2157""
","
","
","""event"",""trial"",""time""
""fullscreenenter"",""1"",""2157""
","
","true","","","","","","","","","","","",""
"preload","2","9364","0.0-2.0","7719","approach_avoid_sv1","""event"",""trial"",""time""
""fullscreenenter"",""1"",""2157""
","
","
","""event"",""trial"",""time""
""fullscreenenter"",""1"",""2157""
","
","true","false","[]","[]","[]","","","","","","","",""
"preload","3","16352","0.0-3.0","7719","approach_avoid_sv1","""event"",""trial"",""time""
""fullscreenenter"",""1"",""2157""
","
","
","""event"",""trial"",""time""
""fullscreenenter"",""1"",""2157""
","
","true","false","[]","[]","[]","","","","","","","",""
"preload","4","16846","0.0-4.0","7719","approach_avoid_sv1","""event"",""trial"",""time""
""fullscreenenter"",""1"",""2157""
","
","
","""event"",""trial"",""time""
""fullscreenenter"",""1"",""2157""
","
","true","false","[]","[]","[]","","","","","","","",""
"audio-keyboard-response","5","19651","0.0-5.0","7719","approach_avoid_sv1","""event"",""trial"",""time""
""fullscreenenter"",""1"",""2157""
","
","
","""event"",""trial"",""time""
""fullscreenenter"",""1"",""2157""
","
","","","","","","2690.6666666666665","audio/beep_loop.wav"," ","","","","",""
"audio-button-response","6","21645","0.0-6.0","7719","approach_avoid_sv1","""event"",""trial"",""time""
""fullscreenenter"",""1"",""2157""
","
","
","""event"",""trial"",""time""
""fullscreenenter"",""1"",""2157""
","
","","","","","","1989","audio/turtle.wav","3","","","","",""
"audio-button-response","7","23725","0.0-7.0","7719","approach_avoid_sv1","""event"",""trial"",""time""
""fullscreenenter"",""1"",""2157""
","
","
","""event"",""trial"",""time""
""fullscreenenter"",""1"",""2157""
","
","","","","","","1059","audio/shark.wav","2","","","","",""
"preload","8","47965","0.0-8.0","7719","approach_avoid_sv1","""event"",""trial"",""time""
""fullscreenenter"",""1"",""2157""
","
","
","""event"",""trial"",""time""
""fullscreenenter"",""1"",""2157""
","
","true","false","[]","[]","[]","","","","","","","",""
"learning-instructions","9","53752","0.0-9.0-0.0","7719","approach_avoid_sv1","""event"",""trial"",""time""
""fullscreenenter"",""1"",""2157""
","
","
","""event"",""trial"",""time""
""fullscreenenter"",""1"",""2157""
","
","","","","","","1312.2000000029802","<p> Welcome back! </p><p> Last week, you had to make choices about lots of different items.  </p>","","0","instructions","","",""
"learning-instructions","10","59242","0.0-9.0-0.1","7719","approach_avoid_sv1","""event"",""trial"",""time""
""fullscreenenter"",""1"",""2157""
","
","
","""event"",""trial"",""time""
""fullscreenenter"",""1"",""2157""
","
","","","","","","1363.0999999940395","<p> Today, we are going to ask you to try to remember all the items. </p>","","0","instructions","","",""
"learning-instructions","11","70604","0.0-9.0-0.2","7719","approach_avoid_sv1","""event"",""trial"",""time""
""fullscreenenter"",""1"",""2157""
","
","
","""event"",""trial"",""time""
""fullscreenenter"",""1"",""2157""
","
","","","","","","1215.5","<p> On every trial, you will see an image. </p><p> The image may be an OLD image you saw during the games last week or it may be a NEW image that was not presented. </p>","","0","instructions","","",""
"learning-instructions","12","80650","0.0-9.0-0.3","7719","approach_avoid_sv1","""event"",""trial"",""time""
""fullscreenenter"",""1"",""2157""
","
","
","""event"",""trial"",""time""
""fullscreenenter"",""1"",""2157""
","
","","","","","","1530.5","<p> You need to select whether the image is:  </p><p>  'Definitely old', 'Maybe old', 'Maybe new', or 'Definitely new.'  </p><div class=""mem-choice-instructions-grid""><div class=""choice-option"" id=""choice-option-1"" ><img src=""images/definitely_old_1.png"" id=""choice-option-img-1"" class=""choice-option-img"" stage=""1""></div><div class=""choice-option"" id=""choice-option-2"" ><img src=""images/maybe_old_1.png"" id=""choice-option-img-2"" class=""choice-option-img"" stage=""1""></div><div class=""choice-option"" id=""choice-option-3"" ><img src=""images/maybe_new_1.png"" id=""choice-option-img-3"" class=""choice-option-img"" stage=""1""></div><div class=""choice-option"" id=""choice-option-4"" > <img src=""images/definitely_new_1.png"" id=""choice-option-img-4"" class=""choice-option-img"" stage=""1""></div></div>","","0","instructions","","",""
"learning-instructions","13","88987","0.0-9.0-0.4","7719","approach_avoid_sv1","""event"",""trial"",""time""
""fullscreenenter"",""1"",""2157""
","
","
","""event"",""trial"",""time""
""fullscreenenter"",""1"",""2157""
","
","","","","","","1806.1000000089407","<p> You should use the 1, 2, 3, and 4 keys to make your responses.  </p><div class=""mem-choice-instructions-grid""><div class=""choice-option"" id=""choice-option-1"" ><img src=""images/definitely_old.png"" id=""choice-option-img-1"" class=""choice-option-img"" stage=""1""></div><div class=""choice-option"" id=""choice-option-2"" ><img src=""images/maybe_old.png"" id=""choice-option-img-2"" class=""choice-option-img"" stage=""1""></div><div class=""choice-option"" id=""choice-option-3"" ><img src=""images/maybe_new.png"" id=""choice-option-img-3"" class=""choice-option-img"" stage=""1""></div><div class=""choice-option"" id=""choice-option-4"" > <img src=""images/definitely_new.png"" id=""choice-option-img-4"" class=""choice-option-img"" stage=""1""></div></div>","","0","instructions","","",""
"learning-instructions","14","96640","0.0-9.0-0.5","7719","approach_avoid_sv1","""event"",""trial"",""time""
""fullscreenenter"",""1"",""2157""
","
","
","""event"",""trial"",""time""
""fullscreenenter"",""1"",""2157""
","
","","","","","","1298.0999999940395","<p> You will have 10 seconds to make each response.  </p><p>  Make sure to respond before time runs out! </p>","","0","instructions","","",""
"learning-instructions","15","105415","0.0-9.0-0.6","7719","approach_avoid_sv1","""event"",""trial"",""time""
""fullscreenenter"",""1"",""2157""
","
","
","""event"",""trial"",""time""
""fullscreenenter"",""1"",""2157""
","
","","","","","","1682.1000000089407","<p> Today, you will see each image ONCE only.  </p><p>  That means none of the images will repeat. </p>","","0","instructions","","",""
"learning-instructions","16","119927","0.0-9.0-0.7","7719","approach_avoid_sv1","""event"",""trial"",""time""
""fullscreenenter"",""1"",""2157""
","
","
","""event"",""trial"",""time""
""fullscreenenter"",""1"",""2157""
","
","","","","","","1844.7999999970198","<p> Before you play the real game, it is time to practice. </p><p>  Just like in the real game, some of the images in the practice will be ones you have seen before. </p><p>  Others will be entirely new. </p>","","0","instructions","","",""
"html-button-response","17","122042","0.0-10.0","7719","approach_avoid_sv1","""event"",""trial"",""time""
""fullscreenenter"",""1"",""2157""
","
","
","""event"",""trial"",""time""
""fullscreenenter"",""1"",""2157""
","
","","","","","","2002.699999988079","<p> Ready to practice? </p><p> Remember, use the 1, 2, 3, and 4 keys to make your responses. </p>","0","","instructions","","",""
"html-keyboard-response","18","122670","0.0-11.0-0.0","7719","approach_avoid_sv1","""event"",""trial"",""time""
""fullscreenenter"",""1"",""2157""
","
","
","""event"",""trial"",""time""
""fullscreenenter"",""1"",""2157""
","
","","","","","","null","<div style=""font-size:60px;"">+</div>","null","","fixation","","",""
"memory-trial","19","125541","0.0-11.0-1.0","7719","approach_avoid_sv1","""event"",""trial"",""time""
""fullscreenenter"",""1"",""2157""
","
","
","""event"",""trial"",""time""
""fullscreenenter"",""1"",""2157""
","
","","","","","","1862.2000000029802","images/racket3.png","","","practice","3","maybe_new",""
"html-keyboard-response","20","126060","0.0-11.0-0.1","7719","approach_avoid_sv1","""event"",""trial"",""time""
""fullscreenenter"",""1"",""2157""
","
","
","""event"",""trial"",""time""
""fullscreenenter"",""1"",""2157""
","
","","","","","","null","<div style=""font-size:60px;"">+</div>","null","","fixation","","",""
"memory-trial","21","128170","0.0-11.0-1.1","7719","approach_avoid_sv1","""event"",""trial"",""time""
""fullscreenenter"",""1"",""2157""
","
","
","""event"",""trial"",""time""
""fullscreenenter"",""1"",""2157""
","
","","","","","","1087.199999988079","images/racket1.png","","","practice","2","maybe_old",""
"html-keyboard-response","22","128690","0.0-11.0-0.2","7719","approach_avoid_sv1","""event"",""trial"",""time""
""fullscreenenter"",""1"",""2157""
","
","
","""event"",""trial"",""time""
""fullscreenenter"",""1"",""2157""
","
","","","","","","null","<div style=""font-size:60px;"">+</div>","null","","fixation","","",""
"memory-trial","23","130800","0.0-11.0-1.2","7719","approach_avoid_sv1","""event"",""trial"",""time""
""fullscreenenter"",""1"",""2157""
","
","
","""event"",""trial"",""time""
""fullscreenenter"",""1"",""2157""
","
","","","","","","1100.2000000029802","images/ball1.png","","","practice","1","definitely_old",""
"html-keyboard-response","24","131320","0.0-11.0-0.3","7719","approach_avoid_sv1","""event"",""trial"",""time""
""fullscreenenter"",""1"",""2157""
","
","
","""event"",""trial"",""time""
""fullscreenenter"",""1"",""2157""
","
","","","","","","null","<div style=""font-size:60px;"">+</div>","null","","fixation","","",""
"memory-trial","25","135330","0.0-11.0-1.3","7719","approach_avoid_sv1","""event"",""trial"",""time""
""fullscreenenter"",""1"",""2157""
","
","
","""event"",""trial"",""time""
""fullscreenenter"",""1"",""2157""
","
","","","","","","3001","images/ball3.png","","","practice","4","definitely_new",""
"html-keyboard-response","26","135850","0.0-11.0-0.4","7719","approach_avoid_sv1","""event"",""trial"",""time""
""fullscreenenter"",""1"",""2157""
","
","
","""event"",""trial"",""time""
""fullscreenenter"",""1"",""2157""
","
","","","","","","null","<div style=""font-size:60px;"">+</div>","null","","fixation","","",""
"memory-trial","27","137720","0.0-11.0-1.4","7719","approach_avoid_sv1","""event"",""trial"",""time""
""fullscreenenter"",""1"",""2157""
","
","
","""event"",""trial"",""time""
""fullscreenenter"",""1"",""2157""
","
","","","","","","851.2000000029802","images/racket5.png","","","practice","3","maybe_new",""
"html-keyboard-response","28","138239","0.0-11.0-0.5","7719","approach_avoid_sv1","""event"",""trial"",""time""
""fullscreenenter"",""1"",""2157""
","
","
","""event"",""trial"",""time""
""fullscreenenter"",""1"",""2157""
","
","","","","","","null","<div style=""font-size:60px;"">+</div>","null","","fixation","","",""
"memory-trial","29","140040","0.0-11.0-1.5","7719","approach_avoid_sv1","""event"",""trial"",""time""
""fullscreenenter"",""1"",""2157""
","
","
","""event"",""trial"",""time""
""fullscreenenter"",""1"",""2157""
","
","","","","","","796.7000000029802","images/racket2.png","","","practice","4","definitely_new",""
"html-keyboard-response","30","140560","0.0-11.0-0.6","7719","approach_avoid_sv1","""event"",""trial"",""time""
""fullscreenenter"",""1"",""2157""
","
","
","""event"",""trial"",""time""
""fullscreenenter"",""1"",""2157""
","
","","","","","","null","<div style=""font-size:60px;"">+</div>","null","","fixation","","",""
"memory-trial","31","142790","0.0-11.0-1.6","7719","approach_avoid_sv1","""event"",""trial"",""time""
""fullscreenenter"",""1"",""2157""
","
","
","""event"",""trial"",""time""
""fullscreenenter"",""1"",""2157""
","
","","","","","","1222.5","images/ball5.png","","","practice","3","maybe_new",""
"html-keyboard-response","32","143310","0.0-11.0-0.7","7719","approach_avoid_sv1","""event"",""trial"",""time""
""fullscreenenter"",""1"",""2157""
","
","
","""event"",""trial"",""time""
""fullscreenenter"",""1"",""2157""
","
","","","","","","null","<div style=""font-size:60px;"">+</div>","null","","fixation","","",""
"memory-trial","33","144840","0.0-11.0-1.7","7719","approach_avoid_sv1","""event"",""trial"",""time""
""fullscreenenter"",""1"",""2157""
","
","
","""event"",""trial"",""time""
""fullscreenenter"",""1"",""2157""
","
","","","","","","522.1000000089407","images/ball2.png","","","practice","4","definitely_new",""
"learning-instructions","34","153768","0.0-12.0-0.0","7719","approach_avoid_sv1","""event"",""trial"",""time""
""fullscreenenter"",""1"",""2157""
","
","
","""event"",""trial"",""time""
""fullscreenenter"",""1"",""2157""
","
","","","","","","1615.5","<p> Great! You have completed the practice. </p><p> Before you start, we're going to ask you a few questions about how the game works.  </p>","","0","instructions","","",""
"preload","35","157154","0.0-13.0","7719","approach_avoid_sv1","""event"",""trial"",""time""
""fullscreenenter"",""1"",""2157""
","
","
","""event"",""trial"",""time""
""fullscreenenter"",""1"",""2157""
","
","true","false","[]","[]","[]","","","","","","","",""
"comp-q","36","163941","0.0-14.0-0.0","7719","approach_avoid_sv1","""event"",""trial"",""time""
""fullscreenenter"",""1"",""2157""
","
","
","""event"",""trial"",""time""
""fullscreenenter"",""1"",""2157""
","
","","","","","","955","<p> <b> True or False? </b> </p><p> In this game, you will only see each image once. </p>","","0","comp_question","","","true"
"comp-q","37","173908","0.0-14.0-1.0","7719","approach_avoid_sv1","""event"",""trial"",""time""
""fullscreenenter"",""1"",""2157""
","
","
","""event"",""trial"",""time""
""fullscreenenter"",""1"",""2157""
","
","","","","","","3612.7999999970198","<p> <b> That's right! </b> You will see many different images <i> one time each </i> in this game. </p>","","0","comp_answer","","",""
"comp-q","38","180421","0.0-15.0-0.0","7719","approach_avoid_sv1","""event"",""trial"",""time""
""fullscreenenter"",""1"",""2157""
","
","
","""event"",""trial"",""time""
""fullscreenenter"",""1"",""2157""
","
","","","","","","1496.5999999940395","<p> <b> True or False? </b> </p><p> You should use the mouse and click to make your response. </p>","","1","comp_question","","","true"
"comp-q","39","188229","0.0-15.0-1.0","7719","approach_avoid_sv1","""event"",""trial"",""time""
""fullscreenenter"",""1"",""2157""
","
","
","""event"",""trial"",""time""
""fullscreenenter"",""1"",""2157""
","
","","","","","","1294.2999999970198","<p><b> That's right! </b> You should use the '1', '2', '3', and '4' keys to make your response. </p>","","0","comp_answer","","",""
"comp-q","40","196036","0.0-16.0-0.0","7719","approach_avoid_sv1","""event"",""trial"",""time""
""fullscreenenter"",""1"",""2157""
","
","
","""event"",""trial"",""time""
""fullscreenenter"",""1"",""2157""
","
","","","","","","2131","<p> <b> True or False? </b> </p><p> You will have as much time as you want to make each choice. </p>","","1","comp_question","","","true"
"comp-q","41","202348","0.0-16.0-1.0","7719","approach_avoid_sv1","""event"",""trial"",""time""
""fullscreenenter"",""1"",""2157""
","
","
","""event"",""trial"",""time""
""fullscreenenter"",""1"",""2157""
","
","","","","","","1602.7000000029802","<p> <b> That's right! </b> You will only have 10 seconds to make each choice. </p>","","0","comp_answer","","",""
"learning-instructions","42","212225","0.0-17.0","7719","approach_avoid_sv1","""event"",""trial"",""time""
""fullscreenenter"",""1"",""2157""
","
","
","""event"",""trial"",""time""
""fullscreenenter"",""1"",""2157""
","
","","","","","","1200","<p> Great! You are now ready to begin the game. </p><p> Remember, use the 1, 2, 3, and 4 keys to make your responses. </p>","","0","instructions","","",""
"html-keyboard-response","43","212842","0.0-18.0-0.0","7719","approach_avoid_sv1","""event"",""trial"",""time""
""fullscreenenter"",""1"",""2157""
","
","
","""event"",""trial"",""time""
""fullscreenenter"",""1"",""2157""
","
","","","","","","null","<div style=""font-size:60px;"">+</div>","null","","fixation","","",""
"memory-trial","44","215682","0.0-18.0-1.0","7719","approach_avoid_sv1","""event"",""trial"",""time""
""fullscreenenter"",""1"",""2157""
","
","
","""event"",""trial"",""time""
""fullscreenenter"",""1"",""2157""
","
","","","","","","1819.8999999910593","images/banana8.png","","","memory_trial","3","maybe_new",""
"html-keyboard-response","45","216192","0.0-18.0-0.1","7719","approach_avoid_sv1","""event"",""trial"",""time""
""fullscreenenter"",""1"",""2157""
","
","
","""event"",""trial"",""time""
""fullscreenenter"",""1"",""2157""
","
","","","","","","null","<div style=""font-size:60px;"">+</div>","null","","fixation","","",""
"memory-trial","46","217822","0.0-18.0-1.1","7719","approach_avoid_sv1","""event"",""trial"",""time""
""fullscreenenter"",""1"",""2157""
","
","
","""event"",""trial"",""time""
""fullscreenenter"",""1"",""2157""
","
","","","","","","608","images/chair8.png","","","memory_trial","4","definitely_new",""
"html-keyboard-response","47","218332","0.0-18.0-0.2","7719","approach_avoid_sv1","""event"",""trial"",""time""
""fullscreenenter"",""1"",""2157""
","
","
","""event"",""trial"",""time""
""fullscreenenter"",""1"",""2157""
","
","","","","","","null","<div style=""font-size:60px;"">+</div>","null","","fixation","","",""
"memory-trial","48","220918","0.0-18.0-1.2","7719","approach_avoid_sv1","""event"",""trial"",""time""
""fullscreenenter"",""1"",""2157""
","
","
","""event"",""trial"",""time""
""fullscreenenter"",""1"",""2157""
","
","","","","","","1575.9000000059605","images/cat1.png","","","memory_trial","4","definitely_new",""
"html-keyboard-response","49","221433","0.0-18.0-0.3","7719","approach_avoid_sv1","""event"",""trial"",""time""
""fullscreenenter"",""1"",""2157""
","
","
","""event"",""trial"",""time""
""fullscreenenter"",""1"",""2157""
","
","","","","","","null","<div style=""font-size:60px;"">+</div>","null","","fixation","","",""
"memory-trial","50","223647","0.0-18.0-1.3","7719","approach_avoid_sv1","""event"",""trial"",""time""
""fullscreenenter"",""1"",""2157""
","
","
","""event"",""trial"",""time""
""fullscreenenter"",""1"",""2157""
","
","","","","","","1207.5","images/cow6.png","","","memory_trial","2","maybe_old",""
"html-keyboard-response","51","224148","0.0-18.0-0.4","7719","approach_avoid_sv1","""event"",""trial"",""time""
""fullscreenenter"",""1"",""2157""
","
","
","""event"",""trial"",""time""
""fullscreenenter"",""1"",""2157""
","
","","","","","","null","<div style=""font-size:60px;"">+</div>","null","","fixation","","",""
"memory-trial","52","226622","0.0-18.0-1.4","7719","approach_avoid_sv1","""event"",""trial"",""time""
""fullscreenenter"",""1"",""2157""
","
","
","""event"",""trial"",""time""
""fullscreenenter"",""1"",""2157""
","
","","","","","","1454","images/flower4.png","","","memory_trial","4","definitely_new",""
"html-keyboard-response","53","227142","0.0-18.0-0.5","7719","approach_avoid_sv1","""event"",""trial"",""time""
""fullscreenenter"",""1"",""2157""
","
","
","""event"",""trial"",""time""
""fullscreenenter"",""1"",""2157""
","
","","","","","","null","<div style=""font-size:60px;"">+</div>","null","","fixation","","",""
"memory-trial","54","228932","0.0-18.0-1.5","7719","approach_avoid_sv1","""event"",""trial"",""time""
""fullscreenenter"",""1"",""2157""
","
","
","""event"",""trial"",""time""
""fullscreenenter"",""1"",""2157""
","
","","","","","","767.5999999940395","images/bed8.png","","","memory_trial","4","definitely_new",""
"html-keyboard-response","55","229452","0.0-18.0-0.6","7719","approach_avoid_sv1","""event"",""trial"",""time""
""fullscreenenter"",""1"",""2157""
","
","
","""event"",""trial"",""time""
""fullscreenenter"",""1"",""2157""
","
","","","","","","null","<div style=""font-size:60px;"">+</div>","null","","fixation","","",""
"memory-trial","56","231867","0.0-18.0-1.6","7719","approach_avoid_sv1","""event"",""trial"",""time""
""fullscreenenter"",""1"",""2157""
","
","
","""event"",""trial"",""time""
""fullscreenenter"",""1"",""2157""
","
","","","","","","1400.7999999970198","images/bush3.png","","","memory_trial","2","maybe_old",""
"html-keyboard-response","57","232377","0.0-18.0-0.7","7719","approach_avoid_sv1","""event"",""trial"",""time""
""fullscreenenter"",""1"",""2157""
","
","
","""event"",""trial"",""time""
""fullscreenenter"",""1"",""2157""
","
","","","","","","null","<div style=""font-size:60px;"">+</div>","null","","fixation","","",""
"memory-trial","58","234622","0.0-18.0-1.7","7719","approach_avoid_sv1","""event"",""trial"",""time""
""fullscreenenter"",""1"",""2157""
","
","
","""event"",""trial"",""time""
""fullscreenenter"",""1"",""2157""
","
","","","","","","1227","images/orange8.png","","","memory_trial","2","maybe_old",""
"html-keyboard-response","59","235132","0.0-18.0-0.8","7719","approach_avoid_sv1","""event"",""trial"",""time""
""fullscreenenter"",""1"",""2157""
","
","
","""event"",""trial"",""time""
""fullscreenenter"",""1"",""2157""
","
","","","","","","null","<div style=""font-size:60px;"">+</div>","null","","fixation","","",""
"memory-trial","60","237472","0.0-18.0-1.8","7719","approach_avoid_sv1","""event"",""trial"",""time""
""fullscreenenter"",""1"",""2157""
","
","
","""event"",""trial"",""time""
""fullscreenenter"",""1"",""2157""
","
","","","","","","1323.5","images/train5.png","","","memory_trial","1","definitely_old",""
"html-keyboard-response","61","237982","0.0-18.0-0.9","7719","approach_avoid_sv1","""event"",""trial"",""time""
""fullscreenenter"",""1"",""2157""
","
","
","""event"",""trial"",""time""
""fullscreenenter"",""1"",""2157""
","
","","","","","","null","<div style=""font-size:60px;"">+</div>","null","","fixation","","",""
"memory-trial","62","239942","0.0-18.0-1.9","7719","approach_avoid_sv1","""event"",""trial"",""time""
""fullscreenenter"",""1"",""2157""
","
","
","""event"",""trial"",""time""
""fullscreenenter"",""1"",""2157""
","
","","","","","","950.0999999940395","images/cow8.png","","","memory_trial","1","definitely_old",""
"html-keyboard-response","63","240461","0.0-18.0-0.10","7719","approach_avoid_sv1","""event"",""trial"",""time""
""fullscreenenter"",""1"",""2157""
","
","
","""event"",""trial"",""time""
""fullscreenenter"",""1"",""2157""
","
","","","","","","null","<div style=""font-size:60px;"">+</div>","null","","fixation","","",""
"memory-trial","64","242325","0.0-18.0-1.10","7719","approach_avoid_sv1","""event"",""trial"",""time""
""fullscreenenter"",""1"",""2157""
","
","
","""event"",""trial"",""time""
""fullscreenenter"",""1"",""2157""
","
","","","","","","848.2999999970198","images/cat3.png","","","memory_trial","1","definitely_old",""
"html-keyboard-response","65","242829","0.0-18.0-0.11","7719","approach_avoid_sv1","""event"",""trial"",""time""
""fullscreenenter"",""1"",""2157""
","
","
","""event"",""trial"",""time""
""fullscreenenter"",""1"",""2157""
","
","","","","","","null","<div style=""font-size:60px;"">+</div>","null","","fixation","","",""
"memory-trial","66","244985","0.0-18.0-1.11","7719","approach_avoid_sv1","""event"",""trial"",""time""
""fullscreenenter"",""1"",""2157""
","
","
","""event"",""trial"",""time""
""fullscreenenter"",""1"",""2157""
","
","","","","","","1144.3999999910593","images/orange5.png","","","memory_trial","2","maybe_old",""
"html-keyboard-response","67","245499","0.0-18.0-0.12","7719","approach_avoid_sv1","""event"",""trial"",""time""
""fullscreenenter"",""1"",""2157""
","
","
","""event"",""trial"",""time""
""fullscreenenter"",""1"",""2157""
","
","","","","","","null","<div style=""font-size:60px;"">+</div>","null","","fixation","","",""
"memory-trial","68","247449","0.0-18.0-1.12","7719","approach_avoid_sv1","""event"",""trial"",""time""
""fullscreenenter"",""1"",""2157""
","
","
","""event"",""trial"",""time""
""fullscreenenter"",""1"",""2157""
","
","","","","","","932.2999999970198","images/chair6.png","","","memory_trial","4","definitely_new",""
"html-keyboard-response","69","247952","0.0-18.0-0.13","7719","approach_avoid_sv1","""event"",""trial"",""time""
""fullscreenenter"",""1"",""2157""
","
","
","""event"",""trial"",""time""
""fullscreenenter"",""1"",""2157""
","
","","","","","","null","<div style=""font-size:60px;"">+</div>","null","","fixation","","",""
"memory-trial","70","249718","0.0-18.0-1.13","7719","approach_avoid_sv1","""event"",""trial"",""time""
""fullscreenenter"",""1"",""2157""
","
","
","""event"",""trial"",""time""
""fullscreenenter"",""1"",""2157""
","
","","","","","","754.4000000059605","images/flower7.png","","","memory_trial","4","definitely_new",""
"html-keyboard-response","71","250224","0.0-18.0-0.14","7719","approach_avoid_sv1","""event"",""trial"",""time""
""fullscreenenter"",""1"",""2157""
","
","
","""event"",""trial"",""time""
""fullscreenenter"",""1"",""2157""
","
","","","","","","null","<div style=""font-size:60px;"">+</div>","null","","fixation","","",""
"memory-trial","72","252534","0.0-18.0-1.14","7719","approach_avoid_sv1","""event"",""trial"",""time""
""fullscreenenter"",""1"",""2157""
","
","
","""event"",""trial"",""time""
""fullscreenenter"",""1"",""2157""
","
","","","","","","1305.5999999940395","images/cat4.png","","","memory_trial","3","maybe_new",""
"html-keyboard-response","73","253039","0.0-18.0-0.15","7719","approach_avoid_sv1","""event"",""trial"",""time""
""fullscreenenter"",""1"",""2157""
","
","
","""event"",""trial"",""time""
""fullscreenenter"",""1"",""2157""
","
","","","","","","null","<div style=""font-size:60px;"">+</div>","null","","fixation","","",""
"memory-trial","74","254679","0.0-18.0-1.15","7719","approach_avoid_sv1","""event"",""trial"",""time""
""fullscreenenter"",""1"",""2157""
","
","
","""event"",""trial"",""time""
""fullscreenenter"",""1"",""2157""
","
","","","","","","623.7000000029802","images/table2.png","","","memory_trial","4","definitely_new",""
"html-keyboard-response","75","255190","0.0-18.0-0.16","7719","approach_avoid_sv1","""event"",""trial"",""time""
""fullscreenenter"",""1"",""2157""
","
","
","""event"",""trial"",""time""
""fullscreenenter"",""1"",""2157""
","
","","","","","","null","<div style=""font-size:60px;"">+</div>","null","","fixation","","",""
"memory-trial","76","256792","0.0-18.0-1.16","7719","approach_avoid_sv1","""event"",""trial"",""time""
""fullscreenenter"",""1"",""2157""
","
","
","""event"",""trial"",""time""
""fullscreenenter"",""1"",""2157""
","
","","","","","","591.6000000089407","images/sofa8.png","","","memory_trial","4","definitely_new",""
"html-keyboard-response","77","257306","0.0-18.0-0.17","7719","approach_avoid_sv1","""event"",""trial"",""time""
""fullscreenenter"",""1"",""2157""
","
","
","""event"",""trial"",""time""
""fullscreenenter"",""1"",""2157""
","
","","","","","","null","<div style=""font-size:60px;"">+</div>","null","","fixation","","",""
"memory-trial","78","258944","0.0-18.0-1.17","7719","approach_avoid_sv1","""event"",""trial"",""time""
""fullscreenenter"",""1"",""2157""
","
","
","""event"",""trial"",""time""
""fullscreenenter"",""1"",""2157""
","
","","","","","","629.2000000029802","images/sofa1.png","","","memory_trial","4","definitely_new",""
"html-keyboard-response","79","259459","0.0-18.0-0.18","7719","approach_avoid_sv1","""event"",""trial"",""time""
""fullscreenenter"",""1"",""2157""
","
","
","""event"",""trial"",""time""
""fullscreenenter"",""1"",""2157""
","
","","","","","","null","<div style=""font-size:60px;"">+</div>","null","","fixation","","",""
"memory-trial","80","261329","0.0-18.0-1.18","7719","approach_avoid_sv1","""event"",""trial"",""time""
""fullscreenenter"",""1"",""2157""
","
","
","""event"",""trial"",""time""
""fullscreenenter"",""1"",""2157""
","
","","","","","","861.1000000089407","images/tree8.png","","","memory_trial","3","maybe_new",""
"html-keyboard-response","81","261839","0.0-18.0-0.19","7719","approach_avoid_sv1","""event"",""trial"",""time""
""fullscreenenter"",""1"",""2157""
","
","
","""event"",""trial"",""time""
""fullscreenenter"",""1"",""2157""
","
","","","","","","null","<div style=""font-size:60px;"">+</div>","null","","fixation","","",""
"memory-trial","82","263609","0.0-18.0-1.19","7719","approach_avoid_sv1","""event"",""trial"",""time""
""fullscreenenter"",""1"",""2157""
","
","
","""event"",""trial"",""time""
""fullscreenenter"",""1"",""2157""
","
","","","","","","760.3999999910593","images/flower6.png","","","memory_trial","4","definitely_new",""
"html-keyboard-response","83","264113","0.0-18.0-0.20","7719","approach_avoid_sv1","""event"",""trial"",""time""
""fullscreenenter"",""1"",""2157""
","
","
","""event"",""trial"",""time""
""fullscreenenter"",""1"",""2157""
","
","","","","","","null","<div style=""font-size:60px;"">+</div>","null","","fixation","","",""
"memory-trial","84","266539","0.0-18.0-1.20","7719","approach_avoid_sv1","""event"",""trial"",""time""
""fullscreenenter"",""1"",""2157""
","
","
","""event"",""trial"",""time""
""fullscreenenter"",""1"",""2157""
","
","","","","","","1415.9000000059605","images/goat1.png","","","memory_trial","1","definitely_old",""
"html-keyboard-response","85","267041","0.0-18.0-0.21","7719","approach_avoid_sv1","""event"",""trial"",""time""
""fullscreenenter"",""1"",""2157""
","
","
","""event"",""trial"",""time""
""fullscreenenter"",""1"",""2157""
","
","","","","","","null","<div style=""font-size:60px;"">+</div>","null","","fixation","","",""
"memory-trial","86","269163","0.0-18.0-1.21","7719","approach_avoid_sv1","""event"",""trial"",""time""
""fullscreenenter"",""1"",""2157""
","
","
","""event"",""trial"",""time""
""fullscreenenter"",""1"",""2157""
","
","","","","","","1112.2999999970198","images/cactus2.png","","","memory_trial","2","maybe_old",""
"html-keyboard-response","87","269665","0.0-18.0-0.22","7719","approach_avoid_sv1","""event"",""trial"",""time""
""fullscreenenter"",""1"",""2157""
","
","
","""event"",""trial"",""time""
""fullscreenenter"",""1"",""2157""
","
","","","","","","null","<div style=""font-size:60px;"">+</div>","null","","fixation","","",""
"memory-trial","88","271664","0.0-18.0-1.22","7719","approach_avoid_sv1","""event"",""trial"",""time""
""fullscreenenter"",""1"",""2157""
","
","
","""event"",""trial"",""time""
""fullscreenenter"",""1"",""2157""
","
","","","","","","994.5999999940395","images/goat5.png","","","memory_trial","2","maybe_old",""
"html-keyboard-response","89","272167","0.0-18.0-0.23","7719","approach_avoid_sv1","""event"",""trial"",""time""
""fullscreenenter"",""1"",""2157""
","
","
","""event"",""trial"",""time""
""fullscreenenter"",""1"",""2157""
","
","","","","","","null","<div style=""font-size:60px;"">+</div>","null","","fixation","","",""
"memory-trial","90","274263","0.0-18.0-1.23","7719","approach_avoid_sv1","""event"",""trial"",""time""
""fullscreenenter"",""1"",""2157""
","
","
","""event"",""trial"",""time""
""fullscreenenter"",""1"",""2157""
","
","","","","","","1090.1000000089407","images/bed5.png","","","memory_trial","2","maybe_old",""
"html-keyboard-response","91","274774","0.0-18.0-0.24","7719","approach_avoid_sv1","""event"",""trial"",""time""
""fullscreenenter"",""1"",""2157""
","
","
","""event"",""trial"",""time""
""fullscreenenter"",""1"",""2157""
","
","","","","","","null","<div style=""font-size:60px;"">+</div>","null","","fixation","","",""
"memory-trial","92","276838","0.0-18.0-1.24","7719","approach_avoid_sv1","""event"",""trial"",""time""
""fullscreenenter"",""1"",""2157""
","
","
","""event"",""trial"",""time""
""fullscreenenter"",""1"",""2157""
","
","","","","","","1044.5","images/truck7.png","","","memory_trial","1","definitely_old",""
"html-keyboard-response","93","277343","0.0-18.0-0.25","7719","approach_avoid_sv1","""event"",""trial"",""time""
""fullscreenenter"",""1"",""2157""
","
","
","""event"",""trial"",""time""
""fullscreenenter"",""1"",""2157""
","
","","","","","","null","<div style=""font-size:60px;"">+</div>","null","","fixation","","",""
"memory-trial","94","279232","0.0-18.0-1.25","7719","approach_avoid_sv1","""event"",""trial"",""time""
""fullscreenenter"",""1"",""2157""
","
","
","""event"",""trial"",""time""
""fullscreenenter"",""1"",""2157""
","
","","","","","","881.4000000059605","images/boat3.png","","","memory_trial","4","definitely_new",""
"html-keyboard-response","95","279743","0.0-18.0-0.26","7719","approach_avoid_sv1","""event"",""trial"",""time""
""fullscreenenter"",""1"",""2157""
","
","
","""event"",""trial"",""time""
""fullscreenenter"",""1"",""2157""
","
","","","","","","null","<div style=""font-size:60px;"">+</div>","null","","fixation","","",""
"memory-trial","96","281298","0.0-18.0-1.26","7719","approach_avoid_sv1","""event"",""trial"",""time""
""fullscreenenter"",""1"",""2157""
","
","
","""event"",""trial"",""time""
""fullscreenenter"",""1"",""2157""
","
","","","","","","550","images/straw6.png","","","memory_trial","4","definitely_new",""
"html-keyboard-response","97","281813","0.0-18.0-0.27","7719","approach_avoid_sv1","""event"",""trial"",""time""
""fullscreenenter"",""1"",""2157""
","
","
","""event"",""trial"",""time""
""fullscreenenter"",""1"",""2157""
","
","","","","","","null","<div style=""font-size:60px;"">+</div>","null","","fixation","","",""
"memory-trial","98","283656","0.0-18.0-1.27","7719","approach_avoid_sv1","""event"",""trial"",""time""
""fullscreenenter"",""1"",""2157""
","
","
","""event"",""trial"",""time""
""fullscreenenter"",""1"",""2157""
","
","","","","","","830.8000000119209","images/cow3.png","","","memory_trial","2","maybe_old",""
"html-keyboard-response","99","284161","0.0-18.0-0.28","7719","approach_avoid_sv1","""event"",""trial"",""time""
""fullscreenenter"",""1"",""2157""
","
","
","""event"",""trial"",""time""
""fullscreenenter"",""1"",""2157""
","
","","","","","","null","<div style=""font-size:60px;"">+</div>","null","","fixation","","",""
"memory-trial","100","286146","0.0-18.0-1.28","7719","approach_avoid_sv1","""event"",""trial"",""time""
""fullscreenenter"",""1"",""2157""
","
","
","""event"",""trial"",""time""
""fullscreenenter"",""1"",""2157""
","
","","","","","","979.8999999910593","images/chair5.png","","","memory_trial","4","definitely_new",""
"html-keyboard-response","101","286651","0.0-18.0-0.29","7719","approach_avoid_sv1","""event"",""trial"",""time""
""fullscreenenter"",""1"",""2157""
","
","
","""event"",""trial"",""time""
""fullscreenenter"",""1"",""2157""
","
","","","","","","null","<div style=""font-size:60px;"">+</div>","null","","fixation","","",""
"memory-trial","102","288417","0.0-18.0-1.29","7719","approach_avoid_sv1","""event"",""trial"",""time""
""fullscreenenter"",""1"",""2157""
","
","
","""event"",""trial"",""time""
""fullscreenenter"",""1"",""2157""
","
","","","","","","754.2999999970198","images/bed6.png","","","memory_trial","4","definitely_new",""
"html-keyboard-response","103","288924","0.0-18.0-0.30","7719","approach_avoid_sv1","""event"",""trial"",""time""
""fullscreenenter"",""1"",""2157""
","
","
","""event"",""trial"",""time""
""fullscreenenter"",""1"",""2157""
","
","","","","","","null","<div style=""font-size:60px;"">+</div>","null","","fixation","","",""
"memory-trial","104","290581","0.0-18.0-1.30","7719","approach_avoid_sv1","""event"",""trial"",""time""
""fullscreenenter"",""1"",""2157""
","
","
","""event"",""trial"",""time""
""fullscreenenter"",""1"",""2157""
","
","","","","","","641.7999999970198","images/table3.png","","","memory_trial","4","definitely_new",""
"html-keyboard-response","105","291086","0.0-18.0-0.31","7719","approach_avoid_sv1","""event"",""trial"",""time""
""fullscreenenter"",""1"",""2157""
","
","
","""event"",""trial"",""time""
""fullscreenenter"",""1"",""2157""
","
","","","","","","null","<div style=""font-size:60px;"">+</div>","null","","fixation","","",""
"memory-trial","106","292821","0.0-18.0-1.31","7719","approach_avoid_sv1","""event"",""trial"",""time""
""fullscreenenter"",""1"",""2157""
","
","
","""event"",""trial"",""time""
""fullscreenenter"",""1"",""2157""
","
","","","","","","717.8999999910593","images/tree5.png","","","memory_trial","4","definitely_new",""
"html-keyboard-response","107","293323","0.0-18.0-0.32","7719","approach_avoid_sv1","""event"",""trial"",""time""
""fullscreenenter"",""1"",""2157""
","
","
","""event"",""trial"",""time""
""fullscreenenter"",""1"",""2157""
","
","","","","","","null","<div style=""font-size:60px;"">+</div>","null","","fixation","","",""
"memory-trial","108","295216","0.0-18.0-1.32","7719","approach_avoid_sv1","""event"",""trial"",""time""
""fullscreenenter"",""1"",""2157""
","
","
","""event"",""trial"",""time""
""fullscreenenter"",""1"",""2157""
","
","","","","","","877","images/cactus5.png","","","memory_trial","2","maybe_old",""
"html-keyboard-response","109","295724","0.0-18.0-0.33","7719","approach_avoid_sv1","""event"",""trial"",""time""
""fullscreenenter"",""1"",""2157""
","
","
","""event"",""trial"",""time""
""fullscreenenter"",""1"",""2157""
","
","","","","","","null","<div style=""font-size:60px;"">+</div>","null","","fixation","","",""
"memory-trial","110","297297","0.0-18.0-1.33","7719","approach_avoid_sv1","""event"",""trial"",""time""
""fullscreenenter"",""1"",""2157""
","
","
","""event"",""trial"",""time""
""fullscreenenter"",""1"",""2157""
","
","","","","","","565.5","images/banana6.png","","","memory_trial","4","definitely_new",""
"html-keyboard-response","111","297807","0.0-18.0-0.34","7719","approach_avoid_sv1","""event"",""trial"",""time""
""fullscreenenter"",""1"",""2157""
","
","
","""event"",""trial"",""time""
""fullscreenenter"",""1"",""2157""
","
","","","","","","null","<div style=""font-size:60px;"">+</div>","null","","fixation","","",""
"memory-trial","112","299618","0.0-18.0-1.34","7719","approach_avoid_sv1","""event"",""trial"",""time""
""fullscreenenter"",""1"",""2157""
","
","
","""event"",""trial"",""time""
""fullscreenenter"",""1"",""2157""
","
","","","","","","806.2000000029802","images/straw2.png","","","memory_trial","4","definitely_new",""
"html-keyboard-response","113","300126","0.0-18.0-0.35","7719","approach_avoid_sv1","""event"",""trial"",""time""
""fullscreenenter"",""1"",""2157""
","
","
","""event"",""trial"",""time""
""fullscreenenter"",""1"",""2157""
","
","","","","","","null","<div style=""font-size:60px;"">+</div>","null","","fixation","","",""
"memory-trial","114","301554","0.0-18.0-1.35","7719","approach_avoid_sv1","""event"",""trial"",""time""
""fullscreenenter"",""1"",""2157""
","
","
","""event"",""trial"",""time""
""fullscreenenter"",""1"",""2157""
","
","","","","","","421.59999999403954","images/apple5.png","","","memory_trial","4","definitely_new",""
"html-keyboard-response","115","302062","0.0-18.0-0.36","7719","approach_avoid_sv1","""event"",""trial"",""time""
""fullscreenenter"",""1"",""2157""
","
","
","""event"",""trial"",""time""
""fullscreenenter"",""1"",""2157""
","
","","","","","","null","<div style=""font-size:60px;"">+</div>","null","","fixation","","",""
"memory-trial","116","303927","0.0-18.0-1.36","7719","approach_avoid_sv1","""event"",""trial"",""time""
""fullscreenenter"",""1"",""2157""
","
","
","""event"",""trial"",""time""
""fullscreenenter"",""1"",""2157""
","
","","","","","","853.7999999970198","images/truck8.png","","","memory_trial","4","definitely_new",""
"html-keyboard-response","117","304435","0.0-18.0-0.37","7719","approach_avoid_sv1","""event"",""trial"",""time""
""fullscreenenter"",""1"",""2157""
","
","
","""event"",""trial"",""time""
""fullscreenenter"",""1"",""2157""
","
","","","","","","null","<div style=""font-size:60px;"">+</div>","null","","fixation","","",""
"memory-trial","118","306513","0.0-18.0-1.37","7719","approach_avoid_sv1","""event"",""trial"",""time""
""fullscreenenter"",""1"",""2157""
","
","
","""event"",""trial"",""time""
""fullscreenenter"",""1"",""2157""
","
","","","","","","1067","images/goat4.png","","","memory_trial","2","maybe_old",""
"html-keyboard-response","119","307022","0.0-18.0-0.38","7719","approach_avoid_sv1","""event"",""trial"",""time""
""fullscreenenter"",""1"",""2157""
","
","
","""event"",""trial"",""time""
""fullscreenenter"",""1"",""2157""
","
","","","","","","null","<div style=""font-size:60px;"">+</div>","null","","fixation","","",""
"memory-trial","120","308620","0.0-18.0-1.38","7719","approach_avoid_sv1","""event"",""trial"",""time""
""fullscreenenter"",""1"",""2157""
","
","
","""event"",""trial"",""time""
""fullscreenenter"",""1"",""2157""
","
","","","","","","592.7000000029802","images/rodent7.png","","","memory_trial","2","maybe_old",""
"html-keyboard-response","121","309124","0.0-18.0-0.39","7719","approach_avoid_sv1","""event"",""trial"",""time""
""fullscreenenter"",""1"",""2157""
","
","
","""event"",""trial"",""time""
""fullscreenenter"",""1"",""2157""
","
","","","","","","null","<div style=""font-size:60px;"">+</div>","null","","fixation","","",""
"memory-trial","122","310619","0.0-18.0-1.39","7719","approach_avoid_sv1","""event"",""trial"",""time""
""fullscreenenter"",""1"",""2157""
","
","
","""event"",""trial"",""time""
""fullscreenenter"",""1"",""2157""
","
","","","","","","483.20000000298023","images/sheep6.png","","","memory_trial","1","definitely_old",""
"html-keyboard-response","123","311126","0.0-18.0-0.40","7719","approach_avoid_sv1","""event"",""trial"",""time""
""fullscreenenter"",""1"",""2157""
","
","
","""event"",""trial"",""time""
""fullscreenenter"",""1"",""2157""
","
","","","","","","null","<div style=""font-size:60px;"">+</div>","null","","fixation","","",""
"memory-trial","124","312776","0.0-18.0-1.40","7719","approach_avoid_sv1","""event"",""trial"",""time""
""fullscreenenter"",""1"",""2157""
","
","
","""event"",""trial"",""time""
""fullscreenenter"",""1"",""2157""
","
","","","","","","633.5","images/sheep7.png","","","memory_trial","1","definitely_old",""
"html-keyboard-response","125","313293","0.0-18.0-0.41","7719","approach_avoid_sv1","""event"",""trial"",""time""
""fullscreenenter"",""1"",""2157""
","
","
","""event"",""trial"",""time""
""fullscreenenter"",""1"",""2157""
","
","","","","","","null","<div style=""font-size:60px;"">+</div>","null","","fixation","","",""
"memory-trial","126","314901","0.0-18.0-1.41","7719","approach_avoid_sv1","""event"",""trial"",""time""
""fullscreenenter"",""1"",""2157""
","
","
","""event"",""trial"",""time""
""fullscreenenter"",""1"",""2157""
","
","","","","","","598.1999999880791","images/plane4.png","","","memory_trial","4","definitely_new",""
"html-button-response","127","317145","0.0-18.0-2.41-0.41","7719","approach_avoid_sv1","""event"",""trial"",""time""
""fullscreenenter"",""1"",""2157""
","
","
","""event"",""trial"",""time""
""fullscreenenter"",""1"",""2157""
","
","","","","","","2241.5999999940395","<p> Take a break! </p><p> Click the button to continue. </p>","0","","break","","",""
"html-keyboard-response","128","317656","0.0-18.0-0.42","7719","approach_avoid_sv1","""event"",""trial"",""time""
""fullscreenenter"",""1"",""2157""
","
","
","""event"",""trial"",""time""
""fullscreenenter"",""1"",""2157""
","
","","","","","","null","<div style=""font-size:60px;"">+</div>","null","","fixation","","",""
"memory-trial","129","320573","0.0-18.0-1.42","7719","approach_avoid_sv1","""event"",""trial"",""time""
""fullscreenenter"",""1"",""2157""
","
","
","""event"",""trial"",""time""
""fullscreenenter"",""1"",""2157""
","
","","","","","","1910.1000000089407","images/table7.png","","","memory_trial","2","maybe_old",""
"html-keyboard-response","130","321078","0.0-18.0-0.43","7719","approach_avoid_sv1","""event"",""trial"",""time""
""fullscreenenter"",""1"",""2157""
","
","
","""event"",""trial"",""time""
""fullscreenenter"",""1"",""2157""
","
","","","","","","null","<div style=""font-size:60px;"">+</div>","null","","fixation","","",""
"memory-trial","131","323719","0.0-18.0-1.43","7719","approach_avoid_sv1","""event"",""trial"",""time""
""fullscreenenter"",""1"",""2157""
","
","
","""event"",""trial"",""time""
""fullscreenenter"",""1"",""2157""
","
","","","","","","1633.3999999910593","images/rodent8.png","","","memory_trial","4","definitely_new",""
"html-keyboard-response","132","324229","0.0-18.0-0.44","7719","approach_avoid_sv1","""event"",""trial"",""time""
""fullscreenenter"",""1"",""2157""
","
","
","""event"",""trial"",""time""
""fullscreenenter"",""1"",""2157""
","
","","","","","","null","<div style=""font-size:60px;"">+</div>","null","","fixation","","",""
"memory-trial","133","325904","0.0-18.0-1.44","7719","approach_avoid_sv1","""event"",""trial"",""time""
""fullscreenenter"",""1"",""2157""
","
","
","""event"",""trial"",""time""
""fullscreenenter"",""1"",""2157""
","
","","","","","","664.7999999970198","images/chair3.png","","","memory_trial","4","definitely_new",""
"html-keyboard-response","134","326406","0.0-18.0-0.45","7719","approach_avoid_sv1","""event"",""trial"",""time""
""fullscreenenter"",""1"",""2157""
","
","
","""event"",""trial"",""time""
""fullscreenenter"",""1"",""2157""
","
","","","","","","null","<div style=""font-size:60px;"">+</div>","null","","fixation","","",""
"memory-trial","135","328461","0.0-18.0-1.45","7719","approach_avoid_sv1","""event"",""trial"",""time""
""fullscreenenter"",""1"",""2157""
","
","
","""event"",""trial"",""time""
""fullscreenenter"",""1"",""2157""
","
","","","","","","1050.7000000029802","images/truck3.png","","","memory_trial","4","definitely_new",""
"html-keyboard-response","136","328966","0.0-18.0-0.46","7719","approach_avoid_sv1","""event"",""trial"",""time""
""fullscreenenter"",""1"",""2157""
","
","
","""event"",""trial"",""time""
""fullscreenenter"",""1"",""2157""
","
","","","","","","null","<div style=""font-size:60px;"">+</div>","null","","fixation","","",""
"memory-trial","137","330386","0.0-18.0-1.46","7719","approach_avoid_sv1","""event"",""trial"",""time""
""fullscreenenter"",""1"",""2157""
","
","
","""event"",""trial"",""time""
""fullscreenenter"",""1"",""2157""
","
","","","","","","414.1000000089407","images/flower5.png","","","memory_trial","3","maybe_new",""
"html-keyboard-response","138","330893","0.0-18.0-0.47","7719","approach_avoid_sv1","""event"",""trial"",""time""
""fullscreenenter"",""1"",""2157""
","
","
","""event"",""trial"",""time""
""fullscreenenter"",""1"",""2157""
","
","","","","","","null","<div style=""font-size:60px;"">+</div>","null","","fixation","","",""
"memory-trial","139","333066","0.0-18.0-1.47","7719","approach_avoid_sv1","""event"",""trial"",""time""
""fullscreenenter"",""1"",""2157""
","
","
","""event"",""trial"",""time""
""fullscreenenter"",""1"",""2157""
","
","","","","","","1167","images/sheep3.png","","","memory_trial","1","definitely_old",""
"html-keyboard-response","140","333580","0.0-18.0-0.48","7719","approach_avoid_sv1","""event"",""trial"",""time""
""fullscreenenter"",""1"",""2157""
","
","
","""event"",""trial"",""time""
""fullscreenenter"",""1"",""2157""
","
","","","","","","null","<div style=""font-size:60px;"">+</div>","null","","fixation","","",""
"memory-trial","141","335617","0.0-18.0-1.48","7719","approach_avoid_sv1","""event"",""trial"",""time""
""fullscreenenter"",""1"",""2157""
","
","
","""event"",""trial"",""time""
""fullscreenenter"",""1"",""2157""
","
","","","","","","1021.8999999910593","images/boat2.png","","","memory_trial","3","maybe_new",""
"html-keyboard-response","142","336126","0.0-18.0-0.49","7719","approach_avoid_sv1","""event"",""trial"",""time""
""fullscreenenter"",""1"",""2157""
","
","
","""event"",""trial"",""time""
""fullscreenenter"",""1"",""2157""
","
","","","","","","null","<div style=""font-size:60px;"">+</div>","null","","fixation","","",""
"memory-trial","143","338003","0.0-18.0-1.49","7719","approach_avoid_sv1","""event"",""trial"",""time""
""fullscreenenter"",""1"",""2157""
","
","
","""event"",""trial"",""time""
""fullscreenenter"",""1"",""2157""
","
","","","","","","859.1000000089407","images/rabbit5.png","","","memory_trial","2","maybe_old",""
"html-keyboard-response","144","338508","0.0-18.0-0.50","7719","approach_avoid_sv1","""event"",""trial"",""time""
""fullscreenenter"",""1"",""2157""
","
","
","""event"",""trial"",""time""
""fullscreenenter"",""1"",""2157""
","
","","","","","","null","<div style=""font-size:60px;"">+</div>","null","","fixation","","",""
"memory-trial","145","340776","0.0-18.0-1.50","7719","approach_avoid_sv1","""event"",""trial"",""time""
""fullscreenenter"",""1"",""2157""
","
","
","""event"",""trial"",""time""
""fullscreenenter"",""1"",""2157""
","
","","","","","","1264.5999999940395","images/horse8.png","","","memory_trial","4","definitely_new",""
"html-keyboard-response","146","341280","0.0-18.0-0.51","7719","approach_avoid_sv1","""event"",""trial"",""time""
""fullscreenenter"",""1"",""2157""
","
","
","""event"",""trial"",""time""
""fullscreenenter"",""1"",""2157""
","
","","","","","","null","<div style=""font-size:60px;"">+</div>","null","","fixation","","",""
"memory-trial","147","343663","0.0-18.0-1.51","7719","approach_avoid_sv1","""event"",""trial"",""time""
""fullscreenenter"",""1"",""2157""
","
","
","""event"",""trial"",""time""
""fullscreenenter"",""1"",""2157""
","
","","","","","","1364.9000000059605","images/train6.png","","","memory_trial","1","definitely_old",""
"html-keyboard-response","148","344167","0.0-18.0-0.52","7719","approach_avoid_sv1","""event"",""trial"",""time""
""fullscreenenter"",""1"",""2157""
","
","
","""event"",""trial"",""time""
""fullscreenenter"",""1"",""2157""
","
","","","","","","null","<div style=""font-size:60px;"">+</div>","null","","fixation","","",""
"memory-trial","149","345881","0.0-18.0-1.52","7719","approach_avoid_sv1","""event"",""trial"",""time""
""fullscreenenter"",""1"",""2157""
","
","
","""event"",""trial"",""time""
""fullscreenenter"",""1"",""2157""
","
","","","","","","700","images/cat6.png","","","memory_trial","2","maybe_old",""
"html-keyboard-response","150","346383","0.0-18.0-0.53","7719","approach_avoid_sv1","""event"",""trial"",""time""
""fullscreenenter"",""1"",""2157""
","
","
","""event"",""trial"",""time""
""fullscreenenter"",""1"",""2157""
","
","","","","","","null","<div style=""font-size:60px;"">+</div>","null","","fixation","","",""
"memory-trial","151","348754","0.0-18.0-1.53","7719","approach_avoid_sv1","""event"",""trial"",""time""
""fullscreenenter"",""1"",""2157""
","
","
","""event"",""trial"",""time""
""fullscreenenter"",""1"",""2157""
","
","","","","","","1363.2999999970198","images/goat8.png","","","memory_trial","4","definitely_new",""
"html-keyboard-response","152","349268","0.0-18.0-0.54","7719","approach_avoid_sv1","""event"",""trial"",""time""
""fullscreenenter"",""1"",""2157""
","
","
","""event"",""trial"",""time""
""fullscreenenter"",""1"",""2157""
","
","","","","","","null","<div style=""font-size:60px;"">+</div>","null","","fixation","","",""
"memory-trial","153","351277","0.0-18.0-1.54","7719","approach_avoid_sv1","""event"",""trial"",""time""
""fullscreenenter"",""1"",""2157""
","
","
","""event"",""trial"",""time""
""fullscreenenter"",""1"",""2157""
","
","","","","","","1001","images/rodent2.png","","","memory_trial","2","maybe_old",""
"html-keyboard-response","154","351783","0.0-18.0-0.55","7719","approach_avoid_sv1","""event"",""trial"",""time""
""fullscreenenter"",""1"",""2157""
","
","
","""event"",""trial"",""time""
""fullscreenenter"",""1"",""2157""
","
","","","","","","null","<div style=""font-size:60px;"">+</div>","null","","fixation","","",""
"memory-trial","155","353739","0.0-18.0-1.55","7719","approach_avoid_sv1","""event"",""trial"",""time""
""fullscreenenter"",""1"",""2157""
","
","
","""event"",""trial"",""time""
""fullscreenenter"",""1"",""2157""
","
","","","","","","950.2000000029802","images/goat6.png","","","memory_trial","2","maybe_old",""
"html-keyboard-response","156","354243","0.0-18.0-0.56","7719","approach_avoid_sv1","""event"",""trial"",""time""
""fullscreenenter"",""1"",""2157""
","
","
","""event"",""trial"",""time""
""fullscreenenter"",""1"",""2157""
","
","","","","","","null","<div style=""font-size:60px;"">+</div>","null","","fixation","","",""
"memory-trial","157","356130","0.0-18.0-1.56","7719","approach_avoid_sv1","""event"",""trial"",""time""
""fullscreenenter"",""1"",""2157""
","
","
","""event"",""trial"",""time""
""fullscreenenter"",""1"",""2157""
","
","","","","","","879.8999999910593","images/cow5.png","","","memory_trial","1","definitely_old",""
"html-keyboard-response","158","356633","0.0-18.0-0.57","7719","approach_avoid_sv1","""event"",""trial"",""time""
""fullscreenenter"",""1"",""2157""
","
","
","""event"",""trial"",""time""
""fullscreenenter"",""1"",""2157""
","
","","","","","","null","<div style=""font-size:60px;"">+</div>","null","","fixation","","",""
"memory-trial","159","358839","0.0-18.0-1.57","7719","approach_avoid_sv1","""event"",""trial"",""time""
""fullscreenenter"",""1"",""2157""
","
","
","""event"",""trial"",""time""
""fullscreenenter"",""1"",""2157""
","
","","","","","","1194.0999999940395","images/apple4.png","","","memory_trial","4","definitely_new",""
"html-keyboard-response","160","359349","0.0-18.0-0.58","7719","approach_avoid_sv1","""event"",""trial"",""time""
""fullscreenenter"",""1"",""2157""
","
","
","""event"",""trial"",""time""
""fullscreenenter"",""1"",""2157""
","
","","","","","","null","<div style=""font-size:60px;"">+</div>","null","","fixation","","",""
"memory-trial","161","360987","0.0-18.0-1.58","7719","approach_avoid_sv1","""event"",""trial"",""time""
""fullscreenenter"",""1"",""2157""
","
","
","""event"",""trial"",""time""
""fullscreenenter"",""1"",""2157""
","
","","","","","","628.7999999970198","images/banana1.png","","","memory_trial","4","definitely_new",""
"html-keyboard-response","162","361497","0.0-18.0-0.59","7719","approach_avoid_sv1","""event"",""trial"",""time""
""fullscreenenter"",""1"",""2157""
","
","
","""event"",""trial"",""time""
""fullscreenenter"",""1"",""2157""
","
","","","","","","null","<div style=""font-size:60px;"">+</div>","null","","fixation","","",""
"memory-trial","163","362978","0.0-18.0-1.59","7719","approach_avoid_sv1","""event"",""trial"",""time""
""fullscreenenter"",""1"",""2157""
","
","
","""event"",""trial"",""time""
""fullscreenenter"",""1"",""2157""
","
","","","","","","463.5","images/bush6.png","","","memory_trial","4","definitely_new",""
"html-keyboard-response","164","363482","0.0-18.0-0.60","7719","approach_avoid_sv1","""event"",""trial"",""time""
""fullscreenenter"",""1"",""2157""
","
","
","""event"",""trial"",""time""
""fullscreenenter"",""1"",""2157""
","
","","","","","","null","<div style=""font-size:60px;"">+</div>","null","","fixation","","",""
"memory-trial","165","365257","0.0-18.0-1.60","7719","approach_avoid_sv1","""event"",""trial"",""time""
""fullscreenenter"",""1"",""2157""
","
","
","""event"",""trial"",""time""
""fullscreenenter"",""1"",""2157""
","
","","","","","","767.5999999940395","images/apple3.png","","","memory_trial","4","definitely_new",""
"html-keyboard-response","166","365764","0.0-18.0-0.61","7719","approach_avoid_sv1","""event"",""trial"",""time""
""fullscreenenter"",""1"",""2157""
","
","
","""event"",""trial"",""time""
""fullscreenenter"",""1"",""2157""
","
","","","","","","null","<div style=""font-size:60px;"">+</div>","null","","fixation","","",""
"memory-trial","167","367740","0.0-18.0-1.61","7719","approach_avoid_sv1","""event"",""trial"",""time""
""fullscreenenter"",""1"",""2157""
","
","
","""event"",""trial"",""time""
""fullscreenenter"",""1"",""2157""
","
","","","","","","964.7999999970198","images/train1.png","","","memory_trial","1","definitely_old",""
"html-keyboard-response","168","368247","0.0-18.0-0.62","7719","approach_avoid_sv1","""event"",""trial"",""time""
""fullscreenenter"",""1"",""2157""
","
","
","""event"",""trial"",""time""
""fullscreenenter"",""1"",""2157""
","
","","","","","","null","<div style=""font-size:60px;"">+</div>","null","","fixation","","",""
"memory-trial","169","369981","0.0-18.0-1.62","7719","approach_avoid_sv1","""event"",""trial"",""time""
""fullscreenenter"",""1"",""2157""
","
","
","""event"",""trial"",""time""
""fullscreenenter"",""1"",""2157""
","
","","","","","","726.1000000089407","images/rabbit6.png","","","memory_trial","2","maybe_old",""
"html-keyboard-response","170","370486","0.0-18.0-0.63","7719","approach_avoid_sv1","""event"",""trial"",""time""
""fullscreenenter"",""1"",""2157""
","
","
","""event"",""trial"",""time""
""fullscreenenter"",""1"",""2157""
","
","","","","","","null","<div style=""font-size:60px;"">+</div>","null","","fixation","","",""
"memory-trial","171","372194","0.0-18.0-1.63","7719","approach_avoid_sv1","""event"",""trial"",""time""
""fullscreenenter"",""1"",""2157""
","
","
","""event"",""trial"",""time""
""fullscreenenter"",""1"",""2157""
","
","","","","","","697.0999999940395","images/cactus7.png","","","memory_trial","4","definitely_new",""
"html-keyboard-response","172","372703","0.0-18.0-0.64","7719","approach_avoid_sv1","""event"",""trial"",""time""
""fullscreenenter"",""1"",""2157""
","
","
","""event"",""trial"",""time""
""fullscreenenter"",""1"",""2157""
","
","","","","","","null","<div style=""font-size:60px;"">+</div>","null","","fixation","","",""
"memory-trial","173","374337","0.0-18.0-1.64","7719","approach_avoid_sv1","""event"",""trial"",""time""
""fullscreenenter"",""1"",""2157""
","
","
","""event"",""trial"",""time""
""fullscreenenter"",""1"",""2157""
","
","","","","","","630.4000000059605","images/plane1.png","","","memory_trial","3","maybe_new",""
"html-keyboard-response","174","374846","0.0-18.0-0.65","7719","approach_avoid_sv1","""event"",""trial"",""time""
""fullscreenenter"",""1"",""2157""
","
","
","""event"",""trial"",""time""
""fullscreenenter"",""1"",""2157""
","
","","","","","","null","<div style=""font-size:60px;"">+</div>","null","","fixation","","",""
"memory-trial","175","376985","0.0-18.0-1.65","7719","approach_avoid_sv1","""event"",""trial"",""time""
""fullscreenenter"",""1"",""2157""
","
","
","""event"",""trial"",""time""
""fullscreenenter"",""1"",""2157""
","
","","","","","","1130","images/horse2.png","","","memory_trial","1","definitely_old",""
"html-keyboard-response","176","377492","0.0-18.0-0.66","7719","approach_avoid_sv1","""event"",""trial"",""time""
""fullscreenenter"",""1"",""2157""
","
","
","""event"",""trial"",""time""
""fullscreenenter"",""1"",""2157""
","
","","","","","","null","<div style=""font-size:60px;"">+</div>","null","","fixation","","",""
"memory-trial","177","379194","0.0-18.0-1.66","7719","approach_avoid_sv1","""event"",""trial"",""time""
""fullscreenenter"",""1"",""2157""
","
","
","""event"",""trial"",""time""
""fullscreenenter"",""1"",""2157""
","
","","","","","","689.8999999910593","images/truck4.png","","","memory_trial","2","maybe_old",""
"html-keyboard-response","178","379708","0.0-18.0-0.67","7719","approach_avoid_sv1","""event"",""trial"",""time""
""fullscreenenter"",""1"",""2157""
","
","
","""event"",""trial"",""time""
""fullscreenenter"",""1"",""2157""
","
","","","","","","null","<div style=""font-size:60px;"">+</div>","null","","fixation","","",""
"memory-trial","179","381458","0.0-18.0-1.67","7719","approach_avoid_sv1","""event"",""trial"",""time""
""fullscreenenter"",""1"",""2157""
","
","
","""event"",""trial"",""time""
""fullscreenenter"",""1"",""2157""
","
","","","","","","739.5999999940395","images/orange4.png","","","memory_trial","3","maybe_new",""
"html-keyboard-response","180","381964","0.0-18.0-0.68","7719","approach_avoid_sv1","""event"",""trial"",""time""
""fullscreenenter"",""1"",""2157""
","
","
","""event"",""trial"",""time""
""fullscreenenter"",""1"",""2157""
","
","","","","","","null","<div style=""font-size:60px;"">+</div>","null","","fixation","","",""
"memory-trial","181","384054","0.0-18.0-1.68","7719","approach_avoid_sv1","""event"",""trial"",""time""
""fullscreenenter"",""1"",""2157""
","
","
","""event"",""trial"",""time""
""fullscreenenter"",""1"",""2157""
","
","","","","","","1080.1000000089407","images/bush4.png","","","memory_trial","1","definitely_old",""
"html-keyboard-response","182","384558","0.0-18.0-0.69","7719","approach_avoid_sv1","""event"",""trial"",""time""
""fullscreenenter"",""1"",""2157""
","
","
","""event"",""trial"",""time""
""fullscreenenter"",""1"",""2157""
","
","","","","","","null","<div style=""font-size:60px;"">+</div>","null","","fixation","","",""
"memory-trial","183","386556","0.0-18.0-1.69","7719","approach_avoid_sv1","""event"",""trial"",""time""
""fullscreenenter"",""1"",""2157""
","
","
","""event"",""trial"",""time""
""fullscreenenter"",""1"",""2157""
","
","","","","","","982.8000000119209","images/flower2.png","","","memory_trial","4","definitely_new",""
"html-keyboard-response","184","387066","0.0-18.0-0.70","7719","approach_avoid_sv1","""event"",""trial"",""time""
""fullscreenenter"",""1"",""2157""
","
","
","""event"",""trial"",""time""
""fullscreenenter"",""1"",""2157""
","
","","","","","","null","<div style=""font-size:60px;"">+</div>","null","","fixation","","",""
"memory-trial","185","389096","0.0-18.0-1.70","7719","approach_avoid_sv1","""event"",""trial"",""time""
""fullscreenenter"",""1"",""2157""
","
","
","""event"",""trial"",""time""
""fullscreenenter"",""1"",""2157""
","
","","","","","","1026.8999999910593","images/sheep2.png","","","memory_trial","1","definitely_old",""
"html-keyboard-response","186","389607","0.0-18.0-0.71","7719","approach_avoid_sv1","""event"",""trial"",""time""
""fullscreenenter"",""1"",""2157""
","
","
","""event"",""trial"",""time""
""fullscreenenter"",""1"",""2157""
","
","","","","","","null","<div style=""font-size:60px;"">+</div>","null","","fixation","","",""
"memory-trial","187","392294","0.0-18.0-1.71","7719","approach_avoid_sv1","""event"",""trial"",""time""
""fullscreenenter"",""1"",""2157""
","
","
","""event"",""trial"",""time""
""fullscreenenter"",""1"",""2157""
","
","","","","","","1675.800000011921","images/tree2.png","","","memory_trial","2","maybe_old",""
"html-keyboard-response","188","392798","0.0-18.0-0.72","7719","approach_avoid_sv1","""event"",""trial"",""time""
""fullscreenenter"",""1"",""2157""
","
","
","""event"",""trial"",""time""
""fullscreenenter"",""1"",""2157""
","
","","","","","","null","<div style=""font-size:60px;"">+</div>","null","","fixation","","",""
"memory-trial","189","394706","0.0-18.0-1.72","7719","approach_avoid_sv1","""event"",""trial"",""time""
""fullscreenenter"",""1"",""2157""
","
","
","""event"",""trial"",""time""
""fullscreenenter"",""1"",""2157""
","
","","","","","","900.5","images/boat7.png","","","memory_trial","3","maybe_new",""
"html-keyboard-response","190","395211","0.0-18.0-0.73","7719","approach_avoid_sv1","""event"",""trial"",""time""
""fullscreenenter"",""1"",""2157""
","
","
","""event"",""trial"",""time""
""fullscreenenter"",""1"",""2157""
","
","","","","","","null","<div style=""font-size:60px;"">+</div>","null","","fixation","","",""
"memory-trial","191","397195","0.0-18.0-1.73","7719","approach_avoid_sv1","""event"",""trial"",""time""
""fullscreenenter"",""1"",""2157""
","
","
","""event"",""trial"",""time""
""fullscreenenter"",""1"",""2157""
","
","","","","","","977.6000000089407","images/banana2.png","","","memory_trial","4","definitely_new",""
"html-keyboard-response","192","397706","0.0-18.0-0.74","7719","approach_avoid_sv1","""event"",""trial"",""time""
""fullscreenenter"",""1"",""2157""
","
","
","""event"",""trial"",""time""
""fullscreenenter"",""1"",""2157""
","
","","","","","","null","<div style=""font-size:60px;"">+</div>","null","","fixation","","",""
"memory-trial","193","399615","0.0-18.0-1.74","7719","approach_avoid_sv1","""event"",""trial"",""time""
""fullscreenenter"",""1"",""2157""
","
","
","""event"",""trial"",""time""
""fullscreenenter"",""1"",""2157""
","
","","","","","","900.4000000059605","images/chair2.png","","","memory_trial","4","definitely_new",""
"html-keyboard-response","194","400122","0.0-18.0-0.75","7719","approach_avoid_sv1","""event"",""trial"",""time""
""fullscreenenter"",""1"",""2157""
","
","
","""event"",""trial"",""time""
""fullscreenenter"",""1"",""2157""
","
","","","","","","null","<div style=""font-size:60px;"">+</div>","null","","fixation","","",""
"memory-trial","195","402165","0.0-18.0-1.75","7719","approach_avoid_sv1","""event"",""trial"",""time""
""fullscreenenter"",""1"",""2157""
","
","
","""event"",""trial"",""time""
""fullscreenenter"",""1"",""2157""
","
","","","","","","1032.4000000059605","images/plane3.png","","","memory_trial","1","definitely_old",""
"html-keyboard-response","196","402667","0.0-18.0-0.76","7719","approach_avoid_sv1","""event"",""trial"",""time""
""fullscreenenter"",""1"",""2157""
","
","
","""event"",""trial"",""time""
""fullscreenenter"",""1"",""2157""
","
","","","","","","null","<div style=""font-size:60px;"">+</div>","null","","fixation","","",""
"memory-trial","197","404736","0.0-18.0-1.76","7719","approach_avoid_sv1","""event"",""trial"",""time""
""fullscreenenter"",""1"",""2157""
","
","
","""event"",""trial"",""time""
""fullscreenenter"",""1"",""2157""
","
","","","","","","1061.0999999940395","images/cow4.png","","","memory_trial","1","definitely_old",""
"html-keyboard-response","198","405238","0.0-18.0-0.77","7719","approach_avoid_sv1","""event"",""trial"",""time""
""fullscreenenter"",""1"",""2157""
","
","
","""event"",""trial"",""time""
""fullscreenenter"",""1"",""2157""
","
","","","","","","null","<div style=""font-size:60px;"">+</div>","null","","fixation","","",""
"memory-trial","199","407732","0.0-18.0-1.77","7719","approach_avoid_sv1","""event"",""trial"",""time""
""fullscreenenter"",""1"",""2157""
","
","
","""event"",""trial"",""time""
""fullscreenenter"",""1"",""2157""
","
","","","","","","1485.1000000089407","images/cactus3.png","","","memory_trial","2","maybe_old",""
"html-keyboard-response","200","408236","0.0-18.0-0.78","7719","approach_avoid_sv1","""event"",""trial"",""time""
""fullscreenenter"",""1"",""2157""
","
","
","""event"",""trial"",""time""
""fullscreenenter"",""1"",""2157""
","
","","","","","","null","<div style=""font-size:60px;"">+</div>","null","","fixation","","",""
"memory-trial","201","410151","0.0-18.0-1.78","7719","approach_avoid_sv1","""event"",""trial"",""time""
""fullscreenenter"",""1"",""2157""
","
","
","""event"",""trial"",""time""
""fullscreenenter"",""1"",""2157""
","
","","","","","","904.5999999940395","images/banana7.png","","","memory_trial","3","maybe_new",""
"html-keyboard-response","202","410658","0.0-18.0-0.79","7719","approach_avoid_sv1","""event"",""trial"",""time""
""fullscreenenter"",""1"",""2157""
","
","
","""event"",""trial"",""time""
""fullscreenenter"",""1"",""2157""
","
","","","","","","null","<div style=""font-size:60px;"">+</div>","null","","fixation","","",""
"memory-trial","203","412842","0.0-18.0-1.79","7719","approach_avoid_sv1","""event"",""trial"",""time""
""fullscreenenter"",""1"",""2157""
","
","
","""event"",""trial"",""time""
""fullscreenenter"",""1"",""2157""
","
","","","","","","1179.6000000089407","images/tree7.png","","","memory_trial","1","definitely_old",""
"html-keyboard-response","204","413345","0.0-18.0-0.80","7719","approach_avoid_sv1","""event"",""trial"",""time""
""fullscreenenter"",""1"",""2157""
","
","
","""event"",""trial"",""time""
""fullscreenenter"",""1"",""2157""
","
","","","","","","null","<div style=""font-size:60px;"">+</div>","null","","fixation","","",""
"memory-trial","205","415054","0.0-18.0-1.80","7719","approach_avoid_sv1","""event"",""trial"",""time""
""fullscreenenter"",""1"",""2157""
","
","
","""event"",""trial"",""time""
""fullscreenenter"",""1"",""2157""
","
","","","","","","705.5999999940395","images/train3.png","","","memory_trial","2","maybe_old",""
"html-keyboard-response","206","415557","0.0-18.0-0.81","7719","approach_avoid_sv1","""event"",""trial"",""time""
""fullscreenenter"",""1"",""2157""
","
","
","""event"",""trial"",""time""
""fullscreenenter"",""1"",""2157""
","
","","","","","","null","<div style=""font-size:60px;"">+</div>","null","","fixation","","",""
"memory-trial","207","417415","0.0-18.0-1.81","7719","approach_avoid_sv1","""event"",""trial"",""time""
""fullscreenenter"",""1"",""2157""
","
","
","""event"",""trial"",""time""
""fullscreenenter"",""1"",""2157""
","
","","","","","","845.7000000029802","images/rabbit8.png","","","memory_trial","2","maybe_old",""
"html-keyboard-response","208","417925","0.0-18.0-0.82","7719","approach_avoid_sv1","""event"",""trial"",""time""
""fullscreenenter"",""1"",""2157""
","
","
","""event"",""trial"",""time""
""fullscreenenter"",""1"",""2157""
","
","","","","","","null","<div style=""font-size:60px;"">+</div>","null","","fixation","","",""
"memory-trial","209","419544","0.0-18.0-1.82","7719","approach_avoid_sv1","""event"",""trial"",""time""
""fullscreenenter"",""1"",""2157""
","
","
","""event"",""trial"",""time""
""fullscreenenter"",""1"",""2157""
","
","","","","","","607.4000000059605","images/dog7.png","","","memory_trial","3","maybe_new",""
"html-keyboard-response","210","420053","0.0-18.0-0.83","7719","approach_avoid_sv1","""event"",""trial"",""time""
""fullscreenenter"",""1"",""2157""
","
","
","""event"",""trial"",""time""
""fullscreenenter"",""1"",""2157""
","
","","","","","","null","<div style=""font-size:60px;"">+</div>","null","","fixation","","",""
"memory-trial","211","421647","0.0-18.0-1.83","7719","approach_avoid_sv1","""event"",""trial"",""time""
""fullscreenenter"",""1"",""2157""
","
","
","""event"",""trial"",""time""
""fullscreenenter"",""1"",""2157""
","
","","","","","","590.5999999940395","images/boat4.png","","","memory_trial","4","definitely_new",""
"html-keyboard-response","212","422157","0.0-18.0-0.84","7719","approach_avoid_sv1","""event"",""trial"",""time""
""fullscreenenter"",""1"",""2157""
","
","
","""event"",""trial"",""time""
""fullscreenenter"",""1"",""2157""
","
","","","","","","null","<div style=""font-size:60px;"">+</div>","null","","fixation","","",""
"memory-trial","213","423905","0.0-18.0-1.84","7719","approach_avoid_sv1","""event"",""trial"",""time""
""fullscreenenter"",""1"",""2157""
","
","
","""event"",""trial"",""time""
""fullscreenenter"",""1"",""2157""
","
","","","","","","740.5999999940395","images/orange1.png","","","memory_trial","4","definitely_new",""
"html-keyboard-response","214","424415","0.0-18.0-0.85","7719","approach_avoid_sv1","""event"",""trial"",""time""
""fullscreenenter"",""1"",""2157""
","
","
","""event"",""trial"",""time""
""fullscreenenter"",""1"",""2157""
","
","","","","","","null","<div style=""font-size:60px;"">+</div>","null","","fixation","","",""
"memory-trial","215","426795","0.0-18.0-1.85","7719","approach_avoid_sv1","""event"",""trial"",""time""
""fullscreenenter"",""1"",""2157""
","
","
","""event"",""trial"",""time""
""fullscreenenter"",""1"",""2157""
","
","","","","","","1376.2000000029802","images/truck1.png","","","memory_trial","2","maybe_old",""
"html-keyboard-response","216","427302","0.0-18.0-0.86","7719","approach_avoid_sv1","""event"",""trial"",""time""
""fullscreenenter"",""1"",""2157""
","
","
","""event"",""trial"",""time""
""fullscreenenter"",""1"",""2157""
","
","","","","","","null","<div style=""font-size:60px;"">+</div>","null","","fixation","","",""
"memory-trial","217","429303","0.0-18.0-1.86","7719","approach_avoid_sv1","""event"",""trial"",""time""
""fullscreenenter"",""1"",""2157""
","
","
","""event"",""trial"",""time""
""fullscreenenter"",""1"",""2157""
","
","","","","","","990.7000000029802","images/apple1.png","","","memory_trial","3","maybe_new",""
"html-keyboard-response","218","429805","0.0-18.0-0.87","7719","approach_avoid_sv1","""event"",""trial"",""time""
""fullscreenenter"",""1"",""2157""
","
","
","""event"",""trial"",""time""
""fullscreenenter"",""1"",""2157""
","
","","","","","","null","<div style=""font-size:60px;"">+</div>","null","","fixation","","",""
"memory-trial","219","432065","0.0-18.0-1.87","7719","approach_avoid_sv1","""event"",""trial"",""time""
""fullscreenenter"",""1"",""2157""
","
","
","""event"",""trial"",""time""
""fullscreenenter"",""1"",""2157""
","
","","","","","","1255.5","images/tree4.png","","","memory_trial","2","maybe_old",""
"html-keyboard-response","220","432571","0.0-18.0-0.88","7719","approach_avoid_sv1","""event"",""trial"",""time""
""fullscreenenter"",""1"",""2157""
","
","
","""event"",""trial"",""time""
""fullscreenenter"",""1"",""2157""
","
","","","","","","null","<div style=""font-size:60px;"">+</div>","null","","fixation","","",""
"memory-trial","221","434290","0.0-18.0-1.88","7719","approach_avoid_sv1","""event"",""trial"",""time""
""fullscreenenter"",""1"",""2157""
","
","
","""event"",""trial"",""time""
""fullscreenenter"",""1"",""2157""
","
","","","","","","715.4000000059605","images/boat8.png","","","memory_trial","3","maybe_new",""
"html-keyboard-response","222","434795","0.0-18.0-0.89","7719","approach_avoid_sv1","""event"",""trial"",""time""
""fullscreenenter"",""1"",""2157""
","
","
","""event"",""trial"",""time""
""fullscreenenter"",""1"",""2157""
","
","","","","","","null","<div style=""font-size:60px;"">+</div>","null","","fixation","","",""
"memory-trial","223","436599","0.0-18.0-1.89","7719","approach_avoid_sv1","""event"",""trial"",""time""
""fullscreenenter"",""1"",""2157""
","
","
","""event"",""trial"",""time""
""fullscreenenter"",""1"",""2157""
","
","","","","","","800.2999999970198","images/sofa4.png","","","memory_trial","3","maybe_new",""
"html-keyboard-response","224","437109","0.0-18.0-0.90","7719","approach_avoid_sv1","""event"",""trial"",""time""
""fullscreenenter"",""1"",""2157""
","
","
","""event"",""trial"",""time""
""fullscreenenter"",""1"",""2157""
","
","","","","","","null","<div style=""font-size:60px;"">+</div>","null","","fixation","","",""
"memory-trial","225","439325","0.0-18.0-1.90","7719","approach_avoid_sv1","""event"",""trial"",""time""
""fullscreenenter"",""1"",""2157""
","
","
","""event"",""trial"",""time""
""fullscreenenter"",""1"",""2157""
","
","","","","","","1211.5","images/cactus4.png","","","memory_trial","2","maybe_old",""
"html-keyboard-response","226","439831","0.0-18.0-0.91","7719","approach_avoid_sv1","""event"",""trial"",""time""
""fullscreenenter"",""1"",""2157""
","
","
","""event"",""trial"",""time""
""fullscreenenter"",""1"",""2157""
","
","","","","","","null","<div style=""font-size:60px;"">+</div>","null","","fixation","","",""
"memory-trial","227","441575","0.0-18.0-1.91","7719","approach_avoid_sv1","""event"",""trial"",""time""
""fullscreenenter"",""1"",""2157""
","
","
","""event"",""trial"",""time""
""fullscreenenter"",""1"",""2157""
","
","","","","","","738","images/cactus6.png","","","memory_trial","2","maybe_old",""
"html-button-response","228","443481","0.0-18.0-2.91-0.91","7719","approach_avoid_sv1","""event"",""trial"",""time""
""fullscreenenter"",""1"",""2157""
","
","
","""event"",""trial"",""time""
""fullscreenenter"",""1"",""2157""
","
","","","","","","1904.5","<p> Take a break! </p><p> Click the button to continue. </p>","0","","break","","",""
"html-keyboard-response","229","443986","0.0-18.0-0.92","7719","approach_avoid_sv1","""event"",""trial"",""time""
""fullscreenenter"",""1"",""2157""
","
","
","""event"",""trial"",""time""
""fullscreenenter"",""1"",""2157""
","
","","","","","","null","<div style=""font-size:60px;"">+</div>","null","","fixation","","",""
"memory-trial","230","445719","0.0-18.0-1.92","7719","approach_avoid_sv1","""event"",""trial"",""time""
""fullscreenenter"",""1"",""2157""
","
","
","""event"",""trial"",""time""
""fullscreenenter"",""1"",""2157""
","
","","","","","","724.7000000029802","images/straw8.png","","","memory_trial","4","definitely_new",""
"html-keyboard-response","231","446230","0.0-18.0-0.93","7719","approach_avoid_sv1","""event"",""trial"",""time""
""fullscreenenter"",""1"",""2157""
","
","
","""event"",""trial"",""time""
""fullscreenenter"",""1"",""2157""
","
","","","","","","null","<div style=""font-size:60px;"">+</div>","null","","fixation","","",""
"memory-trial","232","448251","0.0-18.0-1.93","7719","approach_avoid_sv1","""event"",""trial"",""time""
""fullscreenenter"",""1"",""2157""
","
","
","""event"",""trial"",""time""
""fullscreenenter"",""1"",""2157""
","
","","","","","","1011.6000000089407","images/rodent4.png","","","memory_trial","4","definitely_new",""
"html-keyboard-response","233","448758","0.0-18.0-0.94","7719","approach_avoid_sv1","""event"",""trial"",""time""
""fullscreenenter"",""1"",""2157""
","
","
","""event"",""trial"",""time""
""fullscreenenter"",""1"",""2157""
","
","","","","","","null","<div style=""font-size:60px;"">+</div>","null","","fixation","","",""
"memory-trial","234","450301","0.0-18.0-1.94","7719","approach_avoid_sv1","""event"",""trial"",""time""
""fullscreenenter"",""1"",""2157""
","
","
","""event"",""trial"",""time""
""fullscreenenter"",""1"",""2157""
","
","","","","","","535","images/flower3.png","","","memory_trial","4","definitely_new",""
"html-keyboard-response","235","450809","0.0-18.0-0.95","7719","approach_avoid_sv1","""event"",""trial"",""time""
""fullscreenenter"",""1"",""2157""
","
","
","""event"",""trial"",""time""
""fullscreenenter"",""1"",""2157""
","
","","","","","","null","<div style=""font-size:60px;"">+</div>","null","","fixation","","",""
"memory-trial","236","453915","0.0-18.0-1.95","7719","approach_avoid_sv1","""event"",""trial"",""time""
""fullscreenenter"",""1"",""2157""
","
","
","""event"",""trial"",""time""
""fullscreenenter"",""1"",""2157""
","
","","","","","","2097.2000000029802","images/horse1.png","","","memory_trial","3","maybe_new",""
"html-keyboard-response","237","454425","0.0-18.0-0.96","7719","approach_avoid_sv1","""event"",""trial"",""time""
""fullscreenenter"",""1"",""2157""
","
","
","""event"",""trial"",""time""
""fullscreenenter"",""1"",""2157""
","
","","","","","","null","<div style=""font-size:60px;"">+</div>","null","","fixation","","",""
"memory-trial","238","455951","0.0-18.0-1.96","7719","approach_avoid_sv1","""event"",""trial"",""time""
""fullscreenenter"",""1"",""2157""
","
","
","""event"",""trial"",""time""
""fullscreenenter"",""1"",""2157""
","
","","","","","","524.5","images/apple2.png","","","memory_trial","4","definitely_new",""
"html-keyboard-response","239","456459","0.0-18.0-0.97","7719","approach_avoid_sv1","""event"",""trial"",""time""
""fullscreenenter"",""1"",""2157""
","
","
","""event"",""trial"",""time""
""fullscreenenter"",""1"",""2157""
","
","","","","","","null","<div style=""font-size:60px;"">+</div>","null","","fixation","","",""
"memory-trial","240","458062","0.0-18.0-1.97","7719","approach_avoid_sv1","""event"",""trial"",""time""
""fullscreenenter"",""1"",""2157""
","
","
","""event"",""trial"",""time""
""fullscreenenter"",""1"",""2157""
","
","","","","","","599.1000000089407","images/chair1.png","","","memory_trial","4","definitely_new",""
"html-keyboard-response","241","458564","0.0-18.0-0.98","7719","approach_avoid_sv1","""event"",""trial"",""time""
""fullscreenenter"",""1"",""2157""
","
","
","""event"",""trial"",""time""
""fullscreenenter"",""1"",""2157""
","
","","","","","","null","<div style=""font-size:60px;"">+</div>","null","","fixation","","",""
"memory-trial","242","460157","0.0-18.0-1.98","7719","approach_avoid_sv1","""event"",""trial"",""time""
""fullscreenenter"",""1"",""2157""
","
","
","""event"",""trial"",""time""
""fullscreenenter"",""1"",""2157""
","
","","","","","","586.9000000059605","images/sofa3.png","","","memory_trial","4","definitely_new",""
"html-keyboard-response","243","460666","0.0-18.0-0.99","7719","approach_avoid_sv1","""event"",""trial"",""time""
""fullscreenenter"",""1"",""2157""
","
","
","""event"",""trial"",""time""
""fullscreenenter"",""1"",""2157""
","
","","","","","","null","<div style=""font-size:60px;"">+</div>","null","","fixation","","",""
"memory-trial","244","462107","0.0-18.0-1.99","7719","approach_avoid_sv1","""event"",""trial"",""time""
""fullscreenenter"",""1"",""2157""
","
","
","""event"",""trial"",""time""
""fullscreenenter"",""1"",""2157""
","
","","","","","","433.5","images/straw1.png","","","memory_trial","4","definitely_new",""
"html-keyboard-response","245","462611","0.0-18.0-0.100","7719","approach_avoid_sv1","""event"",""trial"",""time""
""fullscreenenter"",""1"",""2157""
","
","
","""event"",""trial"",""time""
""fullscreenenter"",""1"",""2157""
","
","","","","","","null","<div style=""font-size:60px;"">+</div>","null","","fixation","","",""
"memory-trial","246","464121","0.0-18.0-1.100","7719","approach_avoid_sv1","""event"",""trial"",""time""
""fullscreenenter"",""1"",""2157""
","
","
","""event"",""trial"",""time""
""fullscreenenter"",""1"",""2157""
","
","","","","","","503.70000000298023","images/banana5.png","","","memory_trial","4","definitely_new",""
"html-keyboard-response","247","464625","0.0-18.0-0.101","7719","approach_avoid_sv1","""event"",""trial"",""time""
""fullscreenenter"",""1"",""2157""
","
","
","""event"",""trial"",""time""
""fullscreenenter"",""1"",""2157""
","
","","","","","","null","<div style=""font-size:60px;"">+</div>","null","","fixation","","",""
"memory-trial","248","467150","0.0-18.0-1.101","7719","approach_avoid_sv1","""event"",""trial"",""time""
""fullscreenenter"",""1"",""2157""
","
","
","""event"",""trial"",""time""
""fullscreenenter"",""1"",""2157""
","
","","","","","","1513.5","images/horse5.png","","","memory_trial","4","definitely_new",""
"html-keyboard-response","249","467652","0.0-18.0-0.102","7719","approach_avoid_sv1","""event"",""trial"",""time""
""fullscreenenter"",""1"",""2157""
","
","
","""event"",""trial"",""time""
""fullscreenenter"",""1"",""2157""
","
","","","","","","null","<div style=""font-size:60px;"">+</div>","null","","fixation","","",""
"memory-trial","250","469285","0.0-18.0-1.102","7719","approach_avoid_sv1","""event"",""trial"",""time""
""fullscreenenter"",""1"",""2157""
","
","
","""event"",""trial"",""time""
""fullscreenenter"",""1"",""2157""
","
","","","","","","624","images/plane7.png","","","memory_trial","4","definitely_new",""
"html-keyboard-response","251","469792","0.0-18.0-0.103","7719","approach_avoid_sv1","""event"",""trial"",""time""
""fullscreenenter"",""1"",""2157""
","
","
","""event"",""trial"",""time""
""fullscreenenter"",""1"",""2157""
","
","","","","","","null","<div style=""font-size:60px;"">+</div>","null","","fixation","","",""
"memory-trial","252","471909","0.0-18.0-1.103","7719","approach_avoid_sv1","""event"",""trial"",""time""
""fullscreenenter"",""1"",""2157""
","
","
","""event"",""trial"",""time""
""fullscreenenter"",""1"",""2157""
","
","","","","","","1112","images/orange3.png","","","memory_trial","3","maybe_new",""
"html-keyboard-response","253","472419","0.0-18.0-0.104","7719","approach_avoid_sv1","""event"",""trial"",""time""
""fullscreenenter"",""1"",""2157""
","
","
","""event"",""trial"",""time""
""fullscreenenter"",""1"",""2157""
","
","","","","","","null","<div style=""font-size:60px;"">+</div>","null","","fixation","","",""
"memory-trial","254","474122","0.0-18.0-1.104","7719","approach_avoid_sv1","""event"",""trial"",""time""
""fullscreenenter"",""1"",""2157""
","
","
","""event"",""trial"",""time""
""fullscreenenter"",""1"",""2157""
","
","","","","","","691","images/plane5.png","","","memory_trial","2","maybe_old",""
"html-keyboard-response","255","474631","0.0-18.0-0.105","7719","approach_avoid_sv1","""event"",""trial"",""time""
""fullscreenenter"",""1"",""2157""
","
","
","""event"",""trial"",""time""
""fullscreenenter"",""1"",""2157""
","
","","","","","","null","<div style=""font-size:60px;"">+</div>","null","","fixation","","",""
"memory-trial","256","476509","0.0-18.0-1.105","7719","approach_avoid_sv1","""event"",""trial"",""time""
""fullscreenenter"",""1"",""2157""
","
","
","""event"",""trial"",""time""
""fullscreenenter"",""1"",""2157""
","
","","","","","","873.0999999940395","images/sofa2.png","","","memory_trial","3","maybe_new",""
"html-keyboard-response","257","477014","0.0-18.0-0.106","7719","approach_avoid_sv1","""event"",""trial"",""time""
""fullscreenenter"",""1"",""2157""
","
","
","""event"",""trial"",""time""
""fullscreenenter"",""1"",""2157""
","
","","","","","","null","<div style=""font-size:60px;"">+</div>","null","","fixation","","",""
"memory-trial","258","478994","0.0-18.0-1.106","7719","approach_avoid_sv1","""event"",""trial"",""time""
""fullscreenenter"",""1"",""2157""
","
","
","""event"",""trial"",""time""
""fullscreenenter"",""1"",""2157""
","
","","","","","","975.2999999970198","images/rabbit2.png","","","memory_trial","1","definitely_old",""
"html-keyboard-response","259","479500","0.0-18.0-0.107","7719","approach_avoid_sv1","""event"",""trial"",""time""
""fullscreenenter"",""1"",""2157""
","
","
","""event"",""trial"",""time""
""fullscreenenter"",""1"",""2157""
","
","","","","","","null","<div style=""font-size:60px;"">+</div>","null","","fixation","","",""
"memory-trial","260","481431","0.0-18.0-1.107","7719","approach_avoid_sv1","""event"",""trial"",""time""
""fullscreenenter"",""1"",""2157""
","
","
","""event"",""trial"",""time""
""fullscreenenter"",""1"",""2157""
","
","","","","","","921.1999999880791","images/chair4.png","","","memory_trial","2","maybe_old",""
"html-keyboard-response","261","481941","0.0-18.0-0.108","7719","approach_avoid_sv1","""event"",""trial"",""time""
""fullscreenenter"",""1"",""2157""
","
","
","""event"",""trial"",""time""
""fullscreenenter"",""1"",""2157""
","
","","","","","","null","<div style=""font-size:60px;"">+</div>","null","","fixation","","",""
"memory-trial","262","483559","0.0-18.0-1.108","7719","approach_avoid_sv1","""event"",""trial"",""time""
""fullscreenenter"",""1"",""2157""
","
","
","""event"",""trial"",""time""
""fullscreenenter"",""1"",""2157""
","
","","","","","","606.6999999880791","images/flower1.png","","","memory_trial","4","definitely_new",""
"html-keyboard-response","263","484066","0.0-18.0-0.109","7719","approach_avoid_sv1","""event"",""trial"",""time""
""fullscreenenter"",""1"",""2157""
","
","
","""event"",""trial"",""time""
""fullscreenenter"",""1"",""2157""
","
","","","","","","null","<div style=""font-size:60px;"">+</div>","null","","fixation","","",""
"memory-trial","264","486061","0.0-18.0-1.109","7719","approach_avoid_sv1","""event"",""trial"",""time""
""fullscreenenter"",""1"",""2157""
","
","
","""event"",""trial"",""time""
""fullscreenenter"",""1"",""2157""
","
","","","","","","989.5","images/sofa5.png","","","memory_trial","3","maybe_new",""
"html-keyboard-response","265","486569","0.0-18.0-0.110","7719","approach_avoid_sv1","""event"",""trial"",""time""
""fullscreenenter"",""1"",""2157""
","
","
","""event"",""trial"",""time""
""fullscreenenter"",""1"",""2157""
","
","","","","","","null","<div style=""font-size:60px;"">+</div>","null","","fixation","","",""
"memory-trial","266","488188","0.0-18.0-1.110","7719","approach_avoid_sv1","""event"",""trial"",""time""
""fullscreenenter"",""1"",""2157""
","
","
","""event"",""trial"",""time""
""fullscreenenter"",""1"",""2157""
","
","","","","","","615.7000000029802","images/chair7.png","","","memory_trial","3","maybe_new",""
"html-keyboard-response","267","488695","0.0-18.0-0.111","7719","approach_avoid_sv1","""event"",""trial"",""time""
""fullscreenenter"",""1"",""2157""
","
","
","""event"",""trial"",""time""
""fullscreenenter"",""1"",""2157""
","
","","","","","","null","<div style=""font-size:60px;"">+</div>","null","","fixation","","",""
"memory-trial","268","490668","0.0-18.0-1.111","7719","approach_avoid_sv1","""event"",""trial"",""time""
""fullscreenenter"",""1"",""2157""
","
","
","""event"",""trial"",""time""
""fullscreenenter"",""1"",""2157""
","
","","","","","","964.3000000119209","images/sheep5.png","","","memory_trial","1","definitely_old",""
"html-keyboard-response","269","491177","0.0-18.0-0.112","7719","approach_avoid_sv1","""event"",""trial"",""time""
""fullscreenenter"",""1"",""2157""
","
","
","""event"",""trial"",""time""
""fullscreenenter"",""1"",""2157""
","
","","","","","","null","<div style=""font-size:60px;"">+</div>","null","","fixation","","",""
"memory-trial","270","493215","0.0-18.0-1.112","7719","approach_avoid_sv1","""event"",""trial"",""time""
""fullscreenenter"",""1"",""2157""
","
","
","""event"",""trial"",""time""
""fullscreenenter"",""1"",""2157""
","
","","","","","","1035.1000000089407","images/tree6.png","","","memory_trial","1","definitely_old",""
"html-keyboard-response","271","493718","0.0-18.0-0.113","7719","approach_avoid_sv1","""event"",""trial"",""time""
""fullscreenenter"",""1"",""2157""
","
","
","""event"",""trial"",""time""
""fullscreenenter"",""1"",""2157""
","
","","","","","","null","<div style=""font-size:60px;"">+</div>","null","","fixation","","",""
"memory-trial","272","495561","0.0-18.0-1.113","7719","approach_avoid_sv1","""event"",""trial"",""time""
""fullscreenenter"",""1"",""2157""
","
","
","""event"",""trial"",""time""
""fullscreenenter"",""1"",""2157""
","
","","","","","","833.7999999970198","images/orange7.png","","","memory_trial","3","maybe_new",""
"html-keyboard-response","273","496066","0.0-18.0-0.114","7719","approach_avoid_sv1","""event"",""trial"",""time""
""fullscreenenter"",""1"",""2157""
","
","
","""event"",""trial"",""time""
""fullscreenenter"",""1"",""2157""
","
","","","","","","null","<div style=""font-size:60px;"">+</div>","null","","fixation","","",""
"memory-trial","274","498163","0.0-18.0-1.114","7719","approach_avoid_sv1","""event"",""trial"",""time""
""fullscreenenter"",""1"",""2157""
","
","
","""event"",""trial"",""time""
""fullscreenenter"",""1"",""2157""
","
","","","","","","1092.7999999970198","images/truck5.png","","","memory_trial","2","maybe_old",""
"html-keyboard-response","275","498668","0.0-18.0-0.115","7719","approach_avoid_sv1","""event"",""trial"",""time""
""fullscreenenter"",""1"",""2157""
","
","
","""event"",""trial"",""time""
""fullscreenenter"",""1"",""2157""
","
","","","","","","null","<div style=""font-size:60px;"">+</div>","null","","fixation","","",""
"memory-trial","276","500596","0.0-18.0-1.115","7719","approach_avoid_sv1","""event"",""trial"",""time""
""fullscreenenter"",""1"",""2157""
","
","
","""event"",""trial"",""time""
""fullscreenenter"",""1"",""2157""
","
","","","","","","919.7999999970198","images/sheep1.png","","","memory_trial","2","maybe_old",""
"html-keyboard-response","277","501104","0.0-18.0-0.116","7719","approach_avoid_sv1","""event"",""trial"",""time""
""fullscreenenter"",""1"",""2157""
","
","
","""event"",""trial"",""time""
""fullscreenenter"",""1"",""2157""
","
","","","","","","null","<div style=""font-size:60px;"">+</div>","null","","fixation","","",""
"memory-trial","278","503282","0.0-18.0-1.116","7719","approach_avoid_sv1","""event"",""trial"",""time""
""fullscreenenter"",""1"",""2157""
","
","
","""event"",""trial"",""time""
""fullscreenenter"",""1"",""2157""
","
","","","","","","1166.699999988079","images/table5.png","","","memory_trial","4","definitely_new",""
"html-keyboard-response","279","503790","0.0-18.0-0.117","7719","approach_avoid_sv1","""event"",""trial"",""time""
""fullscreenenter"",""1"",""2157""
","
","
","""event"",""trial"",""time""
""fullscreenenter"",""1"",""2157""
","
","","","","","","null","<div style=""font-size:60px;"">+</div>","null","","fixation","","",""
"memory-trial","280","506197","0.0-18.0-1.117","7719","approach_avoid_sv1","""event"",""trial"",""time""
""fullscreenenter"",""1"",""2157""
","
","
","""event"",""trial"",""time""
""fullscreenenter"",""1"",""2157""
","
","","","","","","1401.2000000029802","images/plane6.png","","","memory_trial","3","maybe_new",""
"html-keyboard-response","281","506699","0.0-18.0-0.118","7719","approach_avoid_sv1","""event"",""trial"",""time""
""fullscreenenter"",""1"",""2157""
","
","
","""event"",""trial"",""time""
""fullscreenenter"",""1"",""2157""
","
","","","","","","null","<div style=""font-size:60px;"">+</div>","null","","fixation","","",""
"memory-trial","282","508828","0.0-18.0-1.118","7719","approach_avoid_sv1","""event"",""trial"",""time""
""fullscreenenter"",""1"",""2157""
","
","
","""event"",""trial"",""time""
""fullscreenenter"",""1"",""2157""
","
","","","","","","1116.1000000089407","images/cat5.png","","","memory_trial","4","definitely_new",""
"html-keyboard-response","283","509334","0.0-18.0-0.119","7719","approach_avoid_sv1","""event"",""trial"",""time""
""fullscreenenter"",""1"",""2157""
","
","
","""event"",""trial"",""time""
""fullscreenenter"",""1"",""2157""
","
","","","","","","null","<div style=""font-size:60px;"">+</div>","null","","fixation","","",""
"memory-trial","284","510821","0.0-18.0-1.119","7719","approach_avoid_sv1","""event"",""trial"",""time""
""fullscreenenter"",""1"",""2157""
","
","
","""event"",""trial"",""time""
""fullscreenenter"",""1"",""2157""
","
","","","","","","475.8999999910593","images/straw4.png","","","memory_trial","4","definitely_new",""
"html-keyboard-response","285","511329","0.0-18.0-0.120","7719","approach_avoid_sv1","""event"",""trial"",""time""
""fullscreenenter"",""1"",""2157""
","
","
","""event"",""trial"",""time""
""fullscreenenter"",""1"",""2157""
","
","","","","","","null","<div style=""font-size:60px;"">+</div>","null","","fixation","","",""
"memory-trial","286","513515","0.0-18.0-1.120","7719","approach_avoid_sv1","""event"",""trial"",""time""
""fullscreenenter"",""1"",""2157""
","
","
","""event"",""trial"",""time""
""fullscreenenter"",""1"",""2157""
","
","","","","","","1173.5999999940395","images/cow7.png","","","memory_trial","3","maybe_new",""
"html-keyboard-response","287","514019","0.0-18.0-0.121","7719","approach_avoid_sv1","""event"",""trial"",""time""
""fullscreenenter"",""1"",""2157""
","
","
","""event"",""trial"",""time""
""fullscreenenter"",""1"",""2157""
","
","","","","","","null","<div style=""font-size:60px;"">+</div>","null","","fixation","","",""
"memory-trial","288","515642","0.0-18.0-1.121","7719","approach_avoid_sv1","""event"",""trial"",""time""
""fullscreenenter"",""1"",""2157""
","
","
","""event"",""trial"",""time""
""fullscreenenter"",""1"",""2157""
","
","","","","","","618.3999999910593","images/banana4.png","","","memory_trial","4","definitely_new",""
"html-keyboard-response","289","516153","0.0-18.0-0.122","7719","approach_avoid_sv1","""event"",""trial"",""time""
""fullscreenenter"",""1"",""2157""
","
","
","""event"",""trial"",""time""
""fullscreenenter"",""1"",""2157""
","
","","","","","","null","<div style=""font-size:60px;"">+</div>","null","","fixation","","",""
"memory-trial","290","519078","0.0-18.0-1.122","7719","approach_avoid_sv1","""event"",""trial"",""time""
""fullscreenenter"",""1"",""2157""
","
","
","""event"",""trial"",""time""
""fullscreenenter"",""1"",""2157""
","
","","","","","","1913.2000000029802","images/sheep4.png","","","memory_trial","3","maybe_new",""
"html-keyboard-response","291","519586","0.0-18.0-0.123","7719","approach_avoid_sv1","""event"",""trial"",""time""
""fullscreenenter"",""1"",""2157""
","
","
","""event"",""trial"",""time""
""fullscreenenter"",""1"",""2157""
","
","","","","","","null","<div style=""font-size:60px;"">+</div>","null","","fixation","","",""
"memory-trial","292","521333","0.0-18.0-1.123","7719","approach_avoid_sv1","""event"",""trial"",""time""
""fullscreenenter"",""1"",""2157""
","
","
","""event"",""trial"",""time""
""fullscreenenter"",""1"",""2157""
","
","","","","","","739.0999999940395","images/bed4.png","","","memory_trial","4","definitely_new",""
"html-keyboard-response","293","521838","0.0-18.0-0.124","7719","approach_avoid_sv1","""event"",""trial"",""time""
""fullscreenenter"",""1"",""2157""
","
","
","""event"",""trial"",""time""
""fullscreenenter"",""1"",""2157""
","
","","","","","","null","<div style=""font-size:60px;"">+</div>","null","","fixation","","",""
"memory-trial","294","524548","0.0-18.0-1.124","7719","approach_avoid_sv1","""event"",""trial"",""time""
""fullscreenenter"",""1"",""2157""
","
","
","""event"",""trial"",""time""
""fullscreenenter"",""1"",""2157""
","
","","","","","","1699","images/rodent3.png","","","memory_trial","3","maybe_new",""
"html-keyboard-response","295","525056","0.0-18.0-0.125","7719","approach_avoid_sv1","""event"",""trial"",""time""
""fullscreenenter"",""1"",""2157""
","
","
","""event"",""trial"",""time""
""fullscreenenter"",""1"",""2157""
","
","","","","","","null","<div style=""font-size:60px;"">+</div>","null","","fixation","","",""
"memory-trial","296","526789","0.0-18.0-1.125","7719","approach_avoid_sv1","""event"",""trial"",""time""
""fullscreenenter"",""1"",""2157""
","
","
","""event"",""trial"",""time""
""fullscreenenter"",""1"",""2157""
","
","","","","","","722.6000000089407","images/cat2.png","","","memory_trial","3","maybe_new",""
"html-keyboard-response","297","527294","0.0-18.0-0.126","7719","approach_avoid_sv1","""event"",""trial"",""time""
""fullscreenenter"",""1"",""2157""
","
","
","""event"",""trial"",""time""
""fullscreenenter"",""1"",""2157""
","
","","","","","","null","<div style=""font-size:60px;"">+</div>","null","","fixation","","",""
