"trial_type","trial_index","time_elapsed","internal_node_id","subject_id","task_version","interactions","blur_events","focus_events","fullscreenenter_events","fullscreenexit_events","success","timeout","failed_images","failed_audio","failed_video","rt","stimulus","response","button_pressed","task_part","key_press","answer","correct"
"pavlovia","0","48","0.0-0.0","4259","approach_avoid_sv1","""event"",""trial"",""time""
""fullscreenenter"",""1"",""3862""
","
","
","""event"",""trial"",""time""
""fullscreenenter"",""1"",""3862""
","
","","","","","","","","","","","","",""
"fullscreen","1","4844","0.0-1.0","4259","approach_avoid_sv1","""event"",""trial"",""time""
""fullscreenenter"",""1"",""3862""
","
","
","""event"",""trial"",""time""
""fullscreenenter"",""1"",""3862""
","
","true","","","","","","","","","","","",""
"preload","2","9096","0.0-2.0","4259","approach_avoid_sv1","""event"",""trial"",""time""
""fullscreenenter"",""1"",""3862""
","
","
","""event"",""trial"",""time""
""fullscreenenter"",""1"",""3862""
","
","true","false","[]","[]","[]","","","","","","","",""
"preload","3","11799","0.0-3.0","4259","approach_avoid_sv1","""event"",""trial"",""time""
""fullscreenenter"",""1"",""3862""
","
","
","""event"",""trial"",""time""
""fullscreenenter"",""1"",""3862""
","
","true","false","[]","[]","[]","","","","","","","",""
"preload","4","12290","0.0-4.0","4259","approach_avoid_sv1","""event"",""trial"",""time""
""fullscreenenter"",""1"",""3862""
","
","
","""event"",""trial"",""time""
""fullscreenenter"",""1"",""3862""
","
","true","false","[]","[]","[]","","","","","","","",""
"audio-keyboard-response","5","20109","0.0-5.0","4259","approach_avoid_sv1","""event"",""trial"",""time""
""fullscreenenter"",""1"",""3862""
","
","
","""event"",""trial"",""time""
""fullscreenenter"",""1"",""3862""
","
","","","","","","7808.000000000001","audio/beep_loop.wav"," ","","","","",""
"audio-button-response","6","24015","0.0-6.0","4259","approach_avoid_sv1","""event"",""trial"",""time""
""fullscreenenter"",""1"",""3862""
","
","
","""event"",""trial"",""time""
""fullscreenenter"",""1"",""3862""
","
","","","","","","3893","audio/turtle.wav","3","","","","",""
"audio-button-response","7","26882","0.0-7.0","4259","approach_avoid_sv1","""event"",""trial"",""time""
""fullscreenenter"",""1"",""3862""
","
","
","""event"",""trial"",""time""
""fullscreenenter"",""1"",""3862""
","
","","","","","","1856","audio/shark.wav","2","","","","",""
"preload","8","29874","0.0-8.0","4259","approach_avoid_sv1","""event"",""trial"",""time""
""fullscreenenter"",""1"",""3862""
","
","
","""event"",""trial"",""time""
""fullscreenenter"",""1"",""3862""
","
","true","false","[]","[]","[]","","","","","","","",""
"learning-instructions","9","42332","0.0-9.0-0.0","4259","approach_avoid_sv1","""event"",""trial"",""time""
""fullscreenenter"",""1"",""3862""
","
","
","""event"",""trial"",""time""
""fullscreenenter"",""1"",""3862""
","
","","","","","","7970.699999999953","<p> Welcome back! </p><p> Last week, you had to make choices about lots of different items.  </p>","","0","instructions","","",""
"learning-instructions","10","47267","0.0-9.0-0.1","4259","approach_avoid_sv1","""event"",""trial"",""time""
""fullscreenenter"",""1"",""3862""
","
","
","""event"",""trial"",""time""
""fullscreenenter"",""1"",""3862""
","
","","","","","","816.5999999999767","<p> Today, we are going to ask you to try to remember all the items. </p>","","0","instructions","","",""
"learning-instructions","11","58446","0.0-9.0-0.2","4259","approach_avoid_sv1","""event"",""trial"",""time""
""fullscreenenter"",""1"",""3862""
","
","
","""event"",""trial"",""time""
""fullscreenenter"",""1"",""3862""
","
","","","","","","1039.7999999999884","<p> On every trial, you will see an image. </p><p> The image may be an OLD image you saw during the games last week or it may be a NEW image that was not presented. </p>","","0","instructions","","",""
"learning-instructions","12","68596","0.0-9.0-0.3","4259","approach_avoid_sv1","""event"",""trial"",""time""
""fullscreenenter"",""1"",""3862""
","
","
","""event"",""trial"",""time""
""fullscreenenter"",""1"",""3862""
","
","","","","","","1641.399999999965","<p> You need to select whether the image is:  </p><p>  'Definitely old', 'Maybe old', 'Maybe new', or 'Definitely new.'  </p><div class=""mem-choice-instructions-grid""><div class=""choice-option"" id=""choice-option-1"" ><img src=""images/definitely_old_1.png"" id=""choice-option-img-1"" class=""choice-option-img"" stage=""1""></div><div class=""choice-option"" id=""choice-option-2"" ><img src=""images/maybe_old_1.png"" id=""choice-option-img-2"" class=""choice-option-img"" stage=""1""></div><div class=""choice-option"" id=""choice-option-3"" ><img src=""images/maybe_new_1.png"" id=""choice-option-img-3"" class=""choice-option-img"" stage=""1""></div><div class=""choice-option"" id=""choice-option-4"" > <img src=""images/definitely_new_1.png"" id=""choice-option-img-4"" class=""choice-option-img"" stage=""1""></div></div>","","0","instructions","","",""
"learning-instructions","13","75565","0.0-9.0-0.4","4259","approach_avoid_sv1","""event"",""trial"",""time""
""fullscreenenter"",""1"",""3862""
","
","
","""event"",""trial"",""time""
""fullscreenenter"",""1"",""3862""
","
","","","","","","449.70000000001164","<p> You should use the 1, 2, 3, and 4 keys to make your responses.  </p><div class=""mem-choice-instructions-grid""><div class=""choice-option"" id=""choice-option-1"" ><img src=""images/definitely_old.png"" id=""choice-option-img-1"" class=""choice-option-img"" stage=""1""></div><div class=""choice-option"" id=""choice-option-2"" ><img src=""images/maybe_old.png"" id=""choice-option-img-2"" class=""choice-option-img"" stage=""1""></div><div class=""choice-option"" id=""choice-option-3"" ><img src=""images/maybe_new.png"" id=""choice-option-img-3"" class=""choice-option-img"" stage=""1""></div><div class=""choice-option"" id=""choice-option-4"" > <img src=""images/definitely_new.png"" id=""choice-option-img-4"" class=""choice-option-img"" stage=""1""></div></div>","","0","instructions","","",""
"learning-instructions","14","83229","0.0-9.0-0.5","4259","approach_avoid_sv1","""event"",""trial"",""time""
""fullscreenenter"",""1"",""3862""
","
","
","""event"",""trial"",""time""
""fullscreenenter"",""1"",""3862""
","
","","","","","","1332.2000000000116","<p> You will have 10 seconds to make each response.  </p><p>  Make sure to respond before time runs out! </p>","","0","instructions","","",""
"learning-instructions","15","91117","0.0-9.0-0.6","4259","approach_avoid_sv1","""event"",""trial"",""time""
""fullscreenenter"",""1"",""3862""
","
","
","""event"",""trial"",""time""
""fullscreenenter"",""1"",""3862""
","
","","","","","","805.1000000000349","<p> Today, you will see each image ONCE only.  </p><p>  That means none of the images will repeat. </p>","","0","instructions","","",""
"learning-instructions","16","104286","0.0-9.0-0.7","4259","approach_avoid_sv1","""event"",""trial"",""time""
""fullscreenenter"",""1"",""3862""
","
","
","""event"",""trial"",""time""
""fullscreenenter"",""1"",""3862""
","
","","","","","","501.4000000000233","<p> Before you play the real game, it is time to practice. </p><p>  Just like in the real game, some of the images in the practice will be ones you have seen before. </p><p>  Others will be entirely new. </p>","","0","instructions","","",""
"html-button-response","17","105677","0.0-10.0","4259","approach_avoid_sv1","""event"",""trial"",""time""
""fullscreenenter"",""1"",""3862""
","
","
","""event"",""trial"",""time""
""fullscreenenter"",""1"",""3862""
","
","","","","","","1282.600000000035","<p> Ready to practice? </p><p> Remember, use the 1, 2, 3, and 4 keys to make your responses. </p>","0","","instructions","","",""
"html-keyboard-response","18","106281","0.0-11.0-0.0","4259","approach_avoid_sv1","""event"",""trial"",""time""
""fullscreenenter"",""1"",""3862""
","
","
","""event"",""trial"",""time""
""fullscreenenter"",""1"",""3862""
","
","","","","","","null","<div style=""font-size:60px;"">+</div>","null","","fixation","","",""
"memory-trial","19","110194","0.0-11.0-1.0","4259","approach_avoid_sv1","""event"",""trial"",""time""
""fullscreenenter"",""1"",""3862""
","
","
","""event"",""trial"",""time""
""fullscreenenter"",""1"",""3862""
","
","","","","","","2904.2000000000116","images/racket3.png","","","practice","1","definitely_old",""
"html-keyboard-response","20","110697","0.0-11.0-0.1","4259","approach_avoid_sv1","""event"",""trial"",""time""
""fullscreenenter"",""1"",""3862""
","
","
","""event"",""trial"",""time""
""fullscreenenter"",""1"",""3862""
","
","","","","","","null","<div style=""font-size:60px;"">+</div>","null","","fixation","","",""
"memory-trial","21","116896","0.0-11.0-1.1","4259","approach_avoid_sv1","""event"",""trial"",""time""
""fullscreenenter"",""1"",""3862""
","
","
","""event"",""trial"",""time""
""fullscreenenter"",""1"",""3862""
","
","","","","","","5193.5","images/racket5.png","","","practice","4","definitely_new",""
"html-keyboard-response","22","117398","0.0-11.0-0.2","4259","approach_avoid_sv1","""event"",""trial"",""time""
""fullscreenenter"",""1"",""3862""
","
","
","""event"",""trial"",""time""
""fullscreenenter"",""1"",""3862""
","
","","","","","","null","<div style=""font-size:60px;"">+</div>","null","","fixation","","",""
"memory-trial","23","119924","0.0-11.0-1.2","4259","approach_avoid_sv1","""event"",""trial"",""time""
""fullscreenenter"",""1"",""3862""
","
","
","""event"",""trial"",""time""
""fullscreenenter"",""1"",""3862""
","
","","","","","","1520.2999999999884","images/racket2.png","","","practice","1","definitely_old",""
"html-keyboard-response","24","120427","0.0-11.0-0.3","4259","approach_avoid_sv1","""event"",""trial"",""time""
""fullscreenenter"",""1"",""3862""
","
","
","""event"",""trial"",""time""
""fullscreenenter"",""1"",""3862""
","
","","","","","","null","<div style=""font-size:60px;"">+</div>","null","","fixation","","",""
"memory-trial","25","123039","0.0-11.0-1.3","4259","approach_avoid_sv1","""event"",""trial"",""time""
""fullscreenenter"",""1"",""3862""
","
","
","""event"",""trial"",""time""
""fullscreenenter"",""1"",""3862""
","
","","","","","","1605.5","images/ball3.png","","","practice","4","definitely_new",""
"html-keyboard-response","26","123541","0.0-11.0-0.4","4259","approach_avoid_sv1","""event"",""trial"",""time""
""fullscreenenter"",""1"",""3862""
","
","
","""event"",""trial"",""time""
""fullscreenenter"",""1"",""3862""
","
","","","","","","null","<div style=""font-size:60px;"">+</div>","null","","fixation","","",""
"memory-trial","27","126044","0.0-11.0-1.4","4259","approach_avoid_sv1","""event"",""trial"",""time""
""fullscreenenter"",""1"",""3862""
","
","
","""event"",""trial"",""time""
""fullscreenenter"",""1"",""3862""
","
","","","","","","1497.100000000035","images/racket1.png","","","practice","4","definitely_new",""
"html-keyboard-response","28","126547","0.0-11.0-0.5","4259","approach_avoid_sv1","""event"",""trial"",""time""
""fullscreenenter"",""1"",""3862""
","
","
","""event"",""trial"",""time""
""fullscreenenter"",""1"",""3862""
","
","","","","","","null","<div style=""font-size:60px;"">+</div>","null","","fixation","","",""
"memory-trial","29","129004","0.0-11.0-1.5","4259","approach_avoid_sv1","""event"",""trial"",""time""
""fullscreenenter"",""1"",""3862""
","
","
","""event"",""trial"",""time""
""fullscreenenter"",""1"",""3862""
","
","","","","","","1451.0999999999767","images/ball5.png","","","practice","4","definitely_new",""
"html-keyboard-response","30","129507","0.0-11.0-0.6","4259","approach_avoid_sv1","""event"",""trial"",""time""
""fullscreenenter"",""1"",""3862""
","
","
","""event"",""trial"",""time""
""fullscreenenter"",""1"",""3862""
","
","","","","","","null","<div style=""font-size:60px;"">+</div>","null","","fixation","","",""
"memory-trial","31","131769","0.0-11.0-1.6","4259","approach_avoid_sv1","""event"",""trial"",""time""
""fullscreenenter"",""1"",""3862""
","
","
","""event"",""trial"",""time""
""fullscreenenter"",""1"",""3862""
","
","","","","","","1256.7999999999884","images/ball2.png","","","practice","4","definitely_new",""
"html-keyboard-response","32","132271","0.0-11.0-0.7","4259","approach_avoid_sv1","""event"",""trial"",""time""
""fullscreenenter"",""1"",""3862""
","
","
","""event"",""trial"",""time""
""fullscreenenter"",""1"",""3862""
","
","","","","","","null","<div style=""font-size:60px;"">+</div>","null","","fixation","","",""
"memory-trial","33","134535","0.0-11.0-1.7","4259","approach_avoid_sv1","""event"",""trial"",""time""
""fullscreenenter"",""1"",""3862""
","
","
","""event"",""trial"",""time""
""fullscreenenter"",""1"",""3862""
","
","","","","","","1258.600000000035","images/ball1.png","","","practice","4","definitely_new",""
"learning-instructions","34","143342","0.0-12.0-0.0","4259","approach_avoid_sv1","""event"",""trial"",""time""
""fullscreenenter"",""1"",""3862""
","
","
","""event"",""trial"",""time""
""fullscreenenter"",""1"",""3862""
","
","","","","","","1505.5999999999767","<p> Great! You have completed the practice. </p><p> Before you start, we're going to ask you a few questions about how the game works.  </p>","","0","instructions","","",""
"preload","35","145317","0.0-13.0","4259","approach_avoid_sv1","""event"",""trial"",""time""
""fullscreenenter"",""1"",""3862""
","
","
","""event"",""trial"",""time""
""fullscreenenter"",""1"",""3862""
","
","true","false","[]","[]","[]","","","","","","","",""
"comp-q","36","152369","0.0-14.0-0.0","4259","approach_avoid_sv1","""event"",""trial"",""time""
""fullscreenenter"",""1"",""3862""
","
","
","""event"",""trial"",""time""
""fullscreenenter"",""1"",""3862""
","
","","","","","","1220","<p> <b> True or False? </b> </p><p> In this game, you will only see each image once. </p>","","0","comp_question","","","true"
"comp-q","37","160002","0.0-14.0-1.0","4259","approach_avoid_sv1","""event"",""trial"",""time""
""fullscreenenter"",""1"",""3862""
","
","
","""event"",""trial"",""time""
""fullscreenenter"",""1"",""3862""
","
","","","","","","1291.2999999999884","<p> <b> That's right! </b> You will see many different images <i> one time each </i> in this game. </p>","","0","comp_answer","","",""
"comp-q","38","165776","0.0-15.0-0.0","4259","approach_avoid_sv1","""event"",""trial"",""time""
""fullscreenenter"",""1"",""3862""
","
","
","""event"",""trial"",""time""
""fullscreenenter"",""1"",""3862""
","
","","","","","","756.7000000000116","<p> <b> True or False? </b> </p><p> You should use the mouse and click to make your response. </p>","","1","comp_question","","","true"
"comp-q","39","173156","0.0-15.0-1.0","4259","approach_avoid_sv1","""event"",""trial"",""time""
""fullscreenenter"",""1"",""3862""
","
","
","""event"",""trial"",""time""
""fullscreenenter"",""1"",""3862""
","
","","","","","","872.0999999999767","<p><b> That's right! </b> You should use the '1', '2', '3', and '4' keys to make your response. </p>","","0","comp_answer","","",""
"comp-q","40","179657","0.0-16.0-0.0","4259","approach_avoid_sv1","""event"",""trial"",""time""
""fullscreenenter"",""1"",""3862""
","
","
","""event"",""trial"",""time""
""fullscreenenter"",""1"",""3862""
","
","","","","","","814.5","<p> <b> True or False? </b> </p><p> You will have as much time as you want to make each choice. </p>","","1","comp_question","","","true"
"comp-q","41","185682","0.0-16.0-1.0","4259","approach_avoid_sv1","""event"",""trial"",""time""
""fullscreenenter"",""1"",""3862""
","
","
","""event"",""trial"",""time""
""fullscreenenter"",""1"",""3862""
","
","","","","","","1322.100000000035","<p> <b> That's right! </b> You will only have 10 seconds to make each choice. </p>","","0","comp_answer","","",""
"learning-instructions","42","195445","0.0-17.0","4259","approach_avoid_sv1","""event"",""trial"",""time""
""fullscreenenter"",""1"",""3862""
","
","
","""event"",""trial"",""time""
""fullscreenenter"",""1"",""3862""
","
","","","","","","1081","<p> Great! You are now ready to begin the game. </p><p> Remember, use the 1, 2, 3, and 4 keys to make your responses. </p>","","0","instructions","","",""
"html-keyboard-response","43","196052","0.0-18.0-0.0","4259","approach_avoid_sv1","""event"",""trial"",""time""
""fullscreenenter"",""1"",""3862""
","
","
","""event"",""trial"",""time""
""fullscreenenter"",""1"",""3862""
","
","","","","","","null","<div style=""font-size:60px;"">+</div>","null","","fixation","","",""
"memory-trial","44","198839","0.0-18.0-1.0","4259","approach_avoid_sv1","""event"",""trial"",""time""
""fullscreenenter"",""1"",""3862""
","
","
","""event"",""trial"",""time""
""fullscreenenter"",""1"",""3862""
","
","","","","","","1774.600000000035","images/boat8.png","","","memory_trial","4","definitely_new",""
"html-keyboard-response","45","199344","0.0-18.0-0.1","4259","approach_avoid_sv1","""event"",""trial"",""time""
""fullscreenenter"",""1"",""3862""
","
","
","""event"",""trial"",""time""
""fullscreenenter"",""1"",""3862""
","
","","","","","","null","<div style=""font-size:60px;"">+</div>","null","","fixation","","",""
"memory-trial","46","203339","0.0-18.0-1.1","4259","approach_avoid_sv1","""event"",""trial"",""time""
""fullscreenenter"",""1"",""3862""
","
","
","""event"",""trial"",""time""
""fullscreenenter"",""1"",""3862""
","
","","","","","","2984.2999999999884","images/apple1.png","","","memory_trial","2","maybe_old",""
"html-keyboard-response","47","203844","0.0-18.0-0.2","4259","approach_avoid_sv1","""event"",""trial"",""time""
""fullscreenenter"",""1"",""3862""
","
","
","""event"",""trial"",""time""
""fullscreenenter"",""1"",""3862""
","
","","","","","","null","<div style=""font-size:60px;"">+</div>","null","","fixation","","",""
"memory-trial","48","206405","0.0-18.0-1.2","4259","approach_avoid_sv1","""event"",""trial"",""time""
""fullscreenenter"",""1"",""3862""
","
","
","""event"",""trial"",""time""
""fullscreenenter"",""1"",""3862""
","
","","","","","","1546.8000000000466","images/straw4.png","","","memory_trial","1","definitely_old",""
"html-keyboard-response","49","206912","0.0-18.0-0.3","4259","approach_avoid_sv1","""event"",""trial"",""time""
""fullscreenenter"",""1"",""3862""
","
","
","""event"",""trial"",""time""
""fullscreenenter"",""1"",""3862""
","
","","","","","","null","<div style=""font-size:60px;"">+</div>","null","","fixation","","",""
"memory-trial","50","209390","0.0-18.0-1.3","4259","approach_avoid_sv1","""event"",""trial"",""time""
""fullscreenenter"",""1"",""3862""
","
","
","""event"",""trial"",""time""
""fullscreenenter"",""1"",""3862""
","
","","","","","","1464.7999999999884","images/cactus1.png","","","memory_trial","1","definitely_old",""
"html-keyboard-response","51","209896","0.0-18.0-0.4","4259","approach_avoid_sv1","""event"",""trial"",""time""
""fullscreenenter"",""1"",""3862""
","
","
","""event"",""trial"",""time""
""fullscreenenter"",""1"",""3862""
","
","","","","","","null","<div style=""font-size:60px;"">+</div>","null","","fixation","","",""
"memory-trial","52","212889","0.0-18.0-1.4","4259","approach_avoid_sv1","""event"",""trial"",""time""
""fullscreenenter"",""1"",""3862""
","
","
","""event"",""trial"",""time""
""fullscreenenter"",""1"",""3862""
","
","","","","","","1983.8000000000466","images/table8.png","","","memory_trial","1","definitely_old",""
"html-keyboard-response","53","213396","0.0-18.0-0.5","4259","approach_avoid_sv1","""event"",""trial"",""time""
""fullscreenenter"",""1"",""3862""
","
","
","""event"",""trial"",""time""
""fullscreenenter"",""1"",""3862""
","
","","","","","","null","<div style=""font-size:60px;"">+</div>","null","","fixation","","",""
"memory-trial","54","215267","0.0-18.0-1.5","4259","approach_avoid_sv1","""event"",""trial"",""time""
""fullscreenenter"",""1"",""3862""
","
","
","""event"",""trial"",""time""
""fullscreenenter"",""1"",""3862""
","
","","","","","","861.9000000000233","images/sheep1.png","","","memory_trial","1","definitely_old",""
"html-keyboard-response","55","215774","0.0-18.0-0.6","4259","approach_avoid_sv1","""event"",""trial"",""time""
""fullscreenenter"",""1"",""3862""
","
","
","""event"",""trial"",""time""
""fullscreenenter"",""1"",""3862""
","
","","","","","","null","<div style=""font-size:60px;"">+</div>","null","","fixation","","",""
"memory-trial","56","217993","0.0-18.0-1.6","4259","approach_avoid_sv1","""event"",""trial"",""time""
""fullscreenenter"",""1"",""3862""
","
","
","""event"",""trial"",""time""
""fullscreenenter"",""1"",""3862""
","
","","","","","","1205.600000000035","images/cow3.png","","","memory_trial","4","definitely_new",""
"html-keyboard-response","57","218499","0.0-18.0-0.7","4259","approach_avoid_sv1","""event"",""trial"",""time""
""fullscreenenter"",""1"",""3862""
","
","
","""event"",""trial"",""time""
""fullscreenenter"",""1"",""3862""
","
","","","","","","null","<div style=""font-size:60px;"">+</div>","null","","fixation","","",""
"memory-trial","58","220616","0.0-18.0-1.7","4259","approach_avoid_sv1","""event"",""trial"",""time""
""fullscreenenter"",""1"",""3862""
","
","
","""event"",""trial"",""time""
""fullscreenenter"",""1"",""3862""
","
","","","","","","1099.2000000000116","images/cat5.png","","","memory_trial","1","definitely_old",""
"html-keyboard-response","59","221120","0.0-18.0-0.8","4259","approach_avoid_sv1","""event"",""trial"",""time""
""fullscreenenter"",""1"",""3862""
","
","
","""event"",""trial"",""time""
""fullscreenenter"",""1"",""3862""
","
","","","","","","null","<div style=""font-size:60px;"">+</div>","null","","fixation","","",""
"memory-trial","60","223964","0.0-18.0-1.8","4259","approach_avoid_sv1","""event"",""trial"",""time""
""fullscreenenter"",""1"",""3862""
","
","
","""event"",""trial"",""time""
""fullscreenenter"",""1"",""3862""
","
","","","","","","1837","images/sofa7.png","","","memory_trial","1","definitely_old",""
"html-keyboard-response","61","224469","0.0-18.0-0.9","4259","approach_avoid_sv1","""event"",""trial"",""time""
""fullscreenenter"",""1"",""3862""
","
","
","""event"",""trial"",""time""
""fullscreenenter"",""1"",""3862""
","
","","","","","","null","<div style=""font-size:60px;"">+</div>","null","","fixation","","",""
"memory-trial","62","226284","0.0-18.0-1.9","4259","approach_avoid_sv1","""event"",""trial"",""time""
""fullscreenenter"",""1"",""3862""
","
","
","""event"",""trial"",""time""
""fullscreenenter"",""1"",""3862""
","
","","","","","","797","images/chair2.png","","","memory_trial","1","definitely_old",""
"html-keyboard-response","63","226795","0.0-18.0-0.10","4259","approach_avoid_sv1","""event"",""trial"",""time""
""fullscreenenter"",""1"",""3862""
","
","
","""event"",""trial"",""time""
""fullscreenenter"",""1"",""3862""
","
","","","","","","null","<div style=""font-size:60px;"">+</div>","null","","fixation","","",""
"memory-trial","64","229634","0.0-18.0-1.10","4259","approach_avoid_sv1","""event"",""trial"",""time""
""fullscreenenter"",""1"",""3862""
","
","
","""event"",""trial"",""time""
""fullscreenenter"",""1"",""3862""
","
","","","","","","1830.2000000000116","images/train1.png","","","memory_trial","1","definitely_old",""
"html-keyboard-response","65","230140","0.0-18.0-0.11","4259","approach_avoid_sv1","""event"",""trial"",""time""
""fullscreenenter"",""1"",""3862""
","
","
","""event"",""trial"",""time""
""fullscreenenter"",""1"",""3862""
","
","","","","","","null","<div style=""font-size:60px;"">+</div>","null","","fixation","","",""
"memory-trial","66","232390","0.0-18.0-1.11","4259","approach_avoid_sv1","""event"",""trial"",""time""
""fullscreenenter"",""1"",""3862""
","
","
","""event"",""trial"",""time""
""fullscreenenter"",""1"",""3862""
","
","","","","","","1236.0999999999767","images/horse4.png","","","memory_trial","1","definitely_old",""
"html-keyboard-response","67","232895","0.0-18.0-0.12","4259","approach_avoid_sv1","""event"",""trial"",""time""
""fullscreenenter"",""1"",""3862""
","
","
","""event"",""trial"",""time""
""fullscreenenter"",""1"",""3862""
","
","","","","","","null","<div style=""font-size:60px;"">+</div>","null","","fixation","","",""
"memory-trial","68","237365","0.0-18.0-1.12","4259","approach_avoid_sv1","""event"",""trial"",""time""
""fullscreenenter"",""1"",""3862""
","
","
","""event"",""trial"",""time""
""fullscreenenter"",""1"",""3862""
","
","","","","","","3456.1999999999534","images/horse6.png","","","memory_trial","2","maybe_old",""
"html-keyboard-response","69","237870","0.0-18.0-0.13","4259","approach_avoid_sv1","""event"",""trial"",""time""
""fullscreenenter"",""1"",""3862""
","
","
","""event"",""trial"",""time""
""fullscreenenter"",""1"",""3862""
","
","","","","","","null","<div style=""font-size:60px;"">+</div>","null","","fixation","","",""
"memory-trial","70","240504","0.0-18.0-1.13","4259","approach_avoid_sv1","""event"",""trial"",""time""
""fullscreenenter"",""1"",""3862""
","
","
","""event"",""trial"",""time""
""fullscreenenter"",""1"",""3862""
","
","","","","","","1621.899999999965","images/cactus7.png","","","memory_trial","1","definitely_old",""
"html-keyboard-response","71","241010","0.0-18.0-0.14","4259","approach_avoid_sv1","""event"",""trial"",""time""
""fullscreenenter"",""1"",""3862""
","
","
","""event"",""trial"",""time""
""fullscreenenter"",""1"",""3862""
","
","","","","","","null","<div style=""font-size:60px;"">+</div>","null","","fixation","","",""
"memory-trial","72","244044","0.0-18.0-1.14","4259","approach_avoid_sv1","""event"",""trial"",""time""
""fullscreenenter"",""1"",""3862""
","
","
","""event"",""trial"",""time""
""fullscreenenter"",""1"",""3862""
","
","","","","","","2021.2999999999884","images/orange6.png","","","memory_trial","4","definitely_new",""
"html-keyboard-response","73","244549","0.0-18.0-0.15","4259","approach_avoid_sv1","""event"",""trial"",""time""
""fullscreenenter"",""1"",""3862""
","
","
","""event"",""trial"",""time""
""fullscreenenter"",""1"",""3862""
","
","","","","","","null","<div style=""font-size:60px;"">+</div>","null","","fixation","","",""
"memory-trial","74","248283","0.0-18.0-1.15","4259","approach_avoid_sv1","""event"",""trial"",""time""
""fullscreenenter"",""1"",""3862""
","
","
","""event"",""trial"",""time""
""fullscreenenter"",""1"",""3862""
","
","","","","","","2719.2999999999884","images/goat4.png","","","memory_trial","3","maybe_new",""
"html-keyboard-response","75","248790","0.0-18.0-0.16","4259","approach_avoid_sv1","""event"",""trial"",""time""
""fullscreenenter"",""1"",""3862""
","
","
","""event"",""trial"",""time""
""fullscreenenter"",""1"",""3862""
","
","","","","","","null","<div style=""font-size:60px;"">+</div>","null","","fixation","","",""
"memory-trial","76","252142","0.0-18.0-1.16","4259","approach_avoid_sv1","""event"",""trial"",""time""
""fullscreenenter"",""1"",""3862""
","
","
","""event"",""trial"",""time""
""fullscreenenter"",""1"",""3862""
","
","","","","","","2337.2999999999884","images/horse8.png","","","memory_trial","2","maybe_old",""
"html-keyboard-response","77","252646","0.0-18.0-0.17","4259","approach_avoid_sv1","""event"",""trial"",""time""
""fullscreenenter"",""1"",""3862""
","
","
","""event"",""trial"",""time""
""fullscreenenter"",""1"",""3862""
","
","","","","","","null","<div style=""font-size:60px;"">+</div>","null","","fixation","","",""
"memory-trial","78","255417","0.0-18.0-1.17","4259","approach_avoid_sv1","""event"",""trial"",""time""
""fullscreenenter"",""1"",""3862""
","
","
","""event"",""trial"",""time""
""fullscreenenter"",""1"",""3862""
","
","","","","","","1757.1999999999534","images/sofa8.png","","","memory_trial","4","definitely_new",""
"html-keyboard-response","79","255921","0.0-18.0-0.18","4259","approach_avoid_sv1","""event"",""trial"",""time""
""fullscreenenter"",""1"",""3862""
","
","
","""event"",""trial"",""time""
""fullscreenenter"",""1"",""3862""
","
","","","","","","null","<div style=""font-size:60px;"">+</div>","null","","fixation","","",""
"memory-trial","80","257987","0.0-18.0-1.18","4259","approach_avoid_sv1","""event"",""trial"",""time""
""fullscreenenter"",""1"",""3862""
","
","
","""event"",""trial"",""time""
""fullscreenenter"",""1"",""3862""
","
","","","","","","1052.600000000035","images/bed7.png","","","memory_trial","4","definitely_new",""
"html-keyboard-response","81","258492","0.0-18.0-0.19","4259","approach_avoid_sv1","""event"",""trial"",""time""
""fullscreenenter"",""1"",""3862""
","
","
","""event"",""trial"",""time""
""fullscreenenter"",""1"",""3862""
","
","","","","","","null","<div style=""font-size:60px;"">+</div>","null","","fixation","","",""
"memory-trial","82","260402","0.0-18.0-1.19","4259","approach_avoid_sv1","""event"",""trial"",""time""
""fullscreenenter"",""1"",""3862""
","
","
","""event"",""trial"",""time""
""fullscreenenter"",""1"",""3862""
","
","","","","","","895.5","images/plane1.png","","","memory_trial","4","definitely_new",""
"html-keyboard-response","83","260908","0.0-18.0-0.20","4259","approach_avoid_sv1","""event"",""trial"",""time""
""fullscreenenter"",""1"",""3862""
","
","
","""event"",""trial"",""time""
""fullscreenenter"",""1"",""3862""
","
","","","","","","null","<div style=""font-size:60px;"">+</div>","null","","fixation","","",""
"memory-trial","84","264362","0.0-18.0-1.20","4259","approach_avoid_sv1","""event"",""trial"",""time""
""fullscreenenter"",""1"",""3862""
","
","
","""event"",""trial"",""time""
""fullscreenenter"",""1"",""3862""
","
","","","","","","2442.8000000000466","images/flower7.png","","","memory_trial","1","definitely_old",""
"html-keyboard-response","85","264869","0.0-18.0-0.21","4259","approach_avoid_sv1","""event"",""trial"",""time""
""fullscreenenter"",""1"",""3862""
","
","
","""event"",""trial"",""time""
""fullscreenenter"",""1"",""3862""
","
","","","","","","null","<div style=""font-size:60px;"">+</div>","null","","fixation","","",""
"memory-trial","86","267723","0.0-18.0-1.21","4259","approach_avoid_sv1","""event"",""trial"",""time""
""fullscreenenter"",""1"",""3862""
","
","
","""event"",""trial"",""time""
""fullscreenenter"",""1"",""3862""
","
","","","","","","1839.5","images/apple6.png","","","memory_trial","2","maybe_old",""
"html-keyboard-response","87","268231","0.0-18.0-0.22","4259","approach_avoid_sv1","""event"",""trial"",""time""
""fullscreenenter"",""1"",""3862""
","
","
","""event"",""trial"",""time""
""fullscreenenter"",""1"",""3862""
","
","","","","","","null","<div style=""font-size:60px;"">+</div>","null","","fixation","","",""
"memory-trial","88","271163","0.0-18.0-1.22","4259","approach_avoid_sv1","""event"",""trial"",""time""
""fullscreenenter"",""1"",""3862""
","
","
","""event"",""trial"",""time""
""fullscreenenter"",""1"",""3862""
","
","","","","","","1918.899999999965","images/tree8.png","","","memory_trial","1","definitely_old",""
"html-keyboard-response","89","271669","0.0-18.0-0.23","4259","approach_avoid_sv1","""event"",""trial"",""time""
""fullscreenenter"",""1"",""3862""
","
","
","""event"",""trial"",""time""
""fullscreenenter"",""1"",""3862""
","
","","","","","","null","<div style=""font-size:60px;"">+</div>","null","","fixation","","",""
"memory-trial","90","273885","0.0-18.0-1.23","4259","approach_avoid_sv1","""event"",""trial"",""time""
""fullscreenenter"",""1"",""3862""
","
","
","""event"",""trial"",""time""
""fullscreenenter"",""1"",""3862""
","
","","","","","","1196.7999999999884","images/sofa5.png","","","memory_trial","1","definitely_old",""
"html-keyboard-response","91","274390","0.0-18.0-0.24","4259","approach_avoid_sv1","""event"",""trial"",""time""
""fullscreenenter"",""1"",""3862""
","
","
","""event"",""trial"",""time""
""fullscreenenter"",""1"",""3862""
","
","","","","","","null","<div style=""font-size:60px;"">+</div>","null","","fixation","","",""
"memory-trial","92","276444","0.0-18.0-1.24","4259","approach_avoid_sv1","""event"",""trial"",""time""
""fullscreenenter"",""1"",""3862""
","
","
","""event"",""trial"",""time""
""fullscreenenter"",""1"",""3862""
","
","","","","","","1041.600000000035","images/horse2.png","","","memory_trial","4","definitely_new",""
"html-keyboard-response","93","276950","0.0-18.0-0.25","4259","approach_avoid_sv1","""event"",""trial"",""time""
""fullscreenenter"",""1"",""3862""
","
","
","""event"",""trial"",""time""
""fullscreenenter"",""1"",""3862""
","
","","","","","","null","<div style=""font-size:60px;"">+</div>","null","","fixation","","",""
"memory-trial","94","280385","0.0-18.0-1.25","4259","approach_avoid_sv1","""event"",""trial"",""time""
""fullscreenenter"",""1"",""3862""
","
","
","""event"",""trial"",""time""
""fullscreenenter"",""1"",""3862""
","
","","","","","","2423.2000000000116","images/cat7.png","","","memory_trial","3","maybe_new",""
"html-keyboard-response","95","280890","0.0-18.0-0.26","4259","approach_avoid_sv1","""event"",""trial"",""time""
""fullscreenenter"",""1"",""3862""
","
","
","""event"",""trial"",""time""
""fullscreenenter"",""1"",""3862""
","
","","","","","","null","<div style=""font-size:60px;"">+</div>","null","","fixation","","",""
"memory-trial","96","283119","0.0-18.0-1.26","4259","approach_avoid_sv1","""event"",""trial"",""time""
""fullscreenenter"",""1"",""3862""
","
","
","""event"",""trial"",""time""
""fullscreenenter"",""1"",""3862""
","
","","","","","","1217.9000000000233","images/train3.png","","","memory_trial","1","definitely_old",""
"html-keyboard-response","97","283623","0.0-18.0-0.27","4259","approach_avoid_sv1","""event"",""trial"",""time""
""fullscreenenter"",""1"",""3862""
","
","
","""event"",""trial"",""time""
""fullscreenenter"",""1"",""3862""
","
","","","","","","null","<div style=""font-size:60px;"">+</div>","null","","fixation","","",""
"memory-trial","98","286554","0.0-18.0-1.27","4259","approach_avoid_sv1","""event"",""trial"",""time""
""fullscreenenter"",""1"",""3862""
","
","
","""event"",""trial"",""time""
""fullscreenenter"",""1"",""3862""
","
","","","","","","1918.2000000000698","images/straw3.png","","","memory_trial","2","maybe_old",""
"html-keyboard-response","99","287062","0.0-18.0-0.28","4259","approach_avoid_sv1","""event"",""trial"",""time""
""fullscreenenter"",""1"",""3862""
","
","
","""event"",""trial"",""time""
""fullscreenenter"",""1"",""3862""
","
","","","","","","null","<div style=""font-size:60px;"">+</div>","null","","fixation","","",""
"memory-trial","100","290255","0.0-18.0-1.28","4259","approach_avoid_sv1","""event"",""trial"",""time""
""fullscreenenter"",""1"",""3862""
","
","
","""event"",""trial"",""time""
""fullscreenenter"",""1"",""3862""
","
","","","","","","2176.899999999907","images/tree5.png","","","memory_trial","2","maybe_old",""
"html-keyboard-response","101","290762","0.0-18.0-0.29","4259","approach_avoid_sv1","""event"",""trial"",""time""
""fullscreenenter"",""1"",""3862""
","
","
","""event"",""trial"",""time""
""fullscreenenter"",""1"",""3862""
","
","","","","","","null","<div style=""font-size:60px;"">+</div>","null","","fixation","","",""
"memory-trial","102","292930","0.0-18.0-1.29","4259","approach_avoid_sv1","""event"",""trial"",""time""
""fullscreenenter"",""1"",""3862""
","
","
","""event"",""trial"",""time""
""fullscreenenter"",""1"",""3862""
","
","","","","","","1154.7000000000698","images/rodent2.png","","","memory_trial","4","definitely_new",""
"html-keyboard-response","103","293436","0.0-18.0-0.30","4259","approach_avoid_sv1","""event"",""trial"",""time""
""fullscreenenter"",""1"",""3862""
","
","
","""event"",""trial"",""time""
""fullscreenenter"",""1"",""3862""
","
","","","","","","null","<div style=""font-size:60px;"">+</div>","null","","fixation","","",""
"memory-trial","104","296927","0.0-18.0-1.30","4259","approach_avoid_sv1","""event"",""trial"",""time""
""fullscreenenter"",""1"",""3862""
","
","
","""event"",""trial"",""time""
""fullscreenenter"",""1"",""3862""
","
","","","","","","2477.5999999999767","images/plane8.png","","","memory_trial","3","maybe_new",""
"html-keyboard-response","105","297433","0.0-18.0-0.31","4259","approach_avoid_sv1","""event"",""trial"",""time""
""fullscreenenter"",""1"",""3862""
","
","
","""event"",""trial"",""time""
""fullscreenenter"",""1"",""3862""
","
","","","","","","null","<div style=""font-size:60px;"">+</div>","null","","fixation","","",""
"memory-trial","106","299930","0.0-18.0-1.31","4259","approach_avoid_sv1","""event"",""trial"",""time""
""fullscreenenter"",""1"",""3862""
","
","
","""event"",""trial"",""time""
""fullscreenenter"",""1"",""3862""
","
","","","","","","1482.8000000000466","images/goat3.png","","","memory_trial","3","maybe_new",""
"html-keyboard-response","107","300435","0.0-18.0-0.32","4259","approach_avoid_sv1","""event"",""trial"",""time""
""fullscreenenter"",""1"",""3862""
","
","
","""event"",""trial"",""time""
""fullscreenenter"",""1"",""3862""
","
","","","","","","null","<div style=""font-size:60px;"">+</div>","null","","fixation","","",""
"memory-trial","108","303235","0.0-18.0-1.32","4259","approach_avoid_sv1","""event"",""trial"",""time""
""fullscreenenter"",""1"",""3862""
","
","
","""event"",""trial"",""time""
""fullscreenenter"",""1"",""3862""
","
","","","","","","1788.1999999999534","images/sheep5.png","","","memory_trial","3","maybe_new",""
"html-keyboard-response","109","303741","0.0-18.0-0.33","4259","approach_avoid_sv1","""event"",""trial"",""time""
""fullscreenenter"",""1"",""3862""
","
","
","""event"",""trial"",""time""
""fullscreenenter"",""1"",""3862""
","
","","","","","","null","<div style=""font-size:60px;"">+</div>","null","","fixation","","",""
"memory-trial","110","305876","0.0-18.0-1.33","4259","approach_avoid_sv1","""event"",""trial"",""time""
""fullscreenenter"",""1"",""3862""
","
","
","""event"",""trial"",""time""
""fullscreenenter"",""1"",""3862""
","
","","","","","","1121.7999999999302","images/table3.png","","","memory_trial","4","definitely_new",""
"html-keyboard-response","111","306384","0.0-18.0-0.34","4259","approach_avoid_sv1","""event"",""trial"",""time""
""fullscreenenter"",""1"",""3862""
","
","
","""event"",""trial"",""time""
""fullscreenenter"",""1"",""3862""
","
","","","","","","null","<div style=""font-size:60px;"">+</div>","null","","fixation","","",""
"memory-trial","112","309031","0.0-18.0-1.34","4259","approach_avoid_sv1","""event"",""trial"",""time""
""fullscreenenter"",""1"",""3862""
","
","
","""event"",""trial"",""time""
""fullscreenenter"",""1"",""3862""
","
","","","","","","1633","images/flower3.png","","","memory_trial","2","maybe_old",""
"html-keyboard-response","113","309537","0.0-18.0-0.35","4259","approach_avoid_sv1","""event"",""trial"",""time""
""fullscreenenter"",""1"",""3862""
","
","
","""event"",""trial"",""time""
""fullscreenenter"",""1"",""3862""
","
","","","","","","null","<div style=""font-size:60px;"">+</div>","null","","fixation","","",""
"memory-trial","114","311907","0.0-18.0-1.35","4259","approach_avoid_sv1","""event"",""trial"",""time""
""fullscreenenter"",""1"",""3862""
","
","
","""event"",""trial"",""time""
""fullscreenenter"",""1"",""3862""
","
","","","","","","1357.2999999999302","images/table7.png","","","memory_trial","1","definitely_old",""
"html-keyboard-response","115","312412","0.0-18.0-0.36","4259","approach_avoid_sv1","""event"",""trial"",""time""
""fullscreenenter"",""1"",""3862""
","
","
","""event"",""trial"",""time""
""fullscreenenter"",""1"",""3862""
","
","","","","","","null","<div style=""font-size:60px;"">+</div>","null","","fixation","","",""
"memory-trial","116","314895","0.0-18.0-1.36","4259","approach_avoid_sv1","""event"",""trial"",""time""
""fullscreenenter"",""1"",""3862""
","
","
","""event"",""trial"",""time""
""fullscreenenter"",""1"",""3862""
","
","","","","","","1469.1999999999534","images/rodent5.png","","","memory_trial","4","definitely_new",""
"html-keyboard-response","117","315400","0.0-18.0-0.37","4259","approach_avoid_sv1","""event"",""trial"",""time""
""fullscreenenter"",""1"",""3862""
","
","
","""event"",""trial"",""time""
""fullscreenenter"",""1"",""3862""
","
","","","","","","null","<div style=""font-size:60px;"">+</div>","null","","fixation","","",""
"memory-trial","118","317410","0.0-18.0-1.37","4259","approach_avoid_sv1","""event"",""trial"",""time""
""fullscreenenter"",""1"",""3862""
","
","
","""event"",""trial"",""time""
""fullscreenenter"",""1"",""3862""
","
","","","","","","995.6000000000931","images/dog2.png","","","memory_trial","4","definitely_new",""
"html-keyboard-response","119","317916","0.0-18.0-0.38","4259","approach_avoid_sv1","""event"",""trial"",""time""
""fullscreenenter"",""1"",""3862""
","
","
","""event"",""trial"",""time""
""fullscreenenter"",""1"",""3862""
","
","","","","","","null","<div style=""font-size:60px;"">+</div>","null","","fixation","","",""
"memory-trial","120","320059","0.0-18.0-1.38","4259","approach_avoid_sv1","""event"",""trial"",""time""
""fullscreenenter"",""1"",""3862""
","
","
","""event"",""trial"",""time""
""fullscreenenter"",""1"",""3862""
","
","","","","","","1133.1000000000931","images/horse7.png","","","memory_trial","4","definitely_new",""
"html-keyboard-response","121","320566","0.0-18.0-0.39","4259","approach_avoid_sv1","""event"",""trial"",""time""
""fullscreenenter"",""1"",""3862""
","
","
","""event"",""trial"",""time""
""fullscreenenter"",""1"",""3862""
","
","","","","","","null","<div style=""font-size:60px;"">+</div>","null","","fixation","","",""
"memory-trial","122","322595","0.0-18.0-1.39","4259","approach_avoid_sv1","""event"",""trial"",""time""
""fullscreenenter"",""1"",""3862""
","
","
","""event"",""trial"",""time""
""fullscreenenter"",""1"",""3862""
","
","","","","","","1020.1999999999534","images/tree1.png","","","memory_trial","1","definitely_old",""
"html-keyboard-response","123","323099","0.0-18.0-0.40","4259","approach_avoid_sv1","""event"",""trial"",""time""
""fullscreenenter"",""1"",""3862""
","
","
","""event"",""trial"",""time""
""fullscreenenter"",""1"",""3862""
","
","","","","","","null","<div style=""font-size:60px;"">+</div>","null","","fixation","","",""
"memory-trial","124","326384","0.0-18.0-1.40","4259","approach_avoid_sv1","""event"",""trial"",""time""
""fullscreenenter"",""1"",""3862""
","
","
","""event"",""trial"",""time""
""fullscreenenter"",""1"",""3862""
","
","","","","","","2272.8000000000466","images/cow7.png","","","memory_trial","4","definitely_new",""
"html-keyboard-response","125","326892","0.0-18.0-0.41","4259","approach_avoid_sv1","""event"",""trial"",""time""
""fullscreenenter"",""1"",""3862""
","
","
","""event"",""trial"",""time""
""fullscreenenter"",""1"",""3862""
","
","","","","","","null","<div style=""font-size:60px;"">+</div>","null","","fixation","","",""
"memory-trial","126","329372","0.0-18.0-1.41","4259","approach_avoid_sv1","""event"",""trial"",""time""
""fullscreenenter"",""1"",""3862""
","
","
","""event"",""trial"",""time""
""fullscreenenter"",""1"",""3862""
","
","","","","","","1463.4000000000233","images/bush5.png","","","memory_trial","4","definitely_new",""
"html-button-response","127","331644","0.0-18.0-2.41-0.41","4259","approach_avoid_sv1","""event"",""trial"",""time""
""fullscreenenter"",""1"",""3862""
","
","
","""event"",""trial"",""time""
""fullscreenenter"",""1"",""3862""
","
","","","","","","2262.0999999999767","<p> Take a break! </p><p> Click the button to continue. </p>","0","","break","","",""
"html-keyboard-response","128","332148","0.0-18.0-0.42","4259","approach_avoid_sv1","""event"",""trial"",""time""
""fullscreenenter"",""1"",""3862""
","
","
","""event"",""trial"",""time""
""fullscreenenter"",""1"",""3862""
","
","","","","","","null","<div style=""font-size:60px;"">+</div>","null","","fixation","","",""
"memory-trial","129","334513","0.0-18.0-1.42","4259","approach_avoid_sv1","""event"",""trial"",""time""
""fullscreenenter"",""1"",""3862""
","
","
","""event"",""trial"",""time""
""fullscreenenter"",""1"",""3862""
","
","","","","","","1352","images/apple3.png","","","memory_trial","1","definitely_old",""
"html-keyboard-response","130","335019","0.0-18.0-0.43","4259","approach_avoid_sv1","""event"",""trial"",""time""
""fullscreenenter"",""1"",""3862""
","
","
","""event"",""trial"",""time""
""fullscreenenter"",""1"",""3862""
","
","","","","","","null","<div style=""font-size:60px;"">+</div>","null","","fixation","","",""
"memory-trial","131","338306","0.0-18.0-1.43","4259","approach_avoid_sv1","""event"",""trial"",""time""
""fullscreenenter"",""1"",""3862""
","
","
","""event"",""trial"",""time""
""fullscreenenter"",""1"",""3862""
","
","","","","","","2277.5","images/orange4.png","","","memory_trial","2","maybe_old",""
"html-keyboard-response","132","338811","0.0-18.0-0.44","4259","approach_avoid_sv1","""event"",""trial"",""time""
""fullscreenenter"",""1"",""3862""
","
","
","""event"",""trial"",""time""
""fullscreenenter"",""1"",""3862""
","
","","","","","","null","<div style=""font-size:60px;"">+</div>","null","","fixation","","",""
"memory-trial","133","341048","0.0-18.0-1.44","4259","approach_avoid_sv1","""event"",""trial"",""time""
""fullscreenenter"",""1"",""3862""
","
","
","""event"",""trial"",""time""
""fullscreenenter"",""1"",""3862""
","
","","","","","","1222.8000000000466","images/train8.png","","","memory_trial","4","definitely_new",""
"html-keyboard-response","134","341553","0.0-18.0-0.45","4259","approach_avoid_sv1","""event"",""trial"",""time""
""fullscreenenter"",""1"",""3862""
","
","
","""event"",""trial"",""time""
""fullscreenenter"",""1"",""3862""
","
","","","","","","null","<div style=""font-size:60px;"">+</div>","null","","fixation","","",""
"memory-trial","135","343608","0.0-18.0-1.45","4259","approach_avoid_sv1","""event"",""trial"",""time""
""fullscreenenter"",""1"",""3862""
","
","
","""event"",""trial"",""time""
""fullscreenenter"",""1"",""3862""
","
","","","","","","1044.0999999999767","images/truck5.png","","","memory_trial","4","definitely_new",""
"html-keyboard-response","136","344113","0.0-18.0-0.46","4259","approach_avoid_sv1","""event"",""trial"",""time""
""fullscreenenter"",""1"",""3862""
","
","
","""event"",""trial"",""time""
""fullscreenenter"",""1"",""3862""
","
","","","","","","null","<div style=""font-size:60px;"">+</div>","null","","fixation","","",""
"memory-trial","137","346312","0.0-18.0-1.46","4259","approach_avoid_sv1","""event"",""trial"",""time""
""fullscreenenter"",""1"",""3862""
","
","
","""event"",""trial"",""time""
""fullscreenenter"",""1"",""3862""
","
","","","","","","1187.2999999999302","images/tree7.png","","","memory_trial","1","definitely_old",""
"html-keyboard-response","138","346818","0.0-18.0-0.47","4259","approach_avoid_sv1","""event"",""trial"",""time""
""fullscreenenter"",""1"",""3862""
","
","
","""event"",""trial"",""time""
""fullscreenenter"",""1"",""3862""
","
","","","","","","null","<div style=""font-size:60px;"">+</div>","null","","fixation","","",""
"memory-trial","139","350019","0.0-18.0-1.47","4259","approach_avoid_sv1","""event"",""trial"",""time""
""fullscreenenter"",""1"",""3862""
","
","
","""event"",""trial"",""time""
""fullscreenenter"",""1"",""3862""
","
","","","","","","2187.3000000000466","images/banana4.png","","","memory_trial","3","maybe_new",""
"html-keyboard-response","140","350526","0.0-18.0-0.48","4259","approach_avoid_sv1","""event"",""trial"",""time""
""fullscreenenter"",""1"",""3862""
","
","
","""event"",""trial"",""time""
""fullscreenenter"",""1"",""3862""
","
","","","","","","null","<div style=""font-size:60px;"">+</div>","null","","fixation","","",""
"memory-trial","141","353053","0.0-18.0-1.48","4259","approach_avoid_sv1","""event"",""trial"",""time""
""fullscreenenter"",""1"",""3862""
","
","
","""event"",""trial"",""time""
""fullscreenenter"",""1"",""3862""
","
","","","","","","1516.6999999999534","images/cactus2.png","","","memory_trial","4","definitely_new",""
"html-keyboard-response","142","353560","0.0-18.0-0.49","4259","approach_avoid_sv1","""event"",""trial"",""time""
""fullscreenenter"",""1"",""3862""
","
","
","""event"",""trial"",""time""
""fullscreenenter"",""1"",""3862""
","
","","","","","","null","<div style=""font-size:60px;"">+</div>","null","","fixation","","",""
"memory-trial","143","356122","0.0-18.0-1.49","4259","approach_avoid_sv1","""event"",""trial"",""time""
""fullscreenenter"",""1"",""3862""
","
","
","""event"",""trial"",""time""
""fullscreenenter"",""1"",""3862""
","
","","","","","","1547.5","images/rabbit1.png","","","memory_trial","2","maybe_old",""
"html-keyboard-response","144","356628","0.0-18.0-0.50","4259","approach_avoid_sv1","""event"",""trial"",""time""
""fullscreenenter"",""1"",""3862""
","
","
","""event"",""trial"",""time""
""fullscreenenter"",""1"",""3862""
","
","","","","","","null","<div style=""font-size:60px;"">+</div>","null","","fixation","","",""
"memory-trial","145","359108","0.0-18.0-1.50","4259","approach_avoid_sv1","""event"",""trial"",""time""
""fullscreenenter"",""1"",""3862""
","
","
","""event"",""trial"",""time""
""fullscreenenter"",""1"",""3862""
","
","","","","","","1471.5999999999767","images/plane7.png","","","memory_trial","1","definitely_old",""
"html-keyboard-response","146","359614","0.0-18.0-0.51","4259","approach_avoid_sv1","""event"",""trial"",""time""
""fullscreenenter"",""1"",""3862""
","
","
","""event"",""trial"",""time""
""fullscreenenter"",""1"",""3862""
","
","","","","","","null","<div style=""font-size:60px;"">+</div>","null","","fixation","","",""
"memory-trial","147","361835","0.0-18.0-1.51","4259","approach_avoid_sv1","""event"",""trial"",""time""
""fullscreenenter"",""1"",""3862""
","
","
","""event"",""trial"",""time""
""fullscreenenter"",""1"",""3862""
","
","","","","","","1209","images/plane4.png","","","memory_trial","4","definitely_new",""
"html-keyboard-response","148","362338","0.0-18.0-0.52","4259","approach_avoid_sv1","""event"",""trial"",""time""
""fullscreenenter"",""1"",""3862""
","
","
","""event"",""trial"",""time""
""fullscreenenter"",""1"",""3862""
","
","","","","","","null","<div style=""font-size:60px;"">+</div>","null","","fixation","","",""
"memory-trial","149","365268","0.0-18.0-1.52","4259","approach_avoid_sv1","""event"",""trial"",""time""
""fullscreenenter"",""1"",""3862""
","
","
","""event"",""trial"",""time""
""fullscreenenter"",""1"",""3862""
","
","","","","","","1920.5","images/truck1.png","","","memory_trial","4","definitely_new",""
"html-keyboard-response","150","365777","0.0-18.0-0.53","4259","approach_avoid_sv1","""event"",""trial"",""time""
""fullscreenenter"",""1"",""3862""
","
","
","""event"",""trial"",""time""
""fullscreenenter"",""1"",""3862""
","
","","","","","","null","<div style=""font-size:60px;"">+</div>","null","","fixation","","",""
"memory-trial","151","369158","0.0-18.0-1.53","4259","approach_avoid_sv1","""event"",""trial"",""time""
""fullscreenenter"",""1"",""3862""
","
","
","""event"",""trial"",""time""
""fullscreenenter"",""1"",""3862""
","
","","","","","","2369.70000000007","images/sheep4.png","","","memory_trial","2","maybe_old",""
"html-keyboard-response","152","369669","0.0-18.0-0.54","4259","approach_avoid_sv1","""event"",""trial"",""time""
""fullscreenenter"",""1"",""3862""
","
","
","""event"",""trial"",""time""
""fullscreenenter"",""1"",""3862""
","
","","","","","","null","<div style=""font-size:60px;"">+</div>","null","","fixation","","",""
"memory-trial","153","371700","0.0-18.0-1.54","4259","approach_avoid_sv1","""event"",""trial"",""time""
""fullscreenenter"",""1"",""3862""
","
","
","""event"",""trial"",""time""
""fullscreenenter"",""1"",""3862""
","
","","","","","","1019.2000000000698","images/cat3.png","","","memory_trial","1","definitely_old",""
"html-keyboard-response","154","372206","0.0-18.0-0.55","4259","approach_avoid_sv1","""event"",""trial"",""time""
""fullscreenenter"",""1"",""3862""
","
","
","""event"",""trial"",""time""
""fullscreenenter"",""1"",""3862""
","
","","","","","","null","<div style=""font-size:60px;"">+</div>","null","","fixation","","",""
"memory-trial","155","375030","0.0-18.0-1.55","4259","approach_avoid_sv1","""event"",""trial"",""time""
""fullscreenenter"",""1"",""3862""
","
","
","""event"",""trial"",""time""
""fullscreenenter"",""1"",""3862""
","
","","","","","","1805.6000000000931","images/train6.png","","","memory_trial","1","definitely_old",""
"html-keyboard-response","156","375535","0.0-18.0-0.56","4259","approach_avoid_sv1","""event"",""trial"",""time""
""fullscreenenter"",""1"",""3862""
","
","
","""event"",""trial"",""time""
""fullscreenenter"",""1"",""3862""
","
","","","","","","null","<div style=""font-size:60px;"">+</div>","null","","fixation","","",""
"memory-trial","157","377496","0.0-18.0-1.56","4259","approach_avoid_sv1","""event"",""trial"",""time""
""fullscreenenter"",""1"",""3862""
","
","
","""event"",""trial"",""time""
""fullscreenenter"",""1"",""3862""
","
","","","","","","947.6000000000931","images/rabbit4.png","","","memory_trial","1","definitely_old",""
"html-keyboard-response","158","378002","0.0-18.0-0.57","4259","approach_avoid_sv1","""event"",""trial"",""time""
""fullscreenenter"",""1"",""3862""
","
","
","""event"",""trial"",""time""
""fullscreenenter"",""1"",""3862""
","
","","","","","","null","<div style=""font-size:60px;"">+</div>","null","","fixation","","",""
"memory-trial","159","380021","0.0-18.0-1.57","4259","approach_avoid_sv1","""event"",""trial"",""time""
""fullscreenenter"",""1"",""3862""
","
","
","""event"",""trial"",""time""
""fullscreenenter"",""1"",""3862""
","
","","","","","","1004.6999999999534","images/straw2.png","","","memory_trial","1","definitely_old",""
"html-keyboard-response","160","380528","0.0-18.0-0.58","4259","approach_avoid_sv1","""event"",""trial"",""time""
""fullscreenenter"",""1"",""3862""
","
","
","""event"",""trial"",""time""
""fullscreenenter"",""1"",""3862""
","
","","","","","","null","<div style=""font-size:60px;"">+</div>","null","","fixation","","",""
"memory-trial","161","382358","0.0-18.0-1.58","4259","approach_avoid_sv1","""event"",""trial"",""time""
""fullscreenenter"",""1"",""3862""
","
","
","""event"",""trial"",""time""
""fullscreenenter"",""1"",""3862""
","
","","","","","","816","images/plane6.png","","","memory_trial","1","definitely_old",""
"html-keyboard-response","162","382864","0.0-18.0-0.59","4259","approach_avoid_sv1","""event"",""trial"",""time""
""fullscreenenter"",""1"",""3862""
","
","
","""event"",""trial"",""time""
""fullscreenenter"",""1"",""3862""
","
","","","","","","null","<div style=""font-size:60px;"">+</div>","null","","fixation","","",""
"memory-trial","163","384880","0.0-18.0-1.59","4259","approach_avoid_sv1","""event"",""trial"",""time""
""fullscreenenter"",""1"",""3862""
","
","
","""event"",""trial"",""time""
""fullscreenenter"",""1"",""3862""
","
","","","","","","1006.5","images/tree4.png","","","memory_trial","4","definitely_new",""
"html-keyboard-response","164","385385","0.0-18.0-0.60","4259","approach_avoid_sv1","""event"",""trial"",""time""
""fullscreenenter"",""1"",""3862""
","
","
","""event"",""trial"",""time""
""fullscreenenter"",""1"",""3862""
","
","","","","","","null","<div style=""font-size:60px;"">+</div>","null","","fixation","","",""
"memory-trial","165","387338","0.0-18.0-1.60","4259","approach_avoid_sv1","""event"",""trial"",""time""
""fullscreenenter"",""1"",""3862""
","
","
","""event"",""trial"",""time""
""fullscreenenter"",""1"",""3862""
","
","","","","","","943.9000000000233","images/rodent7.png","","","memory_trial","4","definitely_new",""
"html-keyboard-response","166","387846","0.0-18.0-0.61","4259","approach_avoid_sv1","""event"",""trial"",""time""
""fullscreenenter"",""1"",""3862""
","
","
","""event"",""trial"",""time""
""fullscreenenter"",""1"",""3862""
","
","","","","","","null","<div style=""font-size:60px;"">+</div>","null","","fixation","","",""
"memory-trial","167","389984","0.0-18.0-1.61","4259","approach_avoid_sv1","""event"",""trial"",""time""
""fullscreenenter"",""1"",""3862""
","
","
","""event"",""trial"",""time""
""fullscreenenter"",""1"",""3862""
","
","","","","","","1122","images/chair5.png","","","memory_trial","1","definitely_old",""
"html-keyboard-response","168","390490","0.0-18.0-0.62","4259","approach_avoid_sv1","""event"",""trial"",""time""
""fullscreenenter"",""1"",""3862""
","
","
","""event"",""trial"",""time""
""fullscreenenter"",""1"",""3862""
","
","","","","","","null","<div style=""font-size:60px;"">+</div>","null","","fixation","","",""
"memory-trial","169","392320","0.0-18.0-1.62","4259","approach_avoid_sv1","""event"",""trial"",""time""
""fullscreenenter"",""1"",""3862""
","
","
","""event"",""trial"",""time""
""fullscreenenter"",""1"",""3862""
","
","","","","","","814.2999999999302","images/goat2.png","","","memory_trial","1","definitely_old",""
"html-keyboard-response","170","392828","0.0-18.0-0.63","4259","approach_avoid_sv1","""event"",""trial"",""time""
""fullscreenenter"",""1"",""3862""
","
","
","""event"",""trial"",""time""
""fullscreenenter"",""1"",""3862""
","
","","","","","","null","<div style=""font-size:60px;"">+</div>","null","","fixation","","",""
"memory-trial","171","395849","0.0-18.0-1.63","4259","approach_avoid_sv1","""event"",""trial"",""time""
""fullscreenenter"",""1"",""3862""
","
","
","""event"",""trial"",""time""
""fullscreenenter"",""1"",""3862""
","
","","","","","","2012.5999999999767","images/cat4.png","","","memory_trial","3","maybe_new",""
"html-keyboard-response","172","396357","0.0-18.0-0.64","4259","approach_avoid_sv1","""event"",""trial"",""time""
""fullscreenenter"",""1"",""3862""
","
","
","""event"",""trial"",""time""
""fullscreenenter"",""1"",""3862""
","
","","","","","","null","<div style=""font-size:60px;"">+</div>","null","","fixation","","",""
"memory-trial","173","398967","0.0-18.0-1.64","4259","approach_avoid_sv1","""event"",""trial"",""time""
""fullscreenenter"",""1"",""3862""
","
","
","""event"",""trial"",""time""
""fullscreenenter"",""1"",""3862""
","
","","","","","","1593.5","images/banana1.png","","","memory_trial","3","maybe_new",""
"html-keyboard-response","174","399472","0.0-18.0-0.65","4259","approach_avoid_sv1","""event"",""trial"",""time""
""fullscreenenter"",""1"",""3862""
","
","
","""event"",""trial"",""time""
""fullscreenenter"",""1"",""3862""
","
","","","","","","null","<div style=""font-size:60px;"">+</div>","null","","fixation","","",""
"memory-trial","175","401388","0.0-18.0-1.65","4259","approach_avoid_sv1","""event"",""trial"",""time""
""fullscreenenter"",""1"",""3862""
","
","
","""event"",""trial"",""time""
""fullscreenenter"",""1"",""3862""
","
","","","","","","902.5","images/apple5.png","","","memory_trial","3","maybe_new",""
"html-keyboard-response","176","401896","0.0-18.0-0.66","4259","approach_avoid_sv1","""event"",""trial"",""time""
""fullscreenenter"",""1"",""3862""
","
","
","""event"",""trial"",""time""
""fullscreenenter"",""1"",""3862""
","
","","","","","","null","<div style=""font-size:60px;"">+</div>","null","","fixation","","",""
"memory-trial","177","404478","0.0-18.0-1.66","4259","approach_avoid_sv1","""event"",""trial"",""time""
""fullscreenenter"",""1"",""3862""
","
","
","""event"",""trial"",""time""
""fullscreenenter"",""1"",""3862""
","
","","","","","","1571.0999999999767","images/tree6.png","","","memory_trial","4","definitely_new",""
"html-keyboard-response","178","404987","0.0-18.0-0.67","4259","approach_avoid_sv1","""event"",""trial"",""time""
""fullscreenenter"",""1"",""3862""
","
","
","""event"",""trial"",""time""
""fullscreenenter"",""1"",""3862""
","
","","","","","","null","<div style=""font-size:60px;"">+</div>","null","","fixation","","",""
"memory-trial","179","406967","0.0-18.0-1.67","4259","approach_avoid_sv1","""event"",""trial"",""time""
""fullscreenenter"",""1"",""3862""
","
","
","""event"",""trial"",""time""
""fullscreenenter"",""1"",""3862""
","
","","","","","","969","images/rodent3.png","","","memory_trial","4","definitely_new",""
"html-keyboard-response","180","407471","0.0-18.0-0.68","4259","approach_avoid_sv1","""event"",""trial"",""time""
""fullscreenenter"",""1"",""3862""
","
","
","""event"",""trial"",""time""
""fullscreenenter"",""1"",""3862""
","
","","","","","","null","<div style=""font-size:60px;"">+</div>","null","","fixation","","",""
"memory-trial","181","409831","0.0-18.0-1.68","4259","approach_avoid_sv1","""event"",""trial"",""time""
""fullscreenenter"",""1"",""3862""
","
","
","""event"",""trial"",""time""
""fullscreenenter"",""1"",""3862""
","
","","","","","","1347.4000000000233","images/straw1.png","","","memory_trial","4","definitely_new",""
"html-keyboard-response","182","410340","0.0-18.0-0.69","4259","approach_avoid_sv1","""event"",""trial"",""time""
""fullscreenenter"",""1"",""3862""
","
","
","""event"",""trial"",""time""
""fullscreenenter"",""1"",""3862""
","
","","","","","","null","<div style=""font-size:60px;"">+</div>","null","","fixation","","",""
"memory-trial","183","412307","0.0-18.0-1.69","4259","approach_avoid_sv1","""event"",""trial"",""time""
""fullscreenenter"",""1"",""3862""
","
","
","""event"",""trial"",""time""
""fullscreenenter"",""1"",""3862""
","
","","","","","","950.3000000000466","images/table2.png","","","memory_trial","1","definitely_old",""
"html-keyboard-response","184","412816","0.0-18.0-0.70","4259","approach_avoid_sv1","""event"",""trial"",""time""
""fullscreenenter"",""1"",""3862""
","
","
","""event"",""trial"",""time""
""fullscreenenter"",""1"",""3862""
","
","","","","","","null","<div style=""font-size:60px;"">+</div>","null","","fixation","","",""
"memory-trial","185","415956","0.0-18.0-1.70","4259","approach_avoid_sv1","""event"",""trial"",""time""
""fullscreenenter"",""1"",""3862""
","
","
","""event"",""trial"",""time""
""fullscreenenter"",""1"",""3862""
","
","","","","","","2129.79999999993","images/apple8.png","","","memory_trial","2","maybe_old",""
"html-keyboard-response","186","416463","0.0-18.0-0.71","4259","approach_avoid_sv1","""event"",""trial"",""time""
""fullscreenenter"",""1"",""3862""
","
","
","""event"",""trial"",""time""
""fullscreenenter"",""1"",""3862""
","
","","","","","","null","<div style=""font-size:60px;"">+</div>","null","","fixation","","",""
"memory-trial","187","418369","0.0-18.0-1.71","4259","approach_avoid_sv1","""event"",""trial"",""time""
""fullscreenenter"",""1"",""3862""
","
","
","""event"",""trial"",""time""
""fullscreenenter"",""1"",""3862""
","
","","","","","","891.0999999999767","images/rabbit5.png","","","memory_trial","1","definitely_old",""
"html-keyboard-response","188","418874","0.0-18.0-0.72","4259","approach_avoid_sv1","""event"",""trial"",""time""
""fullscreenenter"",""1"",""3862""
","
","
","""event"",""trial"",""time""
""fullscreenenter"",""1"",""3862""
","
","","","","","","null","<div style=""font-size:60px;"">+</div>","null","","fixation","","",""
"memory-trial","189","421389","0.0-18.0-1.72","4259","approach_avoid_sv1","""event"",""trial"",""time""
""fullscreenenter"",""1"",""3862""
","
","
","""event"",""trial"",""time""
""fullscreenenter"",""1"",""3862""
","
","","","","","","1498.7000000000698","images/flower1.png","","","memory_trial","2","maybe_old",""
"html-keyboard-response","190","421894","0.0-18.0-0.73","4259","approach_avoid_sv1","""event"",""trial"",""time""
""fullscreenenter"",""1"",""3862""
","
","
","""event"",""trial"",""time""
""fullscreenenter"",""1"",""3862""
","
","","","","","","null","<div style=""font-size:60px;"">+</div>","null","","fixation","","",""
"memory-trial","191","424085","0.0-18.0-1.73","4259","approach_avoid_sv1","""event"",""trial"",""time""
""fullscreenenter"",""1"",""3862""
","
","
","""event"",""trial"",""time""
""fullscreenenter"",""1"",""3862""
","
","","","","","","1178.7000000000698","images/cactus4.png","","","memory_trial","1","definitely_old",""
"html-keyboard-response","192","424590","0.0-18.0-0.74","4259","approach_avoid_sv1","""event"",""trial"",""time""
""fullscreenenter"",""1"",""3862""
","
","
","""event"",""trial"",""time""
""fullscreenenter"",""1"",""3862""
","
","","","","","","null","<div style=""font-size:60px;"">+</div>","null","","fixation","","",""
"memory-trial","193","427541","0.0-18.0-1.74","4259","approach_avoid_sv1","""event"",""trial"",""time""
""fullscreenenter"",""1"",""3862""
","
","
","""event"",""trial"",""time""
""fullscreenenter"",""1"",""3862""
","
","","","","","","1934.0999999999767","images/table1.png","","","memory_trial","4","definitely_new",""
"html-keyboard-response","194","428049","0.0-18.0-0.75","4259","approach_avoid_sv1","""event"",""trial"",""time""
""fullscreenenter"",""1"",""3862""
","
","
","""event"",""trial"",""time""
""fullscreenenter"",""1"",""3862""
","
","","","","","","null","<div style=""font-size:60px;"">+</div>","null","","fixation","","",""
"memory-trial","195","430419","0.0-18.0-1.75","4259","approach_avoid_sv1","""event"",""trial"",""time""
""fullscreenenter"",""1"",""3862""
","
","
","""event"",""trial"",""time""
""fullscreenenter"",""1"",""3862""
","
","","","","","","1359.3000000000466","images/horse1.png","","","memory_trial","4","definitely_new",""
"html-keyboard-response","196","430927","0.0-18.0-0.76","4259","approach_avoid_sv1","""event"",""trial"",""time""
""fullscreenenter"",""1"",""3862""
","
","
","""event"",""trial"",""time""
""fullscreenenter"",""1"",""3862""
","
","","","","","","null","<div style=""font-size:60px;"">+</div>","null","","fixation","","",""
"memory-trial","197","432862","0.0-18.0-1.76","4259","approach_avoid_sv1","""event"",""trial"",""time""
""fullscreenenter"",""1"",""3862""
","
","
","""event"",""trial"",""time""
""fullscreenenter"",""1"",""3862""
","
","","","","","","924.5","images/bush8.png","","","memory_trial","4","definitely_new",""
"html-keyboard-response","198","433366","0.0-18.0-0.77","4259","approach_avoid_sv1","""event"",""trial"",""time""
""fullscreenenter"",""1"",""3862""
","
","
","""event"",""trial"",""time""
""fullscreenenter"",""1"",""3862""
","
","","","","","","null","<div style=""font-size:60px;"">+</div>","null","","fixation","","",""
"memory-trial","199","435274","0.0-18.0-1.77","4259","approach_avoid_sv1","""event"",""trial"",""time""
""fullscreenenter"",""1"",""3862""
","
","
","""event"",""trial"",""time""
""fullscreenenter"",""1"",""3862""
","
","","","","","","897","images/dog7.png","","","memory_trial","4","definitely_new",""
"html-keyboard-response","200","435781","0.0-18.0-0.78","4259","approach_avoid_sv1","""event"",""trial"",""time""
""fullscreenenter"",""1"",""3862""
","
","
","""event"",""trial"",""time""
""fullscreenenter"",""1"",""3862""
","
","","","","","","null","<div style=""font-size:60px;"">+</div>","null","","fixation","","",""
"memory-trial","201","437759","0.0-18.0-1.78","4259","approach_avoid_sv1","""event"",""trial"",""time""
""fullscreenenter"",""1"",""3862""
","
","
","""event"",""trial"",""time""
""fullscreenenter"",""1"",""3862""
","
","","","","","","962.3000000000466","images/bush2.png","","","memory_trial","4","definitely_new",""
"html-keyboard-response","202","438267","0.0-18.0-0.79","4259","approach_avoid_sv1","""event"",""trial"",""time""
""fullscreenenter"",""1"",""3862""
","
","
","""event"",""trial"",""time""
""fullscreenenter"",""1"",""3862""
","
","","","","","","null","<div style=""font-size:60px;"">+</div>","null","","fixation","","",""
"memory-trial","203","440343","0.0-18.0-1.79","4259","approach_avoid_sv1","""event"",""trial"",""time""
""fullscreenenter"",""1"",""3862""
","
","
","""event"",""trial"",""time""
""fullscreenenter"",""1"",""3862""
","
","","","","","","1061.3999999999069","images/flower8.png","","","memory_trial","1","definitely_old",""
"html-keyboard-response","204","440849","0.0-18.0-0.80","4259","approach_avoid_sv1","""event"",""trial"",""time""
""fullscreenenter"",""1"",""3862""
","
","
","""event"",""trial"",""time""
""fullscreenenter"",""1"",""3862""
","
","","","","","","null","<div style=""font-size:60px;"">+</div>","null","","fixation","","",""
"memory-trial","205","444152","0.0-18.0-1.80","4259","approach_avoid_sv1","""event"",""trial"",""time""
""fullscreenenter"",""1"",""3862""
","
","
","""event"",""trial"",""time""
""fullscreenenter"",""1"",""3862""
","
","","","","","","2292.4000000000233","images/apple4.png","","","memory_trial","2","maybe_old",""
"html-keyboard-response","206","444661","0.0-18.0-0.81","4259","approach_avoid_sv1","""event"",""trial"",""time""
""fullscreenenter"",""1"",""3862""
","
","
","""event"",""trial"",""time""
""fullscreenenter"",""1"",""3862""
","
","","","","","","null","<div style=""font-size:60px;"">+</div>","null","","fixation","","",""
"memory-trial","207","447330","0.0-18.0-1.81","4259","approach_avoid_sv1","""event"",""trial"",""time""
""fullscreenenter"",""1"",""3862""
","
","
","""event"",""trial"",""time""
""fullscreenenter"",""1"",""3862""
","
","","","","","","1656.2000000000698","images/chair4.png","","","memory_trial","2","maybe_old",""
"html-keyboard-response","208","447835","0.0-18.0-0.82","4259","approach_avoid_sv1","""event"",""trial"",""time""
""fullscreenenter"",""1"",""3862""
","
","
","""event"",""trial"",""time""
""fullscreenenter"",""1"",""3862""
","
","","","","","","null","<div style=""font-size:60px;"">+</div>","null","","fixation","","",""
"memory-trial","209","449796","0.0-18.0-1.82","4259","approach_avoid_sv1","""event"",""trial"",""time""
""fullscreenenter"",""1"",""3862""
","
","
","""event"",""trial"",""time""
""fullscreenenter"",""1"",""3862""
","
","","","","","","952.5999999999767","images/banana2.png","","","memory_trial","1","definitely_old",""
"html-keyboard-response","210","450303","0.0-18.0-0.83","4259","approach_avoid_sv1","""event"",""trial"",""time""
""fullscreenenter"",""1"",""3862""
","
","
","""event"",""trial"",""time""
""fullscreenenter"",""1"",""3862""
","
","","","","","","null","<div style=""font-size:60px;"">+</div>","null","","fixation","","",""
"memory-trial","211","453378","0.0-18.0-1.83","4259","approach_avoid_sv1","""event"",""trial"",""time""
""fullscreenenter"",""1"",""3862""
","
","
","""event"",""trial"",""time""
""fullscreenenter"",""1"",""3862""
","
","","","","","","2056.5999999999767","images/boat6.png","","","memory_trial","3","maybe_new",""
"html-keyboard-response","212","453883","0.0-18.0-0.84","4259","approach_avoid_sv1","""event"",""trial"",""time""
""fullscreenenter"",""1"",""3862""
","
","
","""event"",""trial"",""time""
""fullscreenenter"",""1"",""3862""
","
","","","","","","null","<div style=""font-size:60px;"">+</div>","null","","fixation","","",""
"memory-trial","213","456359","0.0-18.0-1.84","4259","approach_avoid_sv1","""event"",""trial"",""time""
""fullscreenenter"",""1"",""3862""
","
","
","""event"",""trial"",""time""
""fullscreenenter"",""1"",""3862""
","
","","","","","","1464.5999999999767","images/sheep6.png","","","memory_trial","3","maybe_new",""
"html-keyboard-response","214","456865","0.0-18.0-0.85","4259","approach_avoid_sv1","""event"",""trial"",""time""
""fullscreenenter"",""1"",""3862""
","
","
","""event"",""trial"",""time""
""fullscreenenter"",""1"",""3862""
","
","","","","","","null","<div style=""font-size:60px;"">+</div>","null","","fixation","","",""
"memory-trial","215","458854","0.0-18.0-1.85","4259","approach_avoid_sv1","""event"",""trial"",""time""
""fullscreenenter"",""1"",""3862""
","
","
","""event"",""trial"",""time""
""fullscreenenter"",""1"",""3862""
","
","","","","","","973.5999999999767","images/bush3.png","","","memory_trial","4","definitely_new",""
"html-keyboard-response","216","459360","0.0-18.0-0.86","4259","approach_avoid_sv1","""event"",""trial"",""time""
""fullscreenenter"",""1"",""3862""
","
","
","""event"",""trial"",""time""
""fullscreenenter"",""1"",""3862""
","
","","","","","","null","<div style=""font-size:60px;"">+</div>","null","","fixation","","",""
"memory-trial","217","462341","0.0-18.0-1.86","4259","approach_avoid_sv1","""event"",""trial"",""time""
""fullscreenenter"",""1"",""3862""
","
","
","""event"",""trial"",""time""
""fullscreenenter"",""1"",""3862""
","
","","","","","","1971.1999999999534","images/goat7.png","","","memory_trial","2","maybe_old",""
"html-keyboard-response","218","462847","0.0-18.0-0.87","4259","approach_avoid_sv1","""event"",""trial"",""time""
""fullscreenenter"",""1"",""3862""
","
","
","""event"",""trial"",""time""
""fullscreenenter"",""1"",""3862""
","
","","","","","","null","<div style=""font-size:60px;"">+</div>","null","","fixation","","",""
"memory-trial","219","464929","0.0-18.0-1.87","4259","approach_avoid_sv1","""event"",""trial"",""time""
""fullscreenenter"",""1"",""3862""
","
","
","""event"",""trial"",""time""
""fullscreenenter"",""1"",""3862""
","
","","","","","","1074.0999999999767","images/sofa4.png","","","memory_trial","1","definitely_old",""
"html-keyboard-response","220","465433","0.0-18.0-0.88","4259","approach_avoid_sv1","""event"",""trial"",""time""
""fullscreenenter"",""1"",""3862""
","
","
","""event"",""trial"",""time""
""fullscreenenter"",""1"",""3862""
","
","","","","","","null","<div style=""font-size:60px;"">+</div>","null","","fixation","","",""
"memory-trial","221","467456","0.0-18.0-1.88","4259","approach_avoid_sv1","""event"",""trial"",""time""
""fullscreenenter"",""1"",""3862""
","
","
","""event"",""trial"",""time""
""fullscreenenter"",""1"",""3862""
","
","","","","","","1013.8000000000466","images/cow6.png","","","memory_trial","4","definitely_new",""
"html-keyboard-response","222","467961","0.0-18.0-0.89","4259","approach_avoid_sv1","""event"",""trial"",""time""
""fullscreenenter"",""1"",""3862""
","
","
","""event"",""trial"",""time""
""fullscreenenter"",""1"",""3862""
","
","","","","","","null","<div style=""font-size:60px;"">+</div>","null","","fixation","","",""
"memory-trial","223","470570","0.0-18.0-1.89","4259","approach_avoid_sv1","""event"",""trial"",""time""
""fullscreenenter"",""1"",""3862""
","
","
","""event"",""trial"",""time""
""fullscreenenter"",""1"",""3862""
","
","","","","","","1598.1999999999534","images/chair3.png","","","memory_trial","4","definitely_new",""
"html-keyboard-response","224","471075","0.0-18.0-0.90","4259","approach_avoid_sv1","""event"",""trial"",""time""
""fullscreenenter"",""1"",""3862""
","
","
","""event"",""trial"",""time""
""fullscreenenter"",""1"",""3862""
","
","","","","","","null","<div style=""font-size:60px;"">+</div>","null","","fixation","","",""
"memory-trial","225","473641","0.0-18.0-1.90","4259","approach_avoid_sv1","""event"",""trial"",""time""
""fullscreenenter"",""1"",""3862""
","
","
","""event"",""trial"",""time""
""fullscreenenter"",""1"",""3862""
","
","","","","","","1554.2000000000698","images/orange3.png","","","memory_trial","4","definitely_new",""
"html-keyboard-response","226","474145","0.0-18.0-0.91","4259","approach_avoid_sv1","""event"",""trial"",""time""
""fullscreenenter"",""1"",""3862""
","
","
","""event"",""trial"",""time""
""fullscreenenter"",""1"",""3862""
","
","","","","","","null","<div style=""font-size:60px;"">+</div>","null","","fixation","","",""
"memory-trial","227","476787","0.0-18.0-1.91","4259","approach_avoid_sv1","""event"",""trial"",""time""
""fullscreenenter"",""1"",""3862""
","
","
","""event"",""trial"",""time""
""fullscreenenter"",""1"",""3862""
","
","","","","","","1628.8000000000466","images/goat8.png","","","memory_trial","3","maybe_new",""
"html-button-response","228","478983","0.0-18.0-2.91-0.91","4259","approach_avoid_sv1","""event"",""trial"",""time""
""fullscreenenter"",""1"",""3862""
","
","
","""event"",""trial"",""time""
""fullscreenenter"",""1"",""3862""
","
","","","","","","2189","<p> Take a break! </p><p> Click the button to continue. </p>","0","","break","","",""
"html-keyboard-response","229","479486","0.0-18.0-0.92","4259","approach_avoid_sv1","""event"",""trial"",""time""
""fullscreenenter"",""1"",""3862""
","
","
","""event"",""trial"",""time""
""fullscreenenter"",""1"",""3862""
","
","","","","","","null","<div style=""font-size:60px;"">+</div>","null","","fixation","","",""
"memory-trial","230","481949","0.0-18.0-1.92","4259","approach_avoid_sv1","""event"",""trial"",""time""
""fullscreenenter"",""1"",""3862""
","
","
","""event"",""trial"",""time""
""fullscreenenter"",""1"",""3862""
","
","","","","","","1451","images/chair7.png","","","memory_trial","4","definitely_new",""
"html-keyboard-response","231","482453","0.0-18.0-0.93","4259","approach_avoid_sv1","""event"",""trial"",""time""
""fullscreenenter"",""1"",""3862""
","
","
","""event"",""trial"",""time""
""fullscreenenter"",""1"",""3862""
","
","","","","","","null","<div style=""font-size:60px;"">+</div>","null","","fixation","","",""
"memory-trial","232","484335","0.0-18.0-1.93","4259","approach_avoid_sv1","""event"",""trial"",""time""
""fullscreenenter"",""1"",""3862""
","
","
","""event"",""trial"",""time""
""fullscreenenter"",""1"",""3862""
","
","","","","","","871.7999999999302","images/cow2.png","","","memory_trial","4","definitely_new",""
"html-keyboard-response","233","484841","0.0-18.0-0.94","4259","approach_avoid_sv1","""event"",""trial"",""time""
""fullscreenenter"",""1"",""3862""
","
","
","""event"",""trial"",""time""
""fullscreenenter"",""1"",""3862""
","
","","","","","","null","<div style=""font-size:60px;"">+</div>","null","","fixation","","",""
"memory-trial","234","486739","0.0-18.0-1.94","4259","approach_avoid_sv1","""event"",""trial"",""time""
""fullscreenenter"",""1"",""3862""
","
","
","""event"",""trial"",""time""
""fullscreenenter"",""1"",""3862""
","
","","","","","","888.5999999999767","images/truck4.png","","","memory_trial","4","definitely_new",""
"html-keyboard-response","235","487245","0.0-18.0-0.95","4259","approach_avoid_sv1","""event"",""trial"",""time""
""fullscreenenter"",""1"",""3862""
","
","
","""event"",""trial"",""time""
""fullscreenenter"",""1"",""3862""
","
","","","","","","null","<div style=""font-size:60px;"">+</div>","null","","fixation","","",""
"memory-trial","236","489160","0.0-18.0-1.95","4259","approach_avoid_sv1","""event"",""trial"",""time""
""fullscreenenter"",""1"",""3862""
","
","
","""event"",""trial"",""time""
""fullscreenenter"",""1"",""3862""
","
","","","","","","901.8000000000466","images/bed8.png","","","memory_trial","4","definitely_new",""
"html-keyboard-response","237","489665","0.0-18.0-0.96","4259","approach_avoid_sv1","""event"",""trial"",""time""
""fullscreenenter"",""1"",""3862""
","
","
","""event"",""trial"",""time""
""fullscreenenter"",""1"",""3862""
","
","","","","","","null","<div style=""font-size:60px;"">+</div>","null","","fixation","","",""
"memory-trial","238","491864","0.0-18.0-1.96","4259","approach_avoid_sv1","""event"",""trial"",""time""
""fullscreenenter"",""1"",""3862""
","
","
","""event"",""trial"",""time""
""fullscreenenter"",""1"",""3862""
","
","","","","","","1182.8000000000466","images/orange8.png","","","memory_trial","4","definitely_new",""
"html-keyboard-response","239","492368","0.0-18.0-0.97","4259","approach_avoid_sv1","""event"",""trial"",""time""
""fullscreenenter"",""1"",""3862""
","
","
","""event"",""trial"",""time""
""fullscreenenter"",""1"",""3862""
","
","","","","","","null","<div style=""font-size:60px;"">+</div>","null","","fixation","","",""
"memory-trial","240","494751","0.0-18.0-1.97","4259","approach_avoid_sv1","""event"",""trial"",""time""
""fullscreenenter"",""1"",""3862""
","
","
","""event"",""trial"",""time""
""fullscreenenter"",""1"",""3862""
","
","","","","","","1372.6999999999534","images/goat1.png","","","memory_trial","4","definitely_new",""
"html-keyboard-response","241","495256","0.0-18.0-0.98","4259","approach_avoid_sv1","""event"",""trial"",""time""
""fullscreenenter"",""1"",""3862""
","
","
","""event"",""trial"",""time""
""fullscreenenter"",""1"",""3862""
","
","","","","","","null","<div style=""font-size:60px;"">+</div>","null","","fixation","","",""
"memory-trial","242","497558","0.0-18.0-1.98","4259","approach_avoid_sv1","""event"",""trial"",""time""
""fullscreenenter"",""1"",""3862""
","
","
","""event"",""trial"",""time""
""fullscreenenter"",""1"",""3862""
","
","","","","","","1288.2000000000698","images/table4.png","","","memory_trial","4","definitely_new",""
"html-keyboard-response","243","498062","0.0-18.0-0.99","4259","approach_avoid_sv1","""event"",""trial"",""time""
""fullscreenenter"",""1"",""3862""
","
","
","""event"",""trial"",""time""
""fullscreenenter"",""1"",""3862""
","
","","","","","","null","<div style=""font-size:60px;"">+</div>","null","","fixation","","",""
"memory-trial","244","500156","0.0-18.0-1.99","4259","approach_avoid_sv1","""event"",""trial"",""time""
""fullscreenenter"",""1"",""3862""
","
","
","""event"",""trial"",""time""
""fullscreenenter"",""1"",""3862""
","
","","","","","","1082.4000000000233","images/sofa6.png","","","memory_trial","1","definitely_old",""
"html-keyboard-response","245","500660","0.0-18.0-0.100","4259","approach_avoid_sv1","""event"",""trial"",""time""
""fullscreenenter"",""1"",""3862""
","
","
","""event"",""trial"",""time""
""fullscreenenter"",""1"",""3862""
","
","","","","","","null","<div style=""font-size:60px;"">+</div>","null","","fixation","","",""
"memory-trial","246","504014","0.0-18.0-1.100","4259","approach_avoid_sv1","""event"",""trial"",""time""
""fullscreenenter"",""1"",""3862""
","
","
","""event"",""trial"",""time""
""fullscreenenter"",""1"",""3862""
","
","","","","","","2342.9000000000233","images/cactus6.png","","","memory_trial","2","maybe_old",""
"html-keyboard-response","247","504522","0.0-18.0-0.101","4259","approach_avoid_sv1","""event"",""trial"",""time""
""fullscreenenter"",""1"",""3862""
","
","
","""event"",""trial"",""time""
""fullscreenenter"",""1"",""3862""
","
","","","","","","null","<div style=""font-size:60px;"">+</div>","null","","fixation","","",""
"memory-trial","248","506633","0.0-18.0-1.101","4259","approach_avoid_sv1","""event"",""trial"",""time""
""fullscreenenter"",""1"",""3862""
","
","
","""event"",""trial"",""time""
""fullscreenenter"",""1"",""3862""
","
","","","","","","1102.2999999999302","images/cat1.png","","","memory_trial","4","definitely_new",""
"html-keyboard-response","249","507136","0.0-18.0-0.102","4259","approach_avoid_sv1","""event"",""trial"",""time""
""fullscreenenter"",""1"",""3862""
","
","
","""event"",""trial"",""time""
""fullscreenenter"",""1"",""3862""
","
","","","","","","null","<div style=""font-size:60px;"">+</div>","null","","fixation","","",""
"memory-trial","250","509334","0.0-18.0-1.102","4259","approach_avoid_sv1","""event"",""trial"",""time""
""fullscreenenter"",""1"",""3862""
","
","
","""event"",""trial"",""time""
""fullscreenenter"",""1"",""3862""
","
","","","","","","1188.3000000000466","images/banana8.png","","","memory_trial","4","definitely_new",""
"html-keyboard-response","251","509839","0.0-18.0-0.103","4259","approach_avoid_sv1","""event"",""trial"",""time""
""fullscreenenter"",""1"",""3862""
","
","
","""event"",""trial"",""time""
""fullscreenenter"",""1"",""3862""
","
","","","","","","null","<div style=""font-size:60px;"">+</div>","null","","fixation","","",""
"memory-trial","252","512712","0.0-18.0-1.103","4259","approach_avoid_sv1","""event"",""trial"",""time""
""fullscreenenter"",""1"",""3862""
","
","
","""event"",""trial"",""time""
""fullscreenenter"",""1"",""3862""
","
","","","","","","1857.5999999999767","images/plane3.png","","","memory_trial","4","definitely_new",""
"html-keyboard-response","253","513218","0.0-18.0-0.104","4259","approach_avoid_sv1","""event"",""trial"",""time""
""fullscreenenter"",""1"",""3862""
","
","
","""event"",""trial"",""time""
""fullscreenenter"",""1"",""3862""
","
","","","","","","null","<div style=""font-size:60px;"">+</div>","null","","fixation","","",""
"memory-trial","254","515544","0.0-18.0-1.104","4259","approach_avoid_sv1","""event"",""trial"",""time""
""fullscreenenter"",""1"",""3862""
","
","
","""event"",""trial"",""time""
""fullscreenenter"",""1"",""3862""
","
","","","","","","1312.9000000000233","images/tree3.png","","","memory_trial","4","definitely_new",""
"html-keyboard-response","255","516048","0.0-18.0-0.105","4259","approach_avoid_sv1","""event"",""trial"",""time""
""fullscreenenter"",""1"",""3862""
","
","
","""event"",""trial"",""time""
""fullscreenenter"",""1"",""3862""
","
","","","","","","null","<div style=""font-size:60px;"">+</div>","null","","fixation","","",""
"memory-trial","256","519029","0.0-18.0-1.105","4259","approach_avoid_sv1","""event"",""trial"",""time""
""fullscreenenter"",""1"",""3862""
","
","
","""event"",""trial"",""time""
""fullscreenenter"",""1"",""3862""
","
","","","","","","1966.8999999999069","images/straw8.png","","","memory_trial","1","definitely_old",""
"html-keyboard-response","257","519534","0.0-18.0-0.106","4259","approach_avoid_sv1","""event"",""trial"",""time""
""fullscreenenter"",""1"",""3862""
","
","
","""event"",""trial"",""time""
""fullscreenenter"",""1"",""3862""
","
","","","","","","null","<div style=""font-size:60px;"">+</div>","null","","fixation","","",""
"memory-trial","258","521406","0.0-18.0-1.106","4259","approach_avoid_sv1","""event"",""trial"",""time""
""fullscreenenter"",""1"",""3862""
","
","
","""event"",""trial"",""time""
""fullscreenenter"",""1"",""3862""
","
","","","","","","858.3000000000466","images/truck2.png","","","memory_trial","4","definitely_new",""
"html-keyboard-response","259","521911","0.0-18.0-0.107","4259","approach_avoid_sv1","""event"",""trial"",""time""
""fullscreenenter"",""1"",""3862""
","
","
","""event"",""trial"",""time""
""fullscreenenter"",""1"",""3862""
","
","","","","","","null","<div style=""font-size:60px;"">+</div>","null","","fixation","","",""
"memory-trial","260","523986","0.0-18.0-1.107","4259","approach_avoid_sv1","""event"",""trial"",""time""
""fullscreenenter"",""1"",""3862""
","
","
","""event"",""trial"",""time""
""fullscreenenter"",""1"",""3862""
","
","","","","","","1063.1999999999534","images/sofa3.png","","","memory_trial","4","definitely_new",""
"html-keyboard-response","261","524491","0.0-18.0-0.108","4259","approach_avoid_sv1","""event"",""trial"",""time""
""fullscreenenter"",""1"",""3862""
","
","
","""event"",""trial"",""time""
""fullscreenenter"",""1"",""3862""
","
","","","","","","null","<div style=""font-size:60px;"">+</div>","null","","fixation","","",""
"memory-trial","262","526300","0.0-18.0-1.108","4259","approach_avoid_sv1","""event"",""trial"",""time""
""fullscreenenter"",""1"",""3862""
","
","
","""event"",""trial"",""time""
""fullscreenenter"",""1"",""3862""
","
","","","","","","796.3999999999069","images/bush1.png","","","memory_trial","4","definitely_new",""
"html-keyboard-response","263","526806","0.0-18.0-0.109","4259","approach_avoid_sv1","""event"",""trial"",""time""
""fullscreenenter"",""1"",""3862""
","
","
","""event"",""trial"",""time""
""fullscreenenter"",""1"",""3862""
","
","","","","","","null","<div style=""font-size:60px;"">+</div>","null","","fixation","","",""
"memory-trial","264","529056","0.0-18.0-1.109","4259","approach_avoid_sv1","""event"",""trial"",""time""
""fullscreenenter"",""1"",""3862""
","
","
","""event"",""trial"",""time""
""fullscreenenter"",""1"",""3862""
","
","","","","","","1233.5","images/banana6.png","","","memory_trial","1","definitely_old",""
"html-keyboard-response","265","529562","0.0-18.0-0.110","4259","approach_avoid_sv1","""event"",""trial"",""time""
""fullscreenenter"",""1"",""3862""
","
","
","""event"",""trial"",""time""
""fullscreenenter"",""1"",""3862""
","
","","","","","","null","<div style=""font-size:60px;"">+</div>","null","","fixation","","",""
"memory-trial","266","531874","0.0-18.0-1.110","4259","approach_avoid_sv1","""event"",""trial"",""time""
""fullscreenenter"",""1"",""3862""
","
","
","""event"",""trial"",""time""
""fullscreenenter"",""1"",""3862""
","
","","","","","","1300.3999999999069","images/horse3.png","","","memory_trial","1","definitely_old",""
"html-keyboard-response","267","532378","0.0-18.0-0.111","4259","approach_avoid_sv1","""event"",""trial"",""time""
""fullscreenenter"",""1"",""3862""
","
","
","""event"",""trial"",""time""
""fullscreenenter"",""1"",""3862""
","
","","","","","","null","<div style=""font-size:60px;"">+</div>","null","","fixation","","",""
"memory-trial","268","534747","0.0-18.0-1.111","4259","approach_avoid_sv1","""event"",""trial"",""time""
""fullscreenenter"",""1"",""3862""
","
","
","""event"",""trial"",""time""
""fullscreenenter"",""1"",""3862""
","
","","","","","","1358.5","images/cat8.png","","","memory_trial","1","definitely_old",""
"html-keyboard-response","269","535253","0.0-18.0-0.112","4259","approach_avoid_sv1","""event"",""trial"",""time""
""fullscreenenter"",""1"",""3862""
","
","
","""event"",""trial"",""time""
""fullscreenenter"",""1"",""3862""
","
","","","","","","null","<div style=""font-size:60px;"">+</div>","null","","fixation","","",""
"memory-trial","270","537058","0.0-18.0-1.112","4259","approach_avoid_sv1","""event"",""trial"",""time""
""fullscreenenter"",""1"",""3862""
","
","
","""event"",""trial"",""time""
""fullscreenenter"",""1"",""3862""
","
","","","","","","797.1999999999534","images/truck3.png","","","memory_trial","4","definitely_new",""
"html-keyboard-response","271","537562","0.0-18.0-0.113","4259","approach_avoid_sv1","""event"",""trial"",""time""
""fullscreenenter"",""1"",""3862""
","
","
","""event"",""trial"",""time""
""fullscreenenter"",""1"",""3862""
","
","","","","","","null","<div style=""font-size:60px;"">+</div>","null","","fixation","","",""
"memory-trial","272","539463","0.0-18.0-1.113","4259","approach_avoid_sv1","""event"",""trial"",""time""
""fullscreenenter"",""1"",""3862""
","
","
","""event"",""trial"",""time""
""fullscreenenter"",""1"",""3862""
","
","","","","","","889.4000000001397","images/rabbit6.png","","","memory_trial","1","definitely_old",""
"html-keyboard-response","273","539968","0.0-18.0-0.114","4259","approach_avoid_sv1","""event"",""trial"",""time""
""fullscreenenter"",""1"",""3862""
","
","
","""event"",""trial"",""time""
""fullscreenenter"",""1"",""3862""
","
","","","","","","null","<div style=""font-size:60px;"">+</div>","null","","fixation","","",""
"memory-trial","274","541817","0.0-18.0-1.114","4259","approach_avoid_sv1","""event"",""trial"",""time""
""fullscreenenter"",""1"",""3862""
","
","
","""event"",""trial"",""time""
""fullscreenenter"",""1"",""3862""
","
","","","","","","834.3999999999069","images/bed6.png","","","memory_trial","4","definitely_new",""
"html-keyboard-response","275","542322","0.0-18.0-0.115","4259","approach_avoid_sv1","""event"",""trial"",""time""
""fullscreenenter"",""1"",""3862""
","
","
","""event"",""trial"",""time""
""fullscreenenter"",""1"",""3862""
","
","","","","","","null","<div style=""font-size:60px;"">+</div>","null","","fixation","","",""
"memory-trial","276","544195","0.0-18.0-1.115","4259","approach_avoid_sv1","""event"",""trial"",""time""
""fullscreenenter"",""1"",""3862""
","
","
","""event"",""trial"",""time""
""fullscreenenter"",""1"",""3862""
","
","","","","","","861.8000000000466","images/train4.png","","","memory_trial","4","definitely_new",""
"html-keyboard-response","277","544702","0.0-18.0-0.116","4259","approach_avoid_sv1","""event"",""trial"",""time""
""fullscreenenter"",""1"",""3862""
","
","
","""event"",""trial"",""time""
""fullscreenenter"",""1"",""3862""
","
","","","","","","null","<div style=""font-size:60px;"">+</div>","null","","fixation","","",""
"memory-trial","278","546778","0.0-18.0-1.116","4259","approach_avoid_sv1","""event"",""trial"",""time""
""fullscreenenter"",""1"",""3862""
","
","
","""event"",""trial"",""time""
""fullscreenenter"",""1"",""3862""
","
","","","","","","1059.6999999999534","images/rabbit8.png","","","memory_trial","4","definitely_new",""
"html-keyboard-response","279","547284","0.0-18.0-0.117","4259","approach_avoid_sv1","""event"",""trial"",""time""
""fullscreenenter"",""1"",""3862""
","
","
","""event"",""trial"",""time""
""fullscreenenter"",""1"",""3862""
","
","","","","","","null","<div style=""font-size:60px;"">+</div>","null","","fixation","","",""
"memory-trial","280","550011","0.0-18.0-1.117","4259","approach_avoid_sv1","""event"",""trial"",""time""
""fullscreenenter"",""1"",""3862""
","
","
","""event"",""trial"",""time""
""fullscreenenter"",""1"",""3862""
","
","","","","","","1714.8999999999069","images/boat2.png","","","memory_trial","2","maybe_old",""
"html-keyboard-response","281","550516","0.0-18.0-0.118","4259","approach_avoid_sv1","""event"",""trial"",""time""
""fullscreenenter"",""1"",""3862""
","
","
","""event"",""trial"",""time""
""fullscreenenter"",""1"",""3862""
","
","","","","","","null","<div style=""font-size:60px;"">+</div>","null","","fixation","","",""
"memory-trial","282","552749","0.0-18.0-1.118","4259","approach_avoid_sv1","""event"",""trial"",""time""
""fullscreenenter"",""1"",""3862""
","
","
","""event"",""trial"",""time""
""fullscreenenter"",""1"",""3862""
","
","","","","","","1217.8000000000466","images/cat6.png","","","memory_trial","1","definitely_old",""
"html-keyboard-response","283","553253","0.0-18.0-0.119","4259","approach_avoid_sv1","""event"",""trial"",""time""
""fullscreenenter"",""1"",""3862""
","
","
","""event"",""trial"",""time""
""fullscreenenter"",""1"",""3862""
","
","","","","","","null","<div style=""font-size:60px;"">+</div>","null","","fixation","","",""
"memory-trial","284","555675","0.0-18.0-1.119","4259","approach_avoid_sv1","""event"",""trial"",""time""
""fullscreenenter"",""1"",""3862""
","
","
","""event"",""trial"",""time""
""fullscreenenter"",""1"",""3862""
","
","","","","","","1412.8000000000466","images/bush7.png","","","memory_trial","4","definitely_new",""
"html-keyboard-response","285","556180","0.0-18.0-0.120","4259","approach_avoid_sv1","""event"",""trial"",""time""
""fullscreenenter"",""1"",""3862""
","
","
","""event"",""trial"",""time""
""fullscreenenter"",""1"",""3862""
","
","","","","","","null","<div style=""font-size:60px;"">+</div>","null","","fixation","","",""
"memory-trial","286","558492","0.0-18.0-1.120","4259","approach_avoid_sv1","""event"",""trial"",""time""
""fullscreenenter"",""1"",""3862""
","
","
","""event"",""trial"",""time""
""fullscreenenter"",""1"",""3862""
","
","","","","","","1301.7000000001863","images/dog5.png","","","memory_trial","1","definitely_old",""
"html-keyboard-response","287","558997","0.0-18.0-0.121","4259","approach_avoid_sv1","""event"",""trial"",""time""
""fullscreenenter"",""1"",""3862""
","
","
","""event"",""trial"",""time""
""fullscreenenter"",""1"",""3862""
","
","","","","","","null","<div style=""font-size:60px;"">+</div>","null","","fixation","","",""
"memory-trial","288","561382","0.0-18.0-1.121","4259","approach_avoid_sv1","""event"",""trial"",""time""
""fullscreenenter"",""1"",""3862""
","
","
","""event"",""trial"",""time""
""fullscreenenter"",""1"",""3862""
","
","","","","","","1373.6999999999534","images/straw6.png","","","memory_trial","1","definitely_old",""
"html-keyboard-response","289","561888","0.0-18.0-0.122","4259","approach_avoid_sv1","""event"",""trial"",""time""
""fullscreenenter"",""1"",""3862""
","
","
","""event"",""trial"",""time""
""fullscreenenter"",""1"",""3862""
","
","","","","","","null","<div style=""font-size:60px;"">+</div>","null","","fixation","","",""
"memory-trial","290","565049","0.0-18.0-1.122","4259","approach_avoid_sv1","""event"",""trial"",""time""
""fullscreenenter"",""1"",""3862""
","
","
","""event"",""trial"",""time""
""fullscreenenter"",""1"",""3862""
","
","","","","","","2151.1999999999534","images/cactus3.png","","","memory_trial","4","definitely_new",""
"html-keyboard-response","291","565556","0.0-18.0-0.123","4259","approach_avoid_sv1","""event"",""trial"",""time""
""fullscreenenter"",""1"",""3862""
","
","
","""event"",""trial"",""time""
""fullscreenenter"",""1"",""3862""
","
","","","","","","null","<div style=""font-size:60px;"">+</div>","null","","fixation","","",""
"memory-trial","292","567824","0.0-18.0-1.123","4259","approach_avoid_sv1","""event"",""trial"",""time""
""fullscreenenter"",""1"",""3862""
","
","
","""event"",""trial"",""time""
""fullscreenenter"",""1"",""3862""
","
","","","","","","1255.8999999999069","images/flower6.png","","","memory_trial","1","definitely_old",""
"html-keyboard-response","293","568330","0.0-18.0-0.124","4259","approach_avoid_sv1","""event"",""trial"",""time""
""fullscreenenter"",""1"",""3862""
","
","
","""event"",""trial"",""time""
""fullscreenenter"",""1"",""3862""
","
","","","","","","null","<div style=""font-size:60px;"">+</div>","null","","fixation","","",""
"memory-trial","294","570632","0.0-18.0-1.124","4259","approach_avoid_sv1","""event"",""trial"",""time""
""fullscreenenter"",""1"",""3862""
","
","
","""event"",""trial"",""time""
""fullscreenenter"",""1"",""3862""
","
","","","","","","1292.1999999999534","images/sofa1.png","","","memory_trial","4","definitely_new",""
"html-keyboard-response","295","571138","0.0-18.0-0.125","4259","approach_avoid_sv1","""event"",""trial"",""time""
""fullscreenenter"",""1"",""3862""
","
","
","""event"",""trial"",""time""
""fullscreenenter"",""1"",""3862""
","
","","","","","","null","<div style=""font-size:60px;"">+</div>","null","","fixation","","",""
"memory-trial","296","573039","0.0-18.0-1.125","4259","approach_avoid_sv1","""event"",""trial"",""time""
""fullscreenenter"",""1"",""3862""
","
","
","""event"",""trial"",""time""
""fullscreenenter"",""1"",""3862""
","
","","","","","","893","images/chair6.png","","","memory_trial","1","definitely_old",""
