"trial_type","trial_index","time_elapsed","internal_node_id","subject_id","task_version","interactions","blur_events","focus_events","fullscreenenter_events","fullscreenexit_events","success","timeout","failed_images","failed_audio","failed_video","rt","stimulus","response","button_pressed","task_part","key_press","answer","correct"
"pavlovia","0","4","0.0-0.0","7586","approach_avoid_sv1","""event"",""trial"",""time""
""fullscreenenter"",""1"",""1724""
","
","
","""event"",""trial"",""time""
""fullscreenenter"",""1"",""1724""
","
","","","","","","","","","","","","",""
"fullscreen","1","2712","0.0-1.0","7586","approach_avoid_sv1","""event"",""trial"",""time""
""fullscreenenter"",""1"",""1724""
","
","
","""event"",""trial"",""time""
""fullscreenenter"",""1"",""1724""
","
","true","","","","","","","","","","","",""
"preload","2","12799","0.0-2.0","7586","approach_avoid_sv1","""event"",""trial"",""time""
""fullscreenenter"",""1"",""1724""
","
","
","""event"",""trial"",""time""
""fullscreenenter"",""1"",""1724""
","
","true","false","[]","[]","[]","","","","","","","",""
"preload","3","19314","0.0-3.0","7586","approach_avoid_sv1","""event"",""trial"",""time""
""fullscreenenter"",""1"",""1724""
","
","
","""event"",""trial"",""time""
""fullscreenenter"",""1"",""1724""
","
","true","false","[]","[]","[]","","","","","","","",""
"preload","4","19779","0.0-4.0","7586","approach_avoid_sv1","""event"",""trial"",""time""
""fullscreenenter"",""1"",""1724""
","
","
","""event"",""trial"",""time""
""fullscreenenter"",""1"",""1724""
","
","true","false","[]","[]","[]","","","","","","","",""
"audio-keyboard-response","5","22581","0.0-5.0","7586","approach_avoid_sv1","""event"",""trial"",""time""
""fullscreenenter"",""1"",""1724""
","
","
","""event"",""trial"",""time""
""fullscreenenter"",""1"",""1724""
","
","","","","","","2749.3333333333335","audio/beep_loop.wav"," ","","","","",""
"audio-button-response","6","25454","0.0-6.0","7586","approach_avoid_sv1","""event"",""trial"",""time""
""fullscreenenter"",""1"",""1724""
","
","
","""event"",""trial"",""time""
""fullscreenenter"",""1"",""1724""
","
","","","","","","2872","audio/turtle.wav","3","","","","",""
"audio-button-response","7","28449","0.0-7.0","7586","approach_avoid_sv1","""event"",""trial"",""time""
""fullscreenenter"",""1"",""1724""
","
","
","""event"",""trial"",""time""
""fullscreenenter"",""1"",""1724""
","
","","","","","","1981","audio/shark.wav","2","","","","",""
"preload","8","43554","0.0-8.0","7586","approach_avoid_sv1","""event"",""trial"",""time""
""fullscreenenter"",""1"",""1724""
","
","
","""event"",""trial"",""time""
""fullscreenenter"",""1"",""1724""
","
","true","false","[]","[]","[]","","","","","","","",""
"learning-instructions","9","49069","0.0-9.0-0.0","7586","approach_avoid_sv1","""event"",""trial"",""time""
""fullscreenenter"",""1"",""1724""
","
","
","""event"",""trial"",""time""
""fullscreenenter"",""1"",""1724""
","
","","","","","","1037.1000000238419","<p> Welcome back! </p><p> Last week, you had to make choices about lots of different items.  </p>","","0","instructions","","",""
"learning-instructions","10","55070","0.0-9.0-0.1","7586","approach_avoid_sv1","""event"",""trial"",""time""
""fullscreenenter"",""1"",""1724""
","
","
","""event"",""trial"",""time""
""fullscreenenter"",""1"",""1724""
","
","","","","","","1879.4000000059605","<p> Today, we are going to ask you to try to remember all the items. </p>","","0","instructions","","",""
"learning-instructions","11","65844","0.0-9.0-0.2","7586","approach_avoid_sv1","""event"",""trial"",""time""
""fullscreenenter"",""1"",""1724""
","
","
","""event"",""trial"",""time""
""fullscreenenter"",""1"",""1724""
","
","","","","","","643.1999999880791","<p> On every trial, you will see an image. </p><p> The image may be an OLD image you saw during the games last week or it may be a NEW image that was not presented. </p>","","0","instructions","","",""
"learning-instructions","12","76283","0.0-9.0-0.3","7586","approach_avoid_sv1","""event"",""trial"",""time""
""fullscreenenter"",""1"",""1724""
","
","
","""event"",""trial"",""time""
""fullscreenenter"",""1"",""1724""
","
","","","","","","1931.2999999821186","<p> You need to select whether the image is:  </p><p>  'Definitely old', 'Maybe old', 'Maybe new', or 'Definitely new.'  </p><div class=""mem-choice-instructions-grid""><div class=""choice-option"" id=""choice-option-1"" ><img src=""images/definitely_old_1.png"" id=""choice-option-img-1"" class=""choice-option-img"" stage=""1""></div><div class=""choice-option"" id=""choice-option-2"" ><img src=""images/maybe_old_1.png"" id=""choice-option-img-2"" class=""choice-option-img"" stage=""1""></div><div class=""choice-option"" id=""choice-option-3"" ><img src=""images/maybe_new_1.png"" id=""choice-option-img-3"" class=""choice-option-img"" stage=""1""></div><div class=""choice-option"" id=""choice-option-4"" > <img src=""images/definitely_new_1.png"" id=""choice-option-img-4"" class=""choice-option-img"" stage=""1""></div></div>","","0","instructions","","",""
"learning-instructions","13","83614","0.0-9.0-0.4","7586","approach_avoid_sv1","""event"",""trial"",""time""
""fullscreenenter"",""1"",""1724""
","
","
","""event"",""trial"",""time""
""fullscreenenter"",""1"",""1724""
","
","","","","","","801.8000000119209","<p> You should use the 1, 2, 3, and 4 keys to make your responses.  </p><div class=""mem-choice-instructions-grid""><div class=""choice-option"" id=""choice-option-1"" ><img src=""images/definitely_old.png"" id=""choice-option-img-1"" class=""choice-option-img"" stage=""1""></div><div class=""choice-option"" id=""choice-option-2"" ><img src=""images/maybe_old.png"" id=""choice-option-img-2"" class=""choice-option-img"" stage=""1""></div><div class=""choice-option"" id=""choice-option-3"" ><img src=""images/maybe_new.png"" id=""choice-option-img-3"" class=""choice-option-img"" stage=""1""></div><div class=""choice-option"" id=""choice-option-4"" > <img src=""images/definitely_new.png"" id=""choice-option-img-4"" class=""choice-option-img"" stage=""1""></div></div>","","0","instructions","","",""
"learning-instructions","14","90749","0.0-9.0-0.5","7586","approach_avoid_sv1","""event"",""trial"",""time""
""fullscreenenter"",""1"",""1724""
","
","
","""event"",""trial"",""time""
""fullscreenenter"",""1"",""1724""
","
","","","","","","798.4000000059605","<p> You will have 10 seconds to make each response.  </p><p>  Make sure to respond before time runs out! </p>","","0","instructions","","",""
"learning-instructions","15","98939","0.0-9.0-0.6","7586","approach_avoid_sv1","""event"",""trial"",""time""
""fullscreenenter"",""1"",""1724""
","
","
","""event"",""trial"",""time""
""fullscreenenter"",""1"",""1724""
","
","","","","","","1097.699999988079","<p> Today, you will see each image ONCE only.  </p><p>  That means none of the images will repeat. </p>","","0","instructions","","",""
"learning-instructions","16","112893","0.0-9.0-0.7","7586","approach_avoid_sv1","""event"",""trial"",""time""
""fullscreenenter"",""1"",""1724""
","
","
","""event"",""trial"",""time""
""fullscreenenter"",""1"",""1724""
","
","","","","","","1272","<p> Before you play the real game, it is time to practice. </p><p>  Just like in the real game, some of the images in the practice will be ones you have seen before. </p><p>  Others will be entirely new. </p>","","0","instructions","","",""
"html-button-response","17","115225","0.0-10.0","7586","approach_avoid_sv1","""event"",""trial"",""time""
""fullscreenenter"",""1"",""1724""
","
","
","""event"",""trial"",""time""
""fullscreenenter"",""1"",""1724""
","
","","","","","","2224.2000000178814","<p> Ready to practice? </p><p> Remember, use the 1, 2, 3, and 4 keys to make your responses. </p>","0","","instructions","","",""
"html-keyboard-response","18","115850","0.0-11.0-0.0","7586","approach_avoid_sv1","""event"",""trial"",""time""
""fullscreenenter"",""1"",""1724""
","
","
","""event"",""trial"",""time""
""fullscreenenter"",""1"",""1724""
","
","","","","","","null","<div style=""font-size:60px;"">+</div>","null","","fixation","","",""
"memory-trial","19","117970","0.0-11.0-1.0","7586","approach_avoid_sv1","""event"",""trial"",""time""
""fullscreenenter"",""1"",""1724""
","
","
","""event"",""trial"",""time""
""fullscreenenter"",""1"",""1724""
","
","","","","","","1115","images/racket2.png","","","practice","1","definitely_old",""
"html-keyboard-response","20","118480","0.0-11.0-0.1","7586","approach_avoid_sv1","""event"",""trial"",""time""
""fullscreenenter"",""1"",""1724""
","
","
","""event"",""trial"",""time""
""fullscreenenter"",""1"",""1724""
","
","","","","","","null","<div style=""font-size:60px;"">+</div>","null","","fixation","","",""
"memory-trial","21","121120","0.0-11.0-1.1","7586","approach_avoid_sv1","""event"",""trial"",""time""
""fullscreenenter"",""1"",""1724""
","
","
","""event"",""trial"",""time""
""fullscreenenter"",""1"",""1724""
","
","","","","","","1620.5","images/racket3.png","","","practice","3","maybe_new",""
"html-keyboard-response","22","121639","0.0-11.0-0.2","7586","approach_avoid_sv1","""event"",""trial"",""time""
""fullscreenenter"",""1"",""1724""
","
","
","""event"",""trial"",""time""
""fullscreenenter"",""1"",""1724""
","
","","","","","","null","<div style=""font-size:60px;"">+</div>","null","","fixation","","",""
"memory-trial","23","123640","0.0-11.0-1.2","7586","approach_avoid_sv1","""event"",""trial"",""time""
""fullscreenenter"",""1"",""1724""
","
","
","""event"",""trial"",""time""
""fullscreenenter"",""1"",""1724""
","
","","","","","","997.3000000119209","images/racket1.png","","","practice","1","definitely_old",""
"html-keyboard-response","24","124150","0.0-11.0-0.3","7586","approach_avoid_sv1","""event"",""trial"",""time""
""fullscreenenter"",""1"",""1724""
","
","
","""event"",""trial"",""time""
""fullscreenenter"",""1"",""1724""
","
","","","","","","null","<div style=""font-size:60px;"">+</div>","null","","fixation","","",""
"memory-trial","25","126169","0.0-11.0-1.3","7586","approach_avoid_sv1","""event"",""trial"",""time""
""fullscreenenter"",""1"",""1724""
","
","
","""event"",""trial"",""time""
""fullscreenenter"",""1"",""1724""
","
","","","","","","996.8000000119209","images/ball5.png","","","practice","1","definitely_old",""
"html-keyboard-response","26","126689","0.0-11.0-0.4","7586","approach_avoid_sv1","""event"",""trial"",""time""
""fullscreenenter"",""1"",""1724""
","
","
","""event"",""trial"",""time""
""fullscreenenter"",""1"",""1724""
","
","","","","","","null","<div style=""font-size:60px;"">+</div>","null","","fixation","","",""
"memory-trial","27","128670","0.0-11.0-1.4","7586","approach_avoid_sv1","""event"",""trial"",""time""
""fullscreenenter"",""1"",""1724""
","
","
","""event"",""trial"",""time""
""fullscreenenter"",""1"",""1724""
","
","","","","","","976.0999999940395","images/racket5.png","","","practice","4","definitely_new",""
"html-keyboard-response","28","129190","0.0-11.0-0.5","7586","approach_avoid_sv1","""event"",""trial"",""time""
""fullscreenenter"",""1"",""1724""
","
","
","""event"",""trial"",""time""
""fullscreenenter"",""1"",""1724""
","
","","","","","","null","<div style=""font-size:60px;"">+</div>","null","","fixation","","",""
"memory-trial","29","131080","0.0-11.0-1.5","7586","approach_avoid_sv1","""event"",""trial"",""time""
""fullscreenenter"",""1"",""1724""
","
","
","""event"",""trial"",""time""
""fullscreenenter"",""1"",""1724""
","
","","","","","","883.3000000119209","images/ball2.png","","","practice","1","definitely_old",""
"html-keyboard-response","30","131600","0.0-11.0-0.6","7586","approach_avoid_sv1","""event"",""trial"",""time""
""fullscreenenter"",""1"",""1724""
","
","
","""event"",""trial"",""time""
""fullscreenenter"",""1"",""1724""
","
","","","","","","null","<div style=""font-size:60px;"">+</div>","null","","fixation","","",""
"memory-trial","31","134120","0.0-11.0-1.6","7586","approach_avoid_sv1","""event"",""trial"",""time""
""fullscreenenter"",""1"",""1724""
","
","
","""event"",""trial"",""time""
""fullscreenenter"",""1"",""1724""
","
","","","","","","1502.8999999761581","images/ball1.png","","","practice","2","maybe_old",""
"html-keyboard-response","32","134640","0.0-11.0-0.7","7586","approach_avoid_sv1","""event"",""trial"",""time""
""fullscreenenter"",""1"",""1724""
","
","
","""event"",""trial"",""time""
""fullscreenenter"",""1"",""1724""
","
","","","","","","null","<div style=""font-size:60px;"">+</div>","null","","fixation","","",""
"memory-trial","33","136255","0.0-11.0-1.7","7586","approach_avoid_sv1","""event"",""trial"",""time""
""fullscreenenter"",""1"",""1724""
","
","
","""event"",""trial"",""time""
""fullscreenenter"",""1"",""1724""
","
","","","","","","607.0999999940395","images/ball3.png","","","practice","1","definitely_old",""
"learning-instructions","34","144602","0.0-12.0-0.0","7586","approach_avoid_sv1","""event"",""trial"",""time""
""fullscreenenter"",""1"",""1724""
","
","
","""event"",""trial"",""time""
""fullscreenenter"",""1"",""1724""
","
","","","","","","1041.2999999821186","<p> Great! You have completed the practice. </p><p> Before you start, we're going to ask you a few questions about how the game works.  </p>","","0","instructions","","",""
"preload","35","150139","0.0-13.0","7586","approach_avoid_sv1","""event"",""trial"",""time""
""fullscreenenter"",""1"",""1724""
","
","
","""event"",""trial"",""time""
""fullscreenenter"",""1"",""1724""
","
","true","false","[]","[]","[]","","","","","","","",""
"comp-q","36","156493","0.0-14.0-0.0","7586","approach_avoid_sv1","""event"",""trial"",""time""
""fullscreenenter"",""1"",""1724""
","
","
","""event"",""trial"",""time""
""fullscreenenter"",""1"",""1724""
","
","","","","","","531.7000000178814","<p> <b> True or False? </b> </p><p> In this game, you will only see each image once. </p>","","0","comp_question","","","true"
"comp-q","37","173789","0.0-14.0-1.0","7586","approach_avoid_sv1","""event"",""trial"",""time""
""fullscreenenter"",""1"",""1724""
","
","
","""event"",""trial"",""time""
""fullscreenenter"",""1"",""1724""
","
","","","","","","10948.299999982119","<p> <b> That's right! </b> You will see many different images <i> one time each </i> in this game. </p>","","0","comp_answer","","",""
"comp-q","38","179424","0.0-15.0-0.0","7586","approach_avoid_sv1","""event"",""trial"",""time""
""fullscreenenter"",""1"",""1724""
","
","
","""event"",""trial"",""time""
""fullscreenenter"",""1"",""1724""
","
","","","","","","621.9000000059605","<p> <b> True or False? </b> </p><p> You should use the mouse and click to make your response. </p>","","1","comp_question","","","true"
"comp-q","39","187139","0.0-15.0-1.0","7586","approach_avoid_sv1","""event"",""trial"",""time""
""fullscreenenter"",""1"",""1724""
","
","
","""event"",""trial"",""time""
""fullscreenenter"",""1"",""1724""
","
","","","","","","1218.699999988079","<p><b> That's right! </b> You should use the '1', '2', '3', and '4' keys to make your response. </p>","","0","comp_answer","","",""
"comp-q","40","193600","0.0-16.0-0.0","7586","approach_avoid_sv1","""event"",""trial"",""time""
""fullscreenenter"",""1"",""1724""
","
","
","""event"",""trial"",""time""
""fullscreenenter"",""1"",""1724""
","
","","","","","","790.5","<p> <b> True or False? </b> </p><p> You will have as much time as you want to make each choice. </p>","","1","comp_question","","","true"
"comp-q","41","199142","0.0-16.0-1.0","7586","approach_avoid_sv1","""event"",""trial"",""time""
""fullscreenenter"",""1"",""1724""
","
","
","""event"",""trial"",""time""
""fullscreenenter"",""1"",""1724""
","
","","","","","","831.5999999940395","<p> <b> That's right! </b> You will only have 10 seconds to make each choice. </p>","","0","comp_answer","","",""
"learning-instructions","42","209170","0.0-17.0","7586","approach_avoid_sv1","""event"",""trial"",""time""
""fullscreenenter"",""1"",""1724""
","
","
","""event"",""trial"",""time""
""fullscreenenter"",""1"",""1724""
","
","","","","","","1350.5999999940395","<p> Great! You are now ready to begin the game. </p><p> Remember, use the 1, 2, 3, and 4 keys to make your responses. </p>","","0","instructions","","",""
"html-keyboard-response","43","209798","0.0-18.0-0.0","7586","approach_avoid_sv1","""event"",""trial"",""time""
""fullscreenenter"",""1"",""1724""
","
","
","""event"",""trial"",""time""
""fullscreenenter"",""1"",""1724""
","
","","","","","","null","<div style=""font-size:60px;"">+</div>","null","","fixation","","",""
"memory-trial","44","212403","0.0-18.0-1.0","7586","approach_avoid_sv1","""event"",""trial"",""time""
""fullscreenenter"",""1"",""1724""
","
","
","""event"",""trial"",""time""
""fullscreenenter"",""1"",""1724""
","
","","","","","","1585.9000000059605","images/sheep2.png","","","memory_trial","1","definitely_old",""
"html-keyboard-response","45","212918","0.0-18.0-0.1","7586","approach_avoid_sv1","""event"",""trial"",""time""
""fullscreenenter"",""1"",""1724""
","
","
","""event"",""trial"",""time""
""fullscreenenter"",""1"",""1724""
","
","","","","","","null","<div style=""font-size:60px;"">+</div>","null","","fixation","","",""
"memory-trial","46","214948","0.0-18.0-1.1","7586","approach_avoid_sv1","""event"",""trial"",""time""
""fullscreenenter"",""1"",""1724""
","
","
","""event"",""trial"",""time""
""fullscreenenter"",""1"",""1724""
","
","","","","","","1024.9000000059605","images/truck1.png","","","memory_trial","1","definitely_old",""
"html-keyboard-response","47","215468","0.0-18.0-0.2","7586","approach_avoid_sv1","""event"",""trial"",""time""
""fullscreenenter"",""1"",""1724""
","
","
","""event"",""trial"",""time""
""fullscreenenter"",""1"",""1724""
","
","","","","","","null","<div style=""font-size:60px;"">+</div>","null","","fixation","","",""
"memory-trial","48","217368","0.0-18.0-1.2","7586","approach_avoid_sv1","""event"",""trial"",""time""
""fullscreenenter"",""1"",""1724""
","
","
","""event"",""trial"",""time""
""fullscreenenter"",""1"",""1724""
","
","","","","","","883.6999999880791","images/straw7.png","","","memory_trial","1","definitely_old",""
"html-keyboard-response","49","217888","0.0-18.0-0.3","7586","approach_avoid_sv1","""event"",""trial"",""time""
""fullscreenenter"",""1"",""1724""
","
","
","""event"",""trial"",""time""
""fullscreenenter"",""1"",""1724""
","
","","","","","","null","<div style=""font-size:60px;"">+</div>","null","","fixation","","",""
"memory-trial","50","219648","0.0-18.0-1.3","7586","approach_avoid_sv1","""event"",""trial"",""time""
""fullscreenenter"",""1"",""1724""
","
","
","""event"",""trial"",""time""
""fullscreenenter"",""1"",""1724""
","
","","","","","","749","images/straw1.png","","","memory_trial","1","definitely_old",""
"html-keyboard-response","51","220168","0.0-18.0-0.4","7586","approach_avoid_sv1","""event"",""trial"",""time""
""fullscreenenter"",""1"",""1724""
","
","
","""event"",""trial"",""time""
""fullscreenenter"",""1"",""1724""
","
","","","","","","null","<div style=""font-size:60px;"">+</div>","null","","fixation","","",""
"memory-trial","52","222719","0.0-18.0-1.4","7586","approach_avoid_sv1","""event"",""trial"",""time""
""fullscreenenter"",""1"",""1724""
","
","
","""event"",""trial"",""time""
""fullscreenenter"",""1"",""1724""
","
","","","","","","1546.4000000059605","images/goat1.png","","","memory_trial","3","maybe_new",""
"html-keyboard-response","53","223238","0.0-18.0-0.5","7586","approach_avoid_sv1","""event"",""trial"",""time""
""fullscreenenter"",""1"",""1724""
","
","
","""event"",""trial"",""time""
""fullscreenenter"",""1"",""1724""
","
","","","","","","null","<div style=""font-size:60px;"">+</div>","null","","fixation","","",""
"memory-trial","54","225219","0.0-18.0-1.5","7586","approach_avoid_sv1","""event"",""trial"",""time""
""fullscreenenter"",""1"",""1724""
","
","
","""event"",""trial"",""time""
""fullscreenenter"",""1"",""1724""
","
","","","","","","968.8000000119209","images/flower3.png","","","memory_trial","1","definitely_old",""
"html-keyboard-response","55","225739","0.0-18.0-0.6","7586","approach_avoid_sv1","""event"",""trial"",""time""
""fullscreenenter"",""1"",""1724""
","
","
","""event"",""trial"",""time""
""fullscreenenter"",""1"",""1724""
","
","","","","","","null","<div style=""font-size:60px;"">+</div>","null","","fixation","","",""
"memory-trial","56","228689","0.0-18.0-1.6","7586","approach_avoid_sv1","""event"",""trial"",""time""
""fullscreenenter"",""1"",""1724""
","
","
","""event"",""trial"",""time""
""fullscreenenter"",""1"",""1724""
","
","","","","","","1934.2999999821186","images/table3.png","","","memory_trial","4","definitely_new",""
"html-keyboard-response","57","229209","0.0-18.0-0.7","7586","approach_avoid_sv1","""event"",""trial"",""time""
""fullscreenenter"",""1"",""1724""
","
","
","""event"",""trial"",""time""
""fullscreenenter"",""1"",""1724""
","
","","","","","","null","<div style=""font-size:60px;"">+</div>","null","","fixation","","",""
"memory-trial","58","230959","0.0-18.0-1.7","7586","approach_avoid_sv1","""event"",""trial"",""time""
""fullscreenenter"",""1"",""1724""
","
","
","""event"",""trial"",""time""
""fullscreenenter"",""1"",""1724""
","
","","","","","","747.4000000059605","images/sheep7.png","","","memory_trial","1","definitely_old",""
"html-keyboard-response","59","231479","0.0-18.0-0.8","7586","approach_avoid_sv1","""event"",""trial"",""time""
""fullscreenenter"",""1"",""1724""
","
","
","""event"",""trial"",""time""
""fullscreenenter"",""1"",""1724""
","
","","","","","","null","<div style=""font-size:60px;"">+</div>","null","","fixation","","",""
"memory-trial","60","233318","0.0-18.0-1.8","7586","approach_avoid_sv1","""event"",""trial"",""time""
""fullscreenenter"",""1"",""1724""
","
","
","""event"",""trial"",""time""
""fullscreenenter"",""1"",""1724""
","
","","","","","","833.7999999821186","images/sofa1.png","","","memory_trial","1","definitely_old",""
"html-keyboard-response","61","233838","0.0-18.0-0.9","7586","approach_avoid_sv1","""event"",""trial"",""time""
""fullscreenenter"",""1"",""1724""
","
","
","""event"",""trial"",""time""
""fullscreenenter"",""1"",""1724""
","
","","","","","","null","<div style=""font-size:60px;"">+</div>","null","","fixation","","",""
"memory-trial","62","235598","0.0-18.0-1.9","7586","approach_avoid_sv1","""event"",""trial"",""time""
""fullscreenenter"",""1"",""1724""
","
","
","""event"",""trial"",""time""
""fullscreenenter"",""1"",""1724""
","
","","","","","","746.8000000119209","images/table5.png","","","memory_trial","1","definitely_old",""
"html-keyboard-response","63","236118","0.0-18.0-0.10","7586","approach_avoid_sv1","""event"",""trial"",""time""
""fullscreenenter"",""1"",""1724""
","
","
","""event"",""trial"",""time""
""fullscreenenter"",""1"",""1724""
","
","","","","","","null","<div style=""font-size:60px;"">+</div>","null","","fixation","","",""
"memory-trial","64","238600","0.0-18.0-1.10","7586","approach_avoid_sv1","""event"",""trial"",""time""
""fullscreenenter"",""1"",""1724""
","
","
","""event"",""trial"",""time""
""fullscreenenter"",""1"",""1724""
","
","","","","","","1478.199999988079","images/tree6.png","","","memory_trial","4","definitely_new",""
"html-keyboard-response","65","239110","0.0-18.0-0.11","7586","approach_avoid_sv1","""event"",""trial"",""time""
""fullscreenenter"",""1"",""1724""
","
","
","""event"",""trial"",""time""
""fullscreenenter"",""1"",""1724""
","
","","","","","","null","<div style=""font-size:60px;"">+</div>","null","","fixation","","",""
"memory-trial","66","241425","0.0-18.0-1.11","7586","approach_avoid_sv1","""event"",""trial"",""time""
""fullscreenenter"",""1"",""1724""
","
","
","""event"",""trial"",""time""
""fullscreenenter"",""1"",""1724""
","
","","","","","","1303.300000011921","images/goat6.png","","","memory_trial","1","definitely_old",""
"html-keyboard-response","67","241929","0.0-18.0-0.12","7586","approach_avoid_sv1","""event"",""trial"",""time""
""fullscreenenter"",""1"",""1724""
","
","
","""event"",""trial"",""time""
""fullscreenenter"",""1"",""1724""
","
","","","","","","null","<div style=""font-size:60px;"">+</div>","null","","fixation","","",""
"memory-trial","68","243970","0.0-18.0-1.12","7586","approach_avoid_sv1","""event"",""trial"",""time""
""fullscreenenter"",""1"",""1724""
","
","
","""event"",""trial"",""time""
""fullscreenenter"",""1"",""1724""
","
","","","","","","1027.5","images/goat4.png","","","memory_trial","1","definitely_old",""
"html-keyboard-response","69","244479","0.0-18.0-0.13","7586","approach_avoid_sv1","""event"",""trial"",""time""
""fullscreenenter"",""1"",""1724""
","
","
","""event"",""trial"",""time""
""fullscreenenter"",""1"",""1724""
","
","","","","","","null","<div style=""font-size:60px;"">+</div>","null","","fixation","","",""
"memory-trial","70","246263","0.0-18.0-1.13","7586","approach_avoid_sv1","""event"",""trial"",""time""
""fullscreenenter"",""1"",""1724""
","
","
","""event"",""trial"",""time""
""fullscreenenter"",""1"",""1724""
","
","","","","","","765","images/boat4.png","","","memory_trial","1","definitely_old",""
"html-keyboard-response","71","246770","0.0-18.0-0.14","7586","approach_avoid_sv1","""event"",""trial"",""time""
""fullscreenenter"",""1"",""1724""
","
","
","""event"",""trial"",""time""
""fullscreenenter"",""1"",""1724""
","
","","","","","","null","<div style=""font-size:60px;"">+</div>","null","","fixation","","",""
"memory-trial","72","249174","0.0-18.0-1.14","7586","approach_avoid_sv1","""event"",""trial"",""time""
""fullscreenenter"",""1"",""1724""
","
","
","""event"",""trial"",""time""
""fullscreenenter"",""1"",""1724""
","
","","","","","","1398.699999988079","images/table1.png","","","memory_trial","3","maybe_new",""
"html-keyboard-response","73","249677","0.0-18.0-0.15","7586","approach_avoid_sv1","""event"",""trial"",""time""
""fullscreenenter"",""1"",""1724""
","
","
","""event"",""trial"",""time""
""fullscreenenter"",""1"",""1724""
","
","","","","","","null","<div style=""font-size:60px;"">+</div>","null","","fixation","","",""
"memory-trial","74","252536","0.0-18.0-1.15","7586","approach_avoid_sv1","""event"",""trial"",""time""
""fullscreenenter"",""1"",""1724""
","
","
","""event"",""trial"",""time""
""fullscreenenter"",""1"",""1724""
","
","","","","","","1853.7999999821186","images/goat2.png","","","memory_trial","2","maybe_old",""
"html-keyboard-response","75","253039","0.0-18.0-0.16","7586","approach_avoid_sv1","""event"",""trial"",""time""
""fullscreenenter"",""1"",""1724""
","
","
","""event"",""trial"",""time""
""fullscreenenter"",""1"",""1724""
","
","","","","","","null","<div style=""font-size:60px;"">+</div>","null","","fixation","","",""
"memory-trial","76","255446","0.0-18.0-1.16","7586","approach_avoid_sv1","""event"",""trial"",""time""
""fullscreenenter"",""1"",""1724""
","
","
","""event"",""trial"",""time""
""fullscreenenter"",""1"",""1724""
","
","","","","","","1396.5999999940395","images/apple4.png","","","memory_trial","4","definitely_new",""
"html-keyboard-response","77","255963","0.0-18.0-0.17","7586","approach_avoid_sv1","""event"",""trial"",""time""
""fullscreenenter"",""1"",""1724""
","
","
","""event"",""trial"",""time""
""fullscreenenter"",""1"",""1724""
","
","","","","","","null","<div style=""font-size:60px;"">+</div>","null","","fixation","","",""
"memory-trial","78","258246","0.0-18.0-1.17","7586","approach_avoid_sv1","""event"",""trial"",""time""
""fullscreenenter"",""1"",""1724""
","
","
","""event"",""trial"",""time""
""fullscreenenter"",""1"",""1724""
","
","","","","","","1280.300000011921","images/cactus1.png","","","memory_trial","4","definitely_new",""
"html-keyboard-response","79","258753","0.0-18.0-0.18","7586","approach_avoid_sv1","""event"",""trial"",""time""
""fullscreenenter"",""1"",""1724""
","
","
","""event"",""trial"",""time""
""fullscreenenter"",""1"",""1724""
","
","","","","","","null","<div style=""font-size:60px;"">+</div>","null","","fixation","","",""
"memory-trial","80","261877","0.0-18.0-1.18","7586","approach_avoid_sv1","""event"",""trial"",""time""
""fullscreenenter"",""1"",""1724""
","
","
","""event"",""trial"",""time""
""fullscreenenter"",""1"",""1724""
","
","","","","","","2109.199999988079","images/chair3.png","","","memory_trial","4","definitely_new",""
"html-keyboard-response","81","262380","0.0-18.0-0.19","7586","approach_avoid_sv1","""event"",""trial"",""time""
""fullscreenenter"",""1"",""1724""
","
","
","""event"",""trial"",""time""
""fullscreenenter"",""1"",""1724""
","
","","","","","","null","<div style=""font-size:60px;"">+</div>","null","","fixation","","",""
"memory-trial","82","264461","0.0-18.0-1.19","7586","approach_avoid_sv1","""event"",""trial"",""time""
""fullscreenenter"",""1"",""1724""
","
","
","""event"",""trial"",""time""
""fullscreenenter"",""1"",""1724""
","
","","","","","","1075.5","images/orange5.png","","","memory_trial","1","definitely_old",""
"html-keyboard-response","83","264965","0.0-18.0-0.20","7586","approach_avoid_sv1","""event"",""trial"",""time""
""fullscreenenter"",""1"",""1724""
","
","
","""event"",""trial"",""time""
""fullscreenenter"",""1"",""1724""
","
","","","","","","null","<div style=""font-size:60px;"">+</div>","null","","fixation","","",""
"memory-trial","84","267728","0.0-18.0-1.20","7586","approach_avoid_sv1","""event"",""trial"",""time""
""fullscreenenter"",""1"",""1724""
","
","
","""event"",""trial"",""time""
""fullscreenenter"",""1"",""1724""
","
","","","","","","1755.0999999940395","images/rodent8.png","","","memory_trial","4","definitely_new",""
"html-keyboard-response","85","268230","0.0-18.0-0.21","7586","approach_avoid_sv1","""event"",""trial"",""time""
""fullscreenenter"",""1"",""1724""
","
","
","""event"",""trial"",""time""
""fullscreenenter"",""1"",""1724""
","
","","","","","","null","<div style=""font-size:60px;"">+</div>","null","","fixation","","",""
"memory-trial","86","270971","0.0-18.0-1.21","7586","approach_avoid_sv1","""event"",""trial"",""time""
""fullscreenenter"",""1"",""1724""
","
","
","""event"",""trial"",""time""
""fullscreenenter"",""1"",""1724""
","
","","","","","","1738.2999999821186","images/banana2.png","","","memory_trial","4","definitely_new",""
"html-keyboard-response","87","271478","0.0-18.0-0.22","7586","approach_avoid_sv1","""event"",""trial"",""time""
""fullscreenenter"",""1"",""1724""
","
","
","""event"",""trial"",""time""
""fullscreenenter"",""1"",""1724""
","
","","","","","","null","<div style=""font-size:60px;"">+</div>","null","","fixation","","",""
"memory-trial","88","273455","0.0-18.0-1.22","7586","approach_avoid_sv1","""event"",""trial"",""time""
""fullscreenenter"",""1"",""1724""
","
","
","""event"",""trial"",""time""
""fullscreenenter"",""1"",""1724""
","
","","","","","","971.2999999821186","images/orange8.png","","","memory_trial","1","definitely_old",""
"html-keyboard-response","89","273968","0.0-18.0-0.23","7586","approach_avoid_sv1","""event"",""trial"",""time""
""fullscreenenter"",""1"",""1724""
","
","
","""event"",""trial"",""time""
""fullscreenenter"",""1"",""1724""
","
","","","","","","null","<div style=""font-size:60px;"">+</div>","null","","fixation","","",""
"memory-trial","90","276024","0.0-18.0-1.23","7586","approach_avoid_sv1","""event"",""trial"",""time""
""fullscreenenter"",""1"",""1724""
","
","
","""event"",""trial"",""time""
""fullscreenenter"",""1"",""1724""
","
","","","","","","1048.4000000059605","images/straw6.png","","","memory_trial","1","definitely_old",""
"html-keyboard-response","91","276527","0.0-18.0-0.24","7586","approach_avoid_sv1","""event"",""trial"",""time""
""fullscreenenter"",""1"",""1724""
","
","
","""event"",""trial"",""time""
""fullscreenenter"",""1"",""1724""
","
","","","","","","null","<div style=""font-size:60px;"">+</div>","null","","fixation","","",""
"memory-trial","92","278850","0.0-18.0-1.24","7586","approach_avoid_sv1","""event"",""trial"",""time""
""fullscreenenter"",""1"",""1724""
","
","
","""event"",""trial"",""time""
""fullscreenenter"",""1"",""1724""
","
","","","","","","1311.300000011921","images/sofa4.png","","","memory_trial","4","definitely_new",""
"html-keyboard-response","93","279354","0.0-18.0-0.25","7586","approach_avoid_sv1","""event"",""trial"",""time""
""fullscreenenter"",""1"",""1724""
","
","
","""event"",""trial"",""time""
""fullscreenenter"",""1"",""1724""
","
","","","","","","null","<div style=""font-size:60px;"">+</div>","null","","fixation","","",""
"memory-trial","94","281691","0.0-18.0-1.25","7586","approach_avoid_sv1","""event"",""trial"",""time""
""fullscreenenter"",""1"",""1724""
","
","
","""event"",""trial"",""time""
""fullscreenenter"",""1"",""1724""
","
","","","","","","1320.300000011921","images/chair6.png","","","memory_trial","4","definitely_new",""
"html-keyboard-response","95","282196","0.0-18.0-0.26","7586","approach_avoid_sv1","""event"",""trial"",""time""
""fullscreenenter"",""1"",""1724""
","
","
","""event"",""trial"",""time""
""fullscreenenter"",""1"",""1724""
","
","","","","","","null","<div style=""font-size:60px;"">+</div>","null","","fixation","","",""
"memory-trial","96","283920","0.0-18.0-1.26","7586","approach_avoid_sv1","""event"",""trial"",""time""
""fullscreenenter"",""1"",""1724""
","
","
","""event"",""trial"",""time""
""fullscreenenter"",""1"",""1724""
","
","","","","","","715.5999999940395","images/sheep5.png","","","memory_trial","1","definitely_old",""
"html-keyboard-response","97","284426","0.0-18.0-0.27","7586","approach_avoid_sv1","""event"",""trial"",""time""
""fullscreenenter"",""1"",""1724""
","
","
","""event"",""trial"",""time""
""fullscreenenter"",""1"",""1724""
","
","","","","","","null","<div style=""font-size:60px;"">+</div>","null","","fixation","","",""
"memory-trial","98","286621","0.0-18.0-1.27","7586","approach_avoid_sv1","""event"",""trial"",""time""
""fullscreenenter"",""1"",""1724""
","
","
","""event"",""trial"",""time""
""fullscreenenter"",""1"",""1724""
","
","","","","","","1192.9000000059605","images/train4.png","","","memory_trial","4","definitely_new",""
"html-keyboard-response","99","287125","0.0-18.0-0.28","7586","approach_avoid_sv1","""event"",""trial"",""time""
""fullscreenenter"",""1"",""1724""
","
","
","""event"",""trial"",""time""
""fullscreenenter"",""1"",""1724""
","
","","","","","","null","<div style=""font-size:60px;"">+</div>","null","","fixation","","",""
"memory-trial","100","289065","0.0-18.0-1.28","7586","approach_avoid_sv1","""event"",""trial"",""time""
""fullscreenenter"",""1"",""1724""
","
","
","""event"",""trial"",""time""
""fullscreenenter"",""1"",""1724""
","
","","","","","","930.1000000238419","images/banana8.png","","","memory_trial","1","definitely_old",""
"html-keyboard-response","101","289570","0.0-18.0-0.29","7586","approach_avoid_sv1","""event"",""trial"",""time""
""fullscreenenter"",""1"",""1724""
","
","
","""event"",""trial"",""time""
""fullscreenenter"",""1"",""1724""
","
","","","","","","null","<div style=""font-size:60px;"">+</div>","null","","fixation","","",""
"memory-trial","102","292311","0.0-18.0-1.29","7586","approach_avoid_sv1","""event"",""trial"",""time""
""fullscreenenter"",""1"",""1724""
","
","
","""event"",""trial"",""time""
""fullscreenenter"",""1"",""1724""
","
","","","","","","1739.199999988079","images/tree3.png","","","memory_trial","3","maybe_new",""
"html-keyboard-response","103","292816","0.0-18.0-0.30","7586","approach_avoid_sv1","""event"",""trial"",""time""
""fullscreenenter"",""1"",""1724""
","
","
","""event"",""trial"",""time""
""fullscreenenter"",""1"",""1724""
","
","","","","","","null","<div style=""font-size:60px;"">+</div>","null","","fixation","","",""
"memory-trial","104","294687","0.0-18.0-1.30","7586","approach_avoid_sv1","""event"",""trial"",""time""
""fullscreenenter"",""1"",""1724""
","
","
","""event"",""trial"",""time""
""fullscreenenter"",""1"",""1724""
","
","","","","","","862.2999999821186","images/sheep8.png","","","memory_trial","1","definitely_old",""
"html-keyboard-response","105","295195","0.0-18.0-0.31","7586","approach_avoid_sv1","""event"",""trial"",""time""
""fullscreenenter"",""1"",""1724""
","
","
","""event"",""trial"",""time""
""fullscreenenter"",""1"",""1724""
","
","","","","","","null","<div style=""font-size:60px;"">+</div>","null","","fixation","","",""
"memory-trial","106","297191","0.0-18.0-1.31","7586","approach_avoid_sv1","""event"",""trial"",""time""
""fullscreenenter"",""1"",""1724""
","
","
","""event"",""trial"",""time""
""fullscreenenter"",""1"",""1724""
","
","","","","","","990.2999999821186","images/cat7.png","","","memory_trial","1","definitely_old",""
"html-keyboard-response","107","297700","0.0-18.0-0.32","7586","approach_avoid_sv1","""event"",""trial"",""time""
""fullscreenenter"",""1"",""1724""
","
","
","""event"",""trial"",""time""
""fullscreenenter"",""1"",""1724""
","
","","","","","","null","<div style=""font-size:60px;"">+</div>","null","","fixation","","",""
"memory-trial","108","300043","0.0-18.0-1.32","7586","approach_avoid_sv1","""event"",""trial"",""time""
""fullscreenenter"",""1"",""1724""
","
","
","""event"",""trial"",""time""
""fullscreenenter"",""1"",""1724""
","
","","","","","","1328.4000000059605","images/plane2.png","","","memory_trial","4","definitely_new",""
"html-keyboard-response","109","300546","0.0-18.0-0.33","7586","approach_avoid_sv1","""event"",""trial"",""time""
""fullscreenenter"",""1"",""1724""
","
","
","""event"",""trial"",""time""
""fullscreenenter"",""1"",""1724""
","
","","","","","","null","<div style=""font-size:60px;"">+</div>","null","","fixation","","",""
"memory-trial","110","303477","0.0-18.0-1.33","7586","approach_avoid_sv1","""event"",""trial"",""time""
""fullscreenenter"",""1"",""1724""
","
","
","""event"",""trial"",""time""
""fullscreenenter"",""1"",""1724""
","
","","","","","","1924.5999999940395","images/apple7.png","","","memory_trial","2","maybe_old",""
"html-keyboard-response","111","303980","0.0-18.0-0.34","7586","approach_avoid_sv1","""event"",""trial"",""time""
""fullscreenenter"",""1"",""1724""
","
","
","""event"",""trial"",""time""
""fullscreenenter"",""1"",""1724""
","
","","","","","","null","<div style=""font-size:60px;"">+</div>","null","","fixation","","",""
"memory-trial","112","306625","0.0-18.0-1.34","7586","approach_avoid_sv1","""event"",""trial"",""time""
""fullscreenenter"",""1"",""1724""
","
","
","""event"",""trial"",""time""
""fullscreenenter"",""1"",""1724""
","
","","","","","","1641.300000011921","images/bed7.png","","","memory_trial","4","definitely_new",""
"html-keyboard-response","113","307133","0.0-18.0-0.35","7586","approach_avoid_sv1","""event"",""trial"",""time""
""fullscreenenter"",""1"",""1724""
","
","
","""event"",""trial"",""time""
""fullscreenenter"",""1"",""1724""
","
","","","","","","null","<div style=""font-size:60px;"">+</div>","null","","fixation","","",""
"memory-trial","114","309212","0.0-18.0-1.35","7586","approach_avoid_sv1","""event"",""trial"",""time""
""fullscreenenter"",""1"",""1724""
","
","
","""event"",""trial"",""time""
""fullscreenenter"",""1"",""1724""
","
","","","","","","1067.199999988079","images/chair7.png","","","memory_trial","4","definitely_new",""
"html-keyboard-response","115","309713","0.0-18.0-0.36","7586","approach_avoid_sv1","""event"",""trial"",""time""
""fullscreenenter"",""1"",""1724""
","
","
","""event"",""trial"",""time""
""fullscreenenter"",""1"",""1724""
","
","","","","","","null","<div style=""font-size:60px;"">+</div>","null","","fixation","","",""
"memory-trial","116","311674","0.0-18.0-1.36","7586","approach_avoid_sv1","""event"",""trial"",""time""
""fullscreenenter"",""1"",""1724""
","
","
","""event"",""trial"",""time""
""fullscreenenter"",""1"",""1724""
","
","","","","","","942.9000000059605","images/boat1.png","","","memory_trial","1","definitely_old",""
"html-keyboard-response","117","312183","0.0-18.0-0.37","7586","approach_avoid_sv1","""event"",""trial"",""time""
""fullscreenenter"",""1"",""1724""
","
","
","""event"",""trial"",""time""
""fullscreenenter"",""1"",""1724""
","
","","","","","","null","<div style=""font-size:60px;"">+</div>","null","","fixation","","",""
"memory-trial","118","314357","0.0-18.0-1.37","7586","approach_avoid_sv1","""event"",""trial"",""time""
""fullscreenenter"",""1"",""1724""
","
","
","""event"",""trial"",""time""
""fullscreenenter"",""1"",""1724""
","
","","","","","","1165.2999999821186","images/tree2.png","","","memory_trial","4","definitely_new",""
"html-keyboard-response","119","314865","0.0-18.0-0.38","7586","approach_avoid_sv1","""event"",""trial"",""time""
""fullscreenenter"",""1"",""1724""
","
","
","""event"",""trial"",""time""
""fullscreenenter"",""1"",""1724""
","
","","","","","","null","<div style=""font-size:60px;"">+</div>","null","","fixation","","",""
"memory-trial","120","318000","0.0-18.0-1.38","7586","approach_avoid_sv1","""event"",""trial"",""time""
""fullscreenenter"",""1"",""1724""
","
","
","""event"",""trial"",""time""
""fullscreenenter"",""1"",""1724""
","
","","","","","","2119.7999999821186","images/goat8.png","","","memory_trial","2","maybe_old",""
"html-keyboard-response","121","318503","0.0-18.0-0.39","7586","approach_avoid_sv1","""event"",""trial"",""time""
""fullscreenenter"",""1"",""1724""
","
","
","""event"",""trial"",""time""
""fullscreenenter"",""1"",""1724""
","
","","","","","","null","<div style=""font-size:60px;"">+</div>","null","","fixation","","",""
"memory-trial","122","320676","0.0-18.0-1.39","7586","approach_avoid_sv1","""event"",""trial"",""time""
""fullscreenenter"",""1"",""1724""
","
","
","""event"",""trial"",""time""
""fullscreenenter"",""1"",""1724""
","
","","","","","","1164.199999988079","images/apple3.png","","","memory_trial","4","definitely_new",""
"html-keyboard-response","123","321190","0.0-18.0-0.40","7586","approach_avoid_sv1","""event"",""trial"",""time""
""fullscreenenter"",""1"",""1724""
","
","
","""event"",""trial"",""time""
""fullscreenenter"",""1"",""1724""
","
","","","","","","null","<div style=""font-size:60px;"">+</div>","null","","fixation","","",""
"memory-trial","124","323770","0.0-18.0-1.40","7586","approach_avoid_sv1","""event"",""trial"",""time""
""fullscreenenter"",""1"",""1724""
","
","
","""event"",""trial"",""time""
""fullscreenenter"",""1"",""1724""
","
","","","","","","1564.199999988079","images/cat8.png","","","memory_trial","4","definitely_new",""
"html-keyboard-response","125","324276","0.0-18.0-0.41","7586","approach_avoid_sv1","""event"",""trial"",""time""
""fullscreenenter"",""1"",""1724""
","
","
","""event"",""trial"",""time""
""fullscreenenter"",""1"",""1724""
","
","","","","","","null","<div style=""font-size:60px;"">+</div>","null","","fixation","","",""
"memory-trial","126","326546","0.0-18.0-1.41","7586","approach_avoid_sv1","""event"",""trial"",""time""
""fullscreenenter"",""1"",""1724""
","
","
","""event"",""trial"",""time""
""fullscreenenter"",""1"",""1724""
","
","","","","","","1252.9000000059605","images/train1.png","","","memory_trial","4","definitely_new",""
"html-button-response","127","328166","0.0-18.0-2.41-0.41","7586","approach_avoid_sv1","""event"",""trial"",""time""
""fullscreenenter"",""1"",""1724""
","
","
","""event"",""trial"",""time""
""fullscreenenter"",""1"",""1724""
","
","","","","","","1618.5","<p> Take a break! </p><p> Click the button to continue. </p>","0","","break","","",""
"html-keyboard-response","128","328670","0.0-18.0-0.42","7586","approach_avoid_sv1","""event"",""trial"",""time""
""fullscreenenter"",""1"",""1724""
","
","
","""event"",""trial"",""time""
""fullscreenenter"",""1"",""1724""
","
","","","","","","null","<div style=""font-size:60px;"">+</div>","null","","fixation","","",""
"memory-trial","129","331824","0.0-18.0-1.42","7586","approach_avoid_sv1","""event"",""trial"",""time""
""fullscreenenter"",""1"",""1724""
","
","
","""event"",""trial"",""time""
""fullscreenenter"",""1"",""1724""
","
","","","","","","2148.800000011921","images/rabbit2.png","","","memory_trial","1","definitely_old",""
"html-keyboard-response","130","332331","0.0-18.0-0.43","7586","approach_avoid_sv1","""event"",""trial"",""time""
""fullscreenenter"",""1"",""1724""
","
","
","""event"",""trial"",""time""
""fullscreenenter"",""1"",""1724""
","
","","","","","","null","<div style=""font-size:60px;"">+</div>","null","","fixation","","",""
"memory-trial","131","334222","0.0-18.0-1.43","7586","approach_avoid_sv1","""event"",""trial"",""time""
""fullscreenenter"",""1"",""1724""
","
","
","""event"",""trial"",""time""
""fullscreenenter"",""1"",""1724""
","
","","","","","","877.5","images/banana3.png","","","memory_trial","1","definitely_old",""
"html-keyboard-response","132","334730","0.0-18.0-0.44","7586","approach_avoid_sv1","""event"",""trial"",""time""
""fullscreenenter"",""1"",""1724""
","
","
","""event"",""trial"",""time""
""fullscreenenter"",""1"",""1724""
","
","","","","","","null","<div style=""font-size:60px;"">+</div>","null","","fixation","","",""
"memory-trial","133","336727","0.0-18.0-1.44","7586","approach_avoid_sv1","""event"",""trial"",""time""
""fullscreenenter"",""1"",""1724""
","
","
","""event"",""trial"",""time""
""fullscreenenter"",""1"",""1724""
","
","","","","","","987.7000000178814","images/truck4.png","","","memory_trial","1","definitely_old",""
"html-keyboard-response","134","337236","0.0-18.0-0.45","7586","approach_avoid_sv1","""event"",""trial"",""time""
""fullscreenenter"",""1"",""1724""
","
","
","""event"",""trial"",""time""
""fullscreenenter"",""1"",""1724""
","
","","","","","","null","<div style=""font-size:60px;"">+</div>","null","","fixation","","",""
"memory-trial","135","339050","0.0-18.0-1.45","7586","approach_avoid_sv1","""event"",""trial"",""time""
""fullscreenenter"",""1"",""1724""
","
","
","""event"",""trial"",""time""
""fullscreenenter"",""1"",""1724""
","
","","","","","","805.0999999940395","images/truck7.png","","","memory_trial","1","definitely_old",""
"html-keyboard-response","136","339551","0.0-18.0-0.46","7586","approach_avoid_sv1","""event"",""trial"",""time""
""fullscreenenter"",""1"",""1724""
","
","
","""event"",""trial"",""time""
""fullscreenenter"",""1"",""1724""
","
","","","","","","null","<div style=""font-size:60px;"">+</div>","null","","fixation","","",""
"memory-trial","137","341520","0.0-18.0-1.46","7586","approach_avoid_sv1","""event"",""trial"",""time""
""fullscreenenter"",""1"",""1724""
","
","
","""event"",""trial"",""time""
""fullscreenenter"",""1"",""1724""
","
","","","","","","965.0999999940395","images/orange6.png","","","memory_trial","1","definitely_old",""
"html-keyboard-response","138","342033","0.0-18.0-0.47","7586","approach_avoid_sv1","""event"",""trial"",""time""
""fullscreenenter"",""1"",""1724""
","
","
","""event"",""trial"",""time""
""fullscreenenter"",""1"",""1724""
","
","","","","","","null","<div style=""font-size:60px;"">+</div>","null","","fixation","","",""
"memory-trial","139","344633","0.0-18.0-1.47","7586","approach_avoid_sv1","""event"",""trial"",""time""
""fullscreenenter"",""1"",""1724""
","
","
","""event"",""trial"",""time""
""fullscreenenter"",""1"",""1724""
","
","","","","","","1596.3999999761581","images/bush3.png","","","memory_trial","1","definitely_old",""
"html-keyboard-response","140","345138","0.0-18.0-0.48","7586","approach_avoid_sv1","""event"",""trial"",""time""
""fullscreenenter"",""1"",""1724""
","
","
","""event"",""trial"",""time""
""fullscreenenter"",""1"",""1724""
","
","","","","","","null","<div style=""font-size:60px;"">+</div>","null","","fixation","","",""
"memory-trial","141","347500","0.0-18.0-1.48","7586","approach_avoid_sv1","""event"",""trial"",""time""
""fullscreenenter"",""1"",""1724""
","
","
","""event"",""trial"",""time""
""fullscreenenter"",""1"",""1724""
","
","","","","","","1347.7999999821186","images/horse8.png","","","memory_trial","4","definitely_new",""
"html-keyboard-response","142","348016","0.0-18.0-0.49","7586","approach_avoid_sv1","""event"",""trial"",""time""
""fullscreenenter"",""1"",""1724""
","
","
","""event"",""trial"",""time""
""fullscreenenter"",""1"",""1724""
","
","","","","","","null","<div style=""font-size:60px;"">+</div>","null","","fixation","","",""
"memory-trial","143","350721","0.0-18.0-1.49","7586","approach_avoid_sv1","""event"",""trial"",""time""
""fullscreenenter"",""1"",""1724""
","
","
","""event"",""trial"",""time""
""fullscreenenter"",""1"",""1724""
","
","","","","","","1694","images/bush2.png","","","memory_trial","3","maybe_new",""
"html-keyboard-response","144","351230","0.0-18.0-0.50","7586","approach_avoid_sv1","""event"",""trial"",""time""
""fullscreenenter"",""1"",""1724""
","
","
","""event"",""trial"",""time""
""fullscreenenter"",""1"",""1724""
","
","","","","","","null","<div style=""font-size:60px;"">+</div>","null","","fixation","","",""
"memory-trial","145","353295","0.0-18.0-1.50","7586","approach_avoid_sv1","""event"",""trial"",""time""
""fullscreenenter"",""1"",""1724""
","
","
","""event"",""trial"",""time""
""fullscreenenter"",""1"",""1724""
","
","","","","","","1054.199999988079","images/rabbit1.png","","","memory_trial","1","definitely_old",""
"html-keyboard-response","146","353797","0.0-18.0-0.51","7586","approach_avoid_sv1","""event"",""trial"",""time""
""fullscreenenter"",""1"",""1724""
","
","
","""event"",""trial"",""time""
""fullscreenenter"",""1"",""1724""
","
","","","","","","null","<div style=""font-size:60px;"">+</div>","null","","fixation","","",""
"memory-trial","147","356228","0.0-18.0-1.51","7586","approach_avoid_sv1","""event"",""trial"",""time""
""fullscreenenter"",""1"",""1724""
","
","
","""event"",""trial"",""time""
""fullscreenenter"",""1"",""1724""
","
","","","","","","1424","images/sofa6.png","","","memory_trial","4","definitely_new",""
"html-keyboard-response","148","356743","0.0-18.0-0.52","7586","approach_avoid_sv1","""event"",""trial"",""time""
""fullscreenenter"",""1"",""1724""
","
","
","""event"",""trial"",""time""
""fullscreenenter"",""1"",""1724""
","
","","","","","","null","<div style=""font-size:60px;"">+</div>","null","","fixation","","",""
"memory-trial","149","359023","0.0-18.0-1.52","7586","approach_avoid_sv1","""event"",""trial"",""time""
""fullscreenenter"",""1"",""1724""
","
","
","""event"",""trial"",""time""
""fullscreenenter"",""1"",""1724""
","
","","","","","","1266.800000011921","images/truck3.png","","","memory_trial","4","definitely_new",""
"html-keyboard-response","150","359530","0.0-18.0-0.53","7586","approach_avoid_sv1","""event"",""trial"",""time""
""fullscreenenter"",""1"",""1724""
","
","
","""event"",""trial"",""time""
""fullscreenenter"",""1"",""1724""
","
","","","","","","null","<div style=""font-size:60px;"">+</div>","null","","fixation","","",""
"memory-trial","151","361240","0.0-18.0-1.53","7586","approach_avoid_sv1","""event"",""trial"",""time""
""fullscreenenter"",""1"",""1724""
","
","
","""event"",""trial"",""time""
""fullscreenenter"",""1"",""1724""
","
","","","","","","697.9000000059605","images/flower1.png","","","memory_trial","1","definitely_old",""
"html-keyboard-response","152","361746","0.0-18.0-0.54","7586","approach_avoid_sv1","""event"",""trial"",""time""
""fullscreenenter"",""1"",""1724""
","
","
","""event"",""trial"",""time""
""fullscreenenter"",""1"",""1724""
","
","","","","","","null","<div style=""font-size:60px;"">+</div>","null","","fixation","","",""
"memory-trial","153","363949","0.0-18.0-1.54","7586","approach_avoid_sv1","""event"",""trial"",""time""
""fullscreenenter"",""1"",""1724""
","
","
","""event"",""trial"",""time""
""fullscreenenter"",""1"",""1724""
","
","","","","","","1196.3999999761581","images/cat1.png","","","memory_trial","1","definitely_old",""
"html-keyboard-response","154","364451","0.0-18.0-0.55","7586","approach_avoid_sv1","""event"",""trial"",""time""
""fullscreenenter"",""1"",""1724""
","
","
","""event"",""trial"",""time""
""fullscreenenter"",""1"",""1724""
","
","","","","","","null","<div style=""font-size:60px;"">+</div>","null","","fixation","","",""
"memory-trial","155","366813","0.0-18.0-1.55","7586","approach_avoid_sv1","""event"",""trial"",""time""
""fullscreenenter"",""1"",""1724""
","
","
","""event"",""trial"",""time""
""fullscreenenter"",""1"",""1724""
","
","","","","","","1356.7000000178814","images/cat6.png","","","memory_trial","3","maybe_new",""
"html-keyboard-response","156","367320","0.0-18.0-0.56","7586","approach_avoid_sv1","""event"",""trial"",""time""
""fullscreenenter"",""1"",""1724""
","
","
","""event"",""trial"",""time""
""fullscreenenter"",""1"",""1724""
","
","","","","","","null","<div style=""font-size:60px;"">+</div>","null","","fixation","","",""
"memory-trial","157","369790","0.0-18.0-1.56","7586","approach_avoid_sv1","""event"",""trial"",""time""
""fullscreenenter"",""1"",""1724""
","
","
","""event"",""trial"",""time""
""fullscreenenter"",""1"",""1724""
","
","","","","","","1459.9000000059605","images/dog1.png","","","memory_trial","1","definitely_old",""
"html-keyboard-response","158","370291","0.0-18.0-0.57","7586","approach_avoid_sv1","""event"",""trial"",""time""
""fullscreenenter"",""1"",""1724""
","
","
","""event"",""trial"",""time""
""fullscreenenter"",""1"",""1724""
","
","","","","","","null","<div style=""font-size:60px;"">+</div>","null","","fixation","","",""
"memory-trial","159","372299","0.0-18.0-1.57","7586","approach_avoid_sv1","""event"",""trial"",""time""
""fullscreenenter"",""1"",""1724""
","
","
","""event"",""trial"",""time""
""fullscreenenter"",""1"",""1724""
","
","","","","","","1004.1999999880791","images/rabbit3.png","","","memory_trial","1","definitely_old",""
"html-keyboard-response","160","372802","0.0-18.0-0.58","7586","approach_avoid_sv1","""event"",""trial"",""time""
""fullscreenenter"",""1"",""1724""
","
","
","""event"",""trial"",""time""
""fullscreenenter"",""1"",""1724""
","
","","","","","","null","<div style=""font-size:60px;"">+</div>","null","","fixation","","",""
"memory-trial","161","375728","0.0-18.0-1.58","7586","approach_avoid_sv1","""event"",""trial"",""time""
""fullscreenenter"",""1"",""1724""
","
","
","""event"",""trial"",""time""
""fullscreenenter"",""1"",""1724""
","
","","","","","","1920.7999999821186","images/cactus7.png","","","memory_trial","1","definitely_old",""
"html-keyboard-response","162","376236","0.0-18.0-0.59","7586","approach_avoid_sv1","""event"",""trial"",""time""
""fullscreenenter"",""1"",""1724""
","
","
","""event"",""trial"",""time""
""fullscreenenter"",""1"",""1724""
","
","","","","","","null","<div style=""font-size:60px;"">+</div>","null","","fixation","","",""
"memory-trial","163","378030","0.0-18.0-1.59","7586","approach_avoid_sv1","""event"",""trial"",""time""
""fullscreenenter"",""1"",""1724""
","
","
","""event"",""trial"",""time""
""fullscreenenter"",""1"",""1724""
","
","","","","","","783.8000000119209","images/table2.png","","","memory_trial","1","definitely_old",""
"html-keyboard-response","164","378536","0.0-18.0-0.60","7586","approach_avoid_sv1","""event"",""trial"",""time""
""fullscreenenter"",""1"",""1724""
","
","
","""event"",""trial"",""time""
""fullscreenenter"",""1"",""1724""
","
","","","","","","null","<div style=""font-size:60px;"">+</div>","null","","fixation","","",""
"memory-trial","165","380385","0.0-18.0-1.60","7586","approach_avoid_sv1","""event"",""trial"",""time""
""fullscreenenter"",""1"",""1724""
","
","
","""event"",""trial"",""time""
""fullscreenenter"",""1"",""1724""
","
","","","","","","838.9000000059605","images/cat3.png","","","memory_trial","1","definitely_old",""
"html-keyboard-response","166","380901","0.0-18.0-0.61","7586","approach_avoid_sv1","""event"",""trial"",""time""
""fullscreenenter"",""1"",""1724""
","
","
","""event"",""trial"",""time""
""fullscreenenter"",""1"",""1724""
","
","","","","","","null","<div style=""font-size:60px;"">+</div>","null","","fixation","","",""
"memory-trial","167","382601","0.0-18.0-1.61","7586","approach_avoid_sv1","""event"",""trial"",""time""
""fullscreenenter"",""1"",""1724""
","
","
","""event"",""trial"",""time""
""fullscreenenter"",""1"",""1724""
","
","","","","","","697","images/orange1.png","","","memory_trial","1","definitely_old",""
"html-keyboard-response","168","383107","0.0-18.0-0.62","7586","approach_avoid_sv1","""event"",""trial"",""time""
""fullscreenenter"",""1"",""1724""
","
","
","""event"",""trial"",""time""
""fullscreenenter"",""1"",""1724""
","
","","","","","","null","<div style=""font-size:60px;"">+</div>","null","","fixation","","",""
"memory-trial","169","385021","0.0-18.0-1.62","7586","approach_avoid_sv1","""event"",""trial"",""time""
""fullscreenenter"",""1"",""1724""
","
","
","""event"",""trial"",""time""
""fullscreenenter"",""1"",""1724""
","
","","","","","","911.2000000178814","images/straw4.png","","","memory_trial","1","definitely_old",""
"html-keyboard-response","170","385536","0.0-18.0-0.63","7586","approach_avoid_sv1","""event"",""trial"",""time""
""fullscreenenter"",""1"",""1724""
","
","
","""event"",""trial"",""time""
""fullscreenenter"",""1"",""1724""
","
","","","","","","null","<div style=""font-size:60px;"">+</div>","null","","fixation","","",""
"memory-trial","171","388296","0.0-18.0-1.63","7586","approach_avoid_sv1","""event"",""trial"",""time""
""fullscreenenter"",""1"",""1724""
","
","
","""event"",""trial"",""time""
""fullscreenenter"",""1"",""1724""
","
","","","","","","1747","images/bed2.png","","","memory_trial","1","definitely_old",""
"html-keyboard-response","172","388800","0.0-18.0-0.64","7586","approach_avoid_sv1","""event"",""trial"",""time""
""fullscreenenter"",""1"",""1724""
","
","
","""event"",""trial"",""time""
""fullscreenenter"",""1"",""1724""
","
","","","","","","null","<div style=""font-size:60px;"">+</div>","null","","fixation","","",""
"memory-trial","173","390803","0.0-18.0-1.64","7586","approach_avoid_sv1","""event"",""trial"",""time""
""fullscreenenter"",""1"",""1724""
","
","
","""event"",""trial"",""time""
""fullscreenenter"",""1"",""1724""
","
","","","","","","1000.8000000119209","images/truck6.png","","","memory_trial","1","definitely_old",""
"html-keyboard-response","174","391310","0.0-18.0-0.65","7586","approach_avoid_sv1","""event"",""trial"",""time""
""fullscreenenter"",""1"",""1724""
","
","
","""event"",""trial"",""time""
""fullscreenenter"",""1"",""1724""
","
","","","","","","null","<div style=""font-size:60px;"">+</div>","null","","fixation","","",""
"memory-trial","175","393176","0.0-18.0-1.65","7586","approach_avoid_sv1","""event"",""trial"",""time""
""fullscreenenter"",""1"",""1724""
","
","
","""event"",""trial"",""time""
""fullscreenenter"",""1"",""1724""
","
","","","","","","847.7999999821186","images/sheep4.png","","","memory_trial","1","definitely_old",""
"html-keyboard-response","176","393677","0.0-18.0-0.66","7586","approach_avoid_sv1","""event"",""trial"",""time""
""fullscreenenter"",""1"",""1724""
","
","
","""event"",""trial"",""time""
""fullscreenenter"",""1"",""1724""
","
","","","","","","null","<div style=""font-size:60px;"">+</div>","null","","fixation","","",""
"memory-trial","177","395630","0.0-18.0-1.66","7586","approach_avoid_sv1","""event"",""trial"",""time""
""fullscreenenter"",""1"",""1724""
","
","
","""event"",""trial"",""time""
""fullscreenenter"",""1"",""1724""
","
","","","","","","948","images/cactus2.png","","","memory_trial","1","definitely_old",""
"html-keyboard-response","178","396138","0.0-18.0-0.67","7586","approach_avoid_sv1","""event"",""trial"",""time""
""fullscreenenter"",""1"",""1724""
","
","
","""event"",""trial"",""time""
""fullscreenenter"",""1"",""1724""
","
","","","","","","null","<div style=""font-size:60px;"">+</div>","null","","fixation","","",""
"memory-trial","179","398591","0.0-18.0-1.67","7586","approach_avoid_sv1","""event"",""trial"",""time""
""fullscreenenter"",""1"",""1724""
","
","
","""event"",""trial"",""time""
""fullscreenenter"",""1"",""1724""
","
","","","","","","1443.9000000059605","images/dog6.png","","","memory_trial","3","maybe_new",""
"html-keyboard-response","180","399100","0.0-18.0-0.68","7586","approach_avoid_sv1","""event"",""trial"",""time""
""fullscreenenter"",""1"",""1724""
","
","
","""event"",""trial"",""time""
""fullscreenenter"",""1"",""1724""
","
","","","","","","null","<div style=""font-size:60px;"">+</div>","null","","fixation","","",""
"memory-trial","181","401313","0.0-18.0-1.68","7586","approach_avoid_sv1","""event"",""trial"",""time""
""fullscreenenter"",""1"",""1724""
","
","
","""event"",""trial"",""time""
""fullscreenenter"",""1"",""1724""
","
","","","","","","1206.9000000059605","images/apple1.png","","","memory_trial","4","definitely_new",""
"html-keyboard-response","182","401820","0.0-18.0-0.69","7586","approach_avoid_sv1","""event"",""trial"",""time""
""fullscreenenter"",""1"",""1724""
","
","
","""event"",""trial"",""time""
""fullscreenenter"",""1"",""1724""
","
","","","","","","null","<div style=""font-size:60px;"">+</div>","null","","fixation","","",""
"memory-trial","183","403574","0.0-18.0-1.69","7586","approach_avoid_sv1","""event"",""trial"",""time""
""fullscreenenter"",""1"",""1724""
","
","
","""event"",""trial"",""time""
""fullscreenenter"",""1"",""1724""
","
","","","","","","740.9000000059605","images/sheep1.png","","","memory_trial","1","definitely_old",""
"html-keyboard-response","184","404090","0.0-18.0-0.70","7586","approach_avoid_sv1","""event"",""trial"",""time""
""fullscreenenter"",""1"",""1724""
","
","
","""event"",""trial"",""time""
""fullscreenenter"",""1"",""1724""
","
","","","","","","null","<div style=""font-size:60px;"">+</div>","null","","fixation","","",""
"memory-trial","185","405850","0.0-18.0-1.70","7586","approach_avoid_sv1","""event"",""trial"",""time""
""fullscreenenter"",""1"",""1724""
","
","
","""event"",""trial"",""time""
""fullscreenenter"",""1"",""1724""
","
","","","","","","753","images/plane4.png","","","memory_trial","1","definitely_old",""
"html-keyboard-response","186","406352","0.0-18.0-0.71","7586","approach_avoid_sv1","""event"",""trial"",""time""
""fullscreenenter"",""1"",""1724""
","
","
","""event"",""trial"",""time""
""fullscreenenter"",""1"",""1724""
","
","","","","","","null","<div style=""font-size:60px;"">+</div>","null","","fixation","","",""
"memory-trial","187","408230","0.0-18.0-1.71","7586","approach_avoid_sv1","""event"",""trial"",""time""
""fullscreenenter"",""1"",""1724""
","
","
","""event"",""trial"",""time""
""fullscreenenter"",""1"",""1724""
","
","","","","","","871.1999999880791","images/orange2.png","","","memory_trial","1","definitely_old",""
"html-keyboard-response","188","408736","0.0-18.0-0.72","7586","approach_avoid_sv1","""event"",""trial"",""time""
""fullscreenenter"",""1"",""1724""
","
","
","""event"",""trial"",""time""
""fullscreenenter"",""1"",""1724""
","
","","","","","","null","<div style=""font-size:60px;"">+</div>","null","","fixation","","",""
"memory-trial","189","410852","0.0-18.0-1.72","7586","approach_avoid_sv1","""event"",""trial"",""time""
""fullscreenenter"",""1"",""1724""
","
","
","""event"",""trial"",""time""
""fullscreenenter"",""1"",""1724""
","
","","","","","","1103.6000000238419","images/train6.png","","","memory_trial","4","definitely_new",""
"html-keyboard-response","190","411359","0.0-18.0-0.73","7586","approach_avoid_sv1","""event"",""trial"",""time""
""fullscreenenter"",""1"",""1724""
","
","
","""event"",""trial"",""time""
""fullscreenenter"",""1"",""1724""
","
","","","","","","null","<div style=""font-size:60px;"">+</div>","null","","fixation","","",""
"memory-trial","191","413592","0.0-18.0-1.73","7586","approach_avoid_sv1","""event"",""trial"",""time""
""fullscreenenter"",""1"",""1724""
","
","
","""event"",""trial"",""time""
""fullscreenenter"",""1"",""1724""
","
","","","","","","1229","images/rodent4.png","","","memory_trial","4","definitely_new",""
"html-keyboard-response","192","414100","0.0-18.0-0.74","7586","approach_avoid_sv1","""event"",""trial"",""time""
""fullscreenenter"",""1"",""1724""
","
","
","""event"",""trial"",""time""
""fullscreenenter"",""1"",""1724""
","
","","","","","","null","<div style=""font-size:60px;"">+</div>","null","","fixation","","",""
"memory-trial","193","417117","0.0-18.0-1.74","7586","approach_avoid_sv1","""event"",""trial"",""time""
""fullscreenenter"",""1"",""1724""
","
","
","""event"",""trial"",""time""
""fullscreenenter"",""1"",""1724""
","
","","","","","","1998.5","images/dog8.png","","","memory_trial","2","maybe_old",""
"html-keyboard-response","194","417626","0.0-18.0-0.75","7586","approach_avoid_sv1","""event"",""trial"",""time""
""fullscreenenter"",""1"",""1724""
","
","
","""event"",""trial"",""time""
""fullscreenenter"",""1"",""1724""
","
","","","","","","null","<div style=""font-size:60px;"">+</div>","null","","fixation","","",""
"memory-trial","195","419494","0.0-18.0-1.75","7586","approach_avoid_sv1","""event"",""trial"",""time""
""fullscreenenter"",""1"",""1724""
","
","
","""event"",""trial"",""time""
""fullscreenenter"",""1"",""1724""
","
","","","","","","857.4000000059605","images/rabbit7.png","","","memory_trial","1","definitely_old",""
"html-keyboard-response","196","420000","0.0-18.0-0.76","7586","approach_avoid_sv1","""event"",""trial"",""time""
""fullscreenenter"",""1"",""1724""
","
","
","""event"",""trial"",""time""
""fullscreenenter"",""1"",""1724""
","
","","","","","","null","<div style=""font-size:60px;"">+</div>","null","","fixation","","",""
"memory-trial","197","424033","0.0-18.0-1.76","7586","approach_avoid_sv1","""event"",""trial"",""time""
""fullscreenenter"",""1"",""1724""
","
","
","""event"",""trial"",""time""
""fullscreenenter"",""1"",""1724""
","
","","","","","","3025","images/truck2.png","","","memory_trial","1","definitely_old",""
"html-keyboard-response","198","424540","0.0-18.0-0.77","7586","approach_avoid_sv1","""event"",""trial"",""time""
""fullscreenenter"",""1"",""1724""
","
","
","""event"",""trial"",""time""
""fullscreenenter"",""1"",""1724""
","
","","","","","","null","<div style=""font-size:60px;"">+</div>","null","","fixation","","",""
"memory-trial","199","427183","0.0-18.0-1.77","7586","approach_avoid_sv1","""event"",""trial"",""time""
""fullscreenenter"",""1"",""1724""
","
","
","""event"",""trial"",""time""
""fullscreenenter"",""1"",""1724""
","
","","","","","","1638.1000000238419","images/bed3.png","","","memory_trial","1","definitely_old",""
"html-keyboard-response","200","427693","0.0-18.0-0.78","7586","approach_avoid_sv1","""event"",""trial"",""time""
""fullscreenenter"",""1"",""1724""
","
","
","""event"",""trial"",""time""
""fullscreenenter"",""1"",""1724""
","
","","","","","","null","<div style=""font-size:60px;"">+</div>","null","","fixation","","",""
"memory-trial","201","430128","0.0-18.0-1.78","7586","approach_avoid_sv1","""event"",""trial"",""time""
""fullscreenenter"",""1"",""1724""
","
","
","""event"",""trial"",""time""
""fullscreenenter"",""1"",""1724""
","
","","","","","","1429.0999999940395","images/sofa2.png","","","memory_trial","4","definitely_new",""
"html-keyboard-response","202","430630","0.0-18.0-0.79","7586","approach_avoid_sv1","""event"",""trial"",""time""
""fullscreenenter"",""1"",""1724""
","
","
","""event"",""trial"",""time""
""fullscreenenter"",""1"",""1724""
","
","","","","","","null","<div style=""font-size:60px;"">+</div>","null","","fixation","","",""
"memory-trial","203","433056","0.0-18.0-1.79","7586","approach_avoid_sv1","""event"",""trial"",""time""
""fullscreenenter"",""1"",""1724""
","
","
","""event"",""trial"",""time""
""fullscreenenter"",""1"",""1724""
","
","","","","","","1411.7000000178814","images/rabbit4.png","","","memory_trial","1","definitely_old",""
"html-keyboard-response","204","433560","0.0-18.0-0.80","7586","approach_avoid_sv1","""event"",""trial"",""time""
""fullscreenenter"",""1"",""1724""
","
","
","""event"",""trial"",""time""
""fullscreenenter"",""1"",""1724""
","
","","","","","","null","<div style=""font-size:60px;"">+</div>","null","","fixation","","",""
"memory-trial","205","436113","0.0-18.0-1.80","7586","approach_avoid_sv1","""event"",""trial"",""time""
""fullscreenenter"",""1"",""1724""
","
","
","""event"",""trial"",""time""
""fullscreenenter"",""1"",""1724""
","
","","","","","","1541.4000000059605","images/cactus3.png","","","memory_trial","1","definitely_old",""
"html-keyboard-response","206","436618","0.0-18.0-0.81","7586","approach_avoid_sv1","""event"",""trial"",""time""
""fullscreenenter"",""1"",""1724""
","
","
","""event"",""trial"",""time""
""fullscreenenter"",""1"",""1724""
","
","","","","","","null","<div style=""font-size:60px;"">+</div>","null","","fixation","","",""
"memory-trial","207","439501","0.0-18.0-1.81","7586","approach_avoid_sv1","""event"",""trial"",""time""
""fullscreenenter"",""1"",""1724""
","
","
","""event"",""trial"",""time""
""fullscreenenter"",""1"",""1724""
","
","","","","","","1875.7000000178814","images/rabbit6.png","","","memory_trial","4","definitely_new",""
"html-keyboard-response","208","440009","0.0-18.0-0.82","7586","approach_avoid_sv1","""event"",""trial"",""time""
""fullscreenenter"",""1"",""1724""
","
","
","""event"",""trial"",""time""
""fullscreenenter"",""1"",""1724""
","
","","","","","","null","<div style=""font-size:60px;"">+</div>","null","","fixation","","",""
"memory-trial","209","442360","0.0-18.0-1.82","7586","approach_avoid_sv1","""event"",""trial"",""time""
""fullscreenenter"",""1"",""1724""
","
","
","""event"",""trial"",""time""
""fullscreenenter"",""1"",""1724""
","
","","","","","","1341.699999988079","images/flower2.png","","","memory_trial","1","definitely_old",""
"html-keyboard-response","210","442862","0.0-18.0-0.83","7586","approach_avoid_sv1","""event"",""trial"",""time""
""fullscreenenter"",""1"",""1724""
","
","
","""event"",""trial"",""time""
""fullscreenenter"",""1"",""1724""
","
","","","","","","null","<div style=""font-size:60px;"">+</div>","null","","fixation","","",""
"memory-trial","211","445030","0.0-18.0-1.83","7586","approach_avoid_sv1","""event"",""trial"",""time""
""fullscreenenter"",""1"",""1724""
","
","
","""event"",""trial"",""time""
""fullscreenenter"",""1"",""1724""
","
","","","","","","1163.6000000238419","images/plane5.png","","","memory_trial","1","definitely_old",""
"html-keyboard-response","212","445531","0.0-18.0-0.84","7586","approach_avoid_sv1","""event"",""trial"",""time""
""fullscreenenter"",""1"",""1724""
","
","
","""event"",""trial"",""time""
""fullscreenenter"",""1"",""1724""
","
","","","","","","null","<div style=""font-size:60px;"">+</div>","null","","fixation","","",""
"memory-trial","213","447908","0.0-18.0-1.84","7586","approach_avoid_sv1","""event"",""trial"",""time""
""fullscreenenter"",""1"",""1724""
","
","
","""event"",""trial"",""time""
""fullscreenenter"",""1"",""1724""
","
","","","","","","1370.3999999761581","images/apple6.png","","","memory_trial","4","definitely_new",""
"html-keyboard-response","214","448412","0.0-18.0-0.85","7586","approach_avoid_sv1","""event"",""trial"",""time""
""fullscreenenter"",""1"",""1724""
","
","
","""event"",""trial"",""time""
""fullscreenenter"",""1"",""1724""
","
","","","","","","null","<div style=""font-size:60px;"">+</div>","null","","fixation","","",""
"memory-trial","215","451330","0.0-18.0-1.85","7586","approach_avoid_sv1","""event"",""trial"",""time""
""fullscreenenter"",""1"",""1724""
","
","
","""event"",""trial"",""time""
""fullscreenenter"",""1"",""1724""
","
","","","","","","1912.300000011921","images/cactus4.png","","","memory_trial","2","maybe_old",""
"html-keyboard-response","216","451840","0.0-18.0-0.86","7586","approach_avoid_sv1","""event"",""trial"",""time""
""fullscreenenter"",""1"",""1724""
","
","
","""event"",""trial"",""time""
""fullscreenenter"",""1"",""1724""
","
","","","","","","null","<div style=""font-size:60px;"">+</div>","null","","fixation","","",""
"memory-trial","217","454704","0.0-18.0-1.86","7586","approach_avoid_sv1","""event"",""trial"",""time""
""fullscreenenter"",""1"",""1724""
","
","
","""event"",""trial"",""time""
""fullscreenenter"",""1"",""1724""
","
","","","","","","1859.5999999940395","images/bed8.png","","","memory_trial","3","maybe_new",""
"html-keyboard-response","218","455210","0.0-18.0-0.87","7586","approach_avoid_sv1","""event"",""trial"",""time""
""fullscreenenter"",""1"",""1724""
","
","
","""event"",""trial"",""time""
""fullscreenenter"",""1"",""1724""
","
","","","","","","null","<div style=""font-size:60px;"">+</div>","null","","fixation","","",""
"memory-trial","219","457351","0.0-18.0-1.87","7586","approach_avoid_sv1","""event"",""trial"",""time""
""fullscreenenter"",""1"",""1724""
","
","
","""event"",""trial"",""time""
""fullscreenenter"",""1"",""1724""
","
","","","","","","1131.9000000059605","images/sofa8.png","","","memory_trial","1","definitely_old",""
"html-keyboard-response","220","457859","0.0-18.0-0.88","7586","approach_avoid_sv1","""event"",""trial"",""time""
""fullscreenenter"",""1"",""1724""
","
","
","""event"",""trial"",""time""
""fullscreenenter"",""1"",""1724""
","
","","","","","","null","<div style=""font-size:60px;"">+</div>","null","","fixation","","",""
"memory-trial","221","460287","0.0-18.0-1.88","7586","approach_avoid_sv1","""event"",""trial"",""time""
""fullscreenenter"",""1"",""1724""
","
","
","""event"",""trial"",""time""
""fullscreenenter"",""1"",""1724""
","
","","","","","","1421.5","images/cactus6.png","","","memory_trial","3","maybe_new",""
"html-keyboard-response","222","460789","0.0-18.0-0.89","7586","approach_avoid_sv1","""event"",""trial"",""time""
""fullscreenenter"",""1"",""1724""
","
","
","""event"",""trial"",""time""
""fullscreenenter"",""1"",""1724""
","
","","","","","","null","<div style=""font-size:60px;"">+</div>","null","","fixation","","",""
"memory-trial","223","463203","0.0-18.0-1.89","7586","approach_avoid_sv1","""event"",""trial"",""time""
""fullscreenenter"",""1"",""1724""
","
","
","""event"",""trial"",""time""
""fullscreenenter"",""1"",""1724""
","
","","","","","","1403.9000000059605","images/rodent3.png","","","memory_trial","4","definitely_new",""
"html-keyboard-response","224","463711","0.0-18.0-0.90","7586","approach_avoid_sv1","""event"",""trial"",""time""
""fullscreenenter"",""1"",""1724""
","
","
","""event"",""trial"",""time""
""fullscreenenter"",""1"",""1724""
","
","","","","","","null","<div style=""font-size:60px;"">+</div>","null","","fixation","","",""
"memory-trial","225","466910","0.0-18.0-1.90","7586","approach_avoid_sv1","""event"",""trial"",""time""
""fullscreenenter"",""1"",""1724""
","
","
","""event"",""trial"",""time""
""fullscreenenter"",""1"",""1724""
","
","","","","","","2191.199999988079","images/tree4.png","","","memory_trial","4","definitely_new",""
"html-keyboard-response","226","467426","0.0-18.0-0.91","7586","approach_avoid_sv1","""event"",""trial"",""time""
""fullscreenenter"",""1"",""1724""
","
","
","""event"",""trial"",""time""
""fullscreenenter"",""1"",""1724""
","
","","","","","","null","<div style=""font-size:60px;"">+</div>","null","","fixation","","",""
"memory-trial","227","470283","0.0-18.0-1.91","7586","approach_avoid_sv1","""event"",""trial"",""time""
""fullscreenenter"",""1"",""1724""
","
","
","""event"",""trial"",""time""
""fullscreenenter"",""1"",""1724""
","
","","","","","","1846","images/bush7.png","","","memory_trial","4","definitely_new",""
"html-button-response","228","474908","0.0-18.0-2.91-0.91","7586","approach_avoid_sv1","""event"",""trial"",""time""
""fullscreenenter"",""1"",""1724""
","
","
","""event"",""trial"",""time""
""fullscreenenter"",""1"",""1724""
","
","","","","","","4623.5","<p> Take a break! </p><p> Click the button to continue. </p>","0","","break","","",""
"html-keyboard-response","229","475414","0.0-18.0-0.92","7586","approach_avoid_sv1","""event"",""trial"",""time""
""fullscreenenter"",""1"",""1724""
","
","
","""event"",""trial"",""time""
""fullscreenenter"",""1"",""1724""
","
","","","","","","null","<div style=""font-size:60px;"">+</div>","null","","fixation","","",""
"memory-trial","230","478029","0.0-18.0-1.92","7586","approach_avoid_sv1","""event"",""trial"",""time""
""fullscreenenter"",""1"",""1724""
","
","
","""event"",""trial"",""time""
""fullscreenenter"",""1"",""1724""
","
","","","","","","1606.4000000059605","images/cow7.png","","","memory_trial","1","definitely_old",""
"html-keyboard-response","231","478539","0.0-18.0-0.93","7586","approach_avoid_sv1","""event"",""trial"",""time""
""fullscreenenter"",""1"",""1724""
","
","
","""event"",""trial"",""time""
""fullscreenenter"",""1"",""1724""
","
","","","","","","null","<div style=""font-size:60px;"">+</div>","null","","fixation","","",""
"memory-trial","232","480631","0.0-18.0-1.93","7586","approach_avoid_sv1","""event"",""trial"",""time""
""fullscreenenter"",""1"",""1724""
","
","
","""event"",""trial"",""time""
""fullscreenenter"",""1"",""1724""
","
","","","","","","1086.5999999940395","images/dog5.png","","","memory_trial","1","definitely_old",""
"html-keyboard-response","233","481137","0.0-18.0-0.94","7586","approach_avoid_sv1","""event"",""trial"",""time""
""fullscreenenter"",""1"",""1724""
","
","
","""event"",""trial"",""time""
""fullscreenenter"",""1"",""1724""
","
","","","","","","null","<div style=""font-size:60px;"">+</div>","null","","fixation","","",""
"memory-trial","234","483860","0.0-18.0-1.94","7586","approach_avoid_sv1","""event"",""trial"",""time""
""fullscreenenter"",""1"",""1724""
","
","
","""event"",""trial"",""time""
""fullscreenenter"",""1"",""1724""
","
","","","","","","1719","images/bed5.png","","","memory_trial","4","definitely_new",""
"html-keyboard-response","235","484368","0.0-18.0-0.95","7586","approach_avoid_sv1","""event"",""trial"",""time""
""fullscreenenter"",""1"",""1724""
","
","
","""event"",""trial"",""time""
""fullscreenenter"",""1"",""1724""
","
","","","","","","null","<div style=""font-size:60px;"">+</div>","null","","fixation","","",""
"memory-trial","236","486763","0.0-18.0-1.95","7586","approach_avoid_sv1","""event"",""trial"",""time""
""fullscreenenter"",""1"",""1724""
","
","
","""event"",""trial"",""time""
""fullscreenenter"",""1"",""1724""
","
","","","","","","1376.7000000178814","images/plane1.png","","","memory_trial","1","definitely_old",""
"html-keyboard-response","237","487266","0.0-18.0-0.96","7586","approach_avoid_sv1","""event"",""trial"",""time""
""fullscreenenter"",""1"",""1724""
","
","
","""event"",""trial"",""time""
""fullscreenenter"",""1"",""1724""
","
","","","","","","null","<div style=""font-size:60px;"">+</div>","null","","fixation","","",""
"memory-trial","238","489325","0.0-18.0-1.96","7586","approach_avoid_sv1","""event"",""trial"",""time""
""fullscreenenter"",""1"",""1724""
","
","
","""event"",""trial"",""time""
""fullscreenenter"",""1"",""1724""
","
","","","","","","1051.9000000059605","images/apple2.png","","","memory_trial","4","definitely_new",""
"html-keyboard-response","239","489830","0.0-18.0-0.97","7586","approach_avoid_sv1","""event"",""trial"",""time""
""fullscreenenter"",""1"",""1724""
","
","
","""event"",""trial"",""time""
""fullscreenenter"",""1"",""1724""
","
","","","","","","null","<div style=""font-size:60px;"">+</div>","null","","fixation","","",""
"memory-trial","240","491870","0.0-18.0-1.97","7586","approach_avoid_sv1","""event"",""trial"",""time""
""fullscreenenter"",""1"",""1724""
","
","
","""event"",""trial"",""time""
""fullscreenenter"",""1"",""1724""
","
","","","","","","1033.4000000059605","images/sheep3.png","","","memory_trial","1","definitely_old",""
"html-keyboard-response","241","492371","0.0-18.0-0.98","7586","approach_avoid_sv1","""event"",""trial"",""time""
""fullscreenenter"",""1"",""1724""
","
","
","""event"",""trial"",""time""
""fullscreenenter"",""1"",""1724""
","
","","","","","","null","<div style=""font-size:60px;"">+</div>","null","","fixation","","",""
"memory-trial","242","495373","0.0-18.0-1.98","7586","approach_avoid_sv1","""event"",""trial"",""time""
""fullscreenenter"",""1"",""1724""
","
","
","""event"",""trial"",""time""
""fullscreenenter"",""1"",""1724""
","
","","","","","","1989","images/sofa5.png","","","memory_trial","2","maybe_old",""
"html-keyboard-response","243","495880","0.0-18.0-0.99","7586","approach_avoid_sv1","""event"",""trial"",""time""
""fullscreenenter"",""1"",""1724""
","
","
","""event"",""trial"",""time""
""fullscreenenter"",""1"",""1724""
","
","","","","","","null","<div style=""font-size:60px;"">+</div>","null","","fixation","","",""
"memory-trial","244","498030","0.0-18.0-1.99","7586","approach_avoid_sv1","""event"",""trial"",""time""
""fullscreenenter"",""1"",""1724""
","
","
","""event"",""trial"",""time""
""fullscreenenter"",""1"",""1724""
","
","","","","","","1139.9000000059605","images/cat5.png","","","memory_trial","1","definitely_old",""
"html-keyboard-response","245","498531","0.0-18.0-0.100","7586","approach_avoid_sv1","""event"",""trial"",""time""
""fullscreenenter"",""1"",""1724""
","
","
","""event"",""trial"",""time""
""fullscreenenter"",""1"",""1724""
","
","","","","","","null","<div style=""font-size:60px;"">+</div>","null","","fixation","","",""
"memory-trial","246","501435","0.0-18.0-1.100","7586","approach_avoid_sv1","""event"",""trial"",""time""
""fullscreenenter"",""1"",""1724""
","
","
","""event"",""trial"",""time""
""fullscreenenter"",""1"",""1724""
","
","","","","","","1891.800000011921","images/plane6.png","","","memory_trial","1","definitely_old",""
"html-keyboard-response","247","501945","0.0-18.0-0.101","7586","approach_avoid_sv1","""event"",""trial"",""time""
""fullscreenenter"",""1"",""1724""
","
","
","""event"",""trial"",""time""
""fullscreenenter"",""1"",""1724""
","
","","","","","","null","<div style=""font-size:60px;"">+</div>","null","","fixation","","",""
"memory-trial","248","504163","0.0-18.0-1.101","7586","approach_avoid_sv1","""event"",""trial"",""time""
""fullscreenenter"",""1"",""1724""
","
","
","""event"",""trial"",""time""
""fullscreenenter"",""1"",""1724""
","
","","","","","","1209.5","images/table6.png","","","memory_trial","1","definitely_old",""
"html-keyboard-response","249","504667","0.0-18.0-0.102","7586","approach_avoid_sv1","""event"",""trial"",""time""
""fullscreenenter"",""1"",""1724""
","
","
","""event"",""trial"",""time""
""fullscreenenter"",""1"",""1724""
","
","","","","","","null","<div style=""font-size:60px;"">+</div>","null","","fixation","","",""
"memory-trial","250","508782","0.0-18.0-1.102","7586","approach_avoid_sv1","""event"",""trial"",""time""
""fullscreenenter"",""1"",""1724""
","
","
","""event"",""trial"",""time""
""fullscreenenter"",""1"",""1724""
","
","","","","","","3104.9000000059605","images/straw2.png","","","memory_trial","3","maybe_new",""
"html-keyboard-response","251","509284","0.0-18.0-0.103","7586","approach_avoid_sv1","""event"",""trial"",""time""
""fullscreenenter"",""1"",""1724""
","
","
","""event"",""trial"",""time""
""fullscreenenter"",""1"",""1724""
","
","","","","","","null","<div style=""font-size:60px;"">+</div>","null","","fixation","","",""
"memory-trial","252","511733","0.0-18.0-1.103","7586","approach_avoid_sv1","""event"",""trial"",""time""
""fullscreenenter"",""1"",""1724""
","
","
","""event"",""trial"",""time""
""fullscreenenter"",""1"",""1724""
","
","","","","","","1436.4000000059605","images/truck5.png","","","memory_trial","1","definitely_old",""
"html-keyboard-response","253","512237","0.0-18.0-0.104","7586","approach_avoid_sv1","""event"",""trial"",""time""
""fullscreenenter"",""1"",""1724""
","
","
","""event"",""trial"",""time""
""fullscreenenter"",""1"",""1724""
","
","","","","","","null","<div style=""font-size:60px;"">+</div>","null","","fixation","","",""
"memory-trial","254","514811","0.0-18.0-1.104","7586","approach_avoid_sv1","""event"",""trial"",""time""
""fullscreenenter"",""1"",""1724""
","
","
","""event"",""trial"",""time""
""fullscreenenter"",""1"",""1724""
","
","","","","","","1571.199999988079","images/flower7.png","","","memory_trial","4","definitely_new",""
"html-keyboard-response","255","515321","0.0-18.0-0.105","7586","approach_avoid_sv1","""event"",""trial"",""time""
""fullscreenenter"",""1"",""1724""
","
","
","""event"",""trial"",""time""
""fullscreenenter"",""1"",""1724""
","
","","","","","","null","<div style=""font-size:60px;"">+</div>","null","","fixation","","",""
"memory-trial","256","517864","0.0-18.0-1.105","7586","approach_avoid_sv1","""event"",""trial"",""time""
""fullscreenenter"",""1"",""1724""
","
","
","""event"",""trial"",""time""
""fullscreenenter"",""1"",""1724""
","
","","","","","","1527.7000000178814","images/bush6.png","","","memory_trial","1","definitely_old",""
"html-keyboard-response","257","518365","0.0-18.0-0.106","7586","approach_avoid_sv1","""event"",""trial"",""time""
""fullscreenenter"",""1"",""1724""
","
","
","""event"",""trial"",""time""
""fullscreenenter"",""1"",""1724""
","
","","","","","","null","<div style=""font-size:60px;"">+</div>","null","","fixation","","",""
"memory-trial","258","521360","0.0-18.0-1.106","7586","approach_avoid_sv1","""event"",""trial"",""time""
""fullscreenenter"",""1"",""1724""
","
","
","""event"",""trial"",""time""
""fullscreenenter"",""1"",""1724""
","
","","","","","","1991.4000000059605","images/tree1.png","","","memory_trial","2","maybe_old",""
"html-keyboard-response","259","521870","0.0-18.0-0.107","7586","approach_avoid_sv1","""event"",""trial"",""time""
""fullscreenenter"",""1"",""1724""
","
","
","""event"",""trial"",""time""
""fullscreenenter"",""1"",""1724""
","
","","","","","","null","<div style=""font-size:60px;"">+</div>","null","","fixation","","",""
"memory-trial","260","524319","0.0-18.0-1.107","7586","approach_avoid_sv1","""event"",""trial"",""time""
""fullscreenenter"",""1"",""1724""
","
","
","""event"",""trial"",""time""
""fullscreenenter"",""1"",""1724""
","
","","","","","","1440.5","images/train2.png","","","memory_trial","4","definitely_new",""
"html-keyboard-response","261","524820","0.0-18.0-0.108","7586","approach_avoid_sv1","""event"",""trial"",""time""
""fullscreenenter"",""1"",""1724""
","
","
","""event"",""trial"",""time""
""fullscreenenter"",""1"",""1724""
","
","","","","","","null","<div style=""font-size:60px;"">+</div>","null","","fixation","","",""
"memory-trial","262","527247","0.0-18.0-1.108","7586","approach_avoid_sv1","""event"",""trial"",""time""
""fullscreenenter"",""1"",""1724""
","
","
","""event"",""trial"",""time""
""fullscreenenter"",""1"",""1724""
","
","","","","","","1418.800000011921","images/table4.png","","","memory_trial","1","definitely_old",""
"html-keyboard-response","263","527748","0.0-18.0-0.109","7586","approach_avoid_sv1","""event"",""trial"",""time""
""fullscreenenter"",""1"",""1724""
","
","
","""event"",""trial"",""time""
""fullscreenenter"",""1"",""1724""
","
","","","","","","null","<div style=""font-size:60px;"">+</div>","null","","fixation","","",""
"memory-trial","264","530555","0.0-18.0-1.109","7586","approach_avoid_sv1","""event"",""trial"",""time""
""fullscreenenter"",""1"",""1724""
","
","
","""event"",""trial"",""time""
""fullscreenenter"",""1"",""1724""
","
","","","","","","1801.7999999821186","images/bush5.png","","","memory_trial","1","definitely_old",""
"html-keyboard-response","265","531056","0.0-18.0-0.110","7586","approach_avoid_sv1","""event"",""trial"",""time""
""fullscreenenter"",""1"",""1724""
","
","
","""event"",""trial"",""time""
""fullscreenenter"",""1"",""1724""
","
","","","","","","null","<div style=""font-size:60px;"">+</div>","null","","fixation","","",""
"memory-trial","266","533213","0.0-18.0-1.110","7586","approach_avoid_sv1","""event"",""trial"",""time""
""fullscreenenter"",""1"",""1724""
","
","
","""event"",""trial"",""time""
""fullscreenenter"",""1"",""1724""
","
","","","","","","1152.0999999940395","images/cow8.png","","","memory_trial","1","definitely_old",""
"html-keyboard-response","267","533721","0.0-18.0-0.111","7586","approach_avoid_sv1","""event"",""trial"",""time""
""fullscreenenter"",""1"",""1724""
","
","
","""event"",""trial"",""time""
""fullscreenenter"",""1"",""1724""
","
","","","","","","null","<div style=""font-size:60px;"">+</div>","null","","fixation","","",""
"memory-trial","268","536490","0.0-18.0-1.111","7586","approach_avoid_sv1","""event"",""trial"",""time""
""fullscreenenter"",""1"",""1724""
","
","
","""event"",""trial"",""time""
""fullscreenenter"",""1"",""1724""
","
","","","","","","1759.0999999940395","images/train8.png","","","memory_trial","4","definitely_new",""
"html-keyboard-response","269","537000","0.0-18.0-0.112","7586","approach_avoid_sv1","""event"",""trial"",""time""
""fullscreenenter"",""1"",""1724""
","
","
","""event"",""trial"",""time""
""fullscreenenter"",""1"",""1724""
","
","","","","","","null","<div style=""font-size:60px;"">+</div>","null","","fixation","","",""
"memory-trial","270","539163","0.0-18.0-1.112","7586","approach_avoid_sv1","""event"",""trial"",""time""
""fullscreenenter"",""1"",""1724""
","
","
","""event"",""trial"",""time""
""fullscreenenter"",""1"",""1724""
","
","","","","","","1154.0999999940395","images/apple8.png","","","memory_trial","4","definitely_new",""
"html-keyboard-response","271","539670","0.0-18.0-0.113","7586","approach_avoid_sv1","""event"",""trial"",""time""
""fullscreenenter"",""1"",""1724""
","
","
","""event"",""trial"",""time""
""fullscreenenter"",""1"",""1724""
","
","","","","","","null","<div style=""font-size:60px;"">+</div>","null","","fixation","","",""
"memory-trial","272","542001","0.0-18.0-1.113","7586","approach_avoid_sv1","""event"",""trial"",""time""
""fullscreenenter"",""1"",""1724""
","
","
","""event"",""trial"",""time""
""fullscreenenter"",""1"",""1724""
","
","","","","","","1325.7999999821186","images/goat7.png","","","memory_trial","1","definitely_old",""
"html-keyboard-response","273","542508","0.0-18.0-0.114","7586","approach_avoid_sv1","""event"",""trial"",""time""
""fullscreenenter"",""1"",""1724""
","
","
","""event"",""trial"",""time""
""fullscreenenter"",""1"",""1724""
","
","","","","","","null","<div style=""font-size:60px;"">+</div>","null","","fixation","","",""
"memory-trial","274","544694","0.0-18.0-1.114","7586","approach_avoid_sv1","""event"",""trial"",""time""
""fullscreenenter"",""1"",""1724""
","
","
","""event"",""trial"",""time""
""fullscreenenter"",""1"",""1724""
","
","","","","","","1180.0999999940395","images/straw8.png","","","memory_trial","1","definitely_old",""
"html-keyboard-response","275","545210","0.0-18.0-0.115","7586","approach_avoid_sv1","""event"",""trial"",""time""
""fullscreenenter"",""1"",""1724""
","
","
","""event"",""trial"",""time""
""fullscreenenter"",""1"",""1724""
","
","","","","","","null","<div style=""font-size:60px;"">+</div>","null","","fixation","","",""
"memory-trial","276","548042","0.0-18.0-1.115","7586","approach_avoid_sv1","""event"",""trial"",""time""
""fullscreenenter"",""1"",""1724""
","
","
","""event"",""trial"",""time""
""fullscreenenter"",""1"",""1724""
","
","","","","","","1820.5999999940395","images/table7.png","","","memory_trial","4","definitely_new",""
"html-keyboard-response","277","548547","0.0-18.0-0.116","7586","approach_avoid_sv1","""event"",""trial"",""time""
""fullscreenenter"",""1"",""1724""
","
","
","""event"",""trial"",""time""
""fullscreenenter"",""1"",""1724""
","
","","","","","","null","<div style=""font-size:60px;"">+</div>","null","","fixation","","",""
"memory-trial","278","550756","0.0-18.0-1.116","7586","approach_avoid_sv1","""event"",""trial"",""time""
""fullscreenenter"",""1"",""1724""
","
","
","""event"",""trial"",""time""
""fullscreenenter"",""1"",""1724""
","
","","","","","","1192.7999999821186","images/cow6.png","","","memory_trial","1","definitely_old",""
"html-keyboard-response","279","551262","0.0-18.0-0.117","7586","approach_avoid_sv1","""event"",""trial"",""time""
""fullscreenenter"",""1"",""1724""
","
","
","""event"",""trial"",""time""
""fullscreenenter"",""1"",""1724""
","
","","","","","","null","<div style=""font-size:60px;"">+</div>","null","","fixation","","",""
"memory-trial","280","553666","0.0-18.0-1.117","7586","approach_avoid_sv1","""event"",""trial"",""time""
""fullscreenenter"",""1"",""1724""
","
","
","""event"",""trial"",""time""
""fullscreenenter"",""1"",""1724""
","
","","","","","","1397.5999999940395","images/chair8.png","","","memory_trial","4","definitely_new",""
"html-keyboard-response","281","554171","0.0-18.0-0.118","7586","approach_avoid_sv1","""event"",""trial"",""time""
""fullscreenenter"",""1"",""1724""
","
","
","""event"",""trial"",""time""
""fullscreenenter"",""1"",""1724""
","
","","","","","","null","<div style=""font-size:60px;"">+</div>","null","","fixation","","",""
"memory-trial","282","556650","0.0-18.0-1.118","7586","approach_avoid_sv1","""event"",""trial"",""time""
""fullscreenenter"",""1"",""1724""
","
","
","""event"",""trial"",""time""
""fullscreenenter"",""1"",""1724""
","
","","","","","","1474.7999999821186","images/tree7.png","","","memory_trial","3","maybe_new",""
"html-keyboard-response","283","557151","0.0-18.0-0.119","7586","approach_avoid_sv1","""event"",""trial"",""time""
""fullscreenenter"",""1"",""1724""
","
","
","""event"",""trial"",""time""
""fullscreenenter"",""1"",""1724""
","
","","","","","","null","<div style=""font-size:60px;"">+</div>","null","","fixation","","",""
"memory-trial","284","559312","0.0-18.0-1.119","7586","approach_avoid_sv1","""event"",""trial"",""time""
""fullscreenenter"",""1"",""1724""
","
","
","""event"",""trial"",""time""
""fullscreenenter"",""1"",""1724""
","
","","","","","","1155.5999999940395","images/cow3.png","","","memory_trial","1","definitely_old",""
"html-keyboard-response","285","559816","0.0-18.0-0.120","7586","approach_avoid_sv1","""event"",""trial"",""time""
""fullscreenenter"",""1"",""1724""
","
","
","""event"",""trial"",""time""
""fullscreenenter"",""1"",""1724""
","
","","","","","","null","<div style=""font-size:60px;"">+</div>","null","","fixation","","",""
"memory-trial","286","562373","0.0-18.0-1.120","7586","approach_avoid_sv1","""event"",""trial"",""time""
""fullscreenenter"",""1"",""1724""
","
","
","""event"",""trial"",""time""
""fullscreenenter"",""1"",""1724""
","
","","","","","","1552.8999999761581","images/chair4.png","","","memory_trial","4","definitely_new",""
"html-keyboard-response","287","562876","0.0-18.0-0.121","7586","approach_avoid_sv1","""event"",""trial"",""time""
""fullscreenenter"",""1"",""1724""
","
","
","""event"",""trial"",""time""
""fullscreenenter"",""1"",""1724""
","
","","","","","","null","<div style=""font-size:60px;"">+</div>","null","","fixation","","",""
"memory-trial","288","565812","0.0-18.0-1.121","7586","approach_avoid_sv1","""event"",""trial"",""time""
""fullscreenenter"",""1"",""1724""
","
","
","""event"",""trial"",""time""
""fullscreenenter"",""1"",""1724""
","
","","","","","","1924.800000011921","images/flower6.png","","","memory_trial","2","maybe_old",""
"html-keyboard-response","289","566320","0.0-18.0-0.122","7586","approach_avoid_sv1","""event"",""trial"",""time""
""fullscreenenter"",""1"",""1724""
","
","
","""event"",""trial"",""time""
""fullscreenenter"",""1"",""1724""
","
","","","","","","null","<div style=""font-size:60px;"">+</div>","null","","fixation","","",""
"memory-trial","290","568903","0.0-18.0-1.122","7586","approach_avoid_sv1","""event"",""trial"",""time""
""fullscreenenter"",""1"",""1724""
","
","
","""event"",""trial"",""time""
""fullscreenenter"",""1"",""1724""
","
","","","","","","1577.2999999821186","images/bed4.png","","","memory_trial","1","definitely_old",""
"html-keyboard-response","291","569410","0.0-18.0-0.123","7586","approach_avoid_sv1","""event"",""trial"",""time""
""fullscreenenter"",""1"",""1724""
","
","
","""event"",""trial"",""time""
""fullscreenenter"",""1"",""1724""
","
","","","","","","null","<div style=""font-size:60px;"">+</div>","null","","fixation","","",""
"memory-trial","292","572188","0.0-18.0-1.123","7586","approach_avoid_sv1","""event"",""trial"",""time""
""fullscreenenter"",""1"",""1724""
","
","
","""event"",""trial"",""time""
""fullscreenenter"",""1"",""1724""
","
","","","","","","1770.4000000059605","images/bed6.png","","","memory_trial","2","maybe_old",""
"html-keyboard-response","293","572700","0.0-18.0-0.124","7586","approach_avoid_sv1","""event"",""trial"",""time""
""fullscreenenter"",""1"",""1724""
","
","
","""event"",""trial"",""time""
""fullscreenenter"",""1"",""1724""
","
","","","","","","null","<div style=""font-size:60px;"">+</div>","null","","fixation","","",""
"memory-trial","294","575443","0.0-18.0-1.124","7586","approach_avoid_sv1","""event"",""trial"",""time""
""fullscreenenter"",""1"",""1724""
","
","
","""event"",""trial"",""time""
""fullscreenenter"",""1"",""1724""
","
","","","","","","1732.9000000059605","images/flower4.png","","","memory_trial","3","maybe_new",""
"html-keyboard-response","295","575956","0.0-18.0-0.125","7586","approach_avoid_sv1","""event"",""trial"",""time""
""fullscreenenter"",""1"",""1724""
","
","
","""event"",""trial"",""time""
""fullscreenenter"",""1"",""1724""
","
","","","","","","null","<div style=""font-size:60px;"">+</div>","null","","fixation","","",""
"memory-trial","296","578143","0.0-18.0-1.125","7586","approach_avoid_sv1","""event"",""trial"",""time""
""fullscreenenter"",""1"",""1724""
","
","
","""event"",""trial"",""time""
""fullscreenenter"",""1"",""1724""
","
","","","","","","1176.2000000178814","images/horse2.png","","","memory_trial","4","definitely_new",""
