"trial_type","trial_index","time_elapsed","internal_node_id","subject_id","task_version","interactions","blur_events","focus_events","fullscreenenter_events","fullscreenexit_events","success","timeout","failed_images","failed_audio","failed_video","rt","stimulus","response","button_pressed","task_part","key_press","answer","correct"
"pavlovia","0","12","0.0-0.0","6487","approach_avoid_sv1","""event"",""trial"",""time""
""fullscreenenter"",""1"",""2057""
","
","
","""event"",""trial"",""time""
""fullscreenenter"",""1"",""2057""
","
","","","","","","","","","","","","",""
"fullscreen","1","3038","0.0-1.0","6487","approach_avoid_sv1","""event"",""trial"",""time""
""fullscreenenter"",""1"",""2057""
","
","
","""event"",""trial"",""time""
""fullscreenenter"",""1"",""2057""
","
","true","","","","","","","","","","","",""
"preload","2","10901","0.0-2.0","6487","approach_avoid_sv1","""event"",""trial"",""time""
""fullscreenenter"",""1"",""2057""
","
","
","""event"",""trial"",""time""
""fullscreenenter"",""1"",""2057""
","
","true","false","[]","[]","[]","","","","","","","",""
"preload","3","24484","0.0-3.0","6487","approach_avoid_sv1","""event"",""trial"",""time""
""fullscreenenter"",""1"",""2057""
","
","
","""event"",""trial"",""time""
""fullscreenenter"",""1"",""2057""
","
","true","false","[]","[]","[]","","","","","","","",""
"preload","4","24973","0.0-4.0","6487","approach_avoid_sv1","""event"",""trial"",""time""
""fullscreenenter"",""1"",""2057""
","
","
","""event"",""trial"",""time""
""fullscreenenter"",""1"",""2057""
","
","true","false","[]","[]","[]","","","","","","","",""
"audio-keyboard-response","5","26288","0.0-5.0","6487","approach_avoid_sv1","""event"",""trial"",""time""
""fullscreenenter"",""1"",""2057""
","
","
","""event"",""trial"",""time""
""fullscreenenter"",""1"",""2057""
","
","","","","","","1312.0000000000011","audio/beep_loop.wav"," ","","","","",""
"audio-button-response","6","29508","0.0-6.0","6487","approach_avoid_sv1","""event"",""trial"",""time""
""fullscreenenter"",""1"",""2057""
","
","
","""event"",""trial"",""time""
""fullscreenenter"",""1"",""2057""
","
","","","","","","3221","audio/turtle.wav","3","","","","",""
"audio-button-response","7","31588","0.0-7.0","6487","approach_avoid_sv1","""event"",""trial"",""time""
""fullscreenenter"",""1"",""2057""
","
","
","""event"",""trial"",""time""
""fullscreenenter"",""1"",""2057""
","
","","","","","","1077","audio/shark.wav","2","","","","",""
"preload","8","42464","0.0-8.0","6487","approach_avoid_sv1","""event"",""trial"",""time""
""fullscreenenter"",""1"",""2057""
","
","
","""event"",""trial"",""time""
""fullscreenenter"",""1"",""2057""
","
","true","false","[]","[]","[]","","","","","","","",""
"learning-instructions","9","59620","0.0-9.0-0.0","6487","approach_avoid_sv1","""event"",""trial"",""time""
""fullscreenenter"",""1"",""2057""
","
","
","""event"",""trial"",""time""
""fullscreenenter"",""1"",""2057""
","
","","","","","","12668.10000000149","<p> Welcome back! </p><p> Last week, you had to make choices about lots of different items.  </p>","","0","instructions","","",""
"learning-instructions","10","70605","0.0-9.0-0.1","6487","approach_avoid_sv1","""event"",""trial"",""time""
""fullscreenenter"",""1"",""2057""
","
","
","""event"",""trial"",""time""
""fullscreenenter"",""1"",""2057""
","
","","","","","","6866","<p> Today, we are going to ask you to try to remember all the items. </p>","","0","instructions","","",""
"learning-instructions","11","82735","0.0-9.0-0.2","6487","approach_avoid_sv1","""event"",""trial"",""time""
""fullscreenenter"",""1"",""2057""
","
","
","""event"",""trial"",""time""
""fullscreenenter"",""1"",""2057""
","
","","","","","","1981.800000000745","<p> On every trial, you will see an image. </p><p> The image may be an OLD image you saw during the games last week or it may be a NEW image that was not presented. </p>","","0","instructions","","",""
"learning-instructions","12","92954","0.0-9.0-0.3","6487","approach_avoid_sv1","""event"",""trial"",""time""
""fullscreenenter"",""1"",""2057""
","
","
","""event"",""trial"",""time""
""fullscreenenter"",""1"",""2057""
","
","","","","","","1714","<p> You need to select whether the image is:  </p><p>  'Definitely old', 'Maybe old', 'Maybe new', or 'Definitely new.'  </p><div class=""mem-choice-instructions-grid""><div class=""choice-option"" id=""choice-option-1"" ><img src=""images/definitely_old_1.png"" id=""choice-option-img-1"" class=""choice-option-img"" stage=""1""></div><div class=""choice-option"" id=""choice-option-2"" ><img src=""images/maybe_old_1.png"" id=""choice-option-img-2"" class=""choice-option-img"" stage=""1""></div><div class=""choice-option"" id=""choice-option-3"" ><img src=""images/maybe_new_1.png"" id=""choice-option-img-3"" class=""choice-option-img"" stage=""1""></div><div class=""choice-option"" id=""choice-option-4"" > <img src=""images/definitely_new_1.png"" id=""choice-option-img-4"" class=""choice-option-img"" stage=""1""></div></div>","","0","instructions","","",""
"learning-instructions","13","100068","0.0-9.0-0.4","6487","approach_avoid_sv1","""event"",""trial"",""time""
""fullscreenenter"",""1"",""2057""
","
","
","""event"",""trial"",""time""
""fullscreenenter"",""1"",""2057""
","
","","","","","","588.3999999985099","<p> You should use the 1, 2, 3, and 4 keys to make your responses.  </p><div class=""mem-choice-instructions-grid""><div class=""choice-option"" id=""choice-option-1"" ><img src=""images/definitely_old.png"" id=""choice-option-img-1"" class=""choice-option-img"" stage=""1""></div><div class=""choice-option"" id=""choice-option-2"" ><img src=""images/maybe_old.png"" id=""choice-option-img-2"" class=""choice-option-img"" stage=""1""></div><div class=""choice-option"" id=""choice-option-3"" ><img src=""images/maybe_new.png"" id=""choice-option-img-3"" class=""choice-option-img"" stage=""1""></div><div class=""choice-option"" id=""choice-option-4"" > <img src=""images/definitely_new.png"" id=""choice-option-img-4"" class=""choice-option-img"" stage=""1""></div></div>","","0","instructions","","",""
"learning-instructions","14","107357","0.0-9.0-0.5","6487","approach_avoid_sv1","""event"",""trial"",""time""
""fullscreenenter"",""1"",""2057""
","
","
","""event"",""trial"",""time""
""fullscreenenter"",""1"",""2057""
","
","","","","","","950.6000000014901","<p> You will have 10 seconds to make each response.  </p><p>  Make sure to respond before time runs out! </p>","","0","instructions","","",""
"learning-instructions","15","116348","0.0-9.0-0.6","6487","approach_avoid_sv1","""event"",""trial"",""time""
""fullscreenenter"",""1"",""2057""
","
","
","""event"",""trial"",""time""
""fullscreenenter"",""1"",""2057""
","
","","","","","","1898.699999999255","<p> Today, you will see each image ONCE only.  </p><p>  That means none of the images will repeat. </p>","","0","instructions","","",""
"learning-instructions","16","130278","0.0-9.0-0.7","6487","approach_avoid_sv1","""event"",""trial"",""time""
""fullscreenenter"",""1"",""2057""
","
","
","""event"",""trial"",""time""
""fullscreenenter"",""1"",""2057""
","
","","","","","","1258.8999999985099","<p> Before you play the real game, it is time to practice. </p><p>  Just like in the real game, some of the images in the practice will be ones you have seen before. </p><p>  Others will be entirely new. </p>","","0","instructions","","",""
"html-button-response","17","132428","0.0-10.0","6487","approach_avoid_sv1","""event"",""trial"",""time""
""fullscreenenter"",""1"",""2057""
","
","
","""event"",""trial"",""time""
""fullscreenenter"",""1"",""2057""
","
","","","","","","2041.7000000029802","<p> Ready to practice? </p><p> Remember, use the 1, 2, 3, and 4 keys to make your responses. </p>","0","","instructions","","",""
"html-keyboard-response","18","133034","0.0-11.0-0.0","6487","approach_avoid_sv1","""event"",""trial"",""time""
""fullscreenenter"",""1"",""2057""
","
","
","""event"",""trial"",""time""
""fullscreenenter"",""1"",""2057""
","
","","","","","","null","<div style=""font-size:60px;"">+</div>","null","","fixation","","",""
"memory-trial","19","135628","0.0-11.0-1.0","6487","approach_avoid_sv1","""event"",""trial"",""time""
""fullscreenenter"",""1"",""2057""
","
","
","""event"",""trial"",""time""
""fullscreenenter"",""1"",""2057""
","
","","","","","","1577.5","images/racket3.png","","","practice","2","maybe_old",""
"html-keyboard-response","20","136132","0.0-11.0-0.1","6487","approach_avoid_sv1","""event"",""trial"",""time""
""fullscreenenter"",""1"",""2057""
","
","
","""event"",""trial"",""time""
""fullscreenenter"",""1"",""2057""
","
","","","","","","null","<div style=""font-size:60px;"">+</div>","null","","fixation","","",""
"memory-trial","21","139435","0.0-11.0-1.1","6487","approach_avoid_sv1","""event"",""trial"",""time""
""fullscreenenter"",""1"",""2057""
","
","
","""event"",""trial"",""time""
""fullscreenenter"",""1"",""2057""
","
","","","","","","2294.39999999851","images/ball1.png","","","practice","4","definitely_new",""
"html-keyboard-response","22","139940","0.0-11.0-0.2","6487","approach_avoid_sv1","""event"",""trial"",""time""
""fullscreenenter"",""1"",""2057""
","
","
","""event"",""trial"",""time""
""fullscreenenter"",""1"",""2057""
","
","","","","","","null","<div style=""font-size:60px;"">+</div>","null","","fixation","","",""
"memory-trial","23","144185","0.0-11.0-1.2","6487","approach_avoid_sv1","""event"",""trial"",""time""
""fullscreenenter"",""1"",""2057""
","
","
","""event"",""trial"",""time""
""fullscreenenter"",""1"",""2057""
","
","","","","","","3232.39999999851","images/ball3.png","","","practice","3","maybe_new",""
"html-keyboard-response","24","144691","0.0-11.0-0.3","6487","approach_avoid_sv1","""event"",""trial"",""time""
""fullscreenenter"",""1"",""2057""
","
","
","""event"",""trial"",""time""
""fullscreenenter"",""1"",""2057""
","
","","","","","","null","<div style=""font-size:60px;"">+</div>","null","","fixation","","",""
"memory-trial","25","147520","0.0-11.0-1.3","6487","approach_avoid_sv1","""event"",""trial"",""time""
""fullscreenenter"",""1"",""2057""
","
","
","""event"",""trial"",""time""
""fullscreenenter"",""1"",""2057""
","
","","","","","","1818.199999999255","images/racket1.png","","","practice","3","maybe_new",""
"html-keyboard-response","26","148025","0.0-11.0-0.4","6487","approach_avoid_sv1","""event"",""trial"",""time""
""fullscreenenter"",""1"",""2057""
","
","
","""event"",""trial"",""time""
""fullscreenenter"",""1"",""2057""
","
","","","","","","null","<div style=""font-size:60px;"">+</div>","null","","fixation","","",""
"memory-trial","27","153266","0.0-11.0-1.4","6487","approach_avoid_sv1","""event"",""trial"",""time""
""fullscreenenter"",""1"",""2057""
","
","
","""event"",""trial"",""time""
""fullscreenenter"",""1"",""2057""
","
","","","","","","4230","images/ball5.png","","","practice","2","maybe_old",""
"html-keyboard-response","28","153770","0.0-11.0-0.5","6487","approach_avoid_sv1","""event"",""trial"",""time""
""fullscreenenter"",""1"",""2057""
","
","
","""event"",""trial"",""time""
""fullscreenenter"",""1"",""2057""
","
","","","","","","null","<div style=""font-size:60px;"">+</div>","null","","fixation","","",""
"memory-trial","29","158435","0.0-11.0-1.5","6487","approach_avoid_sv1","""event"",""trial"",""time""
""fullscreenenter"",""1"",""2057""
","
","
","""event"",""trial"",""time""
""fullscreenenter"",""1"",""2057""
","
","","","","","","3654.60000000149","images/racket5.png","","","practice","2","maybe_old",""
"html-keyboard-response","30","158937","0.0-11.0-0.6","6487","approach_avoid_sv1","""event"",""trial"",""time""
""fullscreenenter"",""1"",""2057""
","
","
","""event"",""trial"",""time""
""fullscreenenter"",""1"",""2057""
","
","","","","","","null","<div style=""font-size:60px;"">+</div>","null","","fixation","","",""
"memory-trial","31","164999","0.0-11.0-1.6","6487","approach_avoid_sv1","""event"",""trial"",""time""
""fullscreenenter"",""1"",""2057""
","
","
","""event"",""trial"",""time""
""fullscreenenter"",""1"",""2057""
","
","","","","","","5055.70000000298","images/ball2.png","","","practice","3","maybe_new",""
"html-keyboard-response","32","165501","0.0-11.0-0.7","6487","approach_avoid_sv1","""event"",""trial"",""time""
""fullscreenenter"",""1"",""2057""
","
","
","""event"",""trial"",""time""
""fullscreenenter"",""1"",""2057""
","
","","","","","","null","<div style=""font-size:60px;"">+</div>","null","","fixation","","",""
"memory-trial","33","168006","0.0-11.0-1.7","6487","approach_avoid_sv1","""event"",""trial"",""time""
""fullscreenenter"",""1"",""2057""
","
","
","""event"",""trial"",""time""
""fullscreenenter"",""1"",""2057""
","
","","","","","","1493.9000000022352","images/racket2.png","","","practice","4","definitely_new",""
"learning-instructions","34","176661","0.0-12.0-0.0","6487","approach_avoid_sv1","""event"",""trial"",""time""
""fullscreenenter"",""1"",""2057""
","
","
","""event"",""trial"",""time""
""fullscreenenter"",""1"",""2057""
","
","","","","","","1352.699999999255","<p> Great! You have completed the practice. </p><p> Before you start, we're going to ask you a few questions about how the game works.  </p>","","0","instructions","","",""
"preload","35","182679","0.0-13.0","6487","approach_avoid_sv1","""event"",""trial"",""time""
""fullscreenenter"",""1"",""2057""
","
","
","""event"",""trial"",""time""
""fullscreenenter"",""1"",""2057""
","
","true","false","[]","[]","[]","","","","","","","",""
"comp-q","36","191992","0.0-14.0-0.0","6487","approach_avoid_sv1","""event"",""trial"",""time""
""fullscreenenter"",""1"",""2057""
","
","
","""event"",""trial"",""time""
""fullscreenenter"",""1"",""2057""
","
","","","","","","3478.300000000745","<p> <b> True or False? </b> </p><p> In this game, you will only see each image once. </p>","","0","comp_question","","","true"
"comp-q","37","200926","0.0-14.0-1.0","6487","approach_avoid_sv1","""event"",""trial"",""time""
""fullscreenenter"",""1"",""2057""
","
","
","""event"",""trial"",""time""
""fullscreenenter"",""1"",""2057""
","
","","","","","","2579.900000002235","<p> <b> That's right! </b> You will see many different images <i> one time each </i> in this game. </p>","","0","comp_answer","","",""
"comp-q","38","207272","0.0-15.0-0.0","6487","approach_avoid_sv1","""event"",""trial"",""time""
""fullscreenenter"",""1"",""2057""
","
","
","""event"",""trial"",""time""
""fullscreenenter"",""1"",""2057""
","
","","","","","","1328.800000000745","<p> <b> True or False? </b> </p><p> You should use the mouse and click to make your response. </p>","","1","comp_question","","","true"
"comp-q","39","221764","0.0-15.0-1.0","6487","approach_avoid_sv1","""event"",""trial"",""time""
""fullscreenenter"",""1"",""2057""
","
","
","""event"",""trial"",""time""
""fullscreenenter"",""1"",""2057""
","
","","","","","","7981.79999999702","<p><b> That's right! </b> You should use the '1', '2', '3', and '4' keys to make your response. </p>","","0","comp_answer","","",""
"comp-q","40","235365","0.0-16.0-0.0","6487","approach_avoid_sv1","""event"",""trial"",""time""
""fullscreenenter"",""1"",""2057""
","
","
","""event"",""trial"",""time""
""fullscreenenter"",""1"",""2057""
","
","","","","","","7918.300000000745","<p> <b> True or False? </b> </p><p> You will have as much time as you want to make each choice. </p>","","1","comp_question","","","true"
"comp-q","41","245597","0.0-16.0-1.0","6487","approach_avoid_sv1","""event"",""trial"",""time""
""fullscreenenter"",""1"",""2057""
","
","
","""event"",""trial"",""time""
""fullscreenenter"",""1"",""2057""
","
","","","","","","5528.79999999702","<p> <b> That's right! </b> You will only have 10 seconds to make each choice. </p>","","0","comp_answer","","",""
"learning-instructions","42","256018","0.0-17.0","6487","approach_avoid_sv1","""event"",""trial"",""time""
""fullscreenenter"",""1"",""2057""
","
","
","""event"",""trial"",""time""
""fullscreenenter"",""1"",""2057""
","
","","","","","","1741.199999999255","<p> Great! You are now ready to begin the game. </p><p> Remember, use the 1, 2, 3, and 4 keys to make your responses. </p>","","0","instructions","","",""
"html-keyboard-response","43","256623","0.0-18.0-0.0","6487","approach_avoid_sv1","""event"",""trial"",""time""
""fullscreenenter"",""1"",""2057""
","
","
","""event"",""trial"",""time""
""fullscreenenter"",""1"",""2057""
","
","","","","","","null","<div style=""font-size:60px;"">+</div>","null","","fixation","","",""
"memory-trial","44","260289","0.0-18.0-1.0","6487","approach_avoid_sv1","""event"",""trial"",""time""
""fullscreenenter"",""1"",""2057""
","
","
","""event"",""trial"",""time""
""fullscreenenter"",""1"",""2057""
","
","","","","","","2655.800000000745","images/cat5.png","","","memory_trial","4","definitely_new",""
"html-keyboard-response","45","260795","0.0-18.0-0.1","6487","approach_avoid_sv1","""event"",""trial"",""time""
""fullscreenenter"",""1"",""2057""
","
","
","""event"",""trial"",""time""
""fullscreenenter"",""1"",""2057""
","
","","","","","","null","<div style=""font-size:60px;"">+</div>","null","","fixation","","",""
"memory-trial","46","266011","0.0-18.0-1.1","6487","approach_avoid_sv1","""event"",""trial"",""time""
""fullscreenenter"",""1"",""2057""
","
","
","""event"",""trial"",""time""
""fullscreenenter"",""1"",""2057""
","
","","","","","","4204.5","images/apple5.png","","","memory_trial","1","definitely_old",""
"html-keyboard-response","47","266516","0.0-18.0-0.2","6487","approach_avoid_sv1","""event"",""trial"",""time""
""fullscreenenter"",""1"",""2057""
","
","
","""event"",""trial"",""time""
""fullscreenenter"",""1"",""2057""
","
","","","","","","null","<div style=""font-size:60px;"">+</div>","null","","fixation","","",""
"memory-trial","48","269452","0.0-18.0-1.2","6487","approach_avoid_sv1","""event"",""trial"",""time""
""fullscreenenter"",""1"",""2057""
","
","
","""event"",""trial"",""time""
""fullscreenenter"",""1"",""2057""
","
","","","","","","1923.5","images/sofa7.png","","","memory_trial","2","maybe_old",""
"html-keyboard-response","49","269958","0.0-18.0-0.3","6487","approach_avoid_sv1","""event"",""trial"",""time""
""fullscreenenter"",""1"",""2057""
","
","
","""event"",""trial"",""time""
""fullscreenenter"",""1"",""2057""
","
","","","","","","null","<div style=""font-size:60px;"">+</div>","null","","fixation","","",""
"memory-trial","50","272854","0.0-18.0-1.3","6487","approach_avoid_sv1","""event"",""trial"",""time""
""fullscreenenter"",""1"",""2057""
","
","
","""event"",""trial"",""time""
""fullscreenenter"",""1"",""2057""
","
","","","","","","1883.800000000745","images/horse6.png","","","memory_trial","3","maybe_new",""
"html-keyboard-response","51","273360","0.0-18.0-0.4","6487","approach_avoid_sv1","""event"",""trial"",""time""
""fullscreenenter"",""1"",""2057""
","
","
","""event"",""trial"",""time""
""fullscreenenter"",""1"",""2057""
","
","","","","","","null","<div style=""font-size:60px;"">+</div>","null","","fixation","","",""
"memory-trial","52","276643","0.0-18.0-1.4","6487","approach_avoid_sv1","""event"",""trial"",""time""
""fullscreenenter"",""1"",""2057""
","
","
","""event"",""trial"",""time""
""fullscreenenter"",""1"",""2057""
","
","","","","","","2270.300000000745","images/apple4.png","","","memory_trial","3","maybe_new",""
"html-keyboard-response","53","277151","0.0-18.0-0.5","6487","approach_avoid_sv1","""event"",""trial"",""time""
""fullscreenenter"",""1"",""2057""
","
","
","""event"",""trial"",""time""
""fullscreenenter"",""1"",""2057""
","
","","","","","","null","<div style=""font-size:60px;"">+</div>","null","","fixation","","",""
"memory-trial","54","279789","0.0-18.0-1.5","6487","approach_avoid_sv1","""event"",""trial"",""time""
""fullscreenenter"",""1"",""2057""
","
","
","""event"",""trial"",""time""
""fullscreenenter"",""1"",""2057""
","
","","","","","","1624.8999999985099","images/sheep4.png","","","memory_trial","1","definitely_old",""
"html-keyboard-response","55","280295","0.0-18.0-0.6","6487","approach_avoid_sv1","""event"",""trial"",""time""
""fullscreenenter"",""1"",""2057""
","
","
","""event"",""trial"",""time""
""fullscreenenter"",""1"",""2057""
","
","","","","","","null","<div style=""font-size:60px;"">+</div>","null","","fixation","","",""
"memory-trial","56","282457","0.0-18.0-1.6","6487","approach_avoid_sv1","""event"",""trial"",""time""
""fullscreenenter"",""1"",""2057""
","
","
","""event"",""trial"",""time""
""fullscreenenter"",""1"",""2057""
","
","","","","","","1150.5","images/plane4.png","","","memory_trial","1","definitely_old",""
"html-keyboard-response","57","282962","0.0-18.0-0.7","6487","approach_avoid_sv1","""event"",""trial"",""time""
""fullscreenenter"",""1"",""2057""
","
","
","""event"",""trial"",""time""
""fullscreenenter"",""1"",""2057""
","
","","","","","","null","<div style=""font-size:60px;"">+</div>","null","","fixation","","",""
"memory-trial","58","285805","0.0-18.0-1.7","6487","approach_avoid_sv1","""event"",""trial"",""time""
""fullscreenenter"",""1"",""2057""
","
","
","""event"",""trial"",""time""
""fullscreenenter"",""1"",""2057""
","
","","","","","","1831.6000000014901","images/rodent8.png","","","memory_trial","4","definitely_new",""
"html-keyboard-response","59","286311","0.0-18.0-0.8","6487","approach_avoid_sv1","""event"",""trial"",""time""
""fullscreenenter"",""1"",""2057""
","
","
","""event"",""trial"",""time""
""fullscreenenter"",""1"",""2057""
","
","","","","","","null","<div style=""font-size:60px;"">+</div>","null","","fixation","","",""
"memory-trial","60","289134","0.0-18.0-1.8","6487","approach_avoid_sv1","""event"",""trial"",""time""
""fullscreenenter"",""1"",""2057""
","
","
","""event"",""trial"",""time""
""fullscreenenter"",""1"",""2057""
","
","","","","","","1808.5999999977648","images/flower1.png","","","memory_trial","3","maybe_new",""
"html-keyboard-response","61","289639","0.0-18.0-0.9","6487","approach_avoid_sv1","""event"",""trial"",""time""
""fullscreenenter"",""1"",""2057""
","
","
","""event"",""trial"",""time""
""fullscreenenter"",""1"",""2057""
","
","","","","","","null","<div style=""font-size:60px;"">+</div>","null","","fixation","","",""
"memory-trial","62","291681","0.0-18.0-1.9","6487","approach_avoid_sv1","""event"",""trial"",""time""
""fullscreenenter"",""1"",""2057""
","
","
","""event"",""trial"",""time""
""fullscreenenter"",""1"",""2057""
","
","","","","","","1030.7999999970198","images/bed1.png","","","memory_trial","1","definitely_old",""
"html-keyboard-response","63","292191","0.0-18.0-0.10","6487","approach_avoid_sv1","""event"",""trial"",""time""
""fullscreenenter"",""1"",""2057""
","
","
","""event"",""trial"",""time""
""fullscreenenter"",""1"",""2057""
","
","","","","","","null","<div style=""font-size:60px;"">+</div>","null","","fixation","","",""
"memory-trial","64","293980","0.0-18.0-1.10","6487","approach_avoid_sv1","""event"",""trial"",""time""
""fullscreenenter"",""1"",""2057""
","
","
","""event"",""trial"",""time""
""fullscreenenter"",""1"",""2057""
","
","","","","","","777.3000000007451","images/apple2.png","","","memory_trial","4","definitely_new",""
"html-keyboard-response","65","294485","0.0-18.0-0.11","6487","approach_avoid_sv1","""event"",""trial"",""time""
""fullscreenenter"",""1"",""2057""
","
","
","""event"",""trial"",""time""
""fullscreenenter"",""1"",""2057""
","
","","","","","","null","<div style=""font-size:60px;"">+</div>","null","","fixation","","",""
"memory-trial","66","296715","0.0-18.0-1.11","6487","approach_avoid_sv1","""event"",""trial"",""time""
""fullscreenenter"",""1"",""2057""
","
","
","""event"",""trial"",""time""
""fullscreenenter"",""1"",""2057""
","
","","","","","","1215.3999999985099","images/straw1.png","","","memory_trial","2","maybe_old",""
"html-keyboard-response","67","297220","0.0-18.0-0.12","6487","approach_avoid_sv1","""event"",""trial"",""time""
""fullscreenenter"",""1"",""2057""
","
","
","""event"",""trial"",""time""
""fullscreenenter"",""1"",""2057""
","
","","","","","","null","<div style=""font-size:60px;"">+</div>","null","","fixation","","",""
"memory-trial","68","300096","0.0-18.0-1.12","6487","approach_avoid_sv1","""event"",""trial"",""time""
""fullscreenenter"",""1"",""2057""
","
","
","""event"",""trial"",""time""
""fullscreenenter"",""1"",""2057""
","
","","","","","","1862.7999999970198","images/plane1.png","","","memory_trial","3","maybe_new",""
"html-keyboard-response","69","300601","0.0-18.0-0.13","6487","approach_avoid_sv1","""event"",""trial"",""time""
""fullscreenenter"",""1"",""2057""
","
","
","""event"",""trial"",""time""
""fullscreenenter"",""1"",""2057""
","
","","","","","","null","<div style=""font-size:60px;"">+</div>","null","","fixation","","",""
"memory-trial","70","302552","0.0-18.0-1.13","6487","approach_avoid_sv1","""event"",""trial"",""time""
""fullscreenenter"",""1"",""2057""
","
","
","""event"",""trial"",""time""
""fullscreenenter"",""1"",""2057""
","
","","","","","","937.3000000007451","images/cat6.png","","","memory_trial","1","definitely_old",""
"html-keyboard-response","71","303060","0.0-18.0-0.14","6487","approach_avoid_sv1","""event"",""trial"",""time""
""fullscreenenter"",""1"",""2057""
","
","
","""event"",""trial"",""time""
""fullscreenenter"",""1"",""2057""
","
","","","","","","null","<div style=""font-size:60px;"">+</div>","null","","fixation","","",""
"memory-trial","72","305188","0.0-18.0-1.14","6487","approach_avoid_sv1","""event"",""trial"",""time""
""fullscreenenter"",""1"",""2057""
","
","
","""event"",""trial"",""time""
""fullscreenenter"",""1"",""2057""
","
","","","","","","1113.199999999255","images/goat4.png","","","memory_trial","2","maybe_old",""
"html-keyboard-response","73","305692","0.0-18.0-0.15","6487","approach_avoid_sv1","""event"",""trial"",""time""
""fullscreenenter"",""1"",""2057""
","
","
","""event"",""trial"",""time""
""fullscreenenter"",""1"",""2057""
","
","","","","","","null","<div style=""font-size:60px;"">+</div>","null","","fixation","","",""
"memory-trial","74","308381","0.0-18.0-1.15","6487","approach_avoid_sv1","""event"",""trial"",""time""
""fullscreenenter"",""1"",""2057""
","
","
","""event"",""trial"",""time""
""fullscreenenter"",""1"",""2057""
","
","","","","","","1679","images/rabbit1.png","","","memory_trial","1","definitely_old",""
"html-keyboard-response","75","308886","0.0-18.0-0.16","6487","approach_avoid_sv1","""event"",""trial"",""time""
""fullscreenenter"",""1"",""2057""
","
","
","""event"",""trial"",""time""
""fullscreenenter"",""1"",""2057""
","
","","","","","","null","<div style=""font-size:60px;"">+</div>","null","","fixation","","",""
"memory-trial","76","312117","0.0-18.0-1.16","6487","approach_avoid_sv1","""event"",""trial"",""time""
""fullscreenenter"",""1"",""2057""
","
","
","""event"",""trial"",""time""
""fullscreenenter"",""1"",""2057""
","
","","","","","","2216.400000002235","images/plane3.png","","","memory_trial","1","definitely_old",""
"html-keyboard-response","77","312623","0.0-18.0-0.17","6487","approach_avoid_sv1","""event"",""trial"",""time""
""fullscreenenter"",""1"",""2057""
","
","
","""event"",""trial"",""time""
""fullscreenenter"",""1"",""2057""
","
","","","","","","null","<div style=""font-size:60px;"">+</div>","null","","fixation","","",""
"memory-trial","78","315533","0.0-18.0-1.17","6487","approach_avoid_sv1","""event"",""trial"",""time""
""fullscreenenter"",""1"",""2057""
","
","
","""event"",""trial"",""time""
""fullscreenenter"",""1"",""2057""
","
","","","","","","1896.5999999977648","images/tree7.png","","","memory_trial","1","definitely_old",""
"html-keyboard-response","79","316038","0.0-18.0-0.18","6487","approach_avoid_sv1","""event"",""trial"",""time""
""fullscreenenter"",""1"",""2057""
","
","
","""event"",""trial"",""time""
""fullscreenenter"",""1"",""2057""
","
","","","","","","null","<div style=""font-size:60px;"">+</div>","null","","fixation","","",""
"memory-trial","80","320255","0.0-18.0-1.18","6487","approach_avoid_sv1","""event"",""trial"",""time""
""fullscreenenter"",""1"",""2057""
","
","
","""event"",""trial"",""time""
""fullscreenenter"",""1"",""2057""
","
","","","","","","3203.900000002235","images/boat7.png","","","memory_trial","3","maybe_new",""
"html-keyboard-response","81","320761","0.0-18.0-0.19","6487","approach_avoid_sv1","""event"",""trial"",""time""
""fullscreenenter"",""1"",""2057""
","
","
","""event"",""trial"",""time""
""fullscreenenter"",""1"",""2057""
","
","","","","","","null","<div style=""font-size:60px;"">+</div>","null","","fixation","","",""
"memory-trial","82","323328","0.0-18.0-1.19","6487","approach_avoid_sv1","""event"",""trial"",""time""
""fullscreenenter"",""1"",""2057""
","
","
","""event"",""trial"",""time""
""fullscreenenter"",""1"",""2057""
","
","","","","","","1554.699999999255","images/cow5.png","","","memory_trial","2","maybe_old",""
"html-keyboard-response","83","323831","0.0-18.0-0.20","6487","approach_avoid_sv1","""event"",""trial"",""time""
""fullscreenenter"",""1"",""2057""
","
","
","""event"",""trial"",""time""
""fullscreenenter"",""1"",""2057""
","
","","","","","","null","<div style=""font-size:60px;"">+</div>","null","","fixation","","",""
"memory-trial","84","326934","0.0-18.0-1.20","6487","approach_avoid_sv1","""event"",""trial"",""time""
""fullscreenenter"",""1"",""2057""
","
","
","""event"",""trial"",""time""
""fullscreenenter"",""1"",""2057""
","
","","","","","","2096.699999999255","images/rodent7.png","","","memory_trial","4","definitely_new",""
"html-keyboard-response","85","327438","0.0-18.0-0.21","6487","approach_avoid_sv1","""event"",""trial"",""time""
""fullscreenenter"",""1"",""2057""
","
","
","""event"",""trial"",""time""
""fullscreenenter"",""1"",""2057""
","
","","","","","","null","<div style=""font-size:60px;"">+</div>","null","","fixation","","",""
"memory-trial","86","329788","0.0-18.0-1.21","6487","approach_avoid_sv1","""event"",""trial"",""time""
""fullscreenenter"",""1"",""2057""
","
","
","""event"",""trial"",""time""
""fullscreenenter"",""1"",""2057""
","
","","","","","","1338.6000000014901","images/bed4.png","","","memory_trial","1","definitely_old",""
"html-keyboard-response","87","330293","0.0-18.0-0.22","6487","approach_avoid_sv1","""event"",""trial"",""time""
""fullscreenenter"",""1"",""2057""
","
","
","""event"",""trial"",""time""
""fullscreenenter"",""1"",""2057""
","
","","","","","","null","<div style=""font-size:60px;"">+</div>","null","","fixation","","",""
"memory-trial","88","333156","0.0-18.0-1.22","6487","approach_avoid_sv1","""event"",""trial"",""time""
""fullscreenenter"",""1"",""2057""
","
","
","""event"",""trial"",""time""
""fullscreenenter"",""1"",""2057""
","
","","","","","","1848.699999999255","images/banana8.png","","","memory_trial","2","maybe_old",""
"html-keyboard-response","89","333660","0.0-18.0-0.23","6487","approach_avoid_sv1","""event"",""trial"",""time""
""fullscreenenter"",""1"",""2057""
","
","
","""event"",""trial"",""time""
""fullscreenenter"",""1"",""2057""
","
","","","","","","null","<div style=""font-size:60px;"">+</div>","null","","fixation","","",""
"memory-trial","90","337161","0.0-18.0-1.23","6487","approach_avoid_sv1","""event"",""trial"",""time""
""fullscreenenter"",""1"",""2057""
","
","
","""event"",""trial"",""time""
""fullscreenenter"",""1"",""2057""
","
","","","","","","2494.300000000745","images/straw7.png","","","memory_trial","1","definitely_old",""
"html-keyboard-response","91","337666","0.0-18.0-0.24","6487","approach_avoid_sv1","""event"",""trial"",""time""
""fullscreenenter"",""1"",""2057""
","
","
","""event"",""trial"",""time""
""fullscreenenter"",""1"",""2057""
","
","","","","","","null","<div style=""font-size:60px;"">+</div>","null","","fixation","","",""
"memory-trial","92","339443","0.0-18.0-1.24","6487","approach_avoid_sv1","""event"",""trial"",""time""
""fullscreenenter"",""1"",""2057""
","
","
","""event"",""trial"",""time""
""fullscreenenter"",""1"",""2057""
","
","","","","","","763.8999999985099","images/boat8.png","","","memory_trial","1","definitely_old",""
"html-keyboard-response","93","339948","0.0-18.0-0.25","6487","approach_avoid_sv1","""event"",""trial"",""time""
""fullscreenenter"",""1"",""2057""
","
","
","""event"",""trial"",""time""
""fullscreenenter"",""1"",""2057""
","
","","","","","","null","<div style=""font-size:60px;"">+</div>","null","","fixation","","",""
"memory-trial","94","342014","0.0-18.0-1.25","6487","approach_avoid_sv1","""event"",""trial"",""time""
""fullscreenenter"",""1"",""2057""
","
","
","""event"",""trial"",""time""
""fullscreenenter"",""1"",""2057""
","
","","","","","","1052.5","images/banana5.png","","","memory_trial","2","maybe_old",""
"html-keyboard-response","95","342517","0.0-18.0-0.26","6487","approach_avoid_sv1","""event"",""trial"",""time""
""fullscreenenter"",""1"",""2057""
","
","
","""event"",""trial"",""time""
""fullscreenenter"",""1"",""2057""
","
","","","","","","null","<div style=""font-size:60px;"">+</div>","null","","fixation","","",""
"memory-trial","96","345363","0.0-18.0-1.26","6487","approach_avoid_sv1","""event"",""trial"",""time""
""fullscreenenter"",""1"",""2057""
","
","
","""event"",""trial"",""time""
""fullscreenenter"",""1"",""2057""
","
","","","","","","1833.9000000022352","images/train7.png","","","memory_trial","4","definitely_new",""
"html-keyboard-response","97","345867","0.0-18.0-0.27","6487","approach_avoid_sv1","""event"",""trial"",""time""
""fullscreenenter"",""1"",""2057""
","
","
","""event"",""trial"",""time""
""fullscreenenter"",""1"",""2057""
","
","","","","","","null","<div style=""font-size:60px;"">+</div>","null","","fixation","","",""
"memory-trial","98","347871","0.0-18.0-1.27","6487","approach_avoid_sv1","""event"",""trial"",""time""
""fullscreenenter"",""1"",""2057""
","
","
","""event"",""trial"",""time""
""fullscreenenter"",""1"",""2057""
","
","","","","","","989.8999999985099","images/bed3.png","","","memory_trial","1","definitely_old",""
"html-keyboard-response","99","348375","0.0-18.0-0.28","6487","approach_avoid_sv1","""event"",""trial"",""time""
""fullscreenenter"",""1"",""2057""
","
","
","""event"",""trial"",""time""
""fullscreenenter"",""1"",""2057""
","
","","","","","","null","<div style=""font-size:60px;"">+</div>","null","","fixation","","",""
"memory-trial","100","350614","0.0-18.0-1.28","6487","approach_avoid_sv1","""event"",""trial"",""time""
""fullscreenenter"",""1"",""2057""
","
","
","""event"",""trial"",""time""
""fullscreenenter"",""1"",""2057""
","
","","","","","","1228.800000000745","images/plane7.png","","","memory_trial","1","definitely_old",""
"html-keyboard-response","101","351120","0.0-18.0-0.29","6487","approach_avoid_sv1","""event"",""trial"",""time""
""fullscreenenter"",""1"",""2057""
","
","
","""event"",""trial"",""time""
""fullscreenenter"",""1"",""2057""
","
","","","","","","null","<div style=""font-size:60px;"">+</div>","null","","fixation","","",""
"memory-trial","102","353019","0.0-18.0-1.29","6487","approach_avoid_sv1","""event"",""trial"",""time""
""fullscreenenter"",""1"",""2057""
","
","
","""event"",""trial"",""time""
""fullscreenenter"",""1"",""2057""
","
","","","","","","886.3999999985099","images/tree1.png","","","memory_trial","1","definitely_old",""
"html-keyboard-response","103","353523","0.0-18.0-0.30","6487","approach_avoid_sv1","""event"",""trial"",""time""
""fullscreenenter"",""1"",""2057""
","
","
","""event"",""trial"",""time""
""fullscreenenter"",""1"",""2057""
","
","","","","","","null","<div style=""font-size:60px;"">+</div>","null","","fixation","","",""
"memory-trial","104","355397","0.0-18.0-1.30","6487","approach_avoid_sv1","""event"",""trial"",""time""
""fullscreenenter"",""1"",""2057""
","
","
","""event"",""trial"",""time""
""fullscreenenter"",""1"",""2057""
","
","","","","","","864.5","images/rabbit8.png","","","memory_trial","1","definitely_old",""
"html-keyboard-response","105","355901","0.0-18.0-0.31","6487","approach_avoid_sv1","""event"",""trial"",""time""
""fullscreenenter"",""1"",""2057""
","
","
","""event"",""trial"",""time""
""fullscreenenter"",""1"",""2057""
","
","","","","","","null","<div style=""font-size:60px;"">+</div>","null","","fixation","","",""
"memory-trial","106","359364","0.0-18.0-1.31","6487","approach_avoid_sv1","""event"",""trial"",""time""
""fullscreenenter"",""1"",""2057""
","
","
","""event"",""trial"",""time""
""fullscreenenter"",""1"",""2057""
","
","","","","","","2455.39999999851","images/plane2.png","","","memory_trial","4","definitely_new",""
"html-keyboard-response","107","359869","0.0-18.0-0.32","6487","approach_avoid_sv1","""event"",""trial"",""time""
""fullscreenenter"",""1"",""2057""
","
","
","""event"",""trial"",""time""
""fullscreenenter"",""1"",""2057""
","
","","","","","","null","<div style=""font-size:60px;"">+</div>","null","","fixation","","",""
"memory-trial","108","363693","0.0-18.0-1.32","6487","approach_avoid_sv1","""event"",""trial"",""time""
""fullscreenenter"",""1"",""2057""
","
","
","""event"",""trial"",""time""
""fullscreenenter"",""1"",""2057""
","
","","","","","","2810.89999999851","images/cow3.png","","","memory_trial","1","definitely_old",""
"html-keyboard-response","109","364198","0.0-18.0-0.33","6487","approach_avoid_sv1","""event"",""trial"",""time""
""fullscreenenter"",""1"",""2057""
","
","
","""event"",""trial"",""time""
""fullscreenenter"",""1"",""2057""
","
","","","","","","null","<div style=""font-size:60px;"">+</div>","null","","fixation","","",""
"memory-trial","110","366683","0.0-18.0-1.33","6487","approach_avoid_sv1","""event"",""trial"",""time""
""fullscreenenter"",""1"",""2057""
","
","
","""event"",""trial"",""time""
""fullscreenenter"",""1"",""2057""
","
","","","","","","1475.1000000014901","images/table5.png","","","memory_trial","4","definitely_new",""
"html-keyboard-response","111","367188","0.0-18.0-0.34","6487","approach_avoid_sv1","""event"",""trial"",""time""
""fullscreenenter"",""1"",""2057""
","
","
","""event"",""trial"",""time""
""fullscreenenter"",""1"",""2057""
","
","","","","","","null","<div style=""font-size:60px;"">+</div>","null","","fixation","","",""
"memory-trial","112","369245","0.0-18.0-1.34","6487","approach_avoid_sv1","""event"",""trial"",""time""
""fullscreenenter"",""1"",""2057""
","
","
","""event"",""trial"",""time""
""fullscreenenter"",""1"",""2057""
","
","","","","","","1046.4000000022352","images/horse3.png","","","memory_trial","4","definitely_new",""
"html-keyboard-response","113","369749","0.0-18.0-0.35","6487","approach_avoid_sv1","""event"",""trial"",""time""
""fullscreenenter"",""1"",""2057""
","
","
","""event"",""trial"",""time""
""fullscreenenter"",""1"",""2057""
","
","","","","","","null","<div style=""font-size:60px;"">+</div>","null","","fixation","","",""
"memory-trial","114","372180","0.0-18.0-1.35","6487","approach_avoid_sv1","""event"",""trial"",""time""
""fullscreenenter"",""1"",""2057""
","
","
","""event"",""trial"",""time""
""fullscreenenter"",""1"",""2057""
","
","","","","","","1417.699999999255","images/bush6.png","","","memory_trial","1","definitely_old",""
"html-keyboard-response","115","372684","0.0-18.0-0.36","6487","approach_avoid_sv1","""event"",""trial"",""time""
""fullscreenenter"",""1"",""2057""
","
","
","""event"",""trial"",""time""
""fullscreenenter"",""1"",""2057""
","
","","","","","","null","<div style=""font-size:60px;"">+</div>","null","","fixation","","",""
"memory-trial","116","375201","0.0-18.0-1.36","6487","approach_avoid_sv1","""event"",""trial"",""time""
""fullscreenenter"",""1"",""2057""
","
","
","""event"",""trial"",""time""
""fullscreenenter"",""1"",""2057""
","
","","","","","","1494.3999999985099","images/orange1.png","","","memory_trial","1","definitely_old",""
"html-keyboard-response","117","375706","0.0-18.0-0.37","6487","approach_avoid_sv1","""event"",""trial"",""time""
""fullscreenenter"",""1"",""2057""
","
","
","""event"",""trial"",""time""
""fullscreenenter"",""1"",""2057""
","
","","","","","","null","<div style=""font-size:60px;"">+</div>","null","","fixation","","",""
"memory-trial","118","377372","0.0-18.0-1.37","6487","approach_avoid_sv1","""event"",""trial"",""time""
""fullscreenenter"",""1"",""2057""
","
","
","""event"",""trial"",""time""
""fullscreenenter"",""1"",""2057""
","
","","","","","","656.5","images/orange7.png","","","memory_trial","1","definitely_old",""
"html-keyboard-response","119","377876","0.0-18.0-0.38","6487","approach_avoid_sv1","""event"",""trial"",""time""
""fullscreenenter"",""1"",""2057""
","
","
","""event"",""trial"",""time""
""fullscreenenter"",""1"",""2057""
","
","","","","","","null","<div style=""font-size:60px;"">+</div>","null","","fixation","","",""
"memory-trial","120","379812","0.0-18.0-1.38","6487","approach_avoid_sv1","""event"",""trial"",""time""
""fullscreenenter"",""1"",""2057""
","
","
","""event"",""trial"",""time""
""fullscreenenter"",""1"",""2057""
","
","","","","","","922.1999999992549","images/table7.png","","","memory_trial","2","maybe_old",""
"html-keyboard-response","121","380316","0.0-18.0-0.39","6487","approach_avoid_sv1","""event"",""trial"",""time""
""fullscreenenter"",""1"",""2057""
","
","
","""event"",""trial"",""time""
""fullscreenenter"",""1"",""2057""
","
","","","","","","null","<div style=""font-size:60px;"">+</div>","null","","fixation","","",""
"memory-trial","122","382753","0.0-18.0-1.39","6487","approach_avoid_sv1","""event"",""trial"",""time""
""fullscreenenter"",""1"",""2057""
","
","
","""event"",""trial"",""time""
""fullscreenenter"",""1"",""2057""
","
","","","","","","1426.5","images/banana2.png","","","memory_trial","2","maybe_old",""
"html-keyboard-response","123","383257","0.0-18.0-0.40","6487","approach_avoid_sv1","""event"",""trial"",""time""
""fullscreenenter"",""1"",""2057""
","
","
","""event"",""trial"",""time""
""fullscreenenter"",""1"",""2057""
","
","","","","","","null","<div style=""font-size:60px;"">+</div>","null","","fixation","","",""
"memory-trial","124","385090","0.0-18.0-1.40","6487","approach_avoid_sv1","""event"",""trial"",""time""
""fullscreenenter"",""1"",""2057""
","
","
","""event"",""trial"",""time""
""fullscreenenter"",""1"",""2057""
","
","","","","","","820.6999999992549","images/orange5.png","","","memory_trial","2","maybe_old",""
"html-keyboard-response","125","385594","0.0-18.0-0.41","6487","approach_avoid_sv1","""event"",""trial"",""time""
""fullscreenenter"",""1"",""2057""
","
","
","""event"",""trial"",""time""
""fullscreenenter"",""1"",""2057""
","
","","","","","","null","<div style=""font-size:60px;"">+</div>","null","","fixation","","",""
"memory-trial","126","387747","0.0-18.0-1.41","6487","approach_avoid_sv1","""event"",""trial"",""time""
""fullscreenenter"",""1"",""2057""
","
","
","""event"",""trial"",""time""
""fullscreenenter"",""1"",""2057""
","
","","","","","","1137.7000000029802","images/chair5.png","","","memory_trial","1","definitely_old",""
"html-button-response","127","390316","0.0-18.0-2.41-0.41","6487","approach_avoid_sv1","""event"",""trial"",""time""
""fullscreenenter"",""1"",""2057""
","
","
","""event"",""trial"",""time""
""fullscreenenter"",""1"",""2057""
","
","","","","","","2562.199999999255","<p> Take a break! </p><p> Click the button to continue. </p>","0","","break","","",""
"html-keyboard-response","128","390820","0.0-18.0-0.42","6487","approach_avoid_sv1","""event"",""trial"",""time""
""fullscreenenter"",""1"",""2057""
","
","
","""event"",""trial"",""time""
""fullscreenenter"",""1"",""2057""
","
","","","","","","null","<div style=""font-size:60px;"">+</div>","null","","fixation","","",""
"memory-trial","129","392924","0.0-18.0-1.42","6487","approach_avoid_sv1","""event"",""trial"",""time""
""fullscreenenter"",""1"",""2057""
","
","
","""event"",""trial"",""time""
""fullscreenenter"",""1"",""2057""
","
","","","","","","1091.1000000014901","images/banana3.png","","","memory_trial","1","definitely_old",""
"html-keyboard-response","130","393429","0.0-18.0-0.43","6487","approach_avoid_sv1","""event"",""trial"",""time""
""fullscreenenter"",""1"",""2057""
","
","
","""event"",""trial"",""time""
""fullscreenenter"",""1"",""2057""
","
","","","","","","null","<div style=""font-size:60px;"">+</div>","null","","fixation","","",""
"memory-trial","131","397084","0.0-18.0-1.43","6487","approach_avoid_sv1","""event"",""trial"",""time""
""fullscreenenter"",""1"",""2057""
","
","
","""event"",""trial"",""time""
""fullscreenenter"",""1"",""2057""
","
","","","","","","2640.900000002235","images/rabbit3.png","","","memory_trial","3","maybe_new",""
"html-keyboard-response","132","397590","0.0-18.0-0.44","6487","approach_avoid_sv1","""event"",""trial"",""time""
""fullscreenenter"",""1"",""2057""
","
","
","""event"",""trial"",""time""
""fullscreenenter"",""1"",""2057""
","
","","","","","","null","<div style=""font-size:60px;"">+</div>","null","","fixation","","",""
"memory-trial","133","399698","0.0-18.0-1.44","6487","approach_avoid_sv1","""event"",""trial"",""time""
""fullscreenenter"",""1"",""2057""
","
","
","""event"",""trial"",""time""
""fullscreenenter"",""1"",""2057""
","
","","","","","","1094.300000000745","images/sofa3.png","","","memory_trial","3","maybe_new",""
"html-keyboard-response","134","400202","0.0-18.0-0.45","6487","approach_avoid_sv1","""event"",""trial"",""time""
""fullscreenenter"",""1"",""2057""
","
","
","""event"",""trial"",""time""
""fullscreenenter"",""1"",""2057""
","
","","","","","","null","<div style=""font-size:60px;"">+</div>","null","","fixation","","",""
"memory-trial","135","401974","0.0-18.0-1.45","6487","approach_avoid_sv1","""event"",""trial"",""time""
""fullscreenenter"",""1"",""2057""
","
","
","""event"",""trial"",""time""
""fullscreenenter"",""1"",""2057""
","
","","","","","","759.6000000014901","images/cactus1.png","","","memory_trial","4","definitely_new",""
"html-keyboard-response","136","402477","0.0-18.0-0.46","6487","approach_avoid_sv1","""event"",""trial"",""time""
""fullscreenenter"",""1"",""2057""
","
","
","""event"",""trial"",""time""
""fullscreenenter"",""1"",""2057""
","
","","","","","","null","<div style=""font-size:60px;"">+</div>","null","","fixation","","",""
"memory-trial","137","404666","0.0-18.0-1.46","6487","approach_avoid_sv1","""event"",""trial"",""time""
""fullscreenenter"",""1"",""2057""
","
","
","""event"",""trial"",""time""
""fullscreenenter"",""1"",""2057""
","
","","","","","","1177.4000000022352","images/sheep7.png","","","memory_trial","4","definitely_new",""
"html-keyboard-response","138","405171","0.0-18.0-0.47","6487","approach_avoid_sv1","""event"",""trial"",""time""
""fullscreenenter"",""1"",""2057""
","
","
","""event"",""trial"",""time""
""fullscreenenter"",""1"",""2057""
","
","","","","","","null","<div style=""font-size:60px;"">+</div>","null","","fixation","","",""
"memory-trial","139","407606","0.0-18.0-1.47","6487","approach_avoid_sv1","""event"",""trial"",""time""
""fullscreenenter"",""1"",""2057""
","
","
","""event"",""trial"",""time""
""fullscreenenter"",""1"",""2057""
","
","","","","","","1424.0999999977648","images/flower4.png","","","memory_trial","1","definitely_old",""
"html-keyboard-response","140","408109","0.0-18.0-0.48","6487","approach_avoid_sv1","""event"",""trial"",""time""
""fullscreenenter"",""1"",""2057""
","
","
","""event"",""trial"",""time""
""fullscreenenter"",""1"",""2057""
","
","","","","","","null","<div style=""font-size:60px;"">+</div>","null","","fixation","","",""
"memory-trial","141","410977","0.0-18.0-1.48","6487","approach_avoid_sv1","""event"",""trial"",""time""
""fullscreenenter"",""1"",""2057""
","
","
","""event"",""trial"",""time""
""fullscreenenter"",""1"",""2057""
","
","","","","","","1858.5999999977648","images/sofa5.png","","","memory_trial","3","maybe_new",""
"html-keyboard-response","142","411482","0.0-18.0-0.49","6487","approach_avoid_sv1","""event"",""trial"",""time""
""fullscreenenter"",""1"",""2057""
","
","
","""event"",""trial"",""time""
""fullscreenenter"",""1"",""2057""
","
","","","","","","null","<div style=""font-size:60px;"">+</div>","null","","fixation","","",""
"memory-trial","143","413510","0.0-18.0-1.49","6487","approach_avoid_sv1","""event"",""trial"",""time""
""fullscreenenter"",""1"",""2057""
","
","
","""event"",""trial"",""time""
""fullscreenenter"",""1"",""2057""
","
","","","","","","1014.6000000014901","images/rodent2.png","","","memory_trial","4","definitely_new",""
"html-keyboard-response","144","414015","0.0-18.0-0.50","6487","approach_avoid_sv1","""event"",""trial"",""time""
""fullscreenenter"",""1"",""2057""
","
","
","""event"",""trial"",""time""
""fullscreenenter"",""1"",""2057""
","
","","","","","","null","<div style=""font-size:60px;"">+</div>","null","","fixation","","",""
"memory-trial","145","416591","0.0-18.0-1.50","6487","approach_avoid_sv1","""event"",""trial"",""time""
""fullscreenenter"",""1"",""2057""
","
","
","""event"",""trial"",""time""
""fullscreenenter"",""1"",""2057""
","
","","","","","","1559.0999999977648","images/dog8.png","","","memory_trial","1","definitely_old",""
"html-keyboard-response","146","417096","0.0-18.0-0.51","6487","approach_avoid_sv1","""event"",""trial"",""time""
""fullscreenenter"",""1"",""2057""
","
","
","""event"",""trial"",""time""
""fullscreenenter"",""1"",""2057""
","
","","","","","","null","<div style=""font-size:60px;"">+</div>","null","","fixation","","",""
"memory-trial","147","418909","0.0-18.0-1.51","6487","approach_avoid_sv1","""event"",""trial"",""time""
""fullscreenenter"",""1"",""2057""
","
","
","""event"",""trial"",""time""
""fullscreenenter"",""1"",""2057""
","
","","","","","","798","images/bush4.png","","","memory_trial","1","definitely_old",""
"html-keyboard-response","148","419414","0.0-18.0-0.52","6487","approach_avoid_sv1","""event"",""trial"",""time""
""fullscreenenter"",""1"",""2057""
","
","
","""event"",""trial"",""time""
""fullscreenenter"",""1"",""2057""
","
","","","","","","null","<div style=""font-size:60px;"">+</div>","null","","fixation","","",""
"memory-trial","149","422035","0.0-18.0-1.52","6487","approach_avoid_sv1","""event"",""trial"",""time""
""fullscreenenter"",""1"",""2057""
","
","
","""event"",""trial"",""time""
""fullscreenenter"",""1"",""2057""
","
","","","","","","1607.699999999255","images/flower2.png","","","memory_trial","3","maybe_new",""
"html-keyboard-response","150","422540","0.0-18.0-0.53","6487","approach_avoid_sv1","""event"",""trial"",""time""
""fullscreenenter"",""1"",""2057""
","
","
","""event"",""trial"",""time""
""fullscreenenter"",""1"",""2057""
","
","","","","","","null","<div style=""font-size:60px;"">+</div>","null","","fixation","","",""
"memory-trial","151","424288","0.0-18.0-1.53","6487","approach_avoid_sv1","""event"",""trial"",""time""
""fullscreenenter"",""1"",""2057""
","
","
","""event"",""trial"",""time""
""fullscreenenter"",""1"",""2057""
","
","","","","","","735.5999999977648","images/boat2.png","","","memory_trial","1","definitely_old",""
"html-keyboard-response","152","424791","0.0-18.0-0.54","6487","approach_avoid_sv1","""event"",""trial"",""time""
""fullscreenenter"",""1"",""2057""
","
","
","""event"",""trial"",""time""
""fullscreenenter"",""1"",""2057""
","
","","","","","","null","<div style=""font-size:60px;"">+</div>","null","","fixation","","",""
"memory-trial","153","426635","0.0-18.0-1.54","6487","approach_avoid_sv1","""event"",""trial"",""time""
""fullscreenenter"",""1"",""2057""
","
","
","""event"",""trial"",""time""
""fullscreenenter"",""1"",""2057""
","
","","","","","","831.8999999985099","images/train1.png","","","memory_trial","4","definitely_new",""
"html-keyboard-response","154","427140","0.0-18.0-0.55","6487","approach_avoid_sv1","""event"",""trial"",""time""
""fullscreenenter"",""1"",""2057""
","
","
","""event"",""trial"",""time""
""fullscreenenter"",""1"",""2057""
","
","","","","","","null","<div style=""font-size:60px;"">+</div>","null","","fixation","","",""
"memory-trial","155","429034","0.0-18.0-1.55","6487","approach_avoid_sv1","""event"",""trial"",""time""
""fullscreenenter"",""1"",""2057""
","
","
","""event"",""trial"",""time""
""fullscreenenter"",""1"",""2057""
","
","","","","","","884.6000000014901","images/bed6.png","","","memory_trial","1","definitely_old",""
"html-keyboard-response","156","429539","0.0-18.0-0.56","6487","approach_avoid_sv1","""event"",""trial"",""time""
""fullscreenenter"",""1"",""2057""
","
","
","""event"",""trial"",""time""
""fullscreenenter"",""1"",""2057""
","
","","","","","","null","<div style=""font-size:60px;"">+</div>","null","","fixation","","",""
"memory-trial","157","431625","0.0-18.0-1.56","6487","approach_avoid_sv1","""event"",""trial"",""time""
""fullscreenenter"",""1"",""2057""
","
","
","""event"",""trial"",""time""
""fullscreenenter"",""1"",""2057""
","
","","","","","","1074","images/flower3.png","","","memory_trial","4","definitely_new",""
"html-keyboard-response","158","432128","0.0-18.0-0.57","6487","approach_avoid_sv1","""event"",""trial"",""time""
""fullscreenenter"",""1"",""2057""
","
","
","""event"",""trial"",""time""
""fullscreenenter"",""1"",""2057""
","
","","","","","","null","<div style=""font-size:60px;"">+</div>","null","","fixation","","",""
"memory-trial","159","438117","0.0-18.0-1.57","6487","approach_avoid_sv1","""event"",""trial"",""time""
""fullscreenenter"",""1"",""2057""
","
","
","""event"",""trial"",""time""
""fullscreenenter"",""1"",""2057""
","
","","","","","","4979","images/cat3.png","","","memory_trial","4","definitely_new",""
"html-keyboard-response","160","438623","0.0-18.0-0.58","6487","approach_avoid_sv1","""event"",""trial"",""time""
""fullscreenenter"",""1"",""2057""
","
","
","""event"",""trial"",""time""
""fullscreenenter"",""1"",""2057""
","
","","","","","","null","<div style=""font-size:60px;"">+</div>","null","","fixation","","",""
"memory-trial","161","440330","0.0-18.0-1.58","6487","approach_avoid_sv1","""event"",""trial"",""time""
""fullscreenenter"",""1"",""2057""
","
","
","""event"",""trial"",""time""
""fullscreenenter"",""1"",""2057""
","
","","","","","","695.8000000007451","images/train2.png","","","memory_trial","4","definitely_new",""
"html-keyboard-response","162","440836","0.0-18.0-0.59","6487","approach_avoid_sv1","""event"",""trial"",""time""
""fullscreenenter"",""1"",""2057""
","
","
","""event"",""trial"",""time""
""fullscreenenter"",""1"",""2057""
","
","","","","","","null","<div style=""font-size:60px;"">+</div>","null","","fixation","","",""
"memory-trial","163","442494","0.0-18.0-1.59","6487","approach_avoid_sv1","""event"",""trial"",""time""
""fullscreenenter"",""1"",""2057""
","
","
","""event"",""trial"",""time""
""fullscreenenter"",""1"",""2057""
","
","","","","","","643.6000000014901","images/straw3.png","","","memory_trial","1","definitely_old",""
"html-keyboard-response","164","442999","0.0-18.0-0.60","6487","approach_avoid_sv1","""event"",""trial"",""time""
""fullscreenenter"",""1"",""2057""
","
","
","""event"",""trial"",""time""
""fullscreenenter"",""1"",""2057""
","
","","","","","","null","<div style=""font-size:60px;"">+</div>","null","","fixation","","",""
"memory-trial","165","446139","0.0-18.0-1.60","6487","approach_avoid_sv1","""event"",""trial"",""time""
""fullscreenenter"",""1"",""2057""
","
","
","""event"",""trial"",""time""
""fullscreenenter"",""1"",""2057""
","
","","","","","","2133.39999999851","images/dog4.png","","","memory_trial","1","definitely_old",""
"html-keyboard-response","166","446645","0.0-18.0-0.61","6487","approach_avoid_sv1","""event"",""trial"",""time""
""fullscreenenter"",""1"",""2057""
","
","
","""event"",""trial"",""time""
""fullscreenenter"",""1"",""2057""
","
","","","","","","null","<div style=""font-size:60px;"">+</div>","null","","fixation","","",""
"memory-trial","167","448802","0.0-18.0-1.61","6487","approach_avoid_sv1","""event"",""trial"",""time""
""fullscreenenter"",""1"",""2057""
","
","
","""event"",""trial"",""time""
""fullscreenenter"",""1"",""2057""
","
","","","","","","1148.3999999985099","images/truck1.png","","","memory_trial","4","definitely_new",""
"html-keyboard-response","168","449308","0.0-18.0-0.62","6487","approach_avoid_sv1","""event"",""trial"",""time""
""fullscreenenter"",""1"",""2057""
","
","
","""event"",""trial"",""time""
""fullscreenenter"",""1"",""2057""
","
","","","","","","null","<div style=""font-size:60px;"">+</div>","null","","fixation","","",""
"memory-trial","169","452544","0.0-18.0-1.62","6487","approach_avoid_sv1","""event"",""trial"",""time""
""fullscreenenter"",""1"",""2057""
","
","
","""event"",""trial"",""time""
""fullscreenenter"",""1"",""2057""
","
","","","","","","2221.300000000745","images/truck8.png","","","memory_trial","1","definitely_old",""
"html-keyboard-response","170","453048","0.0-18.0-0.63","6487","approach_avoid_sv1","""event"",""trial"",""time""
""fullscreenenter"",""1"",""2057""
","
","
","""event"",""trial"",""time""
""fullscreenenter"",""1"",""2057""
","
","","","","","","null","<div style=""font-size:60px;"">+</div>","null","","fixation","","",""
"memory-trial","171","455216","0.0-18.0-1.63","6487","approach_avoid_sv1","""event"",""trial"",""time""
""fullscreenenter"",""1"",""2057""
","
","
","""event"",""trial"",""time""
""fullscreenenter"",""1"",""2057""
","
","","","","","","1155.1000000014901","images/dog6.png","","","memory_trial","1","definitely_old",""
"html-keyboard-response","172","455719","0.0-18.0-0.64","6487","approach_avoid_sv1","""event"",""trial"",""time""
""fullscreenenter"",""1"",""2057""
","
","
","""event"",""trial"",""time""
""fullscreenenter"",""1"",""2057""
","
","","","","","","null","<div style=""font-size:60px;"">+</div>","null","","fixation","","",""
"memory-trial","173","457813","0.0-18.0-1.64","6487","approach_avoid_sv1","""event"",""trial"",""time""
""fullscreenenter"",""1"",""2057""
","
","
","""event"",""trial"",""time""
""fullscreenenter"",""1"",""2057""
","
","","","","","","1088.300000000745","images/apple8.png","","","memory_trial","2","maybe_old",""
"html-keyboard-response","174","458317","0.0-18.0-0.65","6487","approach_avoid_sv1","""event"",""trial"",""time""
""fullscreenenter"",""1"",""2057""
","
","
","""event"",""trial"",""time""
""fullscreenenter"",""1"",""2057""
","
","","","","","","null","<div style=""font-size:60px;"">+</div>","null","","fixation","","",""
"memory-trial","175","461477","0.0-18.0-1.65","6487","approach_avoid_sv1","""event"",""trial"",""time""
""fullscreenenter"",""1"",""2057""
","
","
","""event"",""trial"",""time""
""fullscreenenter"",""1"",""2057""
","
","","","","","","2147.5","images/banana4.png","","","memory_trial","2","maybe_old",""
"html-keyboard-response","176","461982","0.0-18.0-0.66","6487","approach_avoid_sv1","""event"",""trial"",""time""
""fullscreenenter"",""1"",""2057""
","
","
","""event"",""trial"",""time""
""fullscreenenter"",""1"",""2057""
","
","","","","","","null","<div style=""font-size:60px;"">+</div>","null","","fixation","","",""
"memory-trial","177","463836","0.0-18.0-1.66","6487","approach_avoid_sv1","""event"",""trial"",""time""
""fullscreenenter"",""1"",""2057""
","
","
","""event"",""trial"",""time""
""fullscreenenter"",""1"",""2057""
","
","","","","","","838.2999999970198","images/cactus6.png","","","memory_trial","4","definitely_new",""
"html-keyboard-response","178","464347","0.0-18.0-0.67","6487","approach_avoid_sv1","""event"",""trial"",""time""
""fullscreenenter"",""1"",""2057""
","
","
","""event"",""trial"",""time""
""fullscreenenter"",""1"",""2057""
","
","","","","","","null","<div style=""font-size:60px;"">+</div>","null","","fixation","","",""
"memory-trial","179","466765","0.0-18.0-1.67","6487","approach_avoid_sv1","""event"",""trial"",""time""
""fullscreenenter"",""1"",""2057""
","
","
","""event"",""trial"",""time""
""fullscreenenter"",""1"",""2057""
","
","","","","","","1409.0999999977648","images/plane8.png","","","memory_trial","1","definitely_old",""
"html-keyboard-response","180","467270","0.0-18.0-0.68","6487","approach_avoid_sv1","""event"",""trial"",""time""
""fullscreenenter"",""1"",""2057""
","
","
","""event"",""trial"",""time""
""fullscreenenter"",""1"",""2057""
","
","","","","","","null","<div style=""font-size:60px;"">+</div>","null","","fixation","","",""
"memory-trial","181","469342","0.0-18.0-1.68","6487","approach_avoid_sv1","""event"",""trial"",""time""
""fullscreenenter"",""1"",""2057""
","
","
","""event"",""trial"",""time""
""fullscreenenter"",""1"",""2057""
","
","","","","","","1058.800000000745","images/sofa8.png","","","memory_trial","4","definitely_new",""
"html-keyboard-response","182","469845","0.0-18.0-0.69","6487","approach_avoid_sv1","""event"",""trial"",""time""
""fullscreenenter"",""1"",""2057""
","
","
","""event"",""trial"",""time""
""fullscreenenter"",""1"",""2057""
","
","","","","","","null","<div style=""font-size:60px;"">+</div>","null","","fixation","","",""
"memory-trial","183","471756","0.0-18.0-1.69","6487","approach_avoid_sv1","""event"",""trial"",""time""
""fullscreenenter"",""1"",""2057""
","
","
","""event"",""trial"",""time""
""fullscreenenter"",""1"",""2057""
","
","","","","","","898.5","images/goat5.png","","","memory_trial","1","definitely_old",""
"html-keyboard-response","184","472261","0.0-18.0-0.70","6487","approach_avoid_sv1","""event"",""trial"",""time""
""fullscreenenter"",""1"",""2057""
","
","
","""event"",""trial"",""time""
""fullscreenenter"",""1"",""2057""
","
","","","","","","null","<div style=""font-size:60px;"">+</div>","null","","fixation","","",""
"memory-trial","185","474733","0.0-18.0-1.70","6487","approach_avoid_sv1","""event"",""trial"",""time""
""fullscreenenter"",""1"",""2057""
","
","
","""event"",""trial"",""time""
""fullscreenenter"",""1"",""2057""
","
","","","","","","1459.1000000014901","images/dog3.png","","","memory_trial","1","definitely_old",""
"html-keyboard-response","186","475239","0.0-18.0-0.71","6487","approach_avoid_sv1","""event"",""trial"",""time""
""fullscreenenter"",""1"",""2057""
","
","
","""event"",""trial"",""time""
""fullscreenenter"",""1"",""2057""
","
","","","","","","null","<div style=""font-size:60px;"">+</div>","null","","fixation","","",""
"memory-trial","187","476959","0.0-18.0-1.71","6487","approach_avoid_sv1","""event"",""trial"",""time""
""fullscreenenter"",""1"",""2057""
","
","
","""event"",""trial"",""time""
""fullscreenenter"",""1"",""2057""
","
","","","","","","701.7000000029802","images/cactus4.png","","","memory_trial","4","definitely_new",""
"html-keyboard-response","188","477462","0.0-18.0-0.72","6487","approach_avoid_sv1","""event"",""trial"",""time""
""fullscreenenter"",""1"",""2057""
","
","
","""event"",""trial"",""time""
""fullscreenenter"",""1"",""2057""
","
","","","","","","null","<div style=""font-size:60px;"">+</div>","null","","fixation","","",""
"memory-trial","189","479099","0.0-18.0-1.72","6487","approach_avoid_sv1","""event"",""trial"",""time""
""fullscreenenter"",""1"",""2057""
","
","
","""event"",""trial"",""time""
""fullscreenenter"",""1"",""2057""
","
","","","","","","627.9000000022352","images/train8.png","","","memory_trial","4","definitely_new",""
"html-keyboard-response","190","479603","0.0-18.0-0.73","6487","approach_avoid_sv1","""event"",""trial"",""time""
""fullscreenenter"",""1"",""2057""
","
","
","""event"",""trial"",""time""
""fullscreenenter"",""1"",""2057""
","
","","","","","","null","<div style=""font-size:60px;"">+</div>","null","","fixation","","",""
"memory-trial","191","481647","0.0-18.0-1.73","6487","approach_avoid_sv1","""event"",""trial"",""time""
""fullscreenenter"",""1"",""2057""
","
","
","""event"",""trial"",""time""
""fullscreenenter"",""1"",""2057""
","
","","","","","","1027.6000000014901","images/horse1.png","","","memory_trial","4","definitely_new",""
"html-keyboard-response","192","482151","0.0-18.0-0.74","6487","approach_avoid_sv1","""event"",""trial"",""time""
""fullscreenenter"",""1"",""2057""
","
","
","""event"",""trial"",""time""
""fullscreenenter"",""1"",""2057""
","
","","","","","","null","<div style=""font-size:60px;"">+</div>","null","","fixation","","",""
"memory-trial","193","486041","0.0-18.0-1.74","6487","approach_avoid_sv1","""event"",""trial"",""time""
""fullscreenenter"",""1"",""2057""
","
","
","""event"",""trial"",""time""
""fullscreenenter"",""1"",""2057""
","
","","","","","","2876.300000000745","images/bush2.png","","","memory_trial","1","definitely_old",""
"html-keyboard-response","194","486546","0.0-18.0-0.75","6487","approach_avoid_sv1","""event"",""trial"",""time""
""fullscreenenter"",""1"",""2057""
","
","
","""event"",""trial"",""time""
""fullscreenenter"",""1"",""2057""
","
","","","","","","null","<div style=""font-size:60px;"">+</div>","null","","fixation","","",""
"memory-trial","195","488556","0.0-18.0-1.75","6487","approach_avoid_sv1","""event"",""trial"",""time""
""fullscreenenter"",""1"",""2057""
","
","
","""event"",""trial"",""time""
""fullscreenenter"",""1"",""2057""
","
","","","","","","999.6000000014901","images/dog5.png","","","memory_trial","4","definitely_new",""
"html-keyboard-response","196","489059","0.0-18.0-0.76","6487","approach_avoid_sv1","""event"",""trial"",""time""
""fullscreenenter"",""1"",""2057""
","
","
","""event"",""trial"",""time""
""fullscreenenter"",""1"",""2057""
","
","","","","","","null","<div style=""font-size:60px;"">+</div>","null","","fixation","","",""
"memory-trial","197","490859","0.0-18.0-1.76","6487","approach_avoid_sv1","""event"",""trial"",""time""
""fullscreenenter"",""1"",""2057""
","
","
","""event"",""trial"",""time""
""fullscreenenter"",""1"",""2057""
","
","","","","","","787.5","images/rabbit2.png","","","memory_trial","1","definitely_old",""
"html-keyboard-response","198","491364","0.0-18.0-0.77","6487","approach_avoid_sv1","""event"",""trial"",""time""
""fullscreenenter"",""1"",""2057""
","
","
","""event"",""trial"",""time""
""fullscreenenter"",""1"",""2057""
","
","","","","","","null","<div style=""font-size:60px;"">+</div>","null","","fixation","","",""
"memory-trial","199","493192","0.0-18.0-1.77","6487","approach_avoid_sv1","""event"",""trial"",""time""
""fullscreenenter"",""1"",""2057""
","
","
","""event"",""trial"",""time""
""fullscreenenter"",""1"",""2057""
","
","","","","","","816.4000000022352","images/bed8.png","","","memory_trial","1","definitely_old",""
"html-keyboard-response","200","493696","0.0-18.0-0.78","6487","approach_avoid_sv1","""event"",""trial"",""time""
""fullscreenenter"",""1"",""2057""
","
","
","""event"",""trial"",""time""
""fullscreenenter"",""1"",""2057""
","
","","","","","","null","<div style=""font-size:60px;"">+</div>","null","","fixation","","",""
"memory-trial","201","495956","0.0-18.0-1.78","6487","approach_avoid_sv1","""event"",""trial"",""time""
""fullscreenenter"",""1"",""2057""
","
","
","""event"",""trial"",""time""
""fullscreenenter"",""1"",""2057""
","
","","","","","","1248.199999999255","images/apple7.png","","","memory_trial","2","maybe_old",""
"html-keyboard-response","202","496460","0.0-18.0-0.79","6487","approach_avoid_sv1","""event"",""trial"",""time""
""fullscreenenter"",""1"",""2057""
","
","
","""event"",""trial"",""time""
""fullscreenenter"",""1"",""2057""
","
","","","","","","null","<div style=""font-size:60px;"">+</div>","null","","fixation","","",""
"memory-trial","203","498380","0.0-18.0-1.79","6487","approach_avoid_sv1","""event"",""trial"",""time""
""fullscreenenter"",""1"",""2057""
","
","
","""event"",""trial"",""time""
""fullscreenenter"",""1"",""2057""
","
","","","","","","909.6999999992549","images/tree5.png","","","memory_trial","1","definitely_old",""
"html-keyboard-response","204","498883","0.0-18.0-0.80","6487","approach_avoid_sv1","""event"",""trial"",""time""
""fullscreenenter"",""1"",""2057""
","
","
","""event"",""trial"",""time""
""fullscreenenter"",""1"",""2057""
","
","","","","","","null","<div style=""font-size:60px;"">+</div>","null","","fixation","","",""
"memory-trial","205","501290","0.0-18.0-1.80","6487","approach_avoid_sv1","""event"",""trial"",""time""
""fullscreenenter"",""1"",""2057""
","
","
","""event"",""trial"",""time""
""fullscreenenter"",""1"",""2057""
","
","","","","","","1396.699999999255","images/rodent4.png","","","memory_trial","4","definitely_new",""
"html-keyboard-response","206","501794","0.0-18.0-0.81","6487","approach_avoid_sv1","""event"",""trial"",""time""
""fullscreenenter"",""1"",""2057""
","
","
","""event"",""trial"",""time""
""fullscreenenter"",""1"",""2057""
","
","","","","","","null","<div style=""font-size:60px;"">+</div>","null","","fixation","","",""
"memory-trial","207","503927","0.0-18.0-1.81","6487","approach_avoid_sv1","""event"",""trial"",""time""
""fullscreenenter"",""1"",""2057""
","
","
","""event"",""trial"",""time""
""fullscreenenter"",""1"",""2057""
","
","","","","","","1126","images/bed7.png","","","memory_trial","2","maybe_old",""
"html-keyboard-response","208","504432","0.0-18.0-0.82","6487","approach_avoid_sv1","""event"",""trial"",""time""
""fullscreenenter"",""1"",""2057""
","
","
","""event"",""trial"",""time""
""fullscreenenter"",""1"",""2057""
","
","","","","","","null","<div style=""font-size:60px;"">+</div>","null","","fixation","","",""
"memory-trial","209","506530","0.0-18.0-1.82","6487","approach_avoid_sv1","""event"",""trial"",""time""
""fullscreenenter"",""1"",""2057""
","
","
","""event"",""trial"",""time""
""fullscreenenter"",""1"",""2057""
","
","","","","","","1090.699999999255","images/table4.png","","","memory_trial","3","maybe_new",""
"html-keyboard-response","210","507034","0.0-18.0-0.83","6487","approach_avoid_sv1","""event"",""trial"",""time""
""fullscreenenter"",""1"",""2057""
","
","
","""event"",""trial"",""time""
""fullscreenenter"",""1"",""2057""
","
","","","","","","null","<div style=""font-size:60px;"">+</div>","null","","fixation","","",""
"memory-trial","211","509145","0.0-18.0-1.83","6487","approach_avoid_sv1","""event"",""trial"",""time""
""fullscreenenter"",""1"",""2057""
","
","
","""event"",""trial"",""time""
""fullscreenenter"",""1"",""2057""
","
","","","","","","1098.800000000745","images/train6.png","","","memory_trial","4","definitely_new",""
"html-keyboard-response","212","509649","0.0-18.0-0.84","6487","approach_avoid_sv1","""event"",""trial"",""time""
""fullscreenenter"",""1"",""2057""
","
","
","""event"",""trial"",""time""
""fullscreenenter"",""1"",""2057""
","
","","","","","","null","<div style=""font-size:60px;"">+</div>","null","","fixation","","",""
"memory-trial","213","511634","0.0-18.0-1.84","6487","approach_avoid_sv1","""event"",""trial"",""time""
""fullscreenenter"",""1"",""2057""
","
","
","""event"",""trial"",""time""
""fullscreenenter"",""1"",""2057""
","
","","","","","","972.8000000007451","images/chair7.png","","","memory_trial","4","definitely_new",""
"html-keyboard-response","214","512138","0.0-18.0-0.85","6487","approach_avoid_sv1","""event"",""trial"",""time""
""fullscreenenter"",""1"",""2057""
","
","
","""event"",""trial"",""time""
""fullscreenenter"",""1"",""2057""
","
","","","","","","null","<div style=""font-size:60px;"">+</div>","null","","fixation","","",""
"memory-trial","215","516013","0.0-18.0-1.85","6487","approach_avoid_sv1","""event"",""trial"",""time""
""fullscreenenter"",""1"",""2057""
","
","
","""event"",""trial"",""time""
""fullscreenenter"",""1"",""2057""
","
","","","","","","2861.300000000745","images/sheep1.png","","","memory_trial","1","definitely_old",""
"html-keyboard-response","216","516516","0.0-18.0-0.86","6487","approach_avoid_sv1","""event"",""trial"",""time""
""fullscreenenter"",""1"",""2057""
","
","
","""event"",""trial"",""time""
""fullscreenenter"",""1"",""2057""
","
","","","","","","null","<div style=""font-size:60px;"">+</div>","null","","fixation","","",""
"memory-trial","217","519316","0.0-18.0-1.86","6487","approach_avoid_sv1","""event"",""trial"",""time""
""fullscreenenter"",""1"",""2057""
","
","
","""event"",""trial"",""time""
""fullscreenenter"",""1"",""2057""
","
","","","","","","1788.8999999985099","images/orange6.png","","","memory_trial","1","definitely_old",""
"html-keyboard-response","218","519820","0.0-18.0-0.87","6487","approach_avoid_sv1","""event"",""trial"",""time""
""fullscreenenter"",""1"",""2057""
","
","
","""event"",""trial"",""time""
""fullscreenenter"",""1"",""2057""
","
","","","","","","null","<div style=""font-size:60px;"">+</div>","null","","fixation","","",""
"memory-trial","219","521491","0.0-18.0-1.87","6487","approach_avoid_sv1","""event"",""trial"",""time""
""fullscreenenter"",""1"",""2057""
","
","
","""event"",""trial"",""time""
""fullscreenenter"",""1"",""2057""
","
","","","","","","661.9000000022352","images/rabbit5.png","","","memory_trial","2","maybe_old",""
"html-keyboard-response","220","521996","0.0-18.0-0.88","6487","approach_avoid_sv1","""event"",""trial"",""time""
""fullscreenenter"",""1"",""2057""
","
","
","""event"",""trial"",""time""
""fullscreenenter"",""1"",""2057""
","
","","","","","","null","<div style=""font-size:60px;"">+</div>","null","","fixation","","",""
"memory-trial","221","524038","0.0-18.0-1.88","6487","approach_avoid_sv1","""event"",""trial"",""time""
""fullscreenenter"",""1"",""2057""
","
","
","""event"",""trial"",""time""
""fullscreenenter"",""1"",""2057""
","
","","","","","","1031","images/rodent6.png","","","memory_trial","4","definitely_new",""
"html-keyboard-response","222","524543","0.0-18.0-0.89","6487","approach_avoid_sv1","""event"",""trial"",""time""
""fullscreenenter"",""1"",""2057""
","
","
","""event"",""trial"",""time""
""fullscreenenter"",""1"",""2057""
","
","","","","","","null","<div style=""font-size:60px;"">+</div>","null","","fixation","","",""
"memory-trial","223","527003","0.0-18.0-1.89","6487","approach_avoid_sv1","""event"",""trial"",""time""
""fullscreenenter"",""1"",""2057""
","
","
","""event"",""trial"",""time""
""fullscreenenter"",""1"",""2057""
","
","","","","","","1447.199999999255","images/horse2.png","","","memory_trial","3","maybe_new",""
"html-keyboard-response","224","527508","0.0-18.0-0.90","6487","approach_avoid_sv1","""event"",""trial"",""time""
""fullscreenenter"",""1"",""2057""
","
","
","""event"",""trial"",""time""
""fullscreenenter"",""1"",""2057""
","
","","","","","","null","<div style=""font-size:60px;"">+</div>","null","","fixation","","",""
"memory-trial","225","529283","0.0-18.0-1.90","6487","approach_avoid_sv1","""event"",""trial"",""time""
""fullscreenenter"",""1"",""2057""
","
","
","""event"",""trial"",""time""
""fullscreenenter"",""1"",""2057""
","
","","","","","","761.6999999992549","images/truck4.png","","","memory_trial","4","definitely_new",""
"html-keyboard-response","226","529788","0.0-18.0-0.91","6487","approach_avoid_sv1","""event"",""trial"",""time""
""fullscreenenter"",""1"",""2057""
","
","
","""event"",""trial"",""time""
""fullscreenenter"",""1"",""2057""
","
","","","","","","null","<div style=""font-size:60px;"">+</div>","null","","fixation","","",""
"memory-trial","227","531680","0.0-18.0-1.91","6487","approach_avoid_sv1","""event"",""trial"",""time""
""fullscreenenter"",""1"",""2057""
","
","
","""event"",""trial"",""time""
""fullscreenenter"",""1"",""2057""
","
","","","","","","878.7999999970198","images/goat1.png","","","memory_trial","4","definitely_new",""
"html-button-response","228","534353","0.0-18.0-2.91-0.91","6487","approach_avoid_sv1","""event"",""trial"",""time""
""fullscreenenter"",""1"",""2057""
","
","
","""event"",""trial"",""time""
""fullscreenenter"",""1"",""2057""
","
","","","","","","2668.300000000745","<p> Take a break! </p><p> Click the button to continue. </p>","0","","break","","",""
"html-keyboard-response","229","534857","0.0-18.0-0.92","6487","approach_avoid_sv1","""event"",""trial"",""time""
""fullscreenenter"",""1"",""2057""
","
","
","""event"",""trial"",""time""
""fullscreenenter"",""1"",""2057""
","
","","","","","","null","<div style=""font-size:60px;"">+</div>","null","","fixation","","",""
"memory-trial","230","536877","0.0-18.0-1.92","6487","approach_avoid_sv1","""event"",""trial"",""time""
""fullscreenenter"",""1"",""2057""
","
","
","""event"",""trial"",""time""
""fullscreenenter"",""1"",""2057""
","
","","","","","","1006.8000000007451","images/flower6.png","","","memory_trial","4","definitely_new",""
"html-keyboard-response","231","537381","0.0-18.0-0.93","6487","approach_avoid_sv1","""event"",""trial"",""time""
""fullscreenenter"",""1"",""2057""
","
","
","""event"",""trial"",""time""
""fullscreenenter"",""1"",""2057""
","
","","","","","","null","<div style=""font-size:60px;"">+</div>","null","","fixation","","",""
"memory-trial","232","538955","0.0-18.0-1.93","6487","approach_avoid_sv1","""event"",""trial"",""time""
""fullscreenenter"",""1"",""2057""
","
","
","""event"",""trial"",""time""
""fullscreenenter"",""1"",""2057""
","
","","","","","","562.8999999985099","images/truck6.png","","","memory_trial","4","definitely_new",""
"html-keyboard-response","233","539459","0.0-18.0-0.94","6487","approach_avoid_sv1","""event"",""trial"",""time""
""fullscreenenter"",""1"",""2057""
","
","
","""event"",""trial"",""time""
""fullscreenenter"",""1"",""2057""
","
","","","","","","null","<div style=""font-size:60px;"">+</div>","null","","fixation","","",""
"memory-trial","234","541317","0.0-18.0-1.94","6487","approach_avoid_sv1","""event"",""trial"",""time""
""fullscreenenter"",""1"",""2057""
","
","
","""event"",""trial"",""time""
""fullscreenenter"",""1"",""2057""
","
","","","","","","847.7000000029802","images/flower8.png","","","memory_trial","4","definitely_new",""
"html-keyboard-response","235","541821","0.0-18.0-0.95","6487","approach_avoid_sv1","""event"",""trial"",""time""
""fullscreenenter"",""1"",""2057""
","
","
","""event"",""trial"",""time""
""fullscreenenter"",""1"",""2057""
","
","","","","","","null","<div style=""font-size:60px;"">+</div>","null","","fixation","","",""
"memory-trial","236","543573","0.0-18.0-1.95","6487","approach_avoid_sv1","""event"",""trial"",""time""
""fullscreenenter"",""1"",""2057""
","
","
","""event"",""trial"",""time""
""fullscreenenter"",""1"",""2057""
","
","","","","","","741.8999999985099","images/orange2.png","","","memory_trial","4","definitely_new",""
"html-keyboard-response","237","544077","0.0-18.0-0.96","6487","approach_avoid_sv1","""event"",""trial"",""time""
""fullscreenenter"",""1"",""2057""
","
","
","""event"",""trial"",""time""
""fullscreenenter"",""1"",""2057""
","
","","","","","","null","<div style=""font-size:60px;"">+</div>","null","","fixation","","",""
"memory-trial","238","545707","0.0-18.0-1.96","6487","approach_avoid_sv1","""event"",""trial"",""time""
""fullscreenenter"",""1"",""2057""
","
","
","""event"",""trial"",""time""
""fullscreenenter"",""1"",""2057""
","
","","","","","","620.3000000007451","images/chair8.png","","","memory_trial","4","definitely_new",""
"html-keyboard-response","239","546212","0.0-18.0-0.97","6487","approach_avoid_sv1","""event"",""trial"",""time""
""fullscreenenter"",""1"",""2057""
","
","
","""event"",""trial"",""time""
""fullscreenenter"",""1"",""2057""
","
","","","","","","null","<div style=""font-size:60px;"">+</div>","null","","fixation","","",""
"memory-trial","240","548695","0.0-18.0-1.97","6487","approach_avoid_sv1","""event"",""trial"",""time""
""fullscreenenter"",""1"",""2057""
","
","
","""event"",""trial"",""time""
""fullscreenenter"",""1"",""2057""
","
","","","","","","1474.4000000022352","images/cow4.png","","","memory_trial","2","maybe_old",""
"html-keyboard-response","241","549200","0.0-18.0-0.98","6487","approach_avoid_sv1","""event"",""trial"",""time""
""fullscreenenter"",""1"",""2057""
","
","
","""event"",""trial"",""time""
""fullscreenenter"",""1"",""2057""
","
","","","","","","null","<div style=""font-size:60px;"">+</div>","null","","fixation","","",""
"memory-trial","242","551603","0.0-18.0-1.98","6487","approach_avoid_sv1","""event"",""trial"",""time""
""fullscreenenter"",""1"",""2057""
","
","
","""event"",""trial"",""time""
""fullscreenenter"",""1"",""2057""
","
","","","","","","1391.3999999985099","images/sheep3.png","","","memory_trial","3","maybe_new",""
"html-keyboard-response","243","552107","0.0-18.0-0.99","6487","approach_avoid_sv1","""event"",""trial"",""time""
""fullscreenenter"",""1"",""2057""
","
","
","""event"",""trial"",""time""
""fullscreenenter"",""1"",""2057""
","
","","","","","","null","<div style=""font-size:60px;"">+</div>","null","","fixation","","",""
"memory-trial","244","553992","0.0-18.0-1.99","6487","approach_avoid_sv1","""event"",""trial"",""time""
""fullscreenenter"",""1"",""2057""
","
","
","""event"",""trial"",""time""
""fullscreenenter"",""1"",""2057""
","
","","","","","","875.5999999977648","images/cat7.png","","","memory_trial","2","maybe_old",""
"html-keyboard-response","245","554496","0.0-18.0-0.100","6487","approach_avoid_sv1","""event"",""trial"",""time""
""fullscreenenter"",""1"",""2057""
","
","
","""event"",""trial"",""time""
""fullscreenenter"",""1"",""2057""
","
","","","","","","null","<div style=""font-size:60px;"">+</div>","null","","fixation","","",""
"memory-trial","246","556919","0.0-18.0-1.100","6487","approach_avoid_sv1","""event"",""trial"",""time""
""fullscreenenter"",""1"",""2057""
","
","
","""event"",""trial"",""time""
""fullscreenenter"",""1"",""2057""
","
","","","","","","1410.5","images/bush7.png","","","memory_trial","3","maybe_new",""
"html-keyboard-response","247","557424","0.0-18.0-0.101","6487","approach_avoid_sv1","""event"",""trial"",""time""
""fullscreenenter"",""1"",""2057""
","
","
","""event"",""trial"",""time""
""fullscreenenter"",""1"",""2057""
","
","","","","","","null","<div style=""font-size:60px;"">+</div>","null","","fixation","","",""
"memory-trial","248","559908","0.0-18.0-1.101","6487","approach_avoid_sv1","""event"",""trial"",""time""
""fullscreenenter"",""1"",""2057""
","
","
","""event"",""trial"",""time""
""fullscreenenter"",""1"",""2057""
","
","","","","","","1472.800000000745","images/boat3.png","","","memory_trial","3","maybe_new",""
"html-keyboard-response","249","560411","0.0-18.0-0.102","6487","approach_avoid_sv1","""event"",""trial"",""time""
""fullscreenenter"",""1"",""2057""
","
","
","""event"",""trial"",""time""
""fullscreenenter"",""1"",""2057""
","
","","","","","","null","<div style=""font-size:60px;"">+</div>","null","","fixation","","",""
"memory-trial","250","563073","0.0-18.0-1.102","6487","approach_avoid_sv1","""event"",""trial"",""time""
""fullscreenenter"",""1"",""2057""
","
","
","""event"",""trial"",""time""
""fullscreenenter"",""1"",""2057""
","
","","","","","","1652.6000000014901","images/dog1.png","","","memory_trial","2","maybe_old",""
"html-keyboard-response","251","563576","0.0-18.0-0.103","6487","approach_avoid_sv1","""event"",""trial"",""time""
""fullscreenenter"",""1"",""2057""
","
","
","""event"",""trial"",""time""
""fullscreenenter"",""1"",""2057""
","
","","","","","","null","<div style=""font-size:60px;"">+</div>","null","","fixation","","",""
"memory-trial","252","566559","0.0-18.0-1.103","6487","approach_avoid_sv1","""event"",""trial"",""time""
""fullscreenenter"",""1"",""2057""
","
","
","""event"",""trial"",""time""
""fullscreenenter"",""1"",""2057""
","
","","","","","","1971.5","images/sheep5.png","","","memory_trial","4","definitely_new",""
"html-keyboard-response","253","567064","0.0-18.0-0.104","6487","approach_avoid_sv1","""event"",""trial"",""time""
""fullscreenenter"",""1"",""2057""
","
","
","""event"",""trial"",""time""
""fullscreenenter"",""1"",""2057""
","
","","","","","","null","<div style=""font-size:60px;"">+</div>","null","","fixation","","",""
"memory-trial","254","569743","0.0-18.0-1.104","6487","approach_avoid_sv1","""event"",""trial"",""time""
""fullscreenenter"",""1"",""2057""
","
","
","""event"",""trial"",""time""
""fullscreenenter"",""1"",""2057""
","
","","","","","","1667.5","images/cat1.png","","","memory_trial","2","maybe_old",""
"html-keyboard-response","255","570247","0.0-18.0-0.105","6487","approach_avoid_sv1","""event"",""trial"",""time""
""fullscreenenter"",""1"",""2057""
","
","
","""event"",""trial"",""time""
""fullscreenenter"",""1"",""2057""
","
","","","","","","null","<div style=""font-size:60px;"">+</div>","null","","fixation","","",""
"memory-trial","256","572131","0.0-18.0-1.105","6487","approach_avoid_sv1","""event"",""trial"",""time""
""fullscreenenter"",""1"",""2057""
","
","
","""event"",""trial"",""time""
""fullscreenenter"",""1"",""2057""
","
","","","","","","873.0999999977648","images/cactus5.png","","","memory_trial","4","definitely_new",""
"html-keyboard-response","257","572635","0.0-18.0-0.106","6487","approach_avoid_sv1","""event"",""trial"",""time""
""fullscreenenter"",""1"",""2057""
","
","
","""event"",""trial"",""time""
""fullscreenenter"",""1"",""2057""
","
","","","","","","null","<div style=""font-size:60px;"">+</div>","null","","fixation","","",""
"memory-trial","258","574505","0.0-18.0-1.106","6487","approach_avoid_sv1","""event"",""trial"",""time""
""fullscreenenter"",""1"",""2057""
","
","
","""event"",""trial"",""time""
""fullscreenenter"",""1"",""2057""
","
","","","","","","861.1000000014901","images/sofa1.png","","","memory_trial","4","definitely_new",""
"html-keyboard-response","259","575009","0.0-18.0-0.107","6487","approach_avoid_sv1","""event"",""trial"",""time""
""fullscreenenter"",""1"",""2057""
","
","
","""event"",""trial"",""time""
""fullscreenenter"",""1"",""2057""
","
","","","","","","null","<div style=""font-size:60px;"">+</div>","null","","fixation","","",""
"memory-trial","260","576740","0.0-18.0-1.107","6487","approach_avoid_sv1","""event"",""trial"",""time""
""fullscreenenter"",""1"",""2057""
","
","
","""event"",""trial"",""time""
""fullscreenenter"",""1"",""2057""
","
","","","","","","721.3999999985099","images/goat6.png","","","memory_trial","3","maybe_new",""
"html-keyboard-response","261","577244","0.0-18.0-0.108","6487","approach_avoid_sv1","""event"",""trial"",""time""
""fullscreenenter"",""1"",""2057""
","
","
","""event"",""trial"",""time""
""fullscreenenter"",""1"",""2057""
","
","","","","","","null","<div style=""font-size:60px;"">+</div>","null","","fixation","","",""
"memory-trial","262","579666","0.0-18.0-1.108","6487","approach_avoid_sv1","""event"",""trial"",""time""
""fullscreenenter"",""1"",""2057""
","
","
","""event"",""trial"",""time""
""fullscreenenter"",""1"",""2057""
","
","","","","","","1414.1000000014901","images/cow1.png","","","memory_trial","3","maybe_new",""
"html-keyboard-response","263","580170","0.0-18.0-0.109","6487","approach_avoid_sv1","""event"",""trial"",""time""
""fullscreenenter"",""1"",""2057""
","
","
","""event"",""trial"",""time""
""fullscreenenter"",""1"",""2057""
","
","","","","","","null","<div style=""font-size:60px;"">+</div>","null","","fixation","","",""
"memory-trial","264","582843","0.0-18.0-1.109","6487","approach_avoid_sv1","""event"",""trial"",""time""
""fullscreenenter"",""1"",""2057""
","
","
","""event"",""trial"",""time""
""fullscreenenter"",""1"",""2057""
","
","","","","","","1659.4000000022352","images/cow6.png","","","memory_trial","4","definitely_new",""
"html-keyboard-response","265","583347","0.0-18.0-0.110","6487","approach_avoid_sv1","""event"",""trial"",""time""
""fullscreenenter"",""1"",""2057""
","
","
","""event"",""trial"",""time""
""fullscreenenter"",""1"",""2057""
","
","","","","","","null","<div style=""font-size:60px;"">+</div>","null","","fixation","","",""
"memory-trial","266","586132","0.0-18.0-1.110","6487","approach_avoid_sv1","""event"",""trial"",""time""
""fullscreenenter"",""1"",""2057""
","
","
","""event"",""trial"",""time""
""fullscreenenter"",""1"",""2057""
","
","","","","","","1774.3999999985099","images/truck3.png","","","memory_trial","2","maybe_old",""
"html-keyboard-response","267","586634","0.0-18.0-0.111","6487","approach_avoid_sv1","""event"",""trial"",""time""
""fullscreenenter"",""1"",""2057""
","
","
","""event"",""trial"",""time""
""fullscreenenter"",""1"",""2057""
","
","","","","","","null","<div style=""font-size:60px;"">+</div>","null","","fixation","","",""
"memory-trial","268","590527","0.0-18.0-1.111","6487","approach_avoid_sv1","""event"",""trial"",""time""
""fullscreenenter"",""1"",""2057""
","
","
","""event"",""trial"",""time""
""fullscreenenter"",""1"",""2057""
","
","","","","","","2881.199999999255","images/sofa2.png","","","memory_trial","2","maybe_old",""
"html-keyboard-response","269","591031","0.0-18.0-0.112","6487","approach_avoid_sv1","""event"",""trial"",""time""
""fullscreenenter"",""1"",""2057""
","
","
","""event"",""trial"",""time""
""fullscreenenter"",""1"",""2057""
","
","","","","","","null","<div style=""font-size:60px;"">+</div>","null","","fixation","","",""
"memory-trial","270","593134","0.0-18.0-1.112","6487","approach_avoid_sv1","""event"",""trial"",""time""
""fullscreenenter"",""1"",""2057""
","
","
","""event"",""trial"",""time""
""fullscreenenter"",""1"",""2057""
","
","","","","","","1095.800000000745","images/train5.png","","","memory_trial","4","definitely_new",""
"html-keyboard-response","271","593639","0.0-18.0-0.113","6487","approach_avoid_sv1","""event"",""trial"",""time""
""fullscreenenter"",""1"",""2057""
","
","
","""event"",""trial"",""time""
""fullscreenenter"",""1"",""2057""
","
","","","","","","null","<div style=""font-size:60px;"">+</div>","null","","fixation","","",""
"memory-trial","272","596638","0.0-18.0-1.113","6487","approach_avoid_sv1","""event"",""trial"",""time""
""fullscreenenter"",""1"",""2057""
","
","
","""event"",""trial"",""time""
""fullscreenenter"",""1"",""2057""
","
","","","","","","1987.8999999985099","images/truck2.png","","","memory_trial","1","definitely_old",""
"html-keyboard-response","273","597142","0.0-18.0-0.114","6487","approach_avoid_sv1","""event"",""trial"",""time""
""fullscreenenter"",""1"",""2057""
","
","
","""event"",""trial"",""time""
""fullscreenenter"",""1"",""2057""
","
","","","","","","null","<div style=""font-size:60px;"">+</div>","null","","fixation","","",""
"memory-trial","274","599478","0.0-18.0-1.114","6487","approach_avoid_sv1","""event"",""trial"",""time""
""fullscreenenter"",""1"",""2057""
","
","
","""event"",""trial"",""time""
""fullscreenenter"",""1"",""2057""
","
","","","","","","1324","images/bush8.png","","","memory_trial","1","definitely_old",""
"html-keyboard-response","275","599983","0.0-18.0-0.115","6487","approach_avoid_sv1","""event"",""trial"",""time""
""fullscreenenter"",""1"",""2057""
","
","
","""event"",""trial"",""time""
""fullscreenenter"",""1"",""2057""
","
","","","","","","null","<div style=""font-size:60px;"">+</div>","null","","fixation","","",""
"memory-trial","276","602589","0.0-18.0-1.115","6487","approach_avoid_sv1","""event"",""trial"",""time""
""fullscreenenter"",""1"",""2057""
","
","
","""event"",""trial"",""time""
""fullscreenenter"",""1"",""2057""
","
","","","","","","1592.8999999985099","images/rabbit7.png","","","memory_trial","3","maybe_new",""
"html-keyboard-response","277","603092","0.0-18.0-0.116","6487","approach_avoid_sv1","""event"",""trial"",""time""
""fullscreenenter"",""1"",""2057""
","
","
","""event"",""trial"",""time""
""fullscreenenter"",""1"",""2057""
","
","","","","","","null","<div style=""font-size:60px;"">+</div>","null","","fixation","","",""
"memory-trial","278","605188","0.0-18.0-1.116","6487","approach_avoid_sv1","""event"",""trial"",""time""
""fullscreenenter"",""1"",""2057""
","
","
","""event"",""trial"",""time""
""fullscreenenter"",""1"",""2057""
","
","","","","","","1083.5999999977648","images/tree2.png","","","memory_trial","3","maybe_new",""
"html-keyboard-response","279","605692","0.0-18.0-0.117","6487","approach_avoid_sv1","""event"",""trial"",""time""
""fullscreenenter"",""1"",""2057""
","
","
","""event"",""trial"",""time""
""fullscreenenter"",""1"",""2057""
","
","","","","","","null","<div style=""font-size:60px;"">+</div>","null","","fixation","","",""
"memory-trial","280","607984","0.0-18.0-1.117","6487","approach_avoid_sv1","""event"",""trial"",""time""
""fullscreenenter"",""1"",""2057""
","
","
","""event"",""trial"",""time""
""fullscreenenter"",""1"",""2057""
","
","","","","","","1279.699999999255","images/horse7.png","","","memory_trial","3","maybe_new",""
"html-keyboard-response","281","608489","0.0-18.0-0.118","6487","approach_avoid_sv1","""event"",""trial"",""time""
""fullscreenenter"",""1"",""2057""
","
","
","""event"",""trial"",""time""
""fullscreenenter"",""1"",""2057""
","
","","","","","","null","<div style=""font-size:60px;"">+</div>","null","","fixation","","",""
"memory-trial","282","610833","0.0-18.0-1.118","6487","approach_avoid_sv1","""event"",""trial"",""time""
""fullscreenenter"",""1"",""2057""
","
","
","""event"",""trial"",""time""
""fullscreenenter"",""1"",""2057""
","
","","","","","","1331.800000000745","images/chair3.png","","","memory_trial","2","maybe_old",""
"html-keyboard-response","283","611338","0.0-18.0-0.119","6487","approach_avoid_sv1","""event"",""trial"",""time""
""fullscreenenter"",""1"",""2057""
","
","
","""event"",""trial"",""time""
""fullscreenenter"",""1"",""2057""
","
","","","","","","null","<div style=""font-size:60px;"">+</div>","null","","fixation","","",""
"memory-trial","284","614634","0.0-18.0-1.119","6487","approach_avoid_sv1","""event"",""trial"",""time""
""fullscreenenter"",""1"",""2057""
","
","
","""event"",""trial"",""time""
""fullscreenenter"",""1"",""2057""
","
","","","","","","2284.5","images/straw6.png","","","memory_trial","1","definitely_old",""
"html-keyboard-response","285","615138","0.0-18.0-0.120","6487","approach_avoid_sv1","""event"",""trial"",""time""
""fullscreenenter"",""1"",""2057""
","
","
","""event"",""trial"",""time""
""fullscreenenter"",""1"",""2057""
","
","","","","","","null","<div style=""font-size:60px;"">+</div>","null","","fixation","","",""
"memory-trial","286","617757","0.0-18.0-1.120","6487","approach_avoid_sv1","""event"",""trial"",""time""
""fullscreenenter"",""1"",""2057""
","
","
","""event"",""trial"",""time""
""fullscreenenter"",""1"",""2057""
","
","","","","","","1606.5","images/goat3.png","","","memory_trial","4","definitely_new",""
"html-keyboard-response","287","618262","0.0-18.0-0.121","6487","approach_avoid_sv1","""event"",""trial"",""time""
""fullscreenenter"",""1"",""2057""
","
","
","""event"",""trial"",""time""
""fullscreenenter"",""1"",""2057""
","
","","","","","","null","<div style=""font-size:60px;"">+</div>","null","","fixation","","",""
"memory-trial","288","621980","0.0-18.0-1.121","6487","approach_avoid_sv1","""event"",""trial"",""time""
""fullscreenenter"",""1"",""2057""
","
","
","""event"",""trial"",""time""
""fullscreenenter"",""1"",""2057""
","
","","","","","","2705.60000000149","images/boat5.png","","","memory_trial","4","definitely_new",""
"html-keyboard-response","289","622485","0.0-18.0-0.122","6487","approach_avoid_sv1","""event"",""trial"",""time""
""fullscreenenter"",""1"",""2057""
","
","
","""event"",""trial"",""time""
""fullscreenenter"",""1"",""2057""
","
","","","","","","null","<div style=""font-size:60px;"">+</div>","null","","fixation","","",""
"memory-trial","290","625059","0.0-18.0-1.122","6487","approach_avoid_sv1","""event"",""trial"",""time""
""fullscreenenter"",""1"",""2057""
","
","
","""event"",""trial"",""time""
""fullscreenenter"",""1"",""2057""
","
","","","","","","1562.9000000022352","images/straw8.png","","","memory_trial","2","maybe_old",""
"html-keyboard-response","291","625563","0.0-18.0-0.123","6487","approach_avoid_sv1","""event"",""trial"",""time""
""fullscreenenter"",""1"",""2057""
","
","
","""event"",""trial"",""time""
""fullscreenenter"",""1"",""2057""
","
","","","","","","null","<div style=""font-size:60px;"">+</div>","null","","fixation","","",""
"memory-trial","292","627645","0.0-18.0-1.123","6487","approach_avoid_sv1","""event"",""trial"",""time""
""fullscreenenter"",""1"",""2057""
","
","
","""event"",""trial"",""time""
""fullscreenenter"",""1"",""2057""
","
","","","","","","1072.800000000745","images/boat4.png","","","memory_trial","3","maybe_new",""
"html-keyboard-response","293","628148","0.0-18.0-0.124","6487","approach_avoid_sv1","""event"",""trial"",""time""
""fullscreenenter"",""1"",""2057""
","
","
","""event"",""trial"",""time""
""fullscreenenter"",""1"",""2057""
","
","","","","","","null","<div style=""font-size:60px;"">+</div>","null","","fixation","","",""
"memory-trial","294","629501","0.0-18.0-1.124","6487","approach_avoid_sv1","""event"",""trial"",""time""
""fullscreenenter"",""1"",""2057""
","
","
","""event"",""trial"",""time""
""fullscreenenter"",""1"",""2057""
","
","","","","","","340.5","images/chair6.png","","","memory_trial","1","definitely_old",""
"html-keyboard-response","295","630004","0.0-18.0-0.125","6487","approach_avoid_sv1","""event"",""trial"",""time""
""fullscreenenter"",""1"",""2057""
","
","
","""event"",""trial"",""time""
""fullscreenenter"",""1"",""2057""
","
","","","","","","null","<div style=""font-size:60px;"">+</div>","null","","fixation","","",""
"memory-trial","296","632401","0.0-18.0-1.125","6487","approach_avoid_sv1","""event"",""trial"",""time""
""fullscreenenter"",""1"",""2057""
","
","
","""event"",""trial"",""time""
""fullscreenenter"",""1"",""2057""
","
","","","","","","1387.6000000014901","images/banana1.png","","","memory_trial","2","maybe_old",""
"html-keyboard-response","297","632904","0.0-18.0-0.126","6487","approach_avoid_sv1","""event"",""trial"",""time""
""fullscreenenter"",""1"",""2057""
","
","
","""event"",""trial"",""time""
