"trial_type","trial_index","time_elapsed","internal_node_id","subject_id","task_version","interactions","blur_events","focus_events","fullscreenenter_events","fullscreenexit_events","success","timeout","failed_images","failed_audio","failed_video","rt","stimulus","response","button_pressed","task_part","key_press","answer","correct"
"pavlovia","0","3","0.0-0.0","6213","approach_avoid_sv1","""event"",""trial"",""time""
""fullscreenenter"",""1"",""2991""
","
","
","""event"",""trial"",""time""
""fullscreenenter"",""1"",""2991""
","
","","","","","","","","","","","","",""
"fullscreen","1","3979","0.0-1.0","6213","approach_avoid_sv1","""event"",""trial"",""time""
""fullscreenenter"",""1"",""2991""
","
","
","""event"",""trial"",""time""
""fullscreenenter"",""1"",""2991""
","
","true","","","","","","","","","","","",""
"preload","2","14606","0.0-2.0","6213","approach_avoid_sv1","""event"",""trial"",""time""
""fullscreenenter"",""1"",""2991""
","
","
","""event"",""trial"",""time""
""fullscreenenter"",""1"",""2991""
","
","true","false","[]","[]","[]","","","","","","","",""
"preload","3","21075","0.0-3.0","6213","approach_avoid_sv1","""event"",""trial"",""time""
""fullscreenenter"",""1"",""2991""
","
","
","""event"",""trial"",""time""
""fullscreenenter"",""1"",""2991""
","
","true","false","[]","[]","[]","","","","","","","",""
"preload","4","21718","0.0-4.0","6213","approach_avoid_sv1","""event"",""trial"",""time""
""fullscreenenter"",""1"",""2991""
","
","
","""event"",""trial"",""time""
""fullscreenenter"",""1"",""2991""
","
","true","false","[]","[]","[]","","","","","","","",""
"audio-keyboard-response","5","28344","0.0-5.0","6213","approach_avoid_sv1","""event"",""trial"",""time""
""fullscreenenter"",""1"",""2991""
","
","
","""event"",""trial"",""time""
""fullscreenenter"",""1"",""2991""
","
","","","","","","6570.666666666667","audio/beep_loop.wav"," ","","","","",""
"audio-button-response","6","31339","0.0-6.0","6213","approach_avoid_sv1","""event"",""trial"",""time""
""fullscreenenter"",""1"",""2991""
","
","
","""event"",""trial"",""time""
""fullscreenenter"",""1"",""2991""
","
","","","","","","2989","audio/turtle.wav","3","","","","",""
"audio-button-response","7","33730","0.0-7.0","6213","approach_avoid_sv1","""event"",""trial"",""time""
""fullscreenenter"",""1"",""2991""
","
","
","""event"",""trial"",""time""
""fullscreenenter"",""1"",""2991""
","
","","","","","","1389","audio/shark.wav","2","","","","",""
"preload","8","50553","0.0-8.0","6213","approach_avoid_sv1","""event"",""trial"",""time""
""fullscreenenter"",""1"",""2991""
","
","
","""event"",""trial"",""time""
""fullscreenenter"",""1"",""2991""
","
","true","false","[]","[]","[]","","","","","","","",""
"learning-instructions","9","57286","0.0-9.0-0.0","6213","approach_avoid_sv1","""event"",""trial"",""time""
""fullscreenenter"",""1"",""2991""
","
","
","""event"",""trial"",""time""
""fullscreenenter"",""1"",""2991""
","
","","","","","","2254.6999999284744","<p> Welcome back! </p><p> Last week, you had to make choices about lots of different items.  </p>","","0","instructions","","",""
"learning-instructions","10","65932","0.0-9.0-0.1","6213","approach_avoid_sv1","""event"",""trial"",""time""
""fullscreenenter"",""1"",""2991""
","
","
","""event"",""trial"",""time""
""fullscreenenter"",""1"",""2991""
","
","","","","","","4522.600000023842","<p> Today, we are going to ask you to try to remember all the items. </p>","","0","instructions","","",""
"learning-instructions","11","77620","0.0-9.0-0.2","6213","approach_avoid_sv1","""event"",""trial"",""time""
""fullscreenenter"",""1"",""2991""
","
","
","""event"",""trial"",""time""
""fullscreenenter"",""1"",""2991""
","
","","","","","","1550.7000000476837","<p> On every trial, you will see an image. </p><p> The image may be an OLD image you saw during the games last week or it may be a NEW image that was not presented. </p>","","0","instructions","","",""
"learning-instructions","12","89617","0.0-9.0-0.3","6213","approach_avoid_sv1","""event"",""trial"",""time""
""fullscreenenter"",""1"",""2991""
","
","
","""event"",""trial"",""time""
""fullscreenenter"",""1"",""2991""
","
","","","","","","3475.100000023842","<p> You need to select whether the image is:  </p><p>  'Definitely old', 'Maybe old', 'Maybe new', or 'Definitely new.'  </p><div class=""mem-choice-instructions-grid""><div class=""choice-option"" id=""choice-option-1"" ><img src=""images/definitely_old_1.png"" id=""choice-option-img-1"" class=""choice-option-img"" stage=""1""></div><div class=""choice-option"" id=""choice-option-2"" ><img src=""images/maybe_old_1.png"" id=""choice-option-img-2"" class=""choice-option-img"" stage=""1""></div><div class=""choice-option"" id=""choice-option-3"" ><img src=""images/maybe_new_1.png"" id=""choice-option-img-3"" class=""choice-option-img"" stage=""1""></div><div class=""choice-option"" id=""choice-option-4"" > <img src=""images/definitely_new_1.png"" id=""choice-option-img-4"" class=""choice-option-img"" stage=""1""></div></div>","","0","instructions","","",""
"learning-instructions","13","98419","0.0-9.0-0.4","6213","approach_avoid_sv1","""event"",""trial"",""time""
""fullscreenenter"",""1"",""2991""
","
","
","""event"",""trial"",""time""
""fullscreenenter"",""1"",""2991""
","
","","","","","","2276.6999999284744","<p> You should use the 1, 2, 3, and 4 keys to make your responses.  </p><div class=""mem-choice-instructions-grid""><div class=""choice-option"" id=""choice-option-1"" ><img src=""images/definitely_old.png"" id=""choice-option-img-1"" class=""choice-option-img"" stage=""1""></div><div class=""choice-option"" id=""choice-option-2"" ><img src=""images/maybe_old.png"" id=""choice-option-img-2"" class=""choice-option-img"" stage=""1""></div><div class=""choice-option"" id=""choice-option-3"" ><img src=""images/maybe_new.png"" id=""choice-option-img-3"" class=""choice-option-img"" stage=""1""></div><div class=""choice-option"" id=""choice-option-4"" > <img src=""images/definitely_new.png"" id=""choice-option-img-4"" class=""choice-option-img"" stage=""1""></div></div>","","0","instructions","","",""
"learning-instructions","14","107131","0.0-9.0-0.5","6213","approach_avoid_sv1","""event"",""trial"",""time""
""fullscreenenter"",""1"",""2991""
","
","
","""event"",""trial"",""time""
""fullscreenenter"",""1"",""2991""
","
","","","","","","2370.100000023842","<p> You will have 10 seconds to make each response.  </p><p>  Make sure to respond before time runs out! </p>","","0","instructions","","",""
"learning-instructions","15","115415","0.0-9.0-0.6","6213","approach_avoid_sv1","""event"",""trial"",""time""
""fullscreenenter"",""1"",""2991""
","
","
","""event"",""trial"",""time""
""fullscreenenter"",""1"",""2991""
","
","","","","","","1208.7000000476837","<p> Today, you will see each image ONCE only.  </p><p>  That means none of the images will repeat. </p>","","0","instructions","","",""
"learning-instructions","16","129254","0.0-9.0-0.7","6213","approach_avoid_sv1","""event"",""trial"",""time""
""fullscreenenter"",""1"",""2991""
","
","
","""event"",""trial"",""time""
""fullscreenenter"",""1"",""2991""
","
","","","","","","1169.3999999761581","<p> Before you play the real game, it is time to practice. </p><p>  Just like in the real game, some of the images in the practice will be ones you have seen before. </p><p>  Others will be entirely new. </p>","","0","instructions","","",""
"html-button-response","17","130969","0.0-10.0","6213","approach_avoid_sv1","""event"",""trial"",""time""
""fullscreenenter"",""1"",""2991""
","
","
","""event"",""trial"",""time""
""fullscreenenter"",""1"",""2991""
","
","","","","","","1584.3000000715256","<p> Ready to practice? </p><p> Remember, use the 1, 2, 3, and 4 keys to make your responses. </p>","0","","instructions","","",""
"html-keyboard-response","18","131603","0.0-11.0-0.0","6213","approach_avoid_sv1","""event"",""trial"",""time""
""fullscreenenter"",""1"",""2991""
","
","
","""event"",""trial"",""time""
""fullscreenenter"",""1"",""2991""
","
","","","","","","null","<div style=""font-size:60px;"">+</div>","null","","fixation","","",""
"memory-trial","19","137402","0.0-11.0-1.0","6213","approach_avoid_sv1","""event"",""trial"",""time""
""fullscreenenter"",""1"",""2991""
","
","
","""event"",""trial"",""time""
""fullscreenenter"",""1"",""2991""
","
","","","","","","4764.600000023842","images/racket1.png","","","practice","2","maybe_old",""
"html-keyboard-response","20","137910","0.0-11.0-0.1","6213","approach_avoid_sv1","""event"",""trial"",""time""
""fullscreenenter"",""1"",""2991""
","
","
","""event"",""trial"",""time""
""fullscreenenter"",""1"",""2991""
","
","","","","","","null","<div style=""font-size:60px;"">+</div>","null","","fixation","","",""
"memory-trial","21","142442","0.0-11.0-1.1","6213","approach_avoid_sv1","""event"",""trial"",""time""
""fullscreenenter"",""1"",""2991""
","
","
","""event"",""trial"",""time""
""fullscreenenter"",""1"",""2991""
","
","","","","","","3517.8000000715256","images/ball2.png","","","practice","3","maybe_new",""
"html-keyboard-response","22","142952","0.0-11.0-0.2","6213","approach_avoid_sv1","""event"",""trial"",""time""
""fullscreenenter"",""1"",""2991""
","
","
","""event"",""trial"",""time""
""fullscreenenter"",""1"",""2991""
","
","","","","","","null","<div style=""font-size:60px;"">+</div>","null","","fixation","","",""
"memory-trial","23","145934","0.0-11.0-1.2","6213","approach_avoid_sv1","""event"",""trial"",""time""
""fullscreenenter"",""1"",""2991""
","
","
","""event"",""trial"",""time""
""fullscreenenter"",""1"",""2991""
","
","","","","","","1969.8999999761581","images/racket3.png","","","practice","1","definitely_old",""
"html-keyboard-response","24","146453","0.0-11.0-0.3","6213","approach_avoid_sv1","""event"",""trial"",""time""
""fullscreenenter"",""1"",""2991""
","
","
","""event"",""trial"",""time""
""fullscreenenter"",""1"",""2991""
","
","","","","","","null","<div style=""font-size:60px;"">+</div>","null","","fixation","","",""
"memory-trial","25","149543","0.0-11.0-1.3","6213","approach_avoid_sv1","""event"",""trial"",""time""
""fullscreenenter"",""1"",""2991""
","
","
","""event"",""trial"",""time""
""fullscreenenter"",""1"",""2991""
","
","","","","","","2072.100000023842","images/ball1.png","","","practice","4","definitely_new",""
"html-keyboard-response","26","150052","0.0-11.0-0.4","6213","approach_avoid_sv1","""event"",""trial"",""time""
""fullscreenenter"",""1"",""2991""
","
","
","""event"",""trial"",""time""
""fullscreenenter"",""1"",""2991""
","
","","","","","","null","<div style=""font-size:60px;"">+</div>","null","","fixation","","",""
"memory-trial","27","152914","0.0-11.0-1.4","6213","approach_avoid_sv1","""event"",""trial"",""time""
""fullscreenenter"",""1"",""2991""
","
","
","""event"",""trial"",""time""
""fullscreenenter"",""1"",""2991""
","
","","","","","","1849.7999999523163","images/ball5.png","","","practice","3","maybe_new",""
"html-keyboard-response","28","153423","0.0-11.0-0.5","6213","approach_avoid_sv1","""event"",""trial"",""time""
""fullscreenenter"",""1"",""2991""
","
","
","""event"",""trial"",""time""
""fullscreenenter"",""1"",""2991""
","
","","","","","","null","<div style=""font-size:60px;"">+</div>","null","","fixation","","",""
"memory-trial","29","157804","0.0-11.0-1.5","6213","approach_avoid_sv1","""event"",""trial"",""time""
""fullscreenenter"",""1"",""2991""
","
","
","""event"",""trial"",""time""
""fullscreenenter"",""1"",""2991""
","
","","","","","","3365.8000000715256","images/racket5.png","","","practice","3","maybe_new",""
"html-keyboard-response","30","158312","0.0-11.0-0.6","6213","approach_avoid_sv1","""event"",""trial"",""time""
""fullscreenenter"",""1"",""2991""
","
","
","""event"",""trial"",""time""
""fullscreenenter"",""1"",""2991""
","
","","","","","","null","<div style=""font-size:60px;"">+</div>","null","","fixation","","",""
"memory-trial","31","160648","0.0-11.0-1.6","6213","approach_avoid_sv1","""event"",""trial"",""time""
""fullscreenenter"",""1"",""2991""
","
","
","""event"",""trial"",""time""
""fullscreenenter"",""1"",""2991""
","
","","","","","","1319.8000000715256","images/racket2.png","","","practice","3","maybe_new",""
"html-keyboard-response","32","161158","0.0-11.0-0.7","6213","approach_avoid_sv1","""event"",""trial"",""time""
""fullscreenenter"",""1"",""2991""
","
","
","""event"",""trial"",""time""
""fullscreenenter"",""1"",""2991""
","
","","","","","","null","<div style=""font-size:60px;"">+</div>","null","","fixation","","",""
"memory-trial","33","164477","0.0-11.0-1.7","6213","approach_avoid_sv1","""event"",""trial"",""time""
""fullscreenenter"",""1"",""2991""
","
","
","""event"",""trial"",""time""
""fullscreenenter"",""1"",""2991""
","
","","","","","","2308.7000000476837","images/ball3.png","","","practice","1","definitely_old",""
"learning-instructions","34","175229","0.0-12.0-0.0","6213","approach_avoid_sv1","""event"",""trial"",""time""
""fullscreenenter"",""1"",""2991""
","
","
","""event"",""trial"",""time""
""fullscreenenter"",""1"",""2991""
","
","","","","","","2881.600000023842","<p> Great! You have completed the practice. </p><p> Before you start, we're going to ask you a few questions about how the game works.  </p>","","0","instructions","","",""
"preload","35","188042","0.0-13.0","6213","approach_avoid_sv1","""event"",""trial"",""time""
""fullscreenenter"",""1"",""2991""
","
","
","""event"",""trial"",""time""
""fullscreenenter"",""1"",""2991""
","
","true","false","[]","[]","[]","","","","","","","",""
"comp-q","36","196106","0.0-14.0-0.0","6213","approach_avoid_sv1","""event"",""trial"",""time""
""fullscreenenter"",""1"",""2991""
","
","
","""event"",""trial"",""time""
""fullscreenenter"",""1"",""2991""
","
","","","","","","2234","<p> <b> True or False? </b> </p><p> In this game, you will only see each image once. </p>","","0","comp_question","","","true"
"comp-q","37","204472","0.0-14.0-1.0","6213","approach_avoid_sv1","""event"",""trial"",""time""
""fullscreenenter"",""1"",""2991""
","
","
","""event"",""trial"",""time""
""fullscreenenter"",""1"",""2991""
","
","","","","","","2012.6000000238419","<p> <b> That's right! </b> You will see many different images <i> one time each </i> in this game. </p>","","0","comp_answer","","",""
"comp-q","38","211452","0.0-15.0-0.0","6213","approach_avoid_sv1","""event"",""trial"",""time""
""fullscreenenter"",""1"",""2991""
","
","
","""event"",""trial"",""time""
""fullscreenenter"",""1"",""2991""
","
","","","","","","1968.1000000238419","<p> <b> True or False? </b> </p><p> You should use the mouse and click to make your response. </p>","","1","comp_question","","","true"
"comp-q","39","220151","0.0-15.0-1.0","6213","approach_avoid_sv1","""event"",""trial"",""time""
""fullscreenenter"",""1"",""2991""
","
","
","""event"",""trial"",""time""
""fullscreenenter"",""1"",""2991""
","
","","","","","","2189.399999976158","<p><b> That's right! </b> You should use the '1', '2', '3', and '4' keys to make your response. </p>","","0","comp_answer","","",""
"comp-q","40","227452","0.0-16.0-0.0","6213","approach_avoid_sv1","""event"",""trial"",""time""
""fullscreenenter"",""1"",""2991""
","
","
","""event"",""trial"",""time""
""fullscreenenter"",""1"",""2991""
","
","","","","","","1620","<p> <b> True or False? </b> </p><p> You will have as much time as you want to make each choice. </p>","","1","comp_question","","","true"
"comp-q","41","233612","0.0-16.0-1.0","6213","approach_avoid_sv1","""event"",""trial"",""time""
""fullscreenenter"",""1"",""2991""
","
","
","""event"",""trial"",""time""
""fullscreenenter"",""1"",""2991""
","
","","","","","","1449.6000000238419","<p> <b> That's right! </b> You will only have 10 seconds to make each choice. </p>","","0","comp_answer","","",""
"learning-instructions","42","244083","0.0-17.0","6213","approach_avoid_sv1","""event"",""trial"",""time""
""fullscreenenter"",""1"",""2991""
","
","
","""event"",""trial"",""time""
""fullscreenenter"",""1"",""2991""
","
","","","","","","1801.5999999046326","<p> Great! You are now ready to begin the game. </p><p> Remember, use the 1, 2, 3, and 4 keys to make your responses. </p>","","0","instructions","","",""
"html-keyboard-response","43","244706","0.0-18.0-0.0","6213","approach_avoid_sv1","""event"",""trial"",""time""
""fullscreenenter"",""1"",""2991""
","
","
","""event"",""trial"",""time""
""fullscreenenter"",""1"",""2991""
","
","","","","","","null","<div style=""font-size:60px;"">+</div>","null","","fixation","","",""
"memory-trial","44","247867","0.0-18.0-1.0","6213","approach_avoid_sv1","""event"",""trial"",""time""
""fullscreenenter"",""1"",""2991""
","
","
","""event"",""trial"",""time""
""fullscreenenter"",""1"",""2991""
","
","","","","","","2145.7000000476837","images/cactus1.png","","","memory_trial","3","maybe_new",""
"html-keyboard-response","45","248377","0.0-18.0-0.1","6213","approach_avoid_sv1","""event"",""trial"",""time""
""fullscreenenter"",""1"",""2991""
","
","
","""event"",""trial"",""time""
""fullscreenenter"",""1"",""2991""
","
","","","","","","null","<div style=""font-size:60px;"">+</div>","null","","fixation","","",""
"memory-trial","46","251126","0.0-18.0-1.1","6213","approach_avoid_sv1","""event"",""trial"",""time""
""fullscreenenter"",""1"",""2991""
","
","
","""event"",""trial"",""time""
""fullscreenenter"",""1"",""2991""
","
","","","","","","1744.8999999761581","images/chair4.png","","","memory_trial","3","maybe_new",""
"html-keyboard-response","47","251647","0.0-18.0-0.2","6213","approach_avoid_sv1","""event"",""trial"",""time""
""fullscreenenter"",""1"",""2991""
","
","
","""event"",""trial"",""time""
""fullscreenenter"",""1"",""2991""
","
","","","","","","null","<div style=""font-size:60px;"">+</div>","null","","fixation","","",""
"memory-trial","48","254475","0.0-18.0-1.2","6213","approach_avoid_sv1","""event"",""trial"",""time""
""fullscreenenter"",""1"",""2991""
","
","
","""event"",""trial"",""time""
""fullscreenenter"",""1"",""2991""
","
","","","","","","1808.5","images/plane6.png","","","memory_trial","2","maybe_old",""
"html-keyboard-response","49","254996","0.0-18.0-0.3","6213","approach_avoid_sv1","""event"",""trial"",""time""
""fullscreenenter"",""1"",""2991""
","
","
","""event"",""trial"",""time""
""fullscreenenter"",""1"",""2991""
","
","","","","","","null","<div style=""font-size:60px;"">+</div>","null","","fixation","","",""
"memory-trial","50","257247","0.0-18.0-1.3","6213","approach_avoid_sv1","""event"",""trial"",""time""
""fullscreenenter"",""1"",""2991""
","
","
","""event"",""trial"",""time""
""fullscreenenter"",""1"",""2991""
","
","","","","","","1228.1999999284744","images/train6.png","","","memory_trial","1","definitely_old",""
"html-keyboard-response","51","257756","0.0-18.0-0.4","6213","approach_avoid_sv1","""event"",""trial"",""time""
""fullscreenenter"",""1"",""2991""
","
","
","""event"",""trial"",""time""
""fullscreenenter"",""1"",""2991""
","
","","","","","","null","<div style=""font-size:60px;"">+</div>","null","","fixation","","",""
"memory-trial","52","260436","0.0-18.0-1.4","6213","approach_avoid_sv1","""event"",""trial"",""time""
""fullscreenenter"",""1"",""2991""
","
","
","""event"",""trial"",""time""
""fullscreenenter"",""1"",""2991""
","
","","","","","","1663.2999999523163","images/cactus6.png","","","memory_trial","3","maybe_new",""
"html-keyboard-response","53","260956","0.0-18.0-0.5","6213","approach_avoid_sv1","""event"",""trial"",""time""
""fullscreenenter"",""1"",""2991""
","
","
","""event"",""trial"",""time""
""fullscreenenter"",""1"",""2991""
","
","","","","","","null","<div style=""font-size:60px;"">+</div>","null","","fixation","","",""
"memory-trial","54","263527","0.0-18.0-1.5","6213","approach_avoid_sv1","""event"",""trial"",""time""
""fullscreenenter"",""1"",""2991""
","
","
","""event"",""trial"",""time""
""fullscreenenter"",""1"",""2991""
","
","","","","","","1557.8999999761581","images/horse7.png","","","memory_trial","2","maybe_old",""
"html-keyboard-response","55","264047","0.0-18.0-0.6","6213","approach_avoid_sv1","""event"",""trial"",""time""
""fullscreenenter"",""1"",""2991""
","
","
","""event"",""trial"",""time""
""fullscreenenter"",""1"",""2991""
","
","","","","","","null","<div style=""font-size:60px;"">+</div>","null","","fixation","","",""
"memory-trial","56","267057","0.0-18.0-1.6","6213","approach_avoid_sv1","""event"",""trial"",""time""
""fullscreenenter"",""1"",""2991""
","
","
","""event"",""trial"",""time""
""fullscreenenter"",""1"",""2991""
","
","","","","","","1998.2999999523163","images/table4.png","","","memory_trial","3","maybe_new",""
"html-keyboard-response","57","267565","0.0-18.0-0.7","6213","approach_avoid_sv1","""event"",""trial"",""time""
""fullscreenenter"",""1"",""2991""
","
","
","""event"",""trial"",""time""
""fullscreenenter"",""1"",""2991""
","
","","","","","","null","<div style=""font-size:60px;"">+</div>","null","","fixation","","",""
"memory-trial","58","269936","0.0-18.0-1.7","6213","approach_avoid_sv1","""event"",""trial"",""time""
""fullscreenenter"",""1"",""2991""
","
","
","""event"",""trial"",""time""
""fullscreenenter"",""1"",""2991""
","
","","","","","","1351.8999999761581","images/plane1.png","","","memory_trial","4","definitely_new",""
"html-keyboard-response","59","270446","0.0-18.0-0.8","6213","approach_avoid_sv1","""event"",""trial"",""time""
""fullscreenenter"",""1"",""2991""
","
","
","""event"",""trial"",""time""
""fullscreenenter"",""1"",""2991""
","
","","","","","","null","<div style=""font-size:60px;"">+</div>","null","","fixation","","",""
"memory-trial","60","273725","0.0-18.0-1.8","6213","approach_avoid_sv1","""event"",""trial"",""time""
""fullscreenenter"",""1"",""2991""
","
","
","""event"",""trial"",""time""
""fullscreenenter"",""1"",""2991""
","
","","","","","","2257.3000000715256","images/cat5.png","","","memory_trial","2","maybe_old",""
"html-keyboard-response","61","274231","0.0-18.0-0.9","6213","approach_avoid_sv1","""event"",""trial"",""time""
""fullscreenenter"",""1"",""2991""
","
","
","""event"",""trial"",""time""
""fullscreenenter"",""1"",""2991""
","
","","","","","","null","<div style=""font-size:60px;"">+</div>","null","","fixation","","",""
"memory-trial","62","276649","0.0-18.0-1.9","6213","approach_avoid_sv1","""event"",""trial"",""time""
""fullscreenenter"",""1"",""2991""
","
","
","""event"",""trial"",""time""
""fullscreenenter"",""1"",""2991""
","
","","","","","","1404.6000000238419","images/cat8.png","","","memory_trial","2","maybe_old",""
"html-keyboard-response","63","277163","0.0-18.0-0.10","6213","approach_avoid_sv1","""event"",""trial"",""time""
""fullscreenenter"",""1"",""2991""
","
","
","""event"",""trial"",""time""
""fullscreenenter"",""1"",""2991""
","
","","","","","","null","<div style=""font-size:60px;"">+</div>","null","","fixation","","",""
"memory-trial","64","279515","0.0-18.0-1.10","6213","approach_avoid_sv1","""event"",""trial"",""time""
""fullscreenenter"",""1"",""2991""
","
","
","""event"",""trial"",""time""
""fullscreenenter"",""1"",""2991""
","
","","","","","","1342","images/chair8.png","","","memory_trial","1","definitely_old",""
"html-keyboard-response","65","280032","0.0-18.0-0.11","6213","approach_avoid_sv1","""event"",""trial"",""time""
""fullscreenenter"",""1"",""2991""
","
","
","""event"",""trial"",""time""
""fullscreenenter"",""1"",""2991""
","
","","","","","","null","<div style=""font-size:60px;"">+</div>","null","","fixation","","",""
"memory-trial","66","282386","0.0-18.0-1.11","6213","approach_avoid_sv1","""event"",""trial"",""time""
""fullscreenenter"",""1"",""2991""
","
","
","""event"",""trial"",""time""
""fullscreenenter"",""1"",""2991""
","
","","","","","","1344","images/plane3.png","","","memory_trial","2","maybe_old",""
"html-keyboard-response","67","282895","0.0-18.0-0.12","6213","approach_avoid_sv1","""event"",""trial"",""time""
""fullscreenenter"",""1"",""2991""
","
","
","""event"",""trial"",""time""
""fullscreenenter"",""1"",""2991""
","
","","","","","","null","<div style=""font-size:60px;"">+</div>","null","","fixation","","",""
"memory-trial","68","285610","0.0-18.0-1.12","6213","approach_avoid_sv1","""event"",""trial"",""time""
""fullscreenenter"",""1"",""2991""
","
","
","""event"",""trial"",""time""
""fullscreenenter"",""1"",""2991""
","
","","","","","","1703.8000000715256","images/apple6.png","","","memory_trial","4","definitely_new",""
"html-keyboard-response","69","286126","0.0-18.0-0.13","6213","approach_avoid_sv1","""event"",""trial"",""time""
""fullscreenenter"",""1"",""2991""
","
","
","""event"",""trial"",""time""
""fullscreenenter"",""1"",""2991""
","
","","","","","","null","<div style=""font-size:60px;"">+</div>","null","","fixation","","",""
"memory-trial","70","288759","0.0-18.0-1.13","6213","approach_avoid_sv1","""event"",""trial"",""time""
""fullscreenenter"",""1"",""2991""
","
","
","""event"",""trial"",""time""
""fullscreenenter"",""1"",""2991""
","
","","","","","","1622.2000000476837","images/apple2.png","","","memory_trial","4","definitely_new",""
"html-keyboard-response","71","289274","0.0-18.0-0.14","6213","approach_avoid_sv1","""event"",""trial"",""time""
""fullscreenenter"",""1"",""2991""
","
","
","""event"",""trial"",""time""
""fullscreenenter"",""1"",""2991""
","
","","","","","","null","<div style=""font-size:60px;"">+</div>","null","","fixation","","",""
"memory-trial","72","291991","0.0-18.0-1.14","6213","approach_avoid_sv1","""event"",""trial"",""time""
""fullscreenenter"",""1"",""2991""
","
","
","""event"",""trial"",""time""
""fullscreenenter"",""1"",""2991""
","
","","","","","","1704.3999999761581","images/straw4.png","","","memory_trial","4","definitely_new",""
"html-keyboard-response","73","292501","0.0-18.0-0.15","6213","approach_avoid_sv1","""event"",""trial"",""time""
""fullscreenenter"",""1"",""2991""
","
","
","""event"",""trial"",""time""
""fullscreenenter"",""1"",""2991""
","
","","","","","","null","<div style=""font-size:60px;"">+</div>","null","","fixation","","",""
"memory-trial","74","295154","0.0-18.0-1.15","6213","approach_avoid_sv1","""event"",""trial"",""time""
""fullscreenenter"",""1"",""2991""
","
","
","""event"",""trial"",""time""
""fullscreenenter"",""1"",""2991""
","
","","","","","","1638.7999999523163","images/orange3.png","","","memory_trial","3","maybe_new",""
"html-keyboard-response","75","295668","0.0-18.0-0.16","6213","approach_avoid_sv1","""event"",""trial"",""time""
""fullscreenenter"",""1"",""2991""
","
","
","""event"",""trial"",""time""
""fullscreenenter"",""1"",""2991""
","
","","","","","","null","<div style=""font-size:60px;"">+</div>","null","","fixation","","",""
"memory-trial","76","298966","0.0-18.0-1.16","6213","approach_avoid_sv1","""event"",""trial"",""time""
""fullscreenenter"",""1"",""2991""
","
","
","""event"",""trial"",""time""
""fullscreenenter"",""1"",""2991""
","
","","","","","","2283.2999999523163","images/orange5.png","","","memory_trial","1","definitely_old",""
"html-keyboard-response","77","299473","0.0-18.0-0.17","6213","approach_avoid_sv1","""event"",""trial"",""time""
""fullscreenenter"",""1"",""2991""
","
","
","""event"",""trial"",""time""
""fullscreenenter"",""1"",""2991""
","
","","","","","","null","<div style=""font-size:60px;"">+</div>","null","","fixation","","",""
"memory-trial","78","301639","0.0-18.0-1.17","6213","approach_avoid_sv1","""event"",""trial"",""time""
""fullscreenenter"",""1"",""2991""
","
","
","""event"",""trial"",""time""
""fullscreenenter"",""1"",""2991""
","
","","","","","","1156.1000000238419","images/dog8.png","","","memory_trial","2","maybe_old",""
"html-keyboard-response","79","302147","0.0-18.0-0.18","6213","approach_avoid_sv1","""event"",""trial"",""time""
""fullscreenenter"",""1"",""2991""
","
","
","""event"",""trial"",""time""
""fullscreenenter"",""1"",""2991""
","
","","","","","","null","<div style=""font-size:60px;"">+</div>","null","","fixation","","",""
"memory-trial","80","304536","0.0-18.0-1.18","6213","approach_avoid_sv1","""event"",""trial"",""time""
""fullscreenenter"",""1"",""2991""
","
","
","""event"",""trial"",""time""
""fullscreenenter"",""1"",""2991""
","
","","","","","","1374.6000000238419","images/banana8.png","","","memory_trial","1","definitely_old",""
"html-keyboard-response","81","305044","0.0-18.0-0.19","6213","approach_avoid_sv1","""event"",""trial"",""time""
""fullscreenenter"",""1"",""2991""
","
","
","""event"",""trial"",""time""
""fullscreenenter"",""1"",""2991""
","
","","","","","","null","<div style=""font-size:60px;"">+</div>","null","","fixation","","",""
"memory-trial","82","308339","0.0-18.0-1.19","6213","approach_avoid_sv1","""event"",""trial"",""time""
""fullscreenenter"",""1"",""2991""
","
","
","""event"",""trial"",""time""
""fullscreenenter"",""1"",""2991""
","
","","","","","","2283.399999976158","images/straw1.png","","","memory_trial","3","maybe_new",""
"html-keyboard-response","83","308856","0.0-18.0-0.20","6213","approach_avoid_sv1","""event"",""trial"",""time""
""fullscreenenter"",""1"",""2991""
","
","
","""event"",""trial"",""time""
""fullscreenenter"",""1"",""2991""
","
","","","","","","null","<div style=""font-size:60px;"">+</div>","null","","fixation","","",""
"memory-trial","84","311396","0.0-18.0-1.20","6213","approach_avoid_sv1","""event"",""trial"",""time""
""fullscreenenter"",""1"",""2991""
","
","
","""event"",""trial"",""time""
""fullscreenenter"",""1"",""2991""
","
","","","","","","1528.1999999284744","images/bush6.png","","","memory_trial","3","maybe_new",""
"html-keyboard-response","85","311910","0.0-18.0-0.21","6213","approach_avoid_sv1","""event"",""trial"",""time""
""fullscreenenter"",""1"",""2991""
","
","
","""event"",""trial"",""time""
""fullscreenenter"",""1"",""2991""
","
","","","","","","null","<div style=""font-size:60px;"">+</div>","null","","fixation","","",""
"memory-trial","86","313985","0.0-18.0-1.21","6213","approach_avoid_sv1","""event"",""trial"",""time""
""fullscreenenter"",""1"",""2991""
","
","
","""event"",""trial"",""time""
""fullscreenenter"",""1"",""2991""
","
","","","","","","1069.8999999761581","images/cow8.png","","","memory_trial","2","maybe_old",""
"html-keyboard-response","87","314493","0.0-18.0-0.22","6213","approach_avoid_sv1","""event"",""trial"",""time""
""fullscreenenter"",""1"",""2991""
","
","
","""event"",""trial"",""time""
""fullscreenenter"",""1"",""2991""
","
","","","","","","null","<div style=""font-size:60px;"">+</div>","null","","fixation","","",""
"memory-trial","88","316554","0.0-18.0-1.22","6213","approach_avoid_sv1","""event"",""trial"",""time""
""fullscreenenter"",""1"",""2991""
","
","
","""event"",""trial"",""time""
""fullscreenenter"",""1"",""2991""
","
","","","","","","1051.7000000476837","images/sheep8.png","","","memory_trial","2","maybe_old",""
"html-keyboard-response","89","317064","0.0-18.0-0.23","6213","approach_avoid_sv1","""event"",""trial"",""time""
""fullscreenenter"",""1"",""2991""
","
","
","""event"",""trial"",""time""
""fullscreenenter"",""1"",""2991""
","
","","","","","","null","<div style=""font-size:60px;"">+</div>","null","","fixation","","",""
"memory-trial","90","319425","0.0-18.0-1.23","6213","approach_avoid_sv1","""event"",""trial"",""time""
""fullscreenenter"",""1"",""2991""
","
","
","""event"",""trial"",""time""
""fullscreenenter"",""1"",""2991""
","
","","","","","","1351","images/train8.png","","","memory_trial","2","maybe_old",""
"html-keyboard-response","91","319930","0.0-18.0-0.24","6213","approach_avoid_sv1","""event"",""trial"",""time""
""fullscreenenter"",""1"",""2991""
","
","
","""event"",""trial"",""time""
""fullscreenenter"",""1"",""2991""
","
","","","","","","null","<div style=""font-size:60px;"">+</div>","null","","fixation","","",""
"memory-trial","92","323829","0.0-18.0-1.24","6213","approach_avoid_sv1","""event"",""trial"",""time""
""fullscreenenter"",""1"",""2991""
","
","
","""event"",""trial"",""time""
""fullscreenenter"",""1"",""2991""
","
","","","","","","2889.5","images/cow5.png","","","memory_trial","2","maybe_old",""
"html-keyboard-response","93","324342","0.0-18.0-0.25","6213","approach_avoid_sv1","""event"",""trial"",""time""
""fullscreenenter"",""1"",""2991""
","
","
","""event"",""trial"",""time""
""fullscreenenter"",""1"",""2991""
","
","","","","","","null","<div style=""font-size:60px;"">+</div>","null","","fixation","","",""
"memory-trial","94","327440","0.0-18.0-1.25","6213","approach_avoid_sv1","""event"",""trial"",""time""
""fullscreenenter"",""1"",""2991""
","
","
","""event"",""trial"",""time""
""fullscreenenter"",""1"",""2991""
","
","","","","","","2092.2999999523163","images/orange4.png","","","memory_trial","3","maybe_new",""
"html-keyboard-response","95","327949","0.0-18.0-0.26","6213","approach_avoid_sv1","""event"",""trial"",""time""
""fullscreenenter"",""1"",""2991""
","
","
","""event"",""trial"",""time""
""fullscreenenter"",""1"",""2991""
","
","","","","","","null","<div style=""font-size:60px;"">+</div>","null","","fixation","","",""
"memory-trial","96","330851","0.0-18.0-1.26","6213","approach_avoid_sv1","""event"",""trial"",""time""
""fullscreenenter"",""1"",""2991""
","
","
","""event"",""trial"",""time""
""fullscreenenter"",""1"",""2991""
","
","","","","","","1892.2999999523163","images/tree3.png","","","memory_trial","3","maybe_new",""
"html-keyboard-response","97","331361","0.0-18.0-0.27","6213","approach_avoid_sv1","""event"",""trial"",""time""
""fullscreenenter"",""1"",""2991""
","
","
","""event"",""trial"",""time""
""fullscreenenter"",""1"",""2991""
","
","","","","","","null","<div style=""font-size:60px;"">+</div>","null","","fixation","","",""
"memory-trial","98","334373","0.0-18.0-1.27","6213","approach_avoid_sv1","""event"",""trial"",""time""
""fullscreenenter"",""1"",""2991""
","
","
","""event"",""trial"",""time""
""fullscreenenter"",""1"",""2991""
","
","","","","","","2000.5","images/straw5.png","","","memory_trial","4","definitely_new",""
"html-keyboard-response","99","334891","0.0-18.0-0.28","6213","approach_avoid_sv1","""event"",""trial"",""time""
""fullscreenenter"",""1"",""2991""
","
","
","""event"",""trial"",""time""
""fullscreenenter"",""1"",""2991""
","
","","","","","","null","<div style=""font-size:60px;"">+</div>","null","","fixation","","",""
"memory-trial","100","337588","0.0-18.0-1.28","6213","approach_avoid_sv1","""event"",""trial"",""time""
""fullscreenenter"",""1"",""2991""
","
","
","""event"",""trial"",""time""
""fullscreenenter"",""1"",""2991""
","
","","","","","","1683.5","images/cat4.png","","","memory_trial","3","maybe_new",""
"html-keyboard-response","101","338102","0.0-18.0-0.29","6213","approach_avoid_sv1","""event"",""trial"",""time""
""fullscreenenter"",""1"",""2991""
","
","
","""event"",""trial"",""time""
""fullscreenenter"",""1"",""2991""
","
","","","","","","null","<div style=""font-size:60px;"">+</div>","null","","fixation","","",""
"memory-trial","102","341490","0.0-18.0-1.29","6213","approach_avoid_sv1","""event"",""trial"",""time""
""fullscreenenter"",""1"",""2991""
","
","
","""event"",""trial"",""time""
""fullscreenenter"",""1"",""2991""
","
","","","","","","2379.600000023842","images/horse6.png","","","memory_trial","1","definitely_old",""
"html-keyboard-response","103","342002","0.0-18.0-0.30","6213","approach_avoid_sv1","""event"",""trial"",""time""
""fullscreenenter"",""1"",""2991""
","
","
","""event"",""trial"",""time""
""fullscreenenter"",""1"",""2991""
","
","","","","","","null","<div style=""font-size:60px;"">+</div>","null","","fixation","","",""
"memory-trial","104","344264","0.0-18.0-1.30","6213","approach_avoid_sv1","""event"",""trial"",""time""
""fullscreenenter"",""1"",""2991""
","
","
","""event"",""trial"",""time""
""fullscreenenter"",""1"",""2991""
","
","","","","","","1244.2000000476837","images/bush3.png","","","memory_trial","2","maybe_old",""
"html-keyboard-response","105","344768","0.0-18.0-0.31","6213","approach_avoid_sv1","""event"",""trial"",""time""
""fullscreenenter"",""1"",""2991""
","
","
","""event"",""trial"",""time""
""fullscreenenter"",""1"",""2991""
","
","","","","","","null","<div style=""font-size:60px;"">+</div>","null","","fixation","","",""
"memory-trial","106","347318","0.0-18.0-1.31","6213","approach_avoid_sv1","""event"",""trial"",""time""
""fullscreenenter"",""1"",""2991""
","
","
","""event"",""trial"",""time""
""fullscreenenter"",""1"",""2991""
","
","","","","","","1534.5999999046326","images/dog1.png","","","memory_trial","3","maybe_new",""
"html-keyboard-response","107","347835","0.0-18.0-0.32","6213","approach_avoid_sv1","""event"",""trial"",""time""
""fullscreenenter"",""1"",""2991""
","
","
","""event"",""trial"",""time""
""fullscreenenter"",""1"",""2991""
","
","","","","","","null","<div style=""font-size:60px;"">+</div>","null","","fixation","","",""
"memory-trial","108","350459","0.0-18.0-1.32","6213","approach_avoid_sv1","""event"",""trial"",""time""
""fullscreenenter"",""1"",""2991""
","
","
","""event"",""trial"",""time""
""fullscreenenter"",""1"",""2991""
","
","","","","","","1612.3000000715256","images/table5.png","","","memory_trial","4","definitely_new",""
"html-keyboard-response","109","350969","0.0-18.0-0.33","6213","approach_avoid_sv1","""event"",""trial"",""time""
""fullscreenenter"",""1"",""2991""
","
","
","""event"",""trial"",""time""
""fullscreenenter"",""1"",""2991""
","
","","","","","","null","<div style=""font-size:60px;"">+</div>","null","","fixation","","",""
"memory-trial","110","353705","0.0-18.0-1.33","6213","approach_avoid_sv1","""event"",""trial"",""time""
""fullscreenenter"",""1"",""2991""
","
","
","""event"",""trial"",""time""
""fullscreenenter"",""1"",""2991""
","
","","","","","","1722.1999999284744","images/tree1.png","","","memory_trial","3","maybe_new",""
"html-keyboard-response","111","354208","0.0-18.0-0.34","6213","approach_avoid_sv1","""event"",""trial"",""time""
""fullscreenenter"",""1"",""2991""
","
","
","""event"",""trial"",""time""
""fullscreenenter"",""1"",""2991""
","
","","","","","","null","<div style=""font-size:60px;"">+</div>","null","","fixation","","",""
"memory-trial","112","356527","0.0-18.0-1.34","6213","approach_avoid_sv1","""event"",""trial"",""time""
""fullscreenenter"",""1"",""2991""
","
","
","""event"",""trial"",""time""
""fullscreenenter"",""1"",""2991""
","
","","","","","","1301.1000000238419","images/sofa8.png","","","memory_trial","1","definitely_old",""
"html-keyboard-response","113","357038","0.0-18.0-0.35","6213","approach_avoid_sv1","""event"",""trial"",""time""
""fullscreenenter"",""1"",""2991""
","
","
","""event"",""trial"",""time""
""fullscreenenter"",""1"",""2991""
","
","","","","","","null","<div style=""font-size:60px;"">+</div>","null","","fixation","","",""
"memory-trial","114","359785","0.0-18.0-1.35","6213","approach_avoid_sv1","""event"",""trial"",""time""
""fullscreenenter"",""1"",""2991""
","
","
","""event"",""trial"",""time""
""fullscreenenter"",""1"",""2991""
","
","","","","","","1738.8999999761581","images/horse5.png","","","memory_trial","4","definitely_new",""
"html-keyboard-response","115","360292","0.0-18.0-0.36","6213","approach_avoid_sv1","""event"",""trial"",""time""
""fullscreenenter"",""1"",""2991""
","
","
","""event"",""trial"",""time""
""fullscreenenter"",""1"",""2991""
","
","","","","","","null","<div style=""font-size:60px;"">+</div>","null","","fixation","","",""
"memory-trial","116","362856","0.0-18.0-1.36","6213","approach_avoid_sv1","""event"",""trial"",""time""
""fullscreenenter"",""1"",""2991""
","
","
","""event"",""trial"",""time""
""fullscreenenter"",""1"",""2991""
","
","","","","","","1555.5","images/truck8.png","","","memory_trial","2","maybe_old",""
"html-keyboard-response","117","363367","0.0-18.0-0.37","6213","approach_avoid_sv1","""event"",""trial"",""time""
""fullscreenenter"",""1"",""2991""
","
","
","""event"",""trial"",""time""
""fullscreenenter"",""1"",""2991""
","
","","","","","","null","<div style=""font-size:60px;"">+</div>","null","","fixation","","",""
"memory-trial","118","365501","0.0-18.0-1.37","6213","approach_avoid_sv1","""event"",""trial"",""time""
""fullscreenenter"",""1"",""2991""
","
","
","""event"",""trial"",""time""
""fullscreenenter"",""1"",""2991""
","
","","","","","","1123.7999999523163","images/boat1.png","","","memory_trial","1","definitely_old",""
"html-keyboard-response","119","366009","0.0-18.0-0.38","6213","approach_avoid_sv1","""event"",""trial"",""time""
""fullscreenenter"",""1"",""2991""
","
","
","""event"",""trial"",""time""
""fullscreenenter"",""1"",""2991""
","
","","","","","","null","<div style=""font-size:60px;"">+</div>","null","","fixation","","",""
"memory-trial","120","368490","0.0-18.0-1.38","6213","approach_avoid_sv1","""event"",""trial"",""time""
""fullscreenenter"",""1"",""2991""
","
","
","""event"",""trial"",""time""
""fullscreenenter"",""1"",""2991""
","
","","","","","","1463.5","images/chair2.png","","","memory_trial","3","maybe_new",""
"html-keyboard-response","121","369003","0.0-18.0-0.39","6213","approach_avoid_sv1","""event"",""trial"",""time""
""fullscreenenter"",""1"",""2991""
","
","
","""event"",""trial"",""time""
""fullscreenenter"",""1"",""2991""
","
","","","","","","null","<div style=""font-size:60px;"">+</div>","null","","fixation","","",""
"memory-trial","122","370854","0.0-18.0-1.39","6213","approach_avoid_sv1","""event"",""trial"",""time""
""fullscreenenter"",""1"",""2991""
","
","
","""event"",""trial"",""time""
""fullscreenenter"",""1"",""2991""
","
","","","","","","839.6999999284744","images/truck3.png","","","memory_trial","1","definitely_old",""
"html-keyboard-response","123","371368","0.0-18.0-0.40","6213","approach_avoid_sv1","""event"",""trial"",""time""
""fullscreenenter"",""1"",""2991""
","
","
","""event"",""trial"",""time""
""fullscreenenter"",""1"",""2991""
","
","","","","","","null","<div style=""font-size:60px;"">+</div>","null","","fixation","","",""
"memory-trial","124","373617","0.0-18.0-1.40","6213","approach_avoid_sv1","""event"",""trial"",""time""
""fullscreenenter"",""1"",""2991""
","
","
","""event"",""trial"",""time""
""fullscreenenter"",""1"",""2991""
","
","","","","","","1244","images/goat7.png","","","memory_trial","1","definitely_old",""
"html-keyboard-response","125","374120","0.0-18.0-0.41","6213","approach_avoid_sv1","""event"",""trial"",""time""
""fullscreenenter"",""1"",""2991""
","
","
","""event"",""trial"",""time""
""fullscreenenter"",""1"",""2991""
","
","","","","","","null","<div style=""font-size:60px;"">+</div>","null","","fixation","","",""
"memory-trial","126","376614","0.0-18.0-1.41","6213","approach_avoid_sv1","""event"",""trial"",""time""
""fullscreenenter"",""1"",""2991""
","
","
","""event"",""trial"",""time""
""fullscreenenter"",""1"",""2991""
","
","","","","","","1477.6000000238419","images/cow3.png","","","memory_trial","3","maybe_new",""
"html-button-response","127","421691","0.0-18.0-2.41-0.41","6213","approach_avoid_sv1","""event"",""trial"",""time""
""fullscreenenter"",""1"",""2991""
","
","
","""event"",""trial"",""time""
""fullscreenenter"",""1"",""2991""
","
","","","","","","45074.700000047684","<p> Take a break! </p><p> Click the button to continue. </p>","0","","break","","",""
"html-keyboard-response","128","422202","0.0-18.0-0.42","6213","approach_avoid_sv1","""event"",""trial"",""time""
""fullscreenenter"",""1"",""2991""
","
","
","""event"",""trial"",""time""
""fullscreenenter"",""1"",""2991""
","
","","","","","","null","<div style=""font-size:60px;"">+</div>","null","","fixation","","",""
"memory-trial","129","425076","0.0-18.0-1.42","6213","approach_avoid_sv1","""event"",""trial"",""time""
""fullscreenenter"",""1"",""2991""
","
","
","""event"",""trial"",""time""
""fullscreenenter"",""1"",""2991""
","
","","","","","","1859","images/cactus3.png","","","memory_trial","3","maybe_new",""
"html-keyboard-response","130","425591","0.0-18.0-0.43","6213","approach_avoid_sv1","""event"",""trial"",""time""
""fullscreenenter"",""1"",""2991""
","
","
","""event"",""trial"",""time""
""fullscreenenter"",""1"",""2991""
","
","","","","","","null","<div style=""font-size:60px;"">+</div>","null","","fixation","","",""
"memory-trial","131","428210","0.0-18.0-1.43","6213","approach_avoid_sv1","""event"",""trial"",""time""
""fullscreenenter"",""1"",""2991""
","
","
","""event"",""trial"",""time""
""fullscreenenter"",""1"",""2991""
","
","","","","","","1603.7999999523163","images/train4.png","","","memory_trial","2","maybe_old",""
"html-keyboard-response","132","428721","0.0-18.0-0.44","6213","approach_avoid_sv1","""event"",""trial"",""time""
""fullscreenenter"",""1"",""2991""
","
","
","""event"",""trial"",""time""
""fullscreenenter"",""1"",""2991""
","
","","","","","","null","<div style=""font-size:60px;"">+</div>","null","","fixation","","",""
"memory-trial","133","432071","0.0-18.0-1.44","6213","approach_avoid_sv1","""event"",""trial"",""time""
""fullscreenenter"",""1"",""2991""
","
","
","""event"",""trial"",""time""
""fullscreenenter"",""1"",""2991""
","
","","","","","","2336.2999999523163","images/rodent2.png","","","memory_trial","3","maybe_new",""
"html-keyboard-response","134","432581","0.0-18.0-0.45","6213","approach_avoid_sv1","""event"",""trial"",""time""
""fullscreenenter"",""1"",""2991""
","
","
","""event"",""trial"",""time""
""fullscreenenter"",""1"",""2991""
","
","","","","","","null","<div style=""font-size:60px;"">+</div>","null","","fixation","","",""
"memory-trial","135","436131","0.0-18.0-1.45","6213","approach_avoid_sv1","""event"",""trial"",""time""
""fullscreenenter"",""1"",""2991""
","
","
","""event"",""trial"",""time""
""fullscreenenter"",""1"",""2991""
","
","","","","","","2544.100000023842","images/chair5.png","","","memory_trial","4","definitely_new",""
"html-keyboard-response","136","436638","0.0-18.0-0.46","6213","approach_avoid_sv1","""event"",""trial"",""time""
""fullscreenenter"",""1"",""2991""
","
","
","""event"",""trial"",""time""
""fullscreenenter"",""1"",""2991""
","
","","","","","","null","<div style=""font-size:60px;"">+</div>","null","","fixation","","",""
"memory-trial","137","438806","0.0-18.0-1.46","6213","approach_avoid_sv1","""event"",""trial"",""time""
""fullscreenenter"",""1"",""2991""
","
","
","""event"",""trial"",""time""
""fullscreenenter"",""1"",""2991""
","
","","","","","","1152.1999999284744","images/truck2.png","","","memory_trial","4","definitely_new",""
"html-keyboard-response","138","439316","0.0-18.0-0.47","6213","approach_avoid_sv1","""event"",""trial"",""time""
""fullscreenenter"",""1"",""2991""
","
","
","""event"",""trial"",""time""
""fullscreenenter"",""1"",""2991""
","
","","","","","","null","<div style=""font-size:60px;"">+</div>","null","","fixation","","",""
"memory-trial","139","441760","0.0-18.0-1.47","6213","approach_avoid_sv1","""event"",""trial"",""time""
""fullscreenenter"",""1"",""2991""
","
","
","""event"",""trial"",""time""
""fullscreenenter"",""1"",""2991""
","
","","","","","","1423.8000000715256","images/orange1.png","","","memory_trial","3","maybe_new",""
"html-keyboard-response","140","442269","0.0-18.0-0.48","6213","approach_avoid_sv1","""event"",""trial"",""time""
""fullscreenenter"",""1"",""2991""
","
","
","""event"",""trial"",""time""
""fullscreenenter"",""1"",""2991""
","
","","","","","","null","<div style=""font-size:60px;"">+</div>","null","","fixation","","",""
"memory-trial","141","444170","0.0-18.0-1.48","6213","approach_avoid_sv1","""event"",""trial"",""time""
""fullscreenenter"",""1"",""2991""
","
","
","""event"",""trial"",""time""
""fullscreenenter"",""1"",""2991""
","
","","","","","","891.1000000238419","images/apple7.png","","","memory_trial","3","maybe_new",""
"html-keyboard-response","142","444674","0.0-18.0-0.49","6213","approach_avoid_sv1","""event"",""trial"",""time""
""fullscreenenter"",""1"",""2991""
","
","
","""event"",""trial"",""time""
""fullscreenenter"",""1"",""2991""
","
","","","","","","null","<div style=""font-size:60px;"">+</div>","null","","fixation","","",""
"memory-trial","143","447022","0.0-18.0-1.49","6213","approach_avoid_sv1","""event"",""trial"",""time""
""fullscreenenter"",""1"",""2991""
","
","
","""event"",""trial"",""time""
""fullscreenenter"",""1"",""2991""
","
","","","","","","1337.1000000238419","images/sheep3.png","","","memory_trial","2","maybe_old",""
"html-keyboard-response","144","447537","0.0-18.0-0.50","6213","approach_avoid_sv1","""event"",""trial"",""time""
""fullscreenenter"",""1"",""2991""
","
","
","""event"",""trial"",""time""
""fullscreenenter"",""1"",""2991""
","
","","","","","","null","<div style=""font-size:60px;"">+</div>","null","","fixation","","",""
"memory-trial","145","449419","0.0-18.0-1.50","6213","approach_avoid_sv1","""event"",""trial"",""time""
""fullscreenenter"",""1"",""2991""
","
","
","""event"",""trial"",""time""
""fullscreenenter"",""1"",""2991""
","
","","","","","","862.8000000715256","images/rabbit1.png","","","memory_trial","2","maybe_old",""
"html-keyboard-response","146","449922","0.0-18.0-0.51","6213","approach_avoid_sv1","""event"",""trial"",""time""
""fullscreenenter"",""1"",""2991""
","
","
","""event"",""trial"",""time""
""fullscreenenter"",""1"",""2991""
","
","","","","","","null","<div style=""font-size:60px;"">+</div>","null","","fixation","","",""
"memory-trial","147","452243","0.0-18.0-1.51","6213","approach_avoid_sv1","""event"",""trial"",""time""
""fullscreenenter"",""1"",""2991""
","
","
","""event"",""trial"",""time""
""fullscreenenter"",""1"",""2991""
","
","","","","","","1314.6999999284744","images/banana4.png","","","memory_trial","1","definitely_old",""
"html-keyboard-response","148","452749","0.0-18.0-0.52","6213","approach_avoid_sv1","""event"",""trial"",""time""
""fullscreenenter"",""1"",""2991""
","
","
","""event"",""trial"",""time""
""fullscreenenter"",""1"",""2991""
","
","","","","","","null","<div style=""font-size:60px;"">+</div>","null","","fixation","","",""
"memory-trial","149","455069","0.0-18.0-1.52","6213","approach_avoid_sv1","""event"",""trial"",""time""
""fullscreenenter"",""1"",""2991""
","
","
","""event"",""trial"",""time""
""fullscreenenter"",""1"",""2991""
","
","","","","","","1306.7000000476837","images/apple8.png","","","memory_trial","3","maybe_new",""
"html-keyboard-response","150","455583","0.0-18.0-0.53","6213","approach_avoid_sv1","""event"",""trial"",""time""
""fullscreenenter"",""1"",""2991""
","
","
","""event"",""trial"",""time""
""fullscreenenter"",""1"",""2991""
","
","","","","","","null","<div style=""font-size:60px;"">+</div>","null","","fixation","","",""
"memory-trial","151","458008","0.0-18.0-1.53","6213","approach_avoid_sv1","""event"",""trial"",""time""
""fullscreenenter"",""1"",""2991""
","
","
","""event"",""trial"",""time""
""fullscreenenter"",""1"",""2991""
","
","","","","","","1411.7999999523163","images/horse3.png","","","memory_trial","1","definitely_old",""
"html-keyboard-response","152","458515","0.0-18.0-0.54","6213","approach_avoid_sv1","""event"",""trial"",""time""
""fullscreenenter"",""1"",""2991""
","
","
","""event"",""trial"",""time""
""fullscreenenter"",""1"",""2991""
","
","","","","","","null","<div style=""font-size:60px;"">+</div>","null","","fixation","","",""
"memory-trial","153","460851","0.0-18.0-1.54","6213","approach_avoid_sv1","""event"",""trial"",""time""
""fullscreenenter"",""1"",""2991""
","
","
","""event"",""trial"",""time""
""fullscreenenter"",""1"",""2991""
","
","","","","","","1330","images/bush8.png","","","memory_trial","3","maybe_new",""
"html-keyboard-response","154","461364","0.0-18.0-0.55","6213","approach_avoid_sv1","""event"",""trial"",""time""
""fullscreenenter"",""1"",""2991""
","
","
","""event"",""trial"",""time""
""fullscreenenter"",""1"",""2991""
","
","","","","","","null","<div style=""font-size:60px;"">+</div>","null","","fixation","","",""
"memory-trial","155","463532","0.0-18.0-1.55","6213","approach_avoid_sv1","""event"",""trial"",""time""
""fullscreenenter"",""1"",""2991""
","
","
","""event"",""trial"",""time""
""fullscreenenter"",""1"",""2991""
","
","","","","","","1151.6000000238419","images/flower1.png","","","memory_trial","3","maybe_new",""
"html-keyboard-response","156","464037","0.0-18.0-0.56","6213","approach_avoid_sv1","""event"",""trial"",""time""
""fullscreenenter"",""1"",""2991""
","
","
","""event"",""trial"",""time""
""fullscreenenter"",""1"",""2991""
","
","","","","","","null","<div style=""font-size:60px;"">+</div>","null","","fixation","","",""
"memory-trial","157","466590","0.0-18.0-1.56","6213","approach_avoid_sv1","""event"",""trial"",""time""
""fullscreenenter"",""1"",""2991""
","
","
","""event"",""trial"",""time""
""fullscreenenter"",""1"",""2991""
","
","","","","","","1545.1999999284744","images/cat1.png","","","memory_trial","4","definitely_new",""
"html-keyboard-response","158","467101","0.0-18.0-0.57","6213","approach_avoid_sv1","""event"",""trial"",""time""
""fullscreenenter"",""1"",""2991""
","
","
","""event"",""trial"",""time""
""fullscreenenter"",""1"",""2991""
","
","","","","","","null","<div style=""font-size:60px;"">+</div>","null","","fixation","","",""
"memory-trial","159","469466","0.0-18.0-1.57","6213","approach_avoid_sv1","""event"",""trial"",""time""
""fullscreenenter"",""1"",""2991""
","
","
","""event"",""trial"",""time""
""fullscreenenter"",""1"",""2991""
","
","","","","","","1346.1999999284744","images/flower5.png","","","memory_trial","4","definitely_new",""
"html-keyboard-response","160","469979","0.0-18.0-0.58","6213","approach_avoid_sv1","""event"",""trial"",""time""
""fullscreenenter"",""1"",""2991""
","
","
","""event"",""trial"",""time""
""fullscreenenter"",""1"",""2991""
","
","","","","","","null","<div style=""font-size:60px;"">+</div>","null","","fixation","","",""
"memory-trial","161","472047","0.0-18.0-1.58","6213","approach_avoid_sv1","""event"",""trial"",""time""
""fullscreenenter"",""1"",""2991""
","
","
","""event"",""trial"",""time""
""fullscreenenter"",""1"",""2991""
","
","","","","","","1058.2999999523163","images/orange6.png","","","memory_trial","3","maybe_new",""
"html-keyboard-response","162","472559","0.0-18.0-0.59","6213","approach_avoid_sv1","""event"",""trial"",""time""
""fullscreenenter"",""1"",""2991""
","
","
","""event"",""trial"",""time""
""fullscreenenter"",""1"",""2991""
","
","","","","","","null","<div style=""font-size:60px;"">+</div>","null","","fixation","","",""
"memory-trial","163","474569","0.0-18.0-1.59","6213","approach_avoid_sv1","""event"",""trial"",""time""
""fullscreenenter"",""1"",""2991""
","
","
","""event"",""trial"",""time""
""fullscreenenter"",""1"",""2991""
","
","","","","","","991.3000000715256","images/bush4.png","","","memory_trial","3","maybe_new",""
"html-keyboard-response","164","475074","0.0-18.0-0.60","6213","approach_avoid_sv1","""event"",""trial"",""time""
""fullscreenenter"",""1"",""2991""
","
","
","""event"",""trial"",""time""
""fullscreenenter"",""1"",""2991""
","
","","","","","","null","<div style=""font-size:60px;"">+</div>","null","","fixation","","",""
"memory-trial","165","478480","0.0-18.0-1.60","6213","approach_avoid_sv1","""event"",""trial"",""time""
""fullscreenenter"",""1"",""2991""
","
","
","""event"",""trial"",""time""
""fullscreenenter"",""1"",""2991""
","
","","","","","","2394.7000000476837","images/sofa1.png","","","memory_trial","2","maybe_old",""
"html-keyboard-response","166","478993","0.0-18.0-0.61","6213","approach_avoid_sv1","""event"",""trial"",""time""
""fullscreenenter"",""1"",""2991""
","
","
","""event"",""trial"",""time""
""fullscreenenter"",""1"",""2991""
","
","","","","","","null","<div style=""font-size:60px;"">+</div>","null","","fixation","","",""
"memory-trial","167","481463","0.0-18.0-1.61","6213","approach_avoid_sv1","""event"",""trial"",""time""
""fullscreenenter"",""1"",""2991""
","
","
","""event"",""trial"",""time""
""fullscreenenter"",""1"",""2991""
","
","","","","","","1456.3000000715256","images/sheep4.png","","","memory_trial","2","maybe_old",""
"html-keyboard-response","168","481971","0.0-18.0-0.62","6213","approach_avoid_sv1","""event"",""trial"",""time""
""fullscreenenter"",""1"",""2991""
","
","
","""event"",""trial"",""time""
""fullscreenenter"",""1"",""2991""
","
","","","","","","null","<div style=""font-size:60px;"">+</div>","null","","fixation","","",""
"memory-trial","169","484306","0.0-18.0-1.62","6213","approach_avoid_sv1","""event"",""trial"",""time""
""fullscreenenter"",""1"",""2991""
","
","
","""event"",""trial"",""time""
""fullscreenenter"",""1"",""2991""
","
","","","","","","1328","images/goat2.png","","","memory_trial","1","definitely_old",""
"html-keyboard-response","170","484812","0.0-18.0-0.63","6213","approach_avoid_sv1","""event"",""trial"",""time""
""fullscreenenter"",""1"",""2991""
","
","
","""event"",""trial"",""time""
""fullscreenenter"",""1"",""2991""
","
","","","","","","null","<div style=""font-size:60px;"">+</div>","null","","fixation","","",""
"memory-trial","171","487383","0.0-18.0-1.63","6213","approach_avoid_sv1","""event"",""trial"",""time""
""fullscreenenter"",""1"",""2991""
","
","
","""event"",""trial"",""time""
""fullscreenenter"",""1"",""2991""
","
","","","","","","1558.3000000715256","images/apple3.png","","","memory_trial","4","definitely_new",""
"html-keyboard-response","172","487896","0.0-18.0-0.64","6213","approach_avoid_sv1","""event"",""trial"",""time""
""fullscreenenter"",""1"",""2991""
","
","
","""event"",""trial"",""time""
""fullscreenenter"",""1"",""2991""
","
","","","","","","null","<div style=""font-size:60px;"">+</div>","null","","fixation","","",""
"memory-trial","173","489795","0.0-18.0-1.64","6213","approach_avoid_sv1","""event"",""trial"",""time""
""fullscreenenter"",""1"",""2991""
","
","
","""event"",""trial"",""time""
""fullscreenenter"",""1"",""2991""
","
","","","","","","889.2999999523163","images/train3.png","","","memory_trial","1","definitely_old",""
"html-keyboard-response","174","490303","0.0-18.0-0.65","6213","approach_avoid_sv1","""event"",""trial"",""time""
""fullscreenenter"",""1"",""2991""
","
","
","""event"",""trial"",""time""
""fullscreenenter"",""1"",""2991""
","
","","","","","","null","<div style=""font-size:60px;"">+</div>","null","","fixation","","",""
"memory-trial","175","493590","0.0-18.0-1.65","6213","approach_avoid_sv1","""event"",""trial"",""time""
""fullscreenenter"",""1"",""2991""
","
","
","""event"",""trial"",""time""
""fullscreenenter"",""1"",""2991""
","
","","","","","","2272.7999999523163","images/table8.png","","","memory_trial","3","maybe_new",""
"html-keyboard-response","176","494109","0.0-18.0-0.66","6213","approach_avoid_sv1","""event"",""trial"",""time""
""fullscreenenter"",""1"",""2991""
","
","
","""event"",""trial"",""time""
""fullscreenenter"",""1"",""2991""
","
","","","","","","null","<div style=""font-size:60px;"">+</div>","null","","fixation","","",""
"memory-trial","177","497438","0.0-18.0-1.66","6213","approach_avoid_sv1","""event"",""trial"",""time""
""fullscreenenter"",""1"",""2991""
","
","
","""event"",""trial"",""time""
""fullscreenenter"",""1"",""2991""
","
","","","","","","2318.399999976158","images/bush2.png","","","memory_trial","3","maybe_new",""
"html-keyboard-response","178","497953","0.0-18.0-0.67","6213","approach_avoid_sv1","""event"",""trial"",""time""
""fullscreenenter"",""1"",""2991""
","
","
","""event"",""trial"",""time""
""fullscreenenter"",""1"",""2991""
","
","","","","","","null","<div style=""font-size:60px;"">+</div>","null","","fixation","","",""
"memory-trial","179","500284","0.0-18.0-1.67","6213","approach_avoid_sv1","""event"",""trial"",""time""
""fullscreenenter"",""1"",""2991""
","
","
","""event"",""trial"",""time""
""fullscreenenter"",""1"",""2991""
","
","","","","","","1320.7999999523163","images/horse4.png","","","memory_trial","2","maybe_old",""
"html-keyboard-response","180","500801","0.0-18.0-0.68","6213","approach_avoid_sv1","""event"",""trial"",""time""
""fullscreenenter"",""1"",""2991""
","
","
","""event"",""trial"",""time""
""fullscreenenter"",""1"",""2991""
","
","","","","","","null","<div style=""font-size:60px;"">+</div>","null","","fixation","","",""
"memory-trial","181","503337","0.0-18.0-1.68","6213","approach_avoid_sv1","""event"",""trial"",""time""
""fullscreenenter"",""1"",""2991""
","
","
","""event"",""trial"",""time""
""fullscreenenter"",""1"",""2991""
","
","","","","","","1531.8999999761581","images/straw3.png","","","memory_trial","4","definitely_new",""
"html-keyboard-response","182","503842","0.0-18.0-0.69","6213","approach_avoid_sv1","""event"",""trial"",""time""
""fullscreenenter"",""1"",""2991""
","
","
","""event"",""trial"",""time""
""fullscreenenter"",""1"",""2991""
","
","","","","","","null","<div style=""font-size:60px;"">+</div>","null","","fixation","","",""
"memory-trial","183","506041","0.0-18.0-1.69","6213","approach_avoid_sv1","""event"",""trial"",""time""
""fullscreenenter"",""1"",""2991""
","
","
","""event"",""trial"",""time""
""fullscreenenter"",""1"",""2991""
","
","","","","","","1193.5","images/cactus8.png","","","memory_trial","3","maybe_new",""
"html-keyboard-response","184","506548","0.0-18.0-0.70","6213","approach_avoid_sv1","""event"",""trial"",""time""
""fullscreenenter"",""1"",""2991""
","
","
","""event"",""trial"",""time""
""fullscreenenter"",""1"",""2991""
","
","","","","","","null","<div style=""font-size:60px;"">+</div>","null","","fixation","","",""
"memory-trial","185","508677","0.0-18.0-1.70","6213","approach_avoid_sv1","""event"",""trial"",""time""
""fullscreenenter"",""1"",""2991""
","
","
","""event"",""trial"",""time""
""fullscreenenter"",""1"",""2991""
","
","","","","","","1120.3999999761581","images/boat5.png","","","memory_trial","1","definitely_old",""
"html-keyboard-response","186","509196","0.0-18.0-0.71","6213","approach_avoid_sv1","""event"",""trial"",""time""
""fullscreenenter"",""1"",""2991""
","
","
","""event"",""trial"",""time""
""fullscreenenter"",""1"",""2991""
","
","","","","","","null","<div style=""font-size:60px;"">+</div>","null","","fixation","","",""
"memory-trial","187","511411","0.0-18.0-1.71","6213","approach_avoid_sv1","""event"",""trial"",""time""
""fullscreenenter"",""1"",""2991""
","
","
","""event"",""trial"",""time""
""fullscreenenter"",""1"",""2991""
","
","","","","","","1202.1999999284744","images/bed7.png","","","memory_trial","2","maybe_old",""
"html-keyboard-response","188","511914","0.0-18.0-0.72","6213","approach_avoid_sv1","""event"",""trial"",""time""
""fullscreenenter"",""1"",""2991""
","
","
","""event"",""trial"",""time""
""fullscreenenter"",""1"",""2991""
","
","","","","","","null","<div style=""font-size:60px;"">+</div>","null","","fixation","","",""
"memory-trial","189","514507","0.0-18.0-1.72","6213","approach_avoid_sv1","""event"",""trial"",""time""
""fullscreenenter"",""1"",""2991""
","
","
","""event"",""trial"",""time""
""fullscreenenter"",""1"",""2991""
","
","","","","","","1581.5999999046326","images/rodent4.png","","","memory_trial","3","maybe_new",""
"html-keyboard-response","190","515023","0.0-18.0-0.73","6213","approach_avoid_sv1","""event"",""trial"",""time""
""fullscreenenter"",""1"",""2991""
","
","
","""event"",""trial"",""time""
""fullscreenenter"",""1"",""2991""
","
","","","","","","null","<div style=""font-size:60px;"">+</div>","null","","fixation","","",""
"memory-trial","191","517386","0.0-18.0-1.73","6213","approach_avoid_sv1","""event"",""trial"",""time""
""fullscreenenter"",""1"",""2991""
","
","
","""event"",""trial"",""time""
""fullscreenenter"",""1"",""2991""
","
","","","","","","1351.2000000476837","images/banana6.png","","","memory_trial","2","maybe_old",""
"html-keyboard-response","192","517890","0.0-18.0-0.74","6213","approach_avoid_sv1","""event"",""trial"",""time""
""fullscreenenter"",""1"",""2991""
","
","
","""event"",""trial"",""time""
""fullscreenenter"",""1"",""2991""
","
","","","","","","null","<div style=""font-size:60px;"">+</div>","null","","fixation","","",""
"memory-trial","193","520754","0.0-18.0-1.74","6213","approach_avoid_sv1","""event"",""trial"",""time""
""fullscreenenter"",""1"",""2991""
","
","
","""event"",""trial"",""time""
""fullscreenenter"",""1"",""2991""
","
","","","","","","1846.3999999761581","images/plane5.png","","","memory_trial","4","definitely_new",""
"html-keyboard-response","194","521261","0.0-18.0-0.75","6213","approach_avoid_sv1","""event"",""trial"",""time""
""fullscreenenter"",""1"",""2991""
","
","
","""event"",""trial"",""time""
""fullscreenenter"",""1"",""2991""
","
","","","","","","null","<div style=""font-size:60px;"">+</div>","null","","fixation","","",""
"memory-trial","195","523444","0.0-18.0-1.75","6213","approach_avoid_sv1","""event"",""trial"",""time""
""fullscreenenter"",""1"",""2991""
","
","
","""event"",""trial"",""time""
""fullscreenenter"",""1"",""2991""
","
","","","","","","1169.1999999284744","images/bed8.png","","","memory_trial","3","maybe_new",""
"html-keyboard-response","196","523958","0.0-18.0-0.76","6213","approach_avoid_sv1","""event"",""trial"",""time""
""fullscreenenter"",""1"",""2991""
","
","
","""event"",""trial"",""time""
""fullscreenenter"",""1"",""2991""
","
","","","","","","null","<div style=""font-size:60px;"">+</div>","null","","fixation","","",""
"memory-trial","197","526149","0.0-18.0-1.76","6213","approach_avoid_sv1","""event"",""trial"",""time""
""fullscreenenter"",""1"",""2991""
","
","
","""event"",""trial"",""time""
""fullscreenenter"",""1"",""2991""
","
","","","","","","1179.5999999046326","images/rabbit7.png","","","memory_trial","3","maybe_new",""
"html-keyboard-response","198","526662","0.0-18.0-0.77","6213","approach_avoid_sv1","""event"",""trial"",""time""
""fullscreenenter"",""1"",""2991""
","
","
","""event"",""trial"",""time""
""fullscreenenter"",""1"",""2991""
","
","","","","","","null","<div style=""font-size:60px;"">+</div>","null","","fixation","","",""
"memory-trial","199","528758","0.0-18.0-1.77","6213","approach_avoid_sv1","""event"",""trial"",""time""
""fullscreenenter"",""1"",""2991""
","
","
","""event"",""trial"",""time""
""fullscreenenter"",""1"",""2991""
","
","","","","","","1083.4000000953674","images/flower2.png","","","memory_trial","3","maybe_new",""
"html-keyboard-response","200","529268","0.0-18.0-0.78","6213","approach_avoid_sv1","""event"",""trial"",""time""
""fullscreenenter"",""1"",""2991""
","
","
","""event"",""trial"",""time""
""fullscreenenter"",""1"",""2991""
","
","","","","","","null","<div style=""font-size:60px;"">+</div>","null","","fixation","","",""
"memory-trial","201","531296","0.0-18.0-1.78","6213","approach_avoid_sv1","""event"",""trial"",""time""
""fullscreenenter"",""1"",""2991""
","
","
","""event"",""trial"",""time""
""fullscreenenter"",""1"",""2991""
","
","","","","","","1017.7999999523163","images/bush7.png","","","memory_trial","3","maybe_new",""
"html-keyboard-response","202","531806","0.0-18.0-0.79","6213","approach_avoid_sv1","""event"",""trial"",""time""
""fullscreenenter"",""1"",""2991""
","
","
","""event"",""trial"",""time""
""fullscreenenter"",""1"",""2991""
","
","","","","","","null","<div style=""font-size:60px;"">+</div>","null","","fixation","","",""
"memory-trial","203","533884","0.0-18.0-1.79","6213","approach_avoid_sv1","""event"",""trial"",""time""
""fullscreenenter"",""1"",""2991""
","
","
","""event"",""trial"",""time""
""fullscreenenter"",""1"",""2991""
","
","","","","","","1063.8999999761581","images/plane7.png","","","memory_trial","3","maybe_new",""
"html-keyboard-response","204","534399","0.0-18.0-0.80","6213","approach_avoid_sv1","""event"",""trial"",""time""
""fullscreenenter"",""1"",""2991""
","
","
","""event"",""trial"",""time""
""fullscreenenter"",""1"",""2991""
","
","","","","","","null","<div style=""font-size:60px;"">+</div>","null","","fixation","","",""
"memory-trial","205","536376","0.0-18.0-1.80","6213","approach_avoid_sv1","""event"",""trial"",""time""
""fullscreenenter"",""1"",""2991""
","
","
","""event"",""trial"",""time""
""fullscreenenter"",""1"",""2991""
","
","","","","","","960.2999999523163","images/rabbit4.png","","","memory_trial","3","maybe_new",""
"html-keyboard-response","206","536890","0.0-18.0-0.81","6213","approach_avoid_sv1","""event"",""trial"",""time""
""fullscreenenter"",""1"",""2991""
","
","
","""event"",""trial"",""time""
""fullscreenenter"",""1"",""2991""
","
","","","","","","null","<div style=""font-size:60px;"">+</div>","null","","fixation","","",""
"memory-trial","207","539403","0.0-18.0-1.81","6213","approach_avoid_sv1","""event"",""trial"",""time""
""fullscreenenter"",""1"",""2991""
","
","
","""event"",""trial"",""time""
""fullscreenenter"",""1"",""2991""
","
","","","","","","1505.4000000953674","images/goat8.png","","","memory_trial","2","maybe_old",""
"html-keyboard-response","208","539910","0.0-18.0-0.82","6213","approach_avoid_sv1","""event"",""trial"",""time""
""fullscreenenter"",""1"",""2991""
","
","
","""event"",""trial"",""time""
""fullscreenenter"",""1"",""2991""
","
","","","","","","null","<div style=""font-size:60px;"">+</div>","null","","fixation","","",""
"memory-trial","209","541966","0.0-18.0-1.82","6213","approach_avoid_sv1","""event"",""trial"",""time""
""fullscreenenter"",""1"",""2991""
","
","
","""event"",""trial"",""time""
""fullscreenenter"",""1"",""2991""
","
","","","","","","1046.1000000238419","images/dog6.png","","","memory_trial","3","maybe_new",""
"html-keyboard-response","210","542477","0.0-18.0-0.83","6213","approach_avoid_sv1","""event"",""trial"",""time""
""fullscreenenter"",""1"",""2991""
","
","
","""event"",""trial"",""time""
""fullscreenenter"",""1"",""2991""
","
","","","","","","null","<div style=""font-size:60px;"">+</div>","null","","fixation","","",""
"memory-trial","211","544599","0.0-18.0-1.83","6213","approach_avoid_sv1","""event"",""trial"",""time""
""fullscreenenter"",""1"",""2991""
","
","
","""event"",""trial"",""time""
""fullscreenenter"",""1"",""2991""
","
","","","","","","1098.5","images/bed4.png","","","memory_trial","3","maybe_new",""
"html-keyboard-response","212","545108","0.0-18.0-0.84","6213","approach_avoid_sv1","""event"",""trial"",""time""
""fullscreenenter"",""1"",""2991""
","
","
","""event"",""trial"",""time""
""fullscreenenter"",""1"",""2991""
","
","","","","","","null","<div style=""font-size:60px;"">+</div>","null","","fixation","","",""
"memory-trial","213","547911","0.0-18.0-1.84","6213","approach_avoid_sv1","""event"",""trial"",""time""
""fullscreenenter"",""1"",""2991""
","
","
","""event"",""trial"",""time""
""fullscreenenter"",""1"",""2991""
","
","","","","","","1778.0999999046326","images/truck5.png","","","memory_trial","2","maybe_old",""
"html-keyboard-response","214","548421","0.0-18.0-0.85","6213","approach_avoid_sv1","""event"",""trial"",""time""
""fullscreenenter"",""1"",""2991""
","
","
","""event"",""trial"",""time""
""fullscreenenter"",""1"",""2991""
","
","","","","","","null","<div style=""font-size:60px;"">+</div>","null","","fixation","","",""
"memory-trial","215","551878","0.0-18.0-1.85","6213","approach_avoid_sv1","""event"",""trial"",""time""
""fullscreenenter"",""1"",""2991""
","
","
","""event"",""trial"",""time""
""fullscreenenter"",""1"",""2991""
","
","","","","","","2438.5","images/rodent7.png","","","memory_trial","1","definitely_old",""
"html-keyboard-response","216","552391","0.0-18.0-0.86","6213","approach_avoid_sv1","""event"",""trial"",""time""
""fullscreenenter"",""1"",""2991""
","
","
","""event"",""trial"",""time""
""fullscreenenter"",""1"",""2991""
","
","","","","","","null","<div style=""font-size:60px;"">+</div>","null","","fixation","","",""
"memory-trial","217","554959","0.0-18.0-1.86","6213","approach_avoid_sv1","""event"",""trial"",""time""
""fullscreenenter"",""1"",""2991""
","
","
","""event"",""trial"",""time""
""fullscreenenter"",""1"",""2991""
","
","","","","","","1558","images/bush1.png","","","memory_trial","3","maybe_new",""
"html-keyboard-response","218","555471","0.0-18.0-0.87","6213","approach_avoid_sv1","""event"",""trial"",""time""
""fullscreenenter"",""1"",""2991""
","
","
","""event"",""trial"",""time""
""fullscreenenter"",""1"",""2991""
","
","","","","","","null","<div style=""font-size:60px;"">+</div>","null","","fixation","","",""
"memory-trial","219","557464","0.0-18.0-1.87","6213","approach_avoid_sv1","""event"",""trial"",""time""
""fullscreenenter"",""1"",""2991""
","
","
","""event"",""trial"",""time""
""fullscreenenter"",""1"",""2991""
","
","","","","","","965.9000000953674","images/tree2.png","","","memory_trial","3","maybe_new",""
"html-keyboard-response","220","557974","0.0-18.0-0.88","6213","approach_avoid_sv1","""event"",""trial"",""time""
""fullscreenenter"",""1"",""2991""
","
","
","""event"",""trial"",""time""
""fullscreenenter"",""1"",""2991""
","
","","","","","","null","<div style=""font-size:60px;"">+</div>","null","","fixation","","",""
"memory-trial","221","561266","0.0-18.0-1.88","6213","approach_avoid_sv1","""event"",""trial"",""time""
""fullscreenenter"",""1"",""2991""
","
","
","""event"",""trial"",""time""
""fullscreenenter"",""1"",""2991""
","
","","","","","","2282.5","images/table3.png","","","memory_trial","2","maybe_old",""
"html-keyboard-response","222","561772","0.0-18.0-0.89","6213","approach_avoid_sv1","""event"",""trial"",""time""
""fullscreenenter"",""1"",""2991""
","
","
","""event"",""trial"",""time""
""fullscreenenter"",""1"",""2991""
","
","","","","","","null","<div style=""font-size:60px;"">+</div>","null","","fixation","","",""
"memory-trial","223","563658","0.0-18.0-1.89","6213","approach_avoid_sv1","""event"",""trial"",""time""
""fullscreenenter"",""1"",""2991""
","
","
","""event"",""trial"",""time""
""fullscreenenter"",""1"",""2991""
","
","","","","","","868.6000000238419","images/goat6.png","","","memory_trial","2","maybe_old",""
"html-keyboard-response","224","564172","0.0-18.0-0.90","6213","approach_avoid_sv1","""event"",""trial"",""time""
""fullscreenenter"",""1"",""2991""
","
","
","""event"",""trial"",""time""
""fullscreenenter"",""1"",""2991""
","
","","","","","","null","<div style=""font-size:60px;"">+</div>","null","","fixation","","",""
"memory-trial","225","567082","0.0-18.0-1.90","6213","approach_avoid_sv1","""event"",""trial"",""time""
""fullscreenenter"",""1"",""2991""
","
","
","""event"",""trial"",""time""
""fullscreenenter"",""1"",""2991""
","
","","","","","","1900.2999999523163","images/table7.png","","","memory_trial","4","definitely_new",""
"html-keyboard-response","226","567588","0.0-18.0-0.91","6213","approach_avoid_sv1","""event"",""trial"",""time""
""fullscreenenter"",""1"",""2991""
","
","
","""event"",""trial"",""time""
""fullscreenenter"",""1"",""2991""
","
","","","","","","null","<div style=""font-size:60px;"">+</div>","null","","fixation","","",""
"memory-trial","227","569949","0.0-18.0-1.91","6213","approach_avoid_sv1","""event"",""trial"",""time""
""fullscreenenter"",""1"",""2991""
","
","
","""event"",""trial"",""time""
""fullscreenenter"",""1"",""2991""
","
","","","","","","1347.7000000476837","images/table6.png","","","memory_trial","1","definitely_old",""
"html-button-response","228","587727","0.0-18.0-2.91-0.91","6213","approach_avoid_sv1","""event"",""trial"",""time""
""fullscreenenter"",""1"",""2991""
","
","
","""event"",""trial"",""time""
""fullscreenenter"",""1"",""2991""
","
","","","","","","17775.700000047684","<p> Take a break! </p><p> Click the button to continue. </p>","0","","break","","",""
"html-keyboard-response","229","588236","0.0-18.0-0.92","6213","approach_avoid_sv1","""event"",""trial"",""time""
""fullscreenenter"",""1"",""2991""
","
","
","""event"",""trial"",""time""
""fullscreenenter"",""1"",""2991""
","
","","","","","","null","<div style=""font-size:60px;"">+</div>","null","","fixation","","",""
"memory-trial","230","590996","0.0-18.0-1.92","6213","approach_avoid_sv1","""event"",""trial"",""time""
""fullscreenenter"",""1"",""2991""
","
","
","""event"",""trial"",""time""
""fullscreenenter"",""1"",""2991""
","
","","","","","","1753.1999999284744","images/banana3.png","","","memory_trial","3","maybe_new",""
"html-keyboard-response","231","591512","0.0-18.0-0.93","6213","approach_avoid_sv1","""event"",""trial"",""time""
""fullscreenenter"",""1"",""2991""
","
","
","""event"",""trial"",""time""
""fullscreenenter"",""1"",""2991""
","
","","","","","","null","<div style=""font-size:60px;"">+</div>","null","","fixation","","",""
"memory-trial","232","593933","0.0-18.0-1.93","6213","approach_avoid_sv1","""event"",""trial"",""time""
""fullscreenenter"",""1"",""2991""
","
","
","""event"",""trial"",""time""
""fullscreenenter"",""1"",""2991""
","
","","","","","","1408.8000000715256","images/chair1.png","","","memory_trial","3","maybe_new",""
"html-keyboard-response","233","594442","0.0-18.0-0.94","6213","approach_avoid_sv1","""event"",""trial"",""time""
""fullscreenenter"",""1"",""2991""
","
","
","""event"",""trial"",""time""
""fullscreenenter"",""1"",""2991""
","
","","","","","","null","<div style=""font-size:60px;"">+</div>","null","","fixation","","",""
"memory-trial","234","596963","0.0-18.0-1.94","6213","approach_avoid_sv1","""event"",""trial"",""time""
""fullscreenenter"",""1"",""2991""
","
","
","""event"",""trial"",""time""
""fullscreenenter"",""1"",""2991""
","
","","","","","","1509.5","images/bush5.png","","","memory_trial","4","definitely_new",""
"html-keyboard-response","235","597468","0.0-18.0-0.95","6213","approach_avoid_sv1","""event"",""trial"",""time""
""fullscreenenter"",""1"",""2991""
","
","
","""event"",""trial"",""time""
""fullscreenenter"",""1"",""2991""
","
","","","","","","null","<div style=""font-size:60px;"">+</div>","null","","fixation","","",""
"memory-trial","236","599799","0.0-18.0-1.95","6213","approach_avoid_sv1","""event"",""trial"",""time""
""fullscreenenter"",""1"",""2991""
","
","
","""event"",""trial"",""time""
""fullscreenenter"",""1"",""2991""
","
","","","","","","1310.2000000476837","images/rabbit8.png","","","memory_trial","4","definitely_new",""
"html-keyboard-response","237","600308","0.0-18.0-0.96","6213","approach_avoid_sv1","""event"",""trial"",""time""
""fullscreenenter"",""1"",""2991""
","
","
","""event"",""trial"",""time""
""fullscreenenter"",""1"",""2991""
","
","","","","","","null","<div style=""font-size:60px;"">+</div>","null","","fixation","","",""
"memory-trial","238","602738","0.0-18.0-1.96","6213","approach_avoid_sv1","""event"",""trial"",""time""
""fullscreenenter"",""1"",""2991""
","
","
","""event"",""trial"",""time""
""fullscreenenter"",""1"",""2991""
","
","","","","","","1424","images/dog4.png","","","memory_trial","3","maybe_new",""
"html-keyboard-response","239","603248","0.0-18.0-0.97","6213","approach_avoid_sv1","""event"",""trial"",""time""
""fullscreenenter"",""1"",""2991""
","
","
","""event"",""trial"",""time""
""fullscreenenter"",""1"",""2991""
","
","","","","","","null","<div style=""font-size:60px;"">+</div>","null","","fixation","","",""
"memory-trial","240","605528","0.0-18.0-1.97","6213","approach_avoid_sv1","""event"",""trial"",""time""
""fullscreenenter"",""1"",""2991""
","
","
","""event"",""trial"",""time""
""fullscreenenter"",""1"",""2991""
","
","","","","","","1259.1000000238419","images/bed5.png","","","memory_trial","3","maybe_new",""
"html-keyboard-response","241","606042","0.0-18.0-0.98","6213","approach_avoid_sv1","""event"",""trial"",""time""
""fullscreenenter"",""1"",""2991""
","
","
","""event"",""trial"",""time""
""fullscreenenter"",""1"",""2991""
","
","","","","","","null","<div style=""font-size:60px;"">+</div>","null","","fixation","","",""
"memory-trial","242","608782","0.0-18.0-1.98","6213","approach_avoid_sv1","""event"",""trial"",""time""
""fullscreenenter"",""1"",""2991""
","
","
","""event"",""trial"",""time""
""fullscreenenter"",""1"",""2991""
","
","","","","","","1726.7000000476837","images/bed1.png","","","memory_trial","3","maybe_new",""
"html-keyboard-response","243","609294","0.0-18.0-0.99","6213","approach_avoid_sv1","""event"",""trial"",""time""
""fullscreenenter"",""1"",""2991""
","
","
","""event"",""trial"",""time""
""fullscreenenter"",""1"",""2991""
","
","","","","","","null","<div style=""font-size:60px;"">+</div>","null","","fixation","","",""
"memory-trial","244","611374","0.0-18.0-1.99","6213","approach_avoid_sv1","""event"",""trial"",""time""
""fullscreenenter"",""1"",""2991""
","
","
","""event"",""trial"",""time""
""fullscreenenter"",""1"",""2991""
","
","","","","","","1071","images/banana1.png","","","memory_trial","3","maybe_new",""
"html-keyboard-response","245","611889","0.0-18.0-0.100","6213","approach_avoid_sv1","""event"",""trial"",""time""
""fullscreenenter"",""1"",""2991""
","
","
","""event"",""trial"",""time""
""fullscreenenter"",""1"",""2991""
","
","","","","","","null","<div style=""font-size:60px;"">+</div>","null","","fixation","","",""
"memory-trial","246","613717","0.0-18.0-1.100","6213","approach_avoid_sv1","""event"",""trial"",""time""
""fullscreenenter"",""1"",""2991""
","
","
","""event"",""trial"",""time""
""fullscreenenter"",""1"",""2991""
","
","","","","","","814.9000000953674","images/rabbit6.png","","","memory_trial","3","maybe_new",""
"html-keyboard-response","247","614228","0.0-18.0-0.101","6213","approach_avoid_sv1","""event"",""trial"",""time""
""fullscreenenter"",""1"",""2991""
","
","
","""event"",""trial"",""time""
""fullscreenenter"",""1"",""2991""
","
","","","","","","null","<div style=""font-size:60px;"">+</div>","null","","fixation","","",""
"memory-trial","248","616349","0.0-18.0-1.101","6213","approach_avoid_sv1","""event"",""trial"",""time""
""fullscreenenter"",""1"",""2991""
","
","
","""event"",""trial"",""time""
""fullscreenenter"",""1"",""2991""
","
","","","","","","1111.2000000476837","images/goat4.png","","","memory_trial","1","definitely_old",""
"html-keyboard-response","249","616863","0.0-18.0-0.102","6213","approach_avoid_sv1","""event"",""trial"",""time""
""fullscreenenter"",""1"",""2991""
","
","
","""event"",""trial"",""time""
""fullscreenenter"",""1"",""2991""
","
","","","","","","null","<div style=""font-size:60px;"">+</div>","null","","fixation","","",""
"memory-trial","250","618941","0.0-18.0-1.102","6213","approach_avoid_sv1","""event"",""trial"",""time""
""fullscreenenter"",""1"",""2991""
","
","
","""event"",""trial"",""time""
""fullscreenenter"",""1"",""2991""
","
","","","","","","1065.5999999046326","images/sheep1.png","","","memory_trial","1","definitely_old",""
"html-keyboard-response","251","619457","0.0-18.0-0.103","6213","approach_avoid_sv1","""event"",""trial"",""time""
""fullscreenenter"",""1"",""2991""
","
","
","""event"",""trial"",""time""
""fullscreenenter"",""1"",""2991""
","
","","","","","","null","<div style=""font-size:60px;"">+</div>","null","","fixation","","",""
"memory-trial","252","621447","0.0-18.0-1.103","6213","approach_avoid_sv1","""event"",""trial"",""time""
""fullscreenenter"",""1"",""2991""
","
","
","""event"",""trial"",""time""
""fullscreenenter"",""1"",""2991""
","
","","","","","","982.6000000238419","images/truck7.png","","","memory_trial","2","maybe_old",""
"html-keyboard-response","253","621966","0.0-18.0-0.104","6213","approach_avoid_sv1","""event"",""trial"",""time""
""fullscreenenter"",""1"",""2991""
","
","
","""event"",""trial"",""time""
""fullscreenenter"",""1"",""2991""
","
","","","","","","null","<div style=""font-size:60px;"">+</div>","null","","fixation","","",""
"memory-trial","254","624453","0.0-18.0-1.104","6213","approach_avoid_sv1","""event"",""trial"",""time""
""fullscreenenter"",""1"",""2991""
","
","
","""event"",""trial"",""time""
""fullscreenenter"",""1"",""2991""
","
","","","","","","1478.7999999523163","images/rodent8.png","","","memory_trial","3","maybe_new",""
"html-keyboard-response","255","624963","0.0-18.0-0.105","6213","approach_avoid_sv1","""event"",""trial"",""time""
""fullscreenenter"",""1"",""2991""
","
","
","""event"",""trial"",""time""
""fullscreenenter"",""1"",""2991""
","
","","","","","","null","<div style=""font-size:60px;"">+</div>","null","","fixation","","",""
"memory-trial","256","627422","0.0-18.0-1.105","6213","approach_avoid_sv1","""event"",""trial"",""time""
""fullscreenenter"",""1"",""2991""
","
","
","""event"",""trial"",""time""
""fullscreenenter"",""1"",""2991""
","
","","","","","","1445.8999999761581","images/cat6.png","","","memory_trial","4","definitely_new",""
"html-keyboard-response","257","627940","0.0-18.0-0.106","6213","approach_avoid_sv1","""event"",""trial"",""time""
""fullscreenenter"",""1"",""2991""
","
","
","""event"",""trial"",""time""
""fullscreenenter"",""1"",""2991""
","
","","","","","","null","<div style=""font-size:60px;"">+</div>","null","","fixation","","",""
"memory-trial","258","630209","0.0-18.0-1.106","6213","approach_avoid_sv1","""event"",""trial"",""time""
""fullscreenenter"",""1"",""2991""
","
","
","""event"",""trial"",""time""
""fullscreenenter"",""1"",""2991""
","
","","","","","","1259.1000000238419","images/cat3.png","","","memory_trial","3","maybe_new",""
"html-keyboard-response","259","630729","0.0-18.0-0.107","6213","approach_avoid_sv1","""event"",""trial"",""time""
""fullscreenenter"",""1"",""2991""
","
","
","""event"",""trial"",""time""
""fullscreenenter"",""1"",""2991""
","
","","","","","","null","<div style=""font-size:60px;"">+</div>","null","","fixation","","",""
"memory-trial","260","633561","0.0-18.0-1.107","6213","approach_avoid_sv1","""event"",""trial"",""time""
""fullscreenenter"",""1"",""2991""
","
","
","""event"",""trial"",""time""
""fullscreenenter"",""1"",""2991""
","
","","","","","","1816.7000000476837","images/rodent5.png","","","memory_trial","2","maybe_old",""
"html-keyboard-response","261","634074","0.0-18.0-0.108","6213","approach_avoid_sv1","""event"",""trial"",""time""
""fullscreenenter"",""1"",""2991""
","
","
","""event"",""trial"",""time""
""fullscreenenter"",""1"",""2991""
","
","","","","","","null","<div style=""font-size:60px;"">+</div>","null","","fixation","","",""
"memory-trial","262","636712","0.0-18.0-1.108","6213","approach_avoid_sv1","""event"",""trial"",""time""
""fullscreenenter"",""1"",""2991""
","
","
","""event"",""trial"",""time""
""fullscreenenter"",""1"",""2991""
","
","","","","","","1618","images/horse8.png","","","memory_trial","2","maybe_old",""
"html-keyboard-response","263","637221","0.0-18.0-0.109","6213","approach_avoid_sv1","""event"",""trial"",""time""
""fullscreenenter"",""1"",""2991""
","
","
","""event"",""trial"",""time""
""fullscreenenter"",""1"",""2991""
","
","","","","","","null","<div style=""font-size:60px;"">+</div>","null","","fixation","","",""
"memory-trial","264","640946","0.0-18.0-1.109","6213","approach_avoid_sv1","""event"",""trial"",""time""
""fullscreenenter"",""1"",""2991""
","
","
","""event"",""trial"",""time""
""fullscreenenter"",""1"",""2991""
","
","","","","","","2713.5","images/train5.png","","","memory_trial","3","maybe_new",""
"html-keyboard-response","265","641460","0.0-18.0-0.110","6213","approach_avoid_sv1","""event"",""trial"",""time""
""fullscreenenter"",""1"",""2991""
","
","
","""event"",""trial"",""time""
""fullscreenenter"",""1"",""2991""
","
","","","","","","null","<div style=""font-size:60px;"">+</div>","null","","fixation","","",""
"memory-trial","266","644756","0.0-18.0-1.110","6213","approach_avoid_sv1","""event"",""trial"",""time""
""fullscreenenter"",""1"",""2991""
","
","
","""event"",""trial"",""time""
""fullscreenenter"",""1"",""2991""
","
","","","","","","2286.100000023842","images/dog2.png","","","memory_trial","3","maybe_new",""
"html-keyboard-response","267","645264","0.0-18.0-0.111","6213","approach_avoid_sv1","""event"",""trial"",""time""
""fullscreenenter"",""1"",""2991""
","
","
","""event"",""trial"",""time""
""fullscreenenter"",""1"",""2991""
","
","","","","","","null","<div style=""font-size:60px;"">+</div>","null","","fixation","","",""
"memory-trial","268","647428","0.0-18.0-1.111","6213","approach_avoid_sv1","""event"",""trial"",""time""
""fullscreenenter"",""1"",""2991""
","
","
","""event"",""trial"",""time""
""fullscreenenter"",""1"",""2991""
","
","","","","","","1151.1999999284744","images/bed6.png","","","memory_trial","3","maybe_new",""
"html-keyboard-response","269","647930","0.0-18.0-0.112","6213","approach_avoid_sv1","""event"",""trial"",""time""
""fullscreenenter"",""1"",""2991""
","
","
","""event"",""trial"",""time""
""fullscreenenter"",""1"",""2991""
","
","","","","","","null","<div style=""font-size:60px;"">+</div>","null","","fixation","","",""
"memory-trial","270","650011","0.0-18.0-1.112","6213","approach_avoid_sv1","""event"",""trial"",""time""
""fullscreenenter"",""1"",""2991""
","
","
","""event"",""trial"",""time""
""fullscreenenter"",""1"",""2991""
","
","","","","","","1064.7000000476837","images/cow2.png","","","memory_trial","3","maybe_new",""
"html-keyboard-response","271","650518","0.0-18.0-0.113","6213","approach_avoid_sv1","""event"",""trial"",""time""
""fullscreenenter"",""1"",""2991""
","
","
","""event"",""trial"",""time""
""fullscreenenter"",""1"",""2991""
","
","","","","","","null","<div style=""font-size:60px;"">+</div>","null","","fixation","","",""
"memory-trial","272","653432","0.0-18.0-1.113","6213","approach_avoid_sv1","""event"",""trial"",""time""
""fullscreenenter"",""1"",""2991""
","
","
","""event"",""trial"",""time""
""fullscreenenter"",""1"",""2991""
","
","","","","","","1899","images/straw2.png","","","memory_trial","3","maybe_new",""
"html-keyboard-response","273","653943","0.0-18.0-0.114","6213","approach_avoid_sv1","""event"",""trial"",""time""
""fullscreenenter"",""1"",""2991""
","
","
","""event"",""trial"",""time""
""fullscreenenter"",""1"",""2991""
","
","","","","","","null","<div style=""font-size:60px;"">+</div>","null","","fixation","","",""
"memory-trial","274","657364","0.0-18.0-1.114","6213","approach_avoid_sv1","""event"",""trial"",""time""
""fullscreenenter"",""1"",""2991""
","
","
","""event"",""trial"",""time""
""fullscreenenter"",""1"",""2991""
","
","","","","","","2415.100000023842","images/boat3.png","","","memory_trial","4","definitely_new",""
"html-keyboard-response","275","657870","0.0-18.0-0.115","6213","approach_avoid_sv1","""event"",""trial"",""time""
""fullscreenenter"",""1"",""2991""
","
","
","""event"",""trial"",""time""
""fullscreenenter"",""1"",""2991""
","
","","","","","","null","<div style=""font-size:60px;"">+</div>","null","","fixation","","",""
"memory-trial","276","659720","0.0-18.0-1.115","6213","approach_avoid_sv1","""event"",""trial"",""time""
""fullscreenenter"",""1"",""2991""
","
","
","""event"",""trial"",""time""
""fullscreenenter"",""1"",""2991""
","
","","","","","","837.3999999761581","images/tree6.png","","","memory_trial","3","maybe_new",""
"html-keyboard-response","277","660237","0.0-18.0-0.116","6213","approach_avoid_sv1","""event"",""trial"",""time""
""fullscreenenter"",""1"",""2991""
","
","
","""event"",""trial"",""time""
""fullscreenenter"",""1"",""2991""
","
","","","","","","null","<div style=""font-size:60px;"">+</div>","null","","fixation","","",""
"memory-trial","278","662353","0.0-18.0-1.116","6213","approach_avoid_sv1","""event"",""trial"",""time""
""fullscreenenter"",""1"",""2991""
","
","
","""event"",""trial"",""time""
""fullscreenenter"",""1"",""2991""
","
","","","","","","1101.1000000238419","images/flower8.png","","","memory_trial","3","maybe_new",""
"html-keyboard-response","279","662859","0.0-18.0-0.117","6213","approach_avoid_sv1","""event"",""trial"",""time""
""fullscreenenter"",""1"",""2991""
","
","
","""event"",""trial"",""time""
""fullscreenenter"",""1"",""2991""
","
","","","","","","null","<div style=""font-size:60px;"">+</div>","null","","fixation","","",""
"memory-trial","280","664817","0.0-18.0-1.117","6213","approach_avoid_sv1","""event"",""trial"",""time""
""fullscreenenter"",""1"",""2991""
","
","
","""event"",""trial"",""time""
""fullscreenenter"",""1"",""2991""
","
","","","","","","941","images/chair3.png","","","memory_trial","3","maybe_new",""
"html-keyboard-response","281","665322","0.0-18.0-0.118","6213","approach_avoid_sv1","""event"",""trial"",""time""
""fullscreenenter"",""1"",""2991""
","
","
","""event"",""trial"",""time""
""fullscreenenter"",""1"",""2991""
","
","","","","","","null","<div style=""font-size:60px;"">+</div>","null","","fixation","","",""
"memory-trial","282","667289","0.0-18.0-1.118","6213","approach_avoid_sv1","""event"",""trial"",""time""
""fullscreenenter"",""1"",""2991""
","
","
","""event"",""trial"",""time""
""fullscreenenter"",""1"",""2991""
","
","","","","","","955.2000000476837","images/cat7.png","","","memory_trial","3","maybe_new",""
"html-keyboard-response","283","667801","0.0-18.0-0.119","6213","approach_avoid_sv1","""event"",""trial"",""time""
""fullscreenenter"",""1"",""2991""
","
","
","""event"",""trial"",""time""
""fullscreenenter"",""1"",""2991""
","
","","","","","","null","<div style=""font-size:60px;"">+</div>","null","","fixation","","",""
"memory-trial","284","670058","0.0-18.0-1.119","6213","approach_avoid_sv1","""event"",""trial"",""time""
""fullscreenenter"",""1"",""2991""
","
","
","""event"",""trial"",""time""
""fullscreenenter"",""1"",""2991""
","
","","","","","","1250.6999999284744","images/boat4.png","","","memory_trial","3","maybe_new",""
"html-keyboard-response","285","670570","0.0-18.0-0.120","6213","approach_avoid_sv1","""event"",""trial"",""time""
""fullscreenenter"",""1"",""2991""
","
","
","""event"",""trial"",""time""
""fullscreenenter"",""1"",""2991""
","
","","","","","","null","<div style=""font-size:60px;"">+</div>","null","","fixation","","",""
"memory-trial","286","672603","0.0-18.0-1.120","6213","approach_avoid_sv1","""event"",""trial"",""time""
""fullscreenenter"",""1"",""2991""
","
","
","""event"",""trial"",""time""
""fullscreenenter"",""1"",""2991""
","
","","","","","","1028.1000000238419","images/horse2.png","","","memory_trial","1","definitely_old",""
"html-keyboard-response","287","673115","0.0-18.0-0.121","6213","approach_avoid_sv1","""event"",""trial"",""time""
""fullscreenenter"",""1"",""2991""
","
","
","""event"",""trial"",""time""
""fullscreenenter"",""1"",""2991""
","
","","","","","","null","<div style=""font-size:60px;"">+</div>","null","","fixation","","",""
"memory-trial","288","676490","0.0-18.0-1.121","6213","approach_avoid_sv1","""event"",""trial"",""time""
""fullscreenenter"",""1"",""2991""
","
","
","""event"",""trial"",""time""
""fullscreenenter"",""1"",""2991""
","
","","","","","","2360.399999976158","images/truck1.png","","","memory_trial","2","maybe_old",""
"html-keyboard-response","289","676997","0.0-18.0-0.122","6213","approach_avoid_sv1","""event"",""trial"",""time""
""fullscreenenter"",""1"",""2991""
","
","
","""event"",""trial"",""time""
""fullscreenenter"",""1"",""2991""
","
","","","","","","null","<div style=""font-size:60px;"">+</div>","null","","fixation","","",""
"memory-trial","290","679651","0.0-18.0-1.122","6213","approach_avoid_sv1","""event"",""trial"",""time""
""fullscreenenter"",""1"",""2991""
","
","
","""event"",""trial"",""time""
""fullscreenenter"",""1"",""2991""
","
","","","","","","1642.6000000238419","images/goat1.png","","","memory_trial","3","maybe_new",""
"html-keyboard-response","291","680158","0.0-18.0-0.123","6213","approach_avoid_sv1","""event"",""trial"",""time""
""fullscreenenter"",""1"",""2991""
","
","
","""event"",""trial"",""time""
""fullscreenenter"",""1"",""2991""
","
","","","","","","null","<div style=""font-size:60px;"">+</div>","null","","fixation","","",""
"memory-trial","292","682689","0.0-18.0-1.123","6213","approach_avoid_sv1","""event"",""trial"",""time""
""fullscreenenter"",""1"",""2991""
","
","
","""event"",""trial"",""time""
""fullscreenenter"",""1"",""2991""
","
","","","","","","1506.6000000238419","images/sofa2.png","","","memory_trial","2","maybe_old",""
"html-keyboard-response","293","683197","0.0-18.0-0.124","6213","approach_avoid_sv1","""event"",""trial"",""time""
""fullscreenenter"",""1"",""2991""
","
","
","""event"",""trial"",""time""
""fullscreenenter"",""1"",""2991""
","
","","","","","","null","<div style=""font-size:60px;"">+</div>","null","","fixation","","",""
"memory-trial","294","685396","0.0-18.0-1.124","6213","approach_avoid_sv1","""event"",""trial"",""time""
""fullscreenenter"",""1"",""2991""
","
","
","""event"",""trial"",""time""
""fullscreenenter"",""1"",""2991""
","
","","","","","","1187.6000000238419","images/bed2.png","","","memory_trial","3","maybe_new",""
"html-keyboard-response","295","685910","0.0-18.0-0.125","6213","approach_avoid_sv1","""event"",""trial"",""time""
""fullscreenenter"",""1"",""2991""
","
","
","""event"",""trial"",""time""
""fullscreenenter"",""1"",""2991""
","
","","","","","","null","<div style=""font-size:60px;"">+</div>","null","","fixation","","",""
"memory-trial","296","688527","0.0-18.0-1.125","6213","approach_avoid_sv1","""event"",""trial"",""time""
""fullscreenenter"",""1"",""2991""
","
","
","""event"",""trial"",""time""
""fullscreenenter"",""1"",""2991""
","
","","","","","","1612.6000000238419","images/tree8.png","","","memory_trial","4","definitely_new",""
"html-keyboard-response","297","689042","0.0-18.0-0.126","6213","approach_avoid_sv1","""event"",""trial"",""time""
""fullscreenenter"",""1"",""2991""
","
","
","""event"",""trial"",""time""
""fullscreenenter"",""1"",""2991""
","
","","","","","","null","<div style=""font-size:60px;"">+</div>","null","","fixation","","",""
