"trial_type","trial_index","time_elapsed","internal_node_id","subject_id","task_version","interactions","blur_events","focus_events","fullscreenenter_events","fullscreenexit_events","success","timeout","failed_images","failed_audio","failed_video","rt","stimulus","response","button_pressed","task_part","key_press","answer","correct"
"pavlovia","0","6","0.0-0.0","5970","approach_avoid_sv1","""event"",""trial"",""time""
""fullscreenenter"",""1"",""29021""
","
","
","""event"",""trial"",""time""
""fullscreenenter"",""1"",""29021""
","
","","","","","","","","","","","","",""
"fullscreen","1","29986","0.0-1.0","5970","approach_avoid_sv1","""event"",""trial"",""time""
""fullscreenenter"",""1"",""29021""
","
","
","""event"",""trial"",""time""
""fullscreenenter"",""1"",""29021""
","
","true","","","","","","","","","","","",""
"preload","2","56800","0.0-2.0","5970","approach_avoid_sv1","""event"",""trial"",""time""
""fullscreenenter"",""1"",""29021""
","
","
","""event"",""trial"",""time""
""fullscreenenter"",""1"",""29021""
","
","true","false","[]","[]","[]","","","","","","","",""
"preload","3","78108","0.0-3.0","5970","approach_avoid_sv1","""event"",""trial"",""time""
""fullscreenenter"",""1"",""29021""
","
","
","""event"",""trial"",""time""
""fullscreenenter"",""1"",""29021""
","
","true","false","[]","[]","[]","","","","","","","",""
"preload","4","79557","0.0-4.0","5970","approach_avoid_sv1","""event"",""trial"",""time""
""fullscreenenter"",""1"",""29021""
","
","
","""event"",""trial"",""time""
""fullscreenenter"",""1"",""29021""
","
","true","false","[]","[]","[]","","","","","","","",""
"audio-keyboard-response","5","85095","0.0-5.0","5970","approach_avoid_sv1","""event"",""trial"",""time""
""fullscreenenter"",""1"",""29021""
","
","
","""event"",""trial"",""time""
""fullscreenenter"",""1"",""29021""
","
","","","","","","5536","audio/beep_loop.wav"," ","","","","",""
"audio-button-response","6","89401","0.0-6.0","5970","approach_avoid_sv1","""event"",""trial"",""time""
""fullscreenenter"",""1"",""29021""
","
","
","""event"",""trial"",""time""
""fullscreenenter"",""1"",""29021""
","
","","","","","","4309","audio/turtle.wav","3","","","","",""
"audio-button-response","7","91667","0.0-7.0","5970","approach_avoid_sv1","""event"",""trial"",""time""
""fullscreenenter"",""1"",""29021""
","
","
","""event"",""trial"",""time""
""fullscreenenter"",""1"",""29021""
","
","","","","","","1248","audio/shark.wav","2","","","","",""
"preload","8","117927","0.0-8.0","5970","approach_avoid_sv1","""event"",""trial"",""time""
""fullscreenenter"",""1"",""29021""
","
","
","""event"",""trial"",""time""
""fullscreenenter"",""1"",""29021""
","
","true","false","[]","[]","[]","","","","","","","",""
"learning-instructions","9","127654","0.0-9.0-0.0","5970","approach_avoid_sv1","""event"",""trial"",""time""
""fullscreenenter"",""1"",""29021""
","
","
","""event"",""trial"",""time""
""fullscreenenter"",""1"",""29021""
","
","","","","","","5250.60000000149","<p> Welcome back! </p><p> Last week, you had to make choices about lots of different items.  </p>","","0","instructions","","",""
"learning-instructions","10","133800","0.0-9.0-0.1","5970","approach_avoid_sv1","""event"",""trial"",""time""
""fullscreenenter"",""1"",""29021""
","
","
","""event"",""trial"",""time""
""fullscreenenter"",""1"",""29021""
","
","","","","","","2032.0999999996275","<p> Today, we are going to ask you to try to remember all the items. </p>","","0","instructions","","",""
"learning-instructions","11","144681","0.0-9.0-0.2","5970","approach_avoid_sv1","""event"",""trial"",""time""
""fullscreenenter"",""1"",""29021""
","
","
","""event"",""trial"",""time""
""fullscreenenter"",""1"",""29021""
","
","","","","","","719.7000000011176","<p> On every trial, you will see an image. </p><p> The image may be an OLD image you saw during the games last week or it may be a NEW image that was not presented. </p>","","0","instructions","","",""
"learning-instructions","12","153911","0.0-9.0-0.3","5970","approach_avoid_sv1","""event"",""trial"",""time""
""fullscreenenter"",""1"",""29021""
","
","
","""event"",""trial"",""time""
""fullscreenenter"",""1"",""29021""
","
","","","","","","712.2999999988824","<p> You need to select whether the image is:  </p><p>  'Definitely old', 'Maybe old', 'Maybe new', or 'Definitely new.'  </p><div class=""mem-choice-instructions-grid""><div class=""choice-option"" id=""choice-option-1"" ><img src=""images/definitely_old_1.png"" id=""choice-option-img-1"" class=""choice-option-img"" stage=""1""></div><div class=""choice-option"" id=""choice-option-2"" ><img src=""images/maybe_old_1.png"" id=""choice-option-img-2"" class=""choice-option-img"" stage=""1""></div><div class=""choice-option"" id=""choice-option-3"" ><img src=""images/maybe_new_1.png"" id=""choice-option-img-3"" class=""choice-option-img"" stage=""1""></div><div class=""choice-option"" id=""choice-option-4"" > <img src=""images/definitely_new_1.png"" id=""choice-option-img-4"" class=""choice-option-img"" stage=""1""></div></div>","","0","instructions","","",""
"learning-instructions","13","164078","0.0-9.0-0.4","5970","approach_avoid_sv1","""event"",""trial"",""time""
""fullscreenenter"",""1"",""29021""
","
","
","""event"",""trial"",""time""
""fullscreenenter"",""1"",""29021""
","
","","","","","","3647.0999999996275","<p> You should use the 1, 2, 3, and 4 keys to make your responses.  </p><div class=""mem-choice-instructions-grid""><div class=""choice-option"" id=""choice-option-1"" ><img src=""images/definitely_old.png"" id=""choice-option-img-1"" class=""choice-option-img"" stage=""1""></div><div class=""choice-option"" id=""choice-option-2"" ><img src=""images/maybe_old.png"" id=""choice-option-img-2"" class=""choice-option-img"" stage=""1""></div><div class=""choice-option"" id=""choice-option-3"" ><img src=""images/maybe_new.png"" id=""choice-option-img-3"" class=""choice-option-img"" stage=""1""></div><div class=""choice-option"" id=""choice-option-4"" > <img src=""images/definitely_new.png"" id=""choice-option-img-4"" class=""choice-option-img"" stage=""1""></div></div>","","0","instructions","","",""
"learning-instructions","14","171105","0.0-9.0-0.5","5970","approach_avoid_sv1","""event"",""trial"",""time""
""fullscreenenter"",""1"",""29021""
","
","
","""event"",""trial"",""time""
""fullscreenenter"",""1"",""29021""
","
","","","","","","681","<p> You will have 10 seconds to make each response.  </p><p>  Make sure to respond before time runs out! </p>","","0","instructions","","",""
"learning-instructions","15","179563","0.0-9.0-0.6","5970","approach_avoid_sv1","""event"",""trial"",""time""
""fullscreenenter"",""1"",""29021""
","
","
","""event"",""trial"",""time""
""fullscreenenter"",""1"",""29021""
","
","","","","","","1362.5999999996275","<p> Today, you will see each image ONCE only.  </p><p>  That means none of the images will repeat. </p>","","0","instructions","","",""
"learning-instructions","16","193366","0.0-9.0-0.7","5970","approach_avoid_sv1","""event"",""trial"",""time""
""fullscreenenter"",""1"",""29021""
","
","
","""event"",""trial"",""time""
""fullscreenenter"",""1"",""29021""
","
","","","","","","1118.2000000011176","<p> Before you play the real game, it is time to practice. </p><p>  Just like in the real game, some of the images in the practice will be ones you have seen before. </p><p>  Others will be entirely new. </p>","","0","instructions","","",""
"html-button-response","17","201081","0.0-10.0","5970","approach_avoid_sv1","""event"",""trial"",""time""
""fullscreenenter"",""1"",""29021""
","
","
","""event"",""trial"",""time""
""fullscreenenter"",""1"",""29021""
","
","","","","","","7595.4000000003725","<p> Ready to practice? </p><p> Remember, use the 1, 2, 3, and 4 keys to make your responses. </p>","0","","instructions","","",""
"html-keyboard-response","18","201719","0.0-11.0-0.0","5970","approach_avoid_sv1","""event"",""trial"",""time""
""fullscreenenter"",""1"",""29021""
","
","
","""event"",""trial"",""time""
""fullscreenenter"",""1"",""29021""
","
","","","","","","null","<div style=""font-size:60px;"">+</div>","null","","fixation","","",""
"memory-trial","19","205847","0.0-11.0-1.0","5970","approach_avoid_sv1","""event"",""trial"",""time""
""fullscreenenter"",""1"",""29021""
","
","
","""event"",""trial"",""time""
""fullscreenenter"",""1"",""29021""
","
","","","","","","3105.10000000149","images/racket1.png","","","practice","4","definitely_new",""
"html-keyboard-response","20","206369","0.0-11.0-0.1","5970","approach_avoid_sv1","""event"",""trial"",""time""
""fullscreenenter"",""1"",""29021""
","
","
","""event"",""trial"",""time""
""fullscreenenter"",""1"",""29021""
","
","","","","","","null","<div style=""font-size:60px;"">+</div>","null","","fixation","","",""
"memory-trial","21","209698","0.0-11.0-1.1","5970","approach_avoid_sv1","""event"",""trial"",""time""
""fullscreenenter"",""1"",""29021""
","
","
","""event"",""trial"",""time""
""fullscreenenter"",""1"",""29021""
","
","","","","","","2313.4000000003725","images/racket5.png","","","practice","2","maybe_old",""
"html-keyboard-response","22","210220","0.0-11.0-0.2","5970","approach_avoid_sv1","""event"",""trial"",""time""
""fullscreenenter"",""1"",""29021""
","
","
","""event"",""trial"",""time""
""fullscreenenter"",""1"",""29021""
","
","","","","","","null","<div style=""font-size:60px;"">+</div>","null","","fixation","","",""
"memory-trial","23","212588","0.0-11.0-1.2","5970","approach_avoid_sv1","""event"",""trial"",""time""
""fullscreenenter"",""1"",""29021""
","
","
","""event"",""trial"",""time""
""fullscreenenter"",""1"",""29021""
","
","","","","","","1357.5999999996275","images/ball3.png","","","practice","2","maybe_old",""
"html-keyboard-response","24","213092","0.0-11.0-0.3","5970","approach_avoid_sv1","""event"",""trial"",""time""
""fullscreenenter"",""1"",""29021""
","
","
","""event"",""trial"",""time""
""fullscreenenter"",""1"",""29021""
","
","","","","","","null","<div style=""font-size:60px;"">+</div>","null","","fixation","","",""
"memory-trial","25","215490","0.0-11.0-1.3","5970","approach_avoid_sv1","""event"",""trial"",""time""
""fullscreenenter"",""1"",""29021""
","
","
","""event"",""trial"",""time""
""fullscreenenter"",""1"",""29021""
","
","","","","","","1384.0999999996275","images/ball1.png","","","practice","3","maybe_new",""
"html-keyboard-response","26","215996","0.0-11.0-0.4","5970","approach_avoid_sv1","""event"",""trial"",""time""
""fullscreenenter"",""1"",""29021""
","
","
","""event"",""trial"",""time""
""fullscreenenter"",""1"",""29021""
","
","","","","","","null","<div style=""font-size:60px;"">+</div>","null","","fixation","","",""
"memory-trial","27","219159","0.0-11.0-1.4","5970","approach_avoid_sv1","""event"",""trial"",""time""
""fullscreenenter"",""1"",""29021""
","
","
","""event"",""trial"",""time""
""fullscreenenter"",""1"",""29021""
","
","","","","","","2140.199999999255","images/racket2.png","","","practice","1","definitely_old",""
"html-keyboard-response","28","219682","0.0-11.0-0.5","5970","approach_avoid_sv1","""event"",""trial"",""time""
""fullscreenenter"",""1"",""29021""
","
","
","""event"",""trial"",""time""
""fullscreenenter"",""1"",""29021""
","
","","","","","","null","<div style=""font-size:60px;"">+</div>","null","","fixation","","",""
"memory-trial","29","222604","0.0-11.0-1.5","5970","approach_avoid_sv1","""event"",""trial"",""time""
""fullscreenenter"",""1"",""29021""
","
","
","""event"",""trial"",""time""
""fullscreenenter"",""1"",""29021""
","
","","","","","","1908.7999999988824","images/ball5.png","","","practice","3","maybe_new",""
"html-keyboard-response","30","223114","0.0-11.0-0.6","5970","approach_avoid_sv1","""event"",""trial"",""time""
""fullscreenenter"",""1"",""29021""
","
","
","""event"",""trial"",""time""
""fullscreenenter"",""1"",""29021""
","
","","","","","","null","<div style=""font-size:60px;"">+</div>","null","","fixation","","",""
"memory-trial","31","225320","0.0-11.0-1.6","5970","approach_avoid_sv1","""event"",""trial"",""time""
""fullscreenenter"",""1"",""29021""
","
","
","""event"",""trial"",""time""
""fullscreenenter"",""1"",""29021""
","
","","","","","","1196.199999999255","images/racket3.png","","","practice","2","maybe_old",""
"html-keyboard-response","32","225833","0.0-11.0-0.7","5970","approach_avoid_sv1","""event"",""trial"",""time""
""fullscreenenter"",""1"",""29021""
","
","
","""event"",""trial"",""time""
""fullscreenenter"",""1"",""29021""
","
","","","","","","null","<div style=""font-size:60px;"">+</div>","null","","fixation","","",""
"memory-trial","33","228272","0.0-11.0-1.7","5970","approach_avoid_sv1","""event"",""trial"",""time""
""fullscreenenter"",""1"",""29021""
","
","
","""event"",""trial"",""time""
""fullscreenenter"",""1"",""29021""
","
","","","","","","1430.199999999255","images/ball2.png","","","practice","3","maybe_new",""
"learning-instructions","34","237447","0.0-12.0-0.0","5970","approach_avoid_sv1","""event"",""trial"",""time""
""fullscreenenter"",""1"",""29021""
","
","
","""event"",""trial"",""time""
""fullscreenenter"",""1"",""29021""
","
","","","","","","1315.5","<p> Great! You have completed the practice. </p><p> Before you start, we're going to ask you a few questions about how the game works.  </p>","","0","instructions","","",""
"preload","35","266844","0.0-13.0","5970","approach_avoid_sv1","""event"",""trial"",""time""
""fullscreenenter"",""1"",""29021""
","
","
","""event"",""trial"",""time""
""fullscreenenter"",""1"",""29021""
","
","true","false","[]","[]","[]","","","","","","","",""
"comp-q","36","276285","0.0-14.0-0.0","5970","approach_avoid_sv1","""event"",""trial"",""time""
""fullscreenenter"",""1"",""29021""
","
","
","""event"",""trial"",""time""
""fullscreenenter"",""1"",""29021""
","
","","","","","","3609.4000000003725","<p> <b> True or False? </b> </p><p> In this game, you will only see each image once. </p>","","0","comp_question","","","true"
"comp-q","37","284779","0.0-14.0-1.0","5970","approach_avoid_sv1","""event"",""trial"",""time""
""fullscreenenter"",""1"",""29021""
","
","
","""event"",""trial"",""time""
""fullscreenenter"",""1"",""29021""
","
","","","","","","2140.5999999996275","<p> <b> That's right! </b> You will see many different images <i> one time each </i> in this game. </p>","","0","comp_answer","","",""
"comp-q","38","291070","0.0-15.0-0.0","5970","approach_avoid_sv1","""event"",""trial"",""time""
""fullscreenenter"",""1"",""29021""
","
","
","""event"",""trial"",""time""
""fullscreenenter"",""1"",""29021""
","
","","","","","","1263.7999999988824","<p> <b> True or False? </b> </p><p> You should use the mouse and click to make your response. </p>","","1","comp_question","","","true"
"comp-q","39","299604","0.0-15.0-1.0","5970","approach_avoid_sv1","""event"",""trial"",""time""
""fullscreenenter"",""1"",""29021""
","
","
","""event"",""trial"",""time""
""fullscreenenter"",""1"",""29021""
","
","","","","","","2022.5","<p><b> That's right! </b> You should use the '1', '2', '3', and '4' keys to make your response. </p>","","0","comp_answer","","",""
"comp-q","40","307432","0.0-16.0-0.0","5970","approach_avoid_sv1","""event"",""trial"",""time""
""fullscreenenter"",""1"",""29021""
","
","
","""event"",""trial"",""time""
""fullscreenenter"",""1"",""29021""
","
","","","","","","2137.9000000003725","<p> <b> True or False? </b> </p><p> You will have as much time as you want to make each choice. </p>","","1","comp_question","","","true"
"comp-q","41","313192","0.0-16.0-1.0","5970","approach_avoid_sv1","""event"",""trial"",""time""
""fullscreenenter"",""1"",""29021""
","
","
","""event"",""trial"",""time""
""fullscreenenter"",""1"",""29021""
","
","","","","","","1049.9000000003725","<p> <b> That's right! </b> You will only have 10 seconds to make each choice. </p>","","0","comp_answer","","",""
"learning-instructions","42","325076","0.0-17.0","5970","approach_avoid_sv1","""event"",""trial"",""time""
""fullscreenenter"",""1"",""29021""
","
","
","""event"",""trial"",""time""
""fullscreenenter"",""1"",""29021""
","
","","","","","","3205.800000000745","<p> Great! You are now ready to begin the game. </p><p> Remember, use the 1, 2, 3, and 4 keys to make your responses. </p>","","0","instructions","","",""
"html-keyboard-response","43","325717","0.0-18.0-0.0","5970","approach_avoid_sv1","""event"",""trial"",""time""
""fullscreenenter"",""1"",""29021""
","
","
","""event"",""trial"",""time""
""fullscreenenter"",""1"",""29021""
","
","","","","","","null","<div style=""font-size:60px;"">+</div>","null","","fixation","","",""
"memory-trial","44","330204","0.0-18.0-1.0","5970","approach_avoid_sv1","""event"",""trial"",""time""
""fullscreenenter"",""1"",""29021""
","
","
","""event"",""trial"",""time""
""fullscreenenter"",""1"",""29021""
","
","","","","","","3466.800000000745","images/apple4.png","","","memory_trial","1","definitely_old",""
"html-keyboard-response","45","330711","0.0-18.0-0.1","5970","approach_avoid_sv1","""event"",""trial"",""time""
""fullscreenenter"",""1"",""29021""
","
","
","""event"",""trial"",""time""
""fullscreenenter"",""1"",""29021""
","
","","","","","","null","<div style=""font-size:60px;"">+</div>","null","","fixation","","",""
"memory-trial","46","334199","0.0-18.0-1.1","5970","approach_avoid_sv1","""event"",""trial"",""time""
""fullscreenenter"",""1"",""29021""
","
","
","""event"",""trial"",""time""
""fullscreenenter"",""1"",""29021""
","
","","","","","","2466","images/cat2.png","","","memory_trial","1","definitely_old",""
"html-keyboard-response","47","334721","0.0-18.0-0.2","5970","approach_avoid_sv1","""event"",""trial"",""time""
""fullscreenenter"",""1"",""29021""
","
","
","""event"",""trial"",""time""
""fullscreenenter"",""1"",""29021""
","
","","","","","","null","<div style=""font-size:60px;"">+</div>","null","","fixation","","",""
"memory-trial","48","336631","0.0-18.0-1.2","5970","approach_avoid_sv1","""event"",""trial"",""time""
""fullscreenenter"",""1"",""29021""
","
","
","""event"",""trial"",""time""
""fullscreenenter"",""1"",""29021""
","
","","","","","","881.2999999988824","images/table3.png","","","memory_trial","1","definitely_old",""
"html-keyboard-response","49","337153","0.0-18.0-0.3","5970","approach_avoid_sv1","""event"",""trial"",""time""
""fullscreenenter"",""1"",""29021""
","
","
","""event"",""trial"",""time""
""fullscreenenter"",""1"",""29021""
","
","","","","","","null","<div style=""font-size:60px;"">+</div>","null","","fixation","","",""
"memory-trial","50","339009","0.0-18.0-1.3","5970","approach_avoid_sv1","""event"",""trial"",""time""
""fullscreenenter"",""1"",""29021""
","
","
","""event"",""trial"",""time""
""fullscreenenter"",""1"",""29021""
","
","","","","","","840.1999999992549","images/flower7.png","","","memory_trial","1","definitely_old",""
"html-keyboard-response","51","339532","0.0-18.0-0.4","5970","approach_avoid_sv1","""event"",""trial"",""time""
""fullscreenenter"",""1"",""29021""
","
","
","""event"",""trial"",""time""
""fullscreenenter"",""1"",""29021""
","
","","","","","","null","<div style=""font-size:60px;"">+</div>","null","","fixation","","",""
"memory-trial","52","341932","0.0-18.0-1.4","5970","approach_avoid_sv1","""event"",""trial"",""time""
""fullscreenenter"",""1"",""29021""
","
","
","""event"",""trial"",""time""
""fullscreenenter"",""1"",""29021""
","
","","","","","","1396.7000000011176","images/sheep5.png","","","memory_trial","2","maybe_old",""
"html-keyboard-response","53","342444","0.0-18.0-0.5","5970","approach_avoid_sv1","""event"",""trial"",""time""
""fullscreenenter"",""1"",""29021""
","
","
","""event"",""trial"",""time""
""fullscreenenter"",""1"",""29021""
","
","","","","","","null","<div style=""font-size:60px;"">+</div>","null","","fixation","","",""
"memory-trial","54","344342","0.0-18.0-1.5","5970","approach_avoid_sv1","""event"",""trial"",""time""
""fullscreenenter"",""1"",""29021""
","
","
","""event"",""trial"",""time""
""fullscreenenter"",""1"",""29021""
","
","","","","","","889.6000000014901","images/dog3.png","","","memory_trial","1","definitely_old",""
"html-keyboard-response","55","344844","0.0-18.0-0.6","5970","approach_avoid_sv1","""event"",""trial"",""time""
""fullscreenenter"",""1"",""29021""
","
","
","""event"",""trial"",""time""
""fullscreenenter"",""1"",""29021""
","
","","","","","","null","<div style=""font-size:60px;"">+</div>","null","","fixation","","",""
"memory-trial","56","346647","0.0-18.0-1.6","5970","approach_avoid_sv1","""event"",""trial"",""time""
""fullscreenenter"",""1"",""29021""
","
","
","""event"",""trial"",""time""
""fullscreenenter"",""1"",""29021""
","
","","","","","","794.2999999988824","images/flower1.png","","","memory_trial","1","definitely_old",""
"html-keyboard-response","57","347169","0.0-18.0-0.7","5970","approach_avoid_sv1","""event"",""trial"",""time""
""fullscreenenter"",""1"",""29021""
","
","
","""event"",""trial"",""time""
""fullscreenenter"",""1"",""29021""
","
","","","","","","null","<div style=""font-size:60px;"">+</div>","null","","fixation","","",""
"memory-trial","58","349292","0.0-18.0-1.7","5970","approach_avoid_sv1","""event"",""trial"",""time""
""fullscreenenter"",""1"",""29021""
","
","
","""event"",""trial"",""time""
""fullscreenenter"",""1"",""29021""
","
","","","","","","1105.5","images/sheep6.png","","","memory_trial","1","definitely_old",""
"html-keyboard-response","59","349815","0.0-18.0-0.8","5970","approach_avoid_sv1","""event"",""trial"",""time""
""fullscreenenter"",""1"",""29021""
","
","
","""event"",""trial"",""time""
""fullscreenenter"",""1"",""29021""
","
","","","","","","null","<div style=""font-size:60px;"">+</div>","null","","fixation","","",""
"memory-trial","60","355492","0.0-18.0-1.8","5970","approach_avoid_sv1","""event"",""trial"",""time""
""fullscreenenter"",""1"",""29021""
","
","
","""event"",""trial"",""time""
""fullscreenenter"",""1"",""29021""
","
","","","","","","4662.4000000003725","images/banana8.png","","","memory_trial","4","definitely_new",""
"html-keyboard-response","61","355996","0.0-18.0-0.9","5970","approach_avoid_sv1","""event"",""trial"",""time""
""fullscreenenter"",""1"",""29021""
","
","
","""event"",""trial"",""time""
""fullscreenenter"",""1"",""29021""
","
","","","","","","null","<div style=""font-size:60px;"">+</div>","null","","fixation","","",""
"memory-trial","62","358524","0.0-18.0-1.9","5970","approach_avoid_sv1","""event"",""trial"",""time""
""fullscreenenter"",""1"",""29021""
","
","
","""event"",""trial"",""time""
""fullscreenenter"",""1"",""29021""
","
","","","","","","1509.8999999985099","images/plane5.png","","","memory_trial","2","maybe_old",""
"html-keyboard-response","63","359034","0.0-18.0-0.10","5970","approach_avoid_sv1","""event"",""trial"",""time""
""fullscreenenter"",""1"",""29021""
","
","
","""event"",""trial"",""time""
""fullscreenenter"",""1"",""29021""
","
","","","","","","null","<div style=""font-size:60px;"">+</div>","null","","fixation","","",""
"memory-trial","64","361529","0.0-18.0-1.10","5970","approach_avoid_sv1","""event"",""trial"",""time""
""fullscreenenter"",""1"",""29021""
","
","
","""event"",""trial"",""time""
""fullscreenenter"",""1"",""29021""
","
","","","","","","1486.699999999255","images/rodent4.png","","","memory_trial","1","definitely_old",""
"html-keyboard-response","65","362043","0.0-18.0-0.11","5970","approach_avoid_sv1","""event"",""trial"",""time""
""fullscreenenter"",""1"",""29021""
","
","
","""event"",""trial"",""time""
""fullscreenenter"",""1"",""29021""
","
","","","","","","null","<div style=""font-size:60px;"">+</div>","null","","fixation","","",""
"memory-trial","66","363928","0.0-18.0-1.11","5970","approach_avoid_sv1","""event"",""trial"",""time""
""fullscreenenter"",""1"",""29021""
","
","
","""event"",""trial"",""time""
""fullscreenenter"",""1"",""29021""
","
","","","","","","877.4000000003725","images/dog2.png","","","memory_trial","1","definitely_old",""
"html-keyboard-response","67","364437","0.0-18.0-0.12","5970","approach_avoid_sv1","""event"",""trial"",""time""
""fullscreenenter"",""1"",""29021""
","
","
","""event"",""trial"",""time""
""fullscreenenter"",""1"",""29021""
","
","","","","","","null","<div style=""font-size:60px;"">+</div>","null","","fixation","","",""
"memory-trial","68","366347","0.0-18.0-1.12","5970","approach_avoid_sv1","""event"",""trial"",""time""
""fullscreenenter"",""1"",""29021""
","
","
","""event"",""trial"",""time""
""fullscreenenter"",""1"",""29021""
","
","","","","","","898.6999999992549","images/cactus2.png","","","memory_trial","1","definitely_old",""
"html-keyboard-response","69","366854","0.0-18.0-0.13","5970","approach_avoid_sv1","""event"",""trial"",""time""
""fullscreenenter"",""1"",""29021""
","
","
","""event"",""trial"",""time""
""fullscreenenter"",""1"",""29021""
","
","","","","","","null","<div style=""font-size:60px;"">+</div>","null","","fixation","","",""
"memory-trial","70","368886","0.0-18.0-1.13","5970","approach_avoid_sv1","""event"",""trial"",""time""
""fullscreenenter"",""1"",""29021""
","
","
","""event"",""trial"",""time""
""fullscreenenter"",""1"",""29021""
","
","","","","","","1026","images/cat1.png","","","memory_trial","1","definitely_old",""
"html-keyboard-response","71","369396","0.0-18.0-0.14","5970","approach_avoid_sv1","""event"",""trial"",""time""
""fullscreenenter"",""1"",""29021""
","
","
","""event"",""trial"",""time""
""fullscreenenter"",""1"",""29021""
","
","","","","","","null","<div style=""font-size:60px;"">+</div>","null","","fixation","","",""
"memory-trial","72","371381","0.0-18.0-1.14","5970","approach_avoid_sv1","""event"",""trial"",""time""
""fullscreenenter"",""1"",""29021""
","
","
","""event"",""trial"",""time""
""fullscreenenter"",""1"",""29021""
","
","","","","","","973.9000000003725","images/bush1.png","","","memory_trial","1","definitely_old",""
"html-keyboard-response","73","371886","0.0-18.0-0.15","5970","approach_avoid_sv1","""event"",""trial"",""time""
""fullscreenenter"",""1"",""29021""
","
","
","""event"",""trial"",""time""
""fullscreenenter"",""1"",""29021""
","
","","","","","","null","<div style=""font-size:60px;"">+</div>","null","","fixation","","",""
"memory-trial","74","374302","0.0-18.0-1.15","5970","approach_avoid_sv1","""event"",""trial"",""time""
""fullscreenenter"",""1"",""29021""
","
","
","""event"",""trial"",""time""
""fullscreenenter"",""1"",""29021""
","
","","","","","","1409","images/bed3.png","","","memory_trial","2","maybe_old",""
"html-keyboard-response","75","374808","0.0-18.0-0.16","5970","approach_avoid_sv1","""event"",""trial"",""time""
""fullscreenenter"",""1"",""29021""
","
","
","""event"",""trial"",""time""
""fullscreenenter"",""1"",""29021""
","
","","","","","","null","<div style=""font-size:60px;"">+</div>","null","","fixation","","",""
"memory-trial","76","378395","0.0-18.0-1.16","5970","approach_avoid_sv1","""event"",""trial"",""time""
""fullscreenenter"",""1"",""29021""
","
","
","""event"",""trial"",""time""
""fullscreenenter"",""1"",""29021""
","
","","","","","","2576.9000000003725","images/plane4.png","","","memory_trial","3","maybe_new",""
"html-keyboard-response","77","378905","0.0-18.0-0.17","5970","approach_avoid_sv1","""event"",""trial"",""time""
""fullscreenenter"",""1"",""29021""
","
","
","""event"",""trial"",""time""
""fullscreenenter"",""1"",""29021""
","
","","","","","","null","<div style=""font-size:60px;"">+</div>","null","","fixation","","",""
"memory-trial","78","382565","0.0-18.0-1.17","5970","approach_avoid_sv1","""event"",""trial"",""time""
""fullscreenenter"",""1"",""29021""
","
","
","""event"",""trial"",""time""
""fullscreenenter"",""1"",""29021""
","
","","","","","","2636.4000000003725","images/banana2.png","","","memory_trial","3","maybe_new",""
"html-keyboard-response","79","383077","0.0-18.0-0.18","5970","approach_avoid_sv1","""event"",""trial"",""time""
""fullscreenenter"",""1"",""29021""
","
","
","""event"",""trial"",""time""
""fullscreenenter"",""1"",""29021""
","
","","","","","","null","<div style=""font-size:60px;"">+</div>","null","","fixation","","",""
"memory-trial","80","385504","0.0-18.0-1.18","5970","approach_avoid_sv1","""event"",""trial"",""time""
""fullscreenenter"",""1"",""29021""
","
","
","""event"",""trial"",""time""
""fullscreenenter"",""1"",""29021""
","
","","","","","","1412.7000000011176","images/sofa3.png","","","memory_trial","1","definitely_old",""
"html-keyboard-response","81","386016","0.0-18.0-0.19","5970","approach_avoid_sv1","""event"",""trial"",""time""
""fullscreenenter"",""1"",""29021""
","
","
","""event"",""trial"",""time""
""fullscreenenter"",""1"",""29021""
","
","","","","","","null","<div style=""font-size:60px;"">+</div>","null","","fixation","","",""
"memory-trial","82","388141","0.0-18.0-1.19","5970","approach_avoid_sv1","""event"",""trial"",""time""
""fullscreenenter"",""1"",""29021""
","
","
","""event"",""trial"",""time""
""fullscreenenter"",""1"",""29021""
","
","","","","","","1112.2000000011176","images/cactus3.png","","","memory_trial","2","maybe_old",""
"html-keyboard-response","83","388651","0.0-18.0-0.20","5970","approach_avoid_sv1","""event"",""trial"",""time""
""fullscreenenter"",""1"",""29021""
","
","
","""event"",""trial"",""time""
""fullscreenenter"",""1"",""29021""
","
","","","","","","null","<div style=""font-size:60px;"">+</div>","null","","fixation","","",""
"memory-trial","84","391964","0.0-18.0-1.20","5970","approach_avoid_sv1","""event"",""trial"",""time""
""fullscreenenter"",""1"",""29021""
","
","
","""event"",""trial"",""time""
""fullscreenenter"",""1"",""29021""
","
","","","","","","2300.9000000003725","images/truck4.png","","","memory_trial","3","maybe_new",""
"html-keyboard-response","85","392472","0.0-18.0-0.21","5970","approach_avoid_sv1","""event"",""trial"",""time""
""fullscreenenter"",""1"",""29021""
","
","
","""event"",""trial"",""time""
""fullscreenenter"",""1"",""29021""
","
","","","","","","null","<div style=""font-size:60px;"">+</div>","null","","fixation","","",""
"memory-trial","86","394942","0.0-18.0-1.21","5970","approach_avoid_sv1","""event"",""trial"",""time""
""fullscreenenter"",""1"",""29021""
","
","
","""event"",""trial"",""time""
""fullscreenenter"",""1"",""29021""
","
","","","","","","1463.800000000745","images/bush7.png","","","memory_trial","2","maybe_old",""
"html-keyboard-response","87","395448","0.0-18.0-0.22","5970","approach_avoid_sv1","""event"",""trial"",""time""
""fullscreenenter"",""1"",""29021""
","
","
","""event"",""trial"",""time""
""fullscreenenter"",""1"",""29021""
","
","","","","","","null","<div style=""font-size:60px;"">+</div>","null","","fixation","","",""
"memory-trial","88","396510","0.0-18.0-1.22","5970","approach_avoid_sv1","""event"",""trial"",""time""
""fullscreenenter"",""1"",""29021""
","
","
","""event"",""trial"",""time""
""fullscreenenter"",""1"",""29021""
","
","","","","","","50.79999999888241","images/bed7.png","","","memory_trial","1","definitely_old",""
"html-keyboard-response","89","397016","0.0-18.0-0.23","5970","approach_avoid_sv1","""event"",""trial"",""time""
""fullscreenenter"",""1"",""29021""
","
","
","""event"",""trial"",""time""
""fullscreenenter"",""1"",""29021""
","
","","","","","","null","<div style=""font-size:60px;"">+</div>","null","","fixation","","",""
"memory-trial","90","399590","0.0-18.0-1.23","5970","approach_avoid_sv1","""event"",""trial"",""time""
""fullscreenenter"",""1"",""29021""
","
","
","""event"",""trial"",""time""
""fullscreenenter"",""1"",""29021""
","
","","","","","","1561.5999999996275","images/boat5.png","","","memory_trial","3","maybe_new",""
"html-keyboard-response","91","400101","0.0-18.0-0.24","5970","approach_avoid_sv1","""event"",""trial"",""time""
""fullscreenenter"",""1"",""29021""
","
","
","""event"",""trial"",""time""
""fullscreenenter"",""1"",""29021""
","
","","","","","","null","<div style=""font-size:60px;"">+</div>","null","","fixation","","",""
"memory-trial","92","402429","0.0-18.0-1.24","5970","approach_avoid_sv1","""event"",""trial"",""time""
""fullscreenenter"",""1"",""29021""
","
","
","""event"",""trial"",""time""
""fullscreenenter"",""1"",""29021""
","
","","","","","","1314.699999999255","images/orange3.png","","","memory_trial","1","definitely_old",""
"html-keyboard-response","93","402946","0.0-18.0-0.25","5970","approach_avoid_sv1","""event"",""trial"",""time""
""fullscreenenter"",""1"",""29021""
","
","
","""event"",""trial"",""time""
""fullscreenenter"",""1"",""29021""
","
","","","","","","null","<div style=""font-size:60px;"">+</div>","null","","fixation","","",""
"memory-trial","94","405966","0.0-18.0-1.25","5970","approach_avoid_sv1","""event"",""trial"",""time""
""fullscreenenter"",""1"",""29021""
","
","
","""event"",""trial"",""time""
""fullscreenenter"",""1"",""29021""
","
","","","","","","2000","images/cow3.png","","","memory_trial","2","maybe_old",""
"html-keyboard-response","95","406472","0.0-18.0-0.26","5970","approach_avoid_sv1","""event"",""trial"",""time""
""fullscreenenter"",""1"",""29021""
","
","
","""event"",""trial"",""time""
""fullscreenenter"",""1"",""29021""
","
","","","","","","null","<div style=""font-size:60px;"">+</div>","null","","fixation","","",""
"memory-trial","96","409050","0.0-18.0-1.26","5970","approach_avoid_sv1","""event"",""trial"",""time""
""fullscreenenter"",""1"",""29021""
","
","
","""event"",""trial"",""time""
""fullscreenenter"",""1"",""29021""
","
","","","","","","1563.199999999255","images/banana3.png","","","memory_trial","4","definitely_new",""
"html-keyboard-response","97","409565","0.0-18.0-0.27","5970","approach_avoid_sv1","""event"",""trial"",""time""
""fullscreenenter"",""1"",""29021""
","
","
","""event"",""trial"",""time""
""fullscreenenter"",""1"",""29021""
","
","","","","","","null","<div style=""font-size:60px;"">+</div>","null","","fixation","","",""
"memory-trial","98","411942","0.0-18.0-1.27","5970","approach_avoid_sv1","""event"",""trial"",""time""
""fullscreenenter"",""1"",""29021""
","
","
","""event"",""trial"",""time""
""fullscreenenter"",""1"",""29021""
","
","","","","","","1358.7999999988824","images/rodent3.png","","","memory_trial","2","maybe_old",""
"html-keyboard-response","99","412449","0.0-18.0-0.28","5970","approach_avoid_sv1","""event"",""trial"",""time""
""fullscreenenter"",""1"",""29021""
","
","
","""event"",""trial"",""time""
""fullscreenenter"",""1"",""29021""
","
","","","","","","null","<div style=""font-size:60px;"">+</div>","null","","fixation","","",""
"memory-trial","100","414521","0.0-18.0-1.28","5970","approach_avoid_sv1","""event"",""trial"",""time""
""fullscreenenter"",""1"",""29021""
","
","
","""event"",""trial"",""time""
""fullscreenenter"",""1"",""29021""
","
","","","","","","1060.2999999988824","images/rabbit3.png","","","memory_trial","2","maybe_old",""
"html-keyboard-response","101","415034","0.0-18.0-0.29","5970","approach_avoid_sv1","""event"",""trial"",""time""
""fullscreenenter"",""1"",""29021""
","
","
","""event"",""trial"",""time""
""fullscreenenter"",""1"",""29021""
","
","","","","","","null","<div style=""font-size:60px;"">+</div>","null","","fixation","","",""
"memory-trial","102","418477","0.0-18.0-1.29","5970","approach_avoid_sv1","""event"",""trial"",""time""
""fullscreenenter"",""1"",""29021""
","
","
","""event"",""trial"",""time""
""fullscreenenter"",""1"",""29021""
","
","","","","","","2435.5999999996275","images/boat4.png","","","memory_trial","2","maybe_old",""
"html-keyboard-response","103","418984","0.0-18.0-0.30","5970","approach_avoid_sv1","""event"",""trial"",""time""
""fullscreenenter"",""1"",""29021""
","
","
","""event"",""trial"",""time""
""fullscreenenter"",""1"",""29021""
","
","","","","","","null","<div style=""font-size:60px;"">+</div>","null","","fixation","","",""
"memory-trial","104","421123","0.0-18.0-1.30","5970","approach_avoid_sv1","""event"",""trial"",""time""
""fullscreenenter"",""1"",""29021""
","
","
","""event"",""trial"",""time""
""fullscreenenter"",""1"",""29021""
","
","","","","","","1122.2000000011176","images/rodent8.png","","","memory_trial","1","definitely_old",""
"html-keyboard-response","105","421633","0.0-18.0-0.31","5970","approach_avoid_sv1","""event"",""trial"",""time""
""fullscreenenter"",""1"",""29021""
","
","
","""event"",""trial"",""time""
""fullscreenenter"",""1"",""29021""
","
","","","","","","null","<div style=""font-size:60px;"">+</div>","null","","fixation","","",""
"memory-trial","106","424429","0.0-18.0-1.31","5970","approach_avoid_sv1","""event"",""trial"",""time""
""fullscreenenter"",""1"",""29021""
","
","
","""event"",""trial"",""time""
""fullscreenenter"",""1"",""29021""
","
","","","","","","1781.300000000745","images/plane6.png","","","memory_trial","4","definitely_new",""
"html-keyboard-response","107","424934","0.0-18.0-0.32","5970","approach_avoid_sv1","""event"",""trial"",""time""
""fullscreenenter"",""1"",""29021""
","
","
","""event"",""trial"",""time""
""fullscreenenter"",""1"",""29021""
","
","","","","","","null","<div style=""font-size:60px;"">+</div>","null","","fixation","","",""
"memory-trial","108","427704","0.0-18.0-1.32","5970","approach_avoid_sv1","""event"",""trial"",""time""
""fullscreenenter"",""1"",""29021""
","
","
","""event"",""trial"",""time""
""fullscreenenter"",""1"",""29021""
","
","","","","","","1760.300000000745","images/sheep3.png","","","memory_trial","3","maybe_new",""
"html-keyboard-response","109","428213","0.0-18.0-0.33","5970","approach_avoid_sv1","""event"",""trial"",""time""
""fullscreenenter"",""1"",""29021""
","
","
","""event"",""trial"",""time""
""fullscreenenter"",""1"",""29021""
","
","","","","","","null","<div style=""font-size:60px;"">+</div>","null","","fixation","","",""
"memory-trial","110","431288","0.0-18.0-1.33","5970","approach_avoid_sv1","""event"",""trial"",""time""
""fullscreenenter"",""1"",""29021""
","
","
","""event"",""trial"",""time""
""fullscreenenter"",""1"",""29021""
","
","","","","","","2066.0999999996275","images/table6.png","","","memory_trial","3","maybe_new",""
"html-keyboard-response","111","431799","0.0-18.0-0.34","5970","approach_avoid_sv1","""event"",""trial"",""time""
""fullscreenenter"",""1"",""29021""
","
","
","""event"",""trial"",""time""
""fullscreenenter"",""1"",""29021""
","
","","","","","","null","<div style=""font-size:60px;"">+</div>","null","","fixation","","",""
"memory-trial","112","434147","0.0-18.0-1.34","5970","approach_avoid_sv1","""event"",""trial"",""time""
""fullscreenenter"",""1"",""29021""
","
","
","""event"",""trial"",""time""
""fullscreenenter"",""1"",""29021""
","
","","","","","","1330","images/bed6.png","","","memory_trial","2","maybe_old",""
"html-keyboard-response","113","434661","0.0-18.0-0.35","5970","approach_avoid_sv1","""event"",""trial"",""time""
""fullscreenenter"",""1"",""29021""
","
","
","""event"",""trial"",""time""
""fullscreenenter"",""1"",""29021""
","
","","","","","","null","<div style=""font-size:60px;"">+</div>","null","","fixation","","",""
"memory-trial","114","436845","0.0-18.0-1.35","5970","approach_avoid_sv1","""event"",""trial"",""time""
""fullscreenenter"",""1"",""29021""
","
","
","""event"",""trial"",""time""
""fullscreenenter"",""1"",""29021""
","
","","","","","","1172.300000000745","images/apple2.png","","","memory_trial","2","maybe_old",""
"html-keyboard-response","115","437348","0.0-18.0-0.36","5970","approach_avoid_sv1","""event"",""trial"",""time""
""fullscreenenter"",""1"",""29021""
","
","
","""event"",""trial"",""time""
""fullscreenenter"",""1"",""29021""
","
","","","","","","null","<div style=""font-size:60px;"">+</div>","null","","fixation","","",""
"memory-trial","116","440634","0.0-18.0-1.36","5970","approach_avoid_sv1","""event"",""trial"",""time""
""fullscreenenter"",""1"",""29021""
","
","
","""event"",""trial"",""time""
""fullscreenenter"",""1"",""29021""
","
","","","","","","2263","images/goat2.png","","","memory_trial","4","definitely_new",""
"html-keyboard-response","117","441147","0.0-18.0-0.37","5970","approach_avoid_sv1","""event"",""trial"",""time""
""fullscreenenter"",""1"",""29021""
","
","
","""event"",""trial"",""time""
""fullscreenenter"",""1"",""29021""
","
","","","","","","null","<div style=""font-size:60px;"">+</div>","null","","fixation","","",""
"memory-trial","118","443174","0.0-18.0-1.37","5970","approach_avoid_sv1","""event"",""trial"",""time""
""fullscreenenter"",""1"",""29021""
","
","
","""event"",""trial"",""time""
""fullscreenenter"",""1"",""29021""
","
","","","","","","1013.5","images/banana7.png","","","memory_trial","4","definitely_new",""
"html-keyboard-response","119","443677","0.0-18.0-0.38","5970","approach_avoid_sv1","""event"",""trial"",""time""
""fullscreenenter"",""1"",""29021""
","
","
","""event"",""trial"",""time""
""fullscreenenter"",""1"",""29021""
","
","","","","","","null","<div style=""font-size:60px;"">+</div>","null","","fixation","","",""
"memory-trial","120","445788","0.0-18.0-1.38","5970","approach_avoid_sv1","""event"",""trial"",""time""
""fullscreenenter"",""1"",""29021""
","
","
","""event"",""trial"",""time""
""fullscreenenter"",""1"",""29021""
","
","","","","","","1094.5999999996275","images/flower4.png","","","memory_trial","1","definitely_old",""
"html-keyboard-response","121","446301","0.0-18.0-0.39","5970","approach_avoid_sv1","""event"",""trial"",""time""
""fullscreenenter"",""1"",""29021""
","
","
","""event"",""trial"",""time""
""fullscreenenter"",""1"",""29021""
","
","","","","","","null","<div style=""font-size:60px;"">+</div>","null","","fixation","","",""
"memory-trial","122","449494","0.0-18.0-1.39","5970","approach_avoid_sv1","""event"",""trial"",""time""
""fullscreenenter"",""1"",""29021""
","
","
","""event"",""trial"",""time""
""fullscreenenter"",""1"",""29021""
","
","","","","","","2183.5999999996275","images/sofa5.png","","","memory_trial","4","definitely_new",""
"html-keyboard-response","123","450004","0.0-18.0-0.40","5970","approach_avoid_sv1","""event"",""trial"",""time""
""fullscreenenter"",""1"",""29021""
","
","
","""event"",""trial"",""time""
""fullscreenenter"",""1"",""29021""
","
","","","","","","null","<div style=""font-size:60px;"">+</div>","null","","fixation","","",""
"memory-trial","124","456973","0.0-18.0-1.40","5970","approach_avoid_sv1","""event"",""trial"",""time""
""fullscreenenter"",""1"",""29021""
","
","
","""event"",""trial"",""time""
""fullscreenenter"",""1"",""29021""
","
","","","","","","5957.300000000745","images/cow8.png","","","memory_trial","4","definitely_new",""
"html-keyboard-response","125","457479","0.0-18.0-0.41","5970","approach_avoid_sv1","""event"",""trial"",""time""
""fullscreenenter"",""1"",""29021""
","
","
","""event"",""trial"",""time""
""fullscreenenter"",""1"",""29021""
","
","","","","","","null","<div style=""font-size:60px;"">+</div>","null","","fixation","","",""
"memory-trial","126","459519","0.0-18.0-1.41","5970","approach_avoid_sv1","""event"",""trial"",""time""
""fullscreenenter"",""1"",""29021""
","
","
","""event"",""trial"",""time""
""fullscreenenter"",""1"",""29021""
","
","","","","","","1025.5","images/sofa1.png","","","memory_trial","2","maybe_old",""
"html-button-response","127","517689","0.0-18.0-2.41-0.41","5970","approach_avoid_sv1","""event"",""trial"",""time""
""fullscreenenter"",""1"",""29021""
","
","
","""event"",""trial"",""time""
""fullscreenenter"",""1"",""29021""
","
","","","","","","58168.90000000037","<p> Take a break! </p><p> Click the button to continue. </p>","0","","break","","",""
"html-keyboard-response","128","518204","0.0-18.0-0.42","5970","approach_avoid_sv1","""event"",""trial"",""time""
""fullscreenenter"",""1"",""29021""
","
","
","""event"",""trial"",""time""
""fullscreenenter"",""1"",""29021""
","
","","","","","","null","<div style=""font-size:60px;"">+</div>","null","","fixation","","",""
"memory-trial","129","524837","0.0-18.0-1.42","5970","approach_avoid_sv1","""event"",""trial"",""time""
""fullscreenenter"",""1"",""29021""
","
","
","""event"",""trial"",""time""
""fullscreenenter"",""1"",""29021""
","
","","","","","","5625.800000000745","images/chair8.png","","","memory_trial","3","maybe_new",""
"html-keyboard-response","130","525344","0.0-18.0-0.43","5970","approach_avoid_sv1","""event"",""trial"",""time""
""fullscreenenter"",""1"",""29021""
","
","
","""event"",""trial"",""time""
""fullscreenenter"",""1"",""29021""
","
","","","","","","null","<div style=""font-size:60px;"">+</div>","null","","fixation","","",""
"memory-trial","131","527395","0.0-18.0-1.43","5970","approach_avoid_sv1","""event"",""trial"",""time""
""fullscreenenter"",""1"",""29021""
","
","
","""event"",""trial"",""time""
""fullscreenenter"",""1"",""29021""
","
","","","","","","1035","images/bed2.png","","","memory_trial","3","maybe_new",""
"html-keyboard-response","132","527907","0.0-18.0-0.44","5970","approach_avoid_sv1","""event"",""trial"",""time""
""fullscreenenter"",""1"",""29021""
","
","
","""event"",""trial"",""time""
""fullscreenenter"",""1"",""29021""
","
","","","","","","null","<div style=""font-size:60px;"">+</div>","null","","fixation","","",""
"memory-trial","133","529971","0.0-18.0-1.44","5970","approach_avoid_sv1","""event"",""trial"",""time""
""fullscreenenter"",""1"",""29021""
","
","
","""event"",""trial"",""time""
""fullscreenenter"",""1"",""29021""
","
","","","","","","1050","images/goat3.png","","","memory_trial","3","maybe_new",""
"html-keyboard-response","134","530482","0.0-18.0-0.45","5970","approach_avoid_sv1","""event"",""trial"",""time""
""fullscreenenter"",""1"",""29021""
","
","
","""event"",""trial"",""time""
""fullscreenenter"",""1"",""29021""
","
","","","","","","null","<div style=""font-size:60px;"">+</div>","null","","fixation","","",""
"memory-trial","135","533830","0.0-18.0-1.45","5970","approach_avoid_sv1","""event"",""trial"",""time""
""fullscreenenter"",""1"",""29021""
","
","
","""event"",""trial"",""time""
""fullscreenenter"",""1"",""29021""
","
","","","","","","2338.2000000011176","images/apple3.png","","","memory_trial","4","definitely_new",""
"html-keyboard-response","136","534334","0.0-18.0-0.46","5970","approach_avoid_sv1","""event"",""trial"",""time""
""fullscreenenter"",""1"",""29021""
","
","
","""event"",""trial"",""time""
""fullscreenenter"",""1"",""29021""
","
","","","","","","null","<div style=""font-size:60px;"">+</div>","null","","fixation","","",""
"memory-trial","137","536555","0.0-18.0-1.46","5970","approach_avoid_sv1","""event"",""trial"",""time""
""fullscreenenter"",""1"",""29021""
","
","
","""event"",""trial"",""time""
""fullscreenenter"",""1"",""29021""
","
","","","","","","1195.6000000014901","images/truck8.png","","","memory_trial","3","maybe_new",""
"html-keyboard-response","138","537068","0.0-18.0-0.47","5970","approach_avoid_sv1","""event"",""trial"",""time""
""fullscreenenter"",""1"",""29021""
","
","
","""event"",""trial"",""time""
""fullscreenenter"",""1"",""29021""
","
","","","","","","null","<div style=""font-size:60px;"">+</div>","null","","fixation","","",""
"memory-trial","139","539876","0.0-18.0-1.47","5970","approach_avoid_sv1","""event"",""trial"",""time""
""fullscreenenter"",""1"",""29021""
","
","
","""event"",""trial"",""time""
""fullscreenenter"",""1"",""29021""
","
","","","","","","1793.5","images/tree8.png","","","memory_trial","3","maybe_new",""
"html-keyboard-response","140","540386","0.0-18.0-0.48","5970","approach_avoid_sv1","""event"",""trial"",""time""
""fullscreenenter"",""1"",""29021""
","
","
","""event"",""trial"",""time""
""fullscreenenter"",""1"",""29021""
","
","","","","","","null","<div style=""font-size:60px;"">+</div>","null","","fixation","","",""
"memory-trial","141","542761","0.0-18.0-1.48","5970","approach_avoid_sv1","""event"",""trial"",""time""
""fullscreenenter"",""1"",""29021""
","
","
","""event"",""trial"",""time""
""fullscreenenter"",""1"",""29021""
","
","","","","","","1362.800000000745","images/apple6.png","","","memory_trial","4","definitely_new",""
"html-keyboard-response","142","543277","0.0-18.0-0.49","5970","approach_avoid_sv1","""event"",""trial"",""time""
""fullscreenenter"",""1"",""29021""
","
","
","""event"",""trial"",""time""
""fullscreenenter"",""1"",""29021""
","
","","","","","","null","<div style=""font-size:60px;"">+</div>","null","","fixation","","",""
"memory-trial","143","545556","0.0-18.0-1.49","5970","approach_avoid_sv1","""event"",""trial"",""time""
""fullscreenenter"",""1"",""29021""
","
","
","""event"",""trial"",""time""
""fullscreenenter"",""1"",""29021""
","
","","","","","","1267.2000000011176","images/table5.png","","","memory_trial","3","maybe_new",""
"html-keyboard-response","144","546062","0.0-18.0-0.50","5970","approach_avoid_sv1","""event"",""trial"",""time""
""fullscreenenter"",""1"",""29021""
","
","
","""event"",""trial"",""time""
""fullscreenenter"",""1"",""29021""
","
","","","","","","null","<div style=""font-size:60px;"">+</div>","null","","fixation","","",""
"memory-trial","145","549171","0.0-18.0-1.50","5970","approach_avoid_sv1","""event"",""trial"",""time""
""fullscreenenter"",""1"",""29021""
","
","
","""event"",""trial"",""time""
""fullscreenenter"",""1"",""29021""
","
","","","","","","2091.4000000003725","images/orange4.png","","","memory_trial","2","maybe_old",""
"html-keyboard-response","146","549689","0.0-18.0-0.51","5970","approach_avoid_sv1","""event"",""trial"",""time""
""fullscreenenter"",""1"",""29021""
","
","
","""event"",""trial"",""time""
""fullscreenenter"",""1"",""29021""
","
","","","","","","null","<div style=""font-size:60px;"">+</div>","null","","fixation","","",""
"memory-trial","147","552347","0.0-18.0-1.51","5970","approach_avoid_sv1","""event"",""trial"",""time""
""fullscreenenter"",""1"",""29021""
","
","
","""event"",""trial"",""time""
""fullscreenenter"",""1"",""29021""
","
","","","","","","1647","images/flower8.png","","","memory_trial","1","definitely_old",""
"html-keyboard-response","148","552855","0.0-18.0-0.52","5970","approach_avoid_sv1","""event"",""trial"",""time""
""fullscreenenter"",""1"",""29021""
","
","
","""event"",""trial"",""time""
""fullscreenenter"",""1"",""29021""
","
","","","","","","null","<div style=""font-size:60px;"">+</div>","null","","fixation","","",""
"memory-trial","149","556099","0.0-18.0-1.52","5970","approach_avoid_sv1","""event"",""trial"",""time""
""fullscreenenter"",""1"",""29021""
","
","
","""event"",""trial"",""time""
""fullscreenenter"",""1"",""29021""
","
","","","","","","2233.699999999255","images/sheep4.png","","","memory_trial","2","maybe_old",""
"html-keyboard-response","150","556605","0.0-18.0-0.53","5970","approach_avoid_sv1","""event"",""trial"",""time""
""fullscreenenter"",""1"",""29021""
","
","
","""event"",""trial"",""time""
""fullscreenenter"",""1"",""29021""
","
","","","","","","null","<div style=""font-size:60px;"">+</div>","null","","fixation","","",""
"memory-trial","151","560596","0.0-18.0-1.53","5970","approach_avoid_sv1","""event"",""trial"",""time""
""fullscreenenter"",""1"",""29021""
","
","
","""event"",""trial"",""time""
""fullscreenenter"",""1"",""29021""
","
","","","","","","2977.300000000745","images/truck1.png","","","memory_trial","4","definitely_new",""
"html-keyboard-response","152","561109","0.0-18.0-0.54","5970","approach_avoid_sv1","""event"",""trial"",""time""
""fullscreenenter"",""1"",""29021""
","
","
","""event"",""trial"",""time""
""fullscreenenter"",""1"",""29021""
","
","","","","","","null","<div style=""font-size:60px;"">+</div>","null","","fixation","","",""
"memory-trial","153","563859","0.0-18.0-1.54","5970","approach_avoid_sv1","""event"",""trial"",""time""
""fullscreenenter"",""1"",""29021""
","
","
","""event"",""trial"",""time""
""fullscreenenter"",""1"",""29021""
","
","","","","","","1739.5","images/goat4.png","","","memory_trial","4","definitely_new",""
"html-keyboard-response","154","564368","0.0-18.0-0.55","5970","approach_avoid_sv1","""event"",""trial"",""time""
""fullscreenenter"",""1"",""29021""
","
","
","""event"",""trial"",""time""
""fullscreenenter"",""1"",""29021""
","
","","","","","","null","<div style=""font-size:60px;"">+</div>","null","","fixation","","",""
"memory-trial","155","566935","0.0-18.0-1.55","5970","approach_avoid_sv1","""event"",""trial"",""time""
""fullscreenenter"",""1"",""29021""
","
","
","""event"",""trial"",""time""
""fullscreenenter"",""1"",""29021""
","
","","","","","","1561.2999999988824","images/dog5.png","","","memory_trial","1","definitely_old",""
"html-keyboard-response","156","567437","0.0-18.0-0.56","5970","approach_avoid_sv1","""event"",""trial"",""time""
""fullscreenenter"",""1"",""29021""
","
","
","""event"",""trial"",""time""
""fullscreenenter"",""1"",""29021""
","
","","","","","","null","<div style=""font-size:60px;"">+</div>","null","","fixation","","",""
"memory-trial","157","570064","0.0-18.0-1.56","5970","approach_avoid_sv1","""event"",""trial"",""time""
""fullscreenenter"",""1"",""29021""
","
","
","""event"",""trial"",""time""
""fullscreenenter"",""1"",""29021""
","
","","","","","","1618.5999999996275","images/table8.png","","","memory_trial","2","maybe_old",""
"html-keyboard-response","158","570578","0.0-18.0-0.57","5970","approach_avoid_sv1","""event"",""trial"",""time""
""fullscreenenter"",""1"",""29021""
","
","
","""event"",""trial"",""time""
""fullscreenenter"",""1"",""29021""
","
","","","","","","null","<div style=""font-size:60px;"">+</div>","null","","fixation","","",""
"memory-trial","159","573062","0.0-18.0-1.57","5970","approach_avoid_sv1","""event"",""trial"",""time""
""fullscreenenter"",""1"",""29021""
","
","
","""event"",""trial"",""time""
""fullscreenenter"",""1"",""29021""
","
","","","","","","1464.4000000003725","images/train7.png","","","memory_trial","4","definitely_new",""
"html-keyboard-response","160","573574","0.0-18.0-0.58","5970","approach_avoid_sv1","""event"",""trial"",""time""
""fullscreenenter"",""1"",""29021""
","
","
","""event"",""trial"",""time""
""fullscreenenter"",""1"",""29021""
","
","","","","","","null","<div style=""font-size:60px;"">+</div>","null","","fixation","","",""
"memory-trial","161","577577","0.0-18.0-1.58","5970","approach_avoid_sv1","""event"",""trial"",""time""
""fullscreenenter"",""1"",""29021""
","
","
","""event"",""trial"",""time""
""fullscreenenter"",""1"",""29021""
","
","","","","","","2994.9000000003725","images/dog7.png","","","memory_trial","2","maybe_old",""
"html-keyboard-response","162","578089","0.0-18.0-0.59","5970","approach_avoid_sv1","""event"",""trial"",""time""
""fullscreenenter"",""1"",""29021""
","
","
","""event"",""trial"",""time""
""fullscreenenter"",""1"",""29021""
","
","","","","","","null","<div style=""font-size:60px;"">+</div>","null","","fixation","","",""
"memory-trial","163","581978","0.0-18.0-1.59","5970","approach_avoid_sv1","""event"",""trial"",""time""
""fullscreenenter"",""1"",""29021""
","
","
","""event"",""trial"",""time""
""fullscreenenter"",""1"",""29021""
","
","","","","","","2876.60000000149","images/goat5.png","","","memory_trial","3","maybe_new",""
"html-keyboard-response","164","582485","0.0-18.0-0.60","5970","approach_avoid_sv1","""event"",""trial"",""time""
""fullscreenenter"",""1"",""29021""
","
","
","""event"",""trial"",""time""
""fullscreenenter"",""1"",""29021""
","
","","","","","","null","<div style=""font-size:60px;"">+</div>","null","","fixation","","",""
"memory-trial","165","586126","0.0-18.0-1.60","5970","approach_avoid_sv1","""event"",""trial"",""time""
""fullscreenenter"",""1"",""29021""
","
","
","""event"",""trial"",""time""
""fullscreenenter"",""1"",""29021""
","
","","","","","","2624.0999999996275","images/plane2.png","","","memory_trial","3","maybe_new",""
"html-keyboard-response","166","586637","0.0-18.0-0.61","5970","approach_avoid_sv1","""event"",""trial"",""time""
""fullscreenenter"",""1"",""29021""
","
","
","""event"",""trial"",""time""
""fullscreenenter"",""1"",""29021""
","
","","","","","","null","<div style=""font-size:60px;"">+</div>","null","","fixation","","",""
"memory-trial","167","592330","0.0-18.0-1.61","5970","approach_avoid_sv1","""event"",""trial"",""time""
""fullscreenenter"",""1"",""29021""
","
","
","""event"",""trial"",""time""
""fullscreenenter"",""1"",""29021""
","
","","","","","","4680.200000001118","images/horse1.png","","","memory_trial","2","maybe_old",""
"html-keyboard-response","168","592837","0.0-18.0-0.62","5970","approach_avoid_sv1","""event"",""trial"",""time""
""fullscreenenter"",""1"",""29021""
","
","
","""event"",""trial"",""time""
""fullscreenenter"",""1"",""29021""
","
","","","","","","null","<div style=""font-size:60px;"">+</div>","null","","fixation","","",""
"memory-trial","169","596010","0.0-18.0-1.62","5970","approach_avoid_sv1","""event"",""trial"",""time""
""fullscreenenter"",""1"",""29021""
","
","
","""event"",""trial"",""time""
""fullscreenenter"",""1"",""29021""
","
","","","","","","2149.4000000003725","images/bush3.png","","","memory_trial","1","definitely_old",""
"html-keyboard-response","170","596519","0.0-18.0-0.63","5970","approach_avoid_sv1","""event"",""trial"",""time""
""fullscreenenter"",""1"",""29021""
","
","
","""event"",""trial"",""time""
""fullscreenenter"",""1"",""29021""
","
","","","","","","null","<div style=""font-size:60px;"">+</div>","null","","fixation","","",""
"memory-trial","171","598665","0.0-18.0-1.63","5970","approach_avoid_sv1","""event"",""trial"",""time""
""fullscreenenter"",""1"",""29021""
","
","
","""event"",""trial"",""time""
""fullscreenenter"",""1"",""29021""
","
","","","","","","1135.300000000745","images/bed5.png","","","memory_trial","1","definitely_old",""
"html-keyboard-response","172","599179","0.0-18.0-0.64","5970","approach_avoid_sv1","""event"",""trial"",""time""
""fullscreenenter"",""1"",""29021""
","
","
","""event"",""trial"",""time""
""fullscreenenter"",""1"",""29021""
","
","","","","","","null","<div style=""font-size:60px;"">+</div>","null","","fixation","","",""
"memory-trial","173","601404","0.0-18.0-1.64","5970","approach_avoid_sv1","""event"",""trial"",""time""
""fullscreenenter"",""1"",""29021""
","
","
","""event"",""trial"",""time""
""fullscreenenter"",""1"",""29021""
","
","","","","","","1210.6000000014901","images/rodent6.png","","","memory_trial","2","maybe_old",""
"html-keyboard-response","174","601912","0.0-18.0-0.65","5970","approach_avoid_sv1","""event"",""trial"",""time""
""fullscreenenter"",""1"",""29021""
","
","
","""event"",""trial"",""time""
""fullscreenenter"",""1"",""29021""
","
","","","","","","null","<div style=""font-size:60px;"">+</div>","null","","fixation","","",""
"memory-trial","175","603961","0.0-18.0-1.65","5970","approach_avoid_sv1","""event"",""trial"",""time""
""fullscreenenter"",""1"",""29021""
","
","
","""event"",""trial"",""time""
""fullscreenenter"",""1"",""29021""
","
","","","","","","1038.4000000003725","images/bush2.png","","","memory_trial","1","definitely_old",""
"html-keyboard-response","176","604474","0.0-18.0-0.66","5970","approach_avoid_sv1","""event"",""trial"",""time""
""fullscreenenter"",""1"",""29021""
","
","
","""event"",""trial"",""time""
""fullscreenenter"",""1"",""29021""
","
","","","","","","null","<div style=""font-size:60px;"">+</div>","null","","fixation","","",""
"memory-trial","177","606616","0.0-18.0-1.66","5970","approach_avoid_sv1","""event"",""trial"",""time""
""fullscreenenter"",""1"",""29021""
","
","
","""event"",""trial"",""time""
""fullscreenenter"",""1"",""29021""
","
","","","","","","1132.8999999985099","images/boat3.png","","","memory_trial","3","maybe_new",""
"html-keyboard-response","178","607117","0.0-18.0-0.67","5970","approach_avoid_sv1","""event"",""trial"",""time""
""fullscreenenter"",""1"",""29021""
","
","
","""event"",""trial"",""time""
""fullscreenenter"",""1"",""29021""
","
","","","","","","null","<div style=""font-size:60px;"">+</div>","null","","fixation","","",""
"memory-trial","179","609077","0.0-18.0-1.67","5970","approach_avoid_sv1","""event"",""trial"",""time""
""fullscreenenter"",""1"",""29021""
","
","
","""event"",""trial"",""time""
""fullscreenenter"",""1"",""29021""
","
","","","","","","950.2999999988824","images/sofa2.png","","","memory_trial","2","maybe_old",""
"html-keyboard-response","180","609584","0.0-18.0-0.68","5970","approach_avoid_sv1","""event"",""trial"",""time""
""fullscreenenter"",""1"",""29021""
","
","
","""event"",""trial"",""time""
""fullscreenenter"",""1"",""29021""
","
","","","","","","null","<div style=""font-size:60px;"">+</div>","null","","fixation","","",""
"memory-trial","181","611948","0.0-18.0-1.68","5970","approach_avoid_sv1","""event"",""trial"",""time""
""fullscreenenter"",""1"",""29021""
","
","
","""event"",""trial"",""time""
""fullscreenenter"",""1"",""29021""
","
","","","","","","1354.800000000745","images/goat1.png","","","memory_trial","2","maybe_old",""
"html-keyboard-response","182","612455","0.0-18.0-0.69","5970","approach_avoid_sv1","""event"",""trial"",""time""
""fullscreenenter"",""1"",""29021""
","
","
","""event"",""trial"",""time""
""fullscreenenter"",""1"",""29021""
","
","","","","","","null","<div style=""font-size:60px;"">+</div>","null","","fixation","","",""
"memory-trial","183","622463","0.0-18.0-1.69","5970","approach_avoid_sv1","""event"",""trial"",""time""
""fullscreenenter"",""1"",""29021""
","
","
","""event"",""trial"",""time""
""fullscreenenter"",""1"",""29021""
","
","","","","","","null","images/cow7.png","","","memory_trial","null","null",""
"html-keyboard-response","184","622967","0.0-18.0-0.70","5970","approach_avoid_sv1","""event"",""trial"",""time""
""fullscreenenter"",""1"",""29021""
","
","
","""event"",""trial"",""time""
""fullscreenenter"",""1"",""29021""
","
","","","","","","null","<div style=""font-size:60px;"">+</div>","null","","fixation","","",""
"memory-trial","185","629181","0.0-18.0-1.70","5970","approach_avoid_sv1","""event"",""trial"",""time""
""fullscreenenter"",""1"",""29021""
","
","
","""event"",""trial"",""time""
""fullscreenenter"",""1"",""29021""
","
","","","","","","5195.700000001118","images/apple1.png","","","memory_trial","2","maybe_old",""
"html-keyboard-response","186","629688","0.0-18.0-0.71","5970","approach_avoid_sv1","""event"",""trial"",""time""
""fullscreenenter"",""1"",""29021""
","
","
","""event"",""trial"",""time""
""fullscreenenter"",""1"",""29021""
","
","","","","","","null","<div style=""font-size:60px;"">+</div>","null","","fixation","","",""
"memory-trial","187","632370","0.0-18.0-1.71","5970","approach_avoid_sv1","""event"",""trial"",""time""
""fullscreenenter"",""1"",""29021""
","
","
","""event"",""trial"",""time""
""fullscreenenter"",""1"",""29021""
","
","","","","","","1668.9000000003725","images/sofa4.png","","","memory_trial","2","maybe_old",""
"html-keyboard-response","188","632877","0.0-18.0-0.72","5970","approach_avoid_sv1","""event"",""trial"",""time""
""fullscreenenter"",""1"",""29021""
","
","
","""event"",""trial"",""time""
""fullscreenenter"",""1"",""29021""
","
","","","","","","null","<div style=""font-size:60px;"">+</div>","null","","fixation","","",""
"memory-trial","189","636394","0.0-18.0-1.72","5970","approach_avoid_sv1","""event"",""trial"",""time""
""fullscreenenter"",""1"",""29021""
","
","
","""event"",""trial"",""time""
""fullscreenenter"",""1"",""29021""
","
","","","","","","2493.0999999996275","images/apple8.png","","","memory_trial","3","maybe_new",""
"html-keyboard-response","190","636903","0.0-18.0-0.73","5970","approach_avoid_sv1","""event"",""trial"",""time""
""fullscreenenter"",""1"",""29021""
","
","
","""event"",""trial"",""time""
""fullscreenenter"",""1"",""29021""
","
","","","","","","null","<div style=""font-size:60px;"">+</div>","null","","fixation","","",""
"memory-trial","191","639337","0.0-18.0-1.73","5970","approach_avoid_sv1","""event"",""trial"",""time""
""fullscreenenter"",""1"",""29021""
","
","
","""event"",""trial"",""time""
""fullscreenenter"",""1"",""29021""
","
","","","","","","1423.5999999996275","images/banana4.png","","","memory_trial","3","maybe_new",""
"html-keyboard-response","192","639844","0.0-18.0-0.74","5970","approach_avoid_sv1","""event"",""trial"",""time""
""fullscreenenter"",""1"",""29021""
","
","
","""event"",""trial"",""time""
""fullscreenenter"",""1"",""29021""
","
","","","","","","null","<div style=""font-size:60px;"">+</div>","null","","fixation","","",""
"memory-trial","193","642667","0.0-18.0-1.74","5970","approach_avoid_sv1","""event"",""trial"",""time""
""fullscreenenter"",""1"",""29021""
","
","
","""event"",""trial"",""time""
""fullscreenenter"",""1"",""29021""
","
","","","","","","1810.699999999255","images/rabbit7.png","","","memory_trial","2","maybe_old",""
"html-keyboard-response","194","643173","0.0-18.0-0.75","5970","approach_avoid_sv1","""event"",""trial"",""time""
""fullscreenenter"",""1"",""29021""
","
","
","""event"",""trial"",""time""
""fullscreenenter"",""1"",""29021""
","
","","","","","","null","<div style=""font-size:60px;"">+</div>","null","","fixation","","",""
"memory-trial","195","645441","0.0-18.0-1.75","5970","approach_avoid_sv1","""event"",""trial"",""time""
""fullscreenenter"",""1"",""29021""
","
","
","""event"",""trial"",""time""
""fullscreenenter"",""1"",""29021""
","
","","","","","","1254.7999999988824","images/boat6.png","","","memory_trial","2","maybe_old",""
"html-keyboard-response","196","645955","0.0-18.0-0.76","5970","approach_avoid_sv1","""event"",""trial"",""time""
""fullscreenenter"",""1"",""29021""
","
","
","""event"",""trial"",""time""
""fullscreenenter"",""1"",""29021""
","
","","","","","","null","<div style=""font-size:60px;"">+</div>","null","","fixation","","",""
"memory-trial","197","648528","0.0-18.0-1.76","5970","approach_avoid_sv1","""event"",""trial"",""time""
""fullscreenenter"",""1"",""29021""
","
","
","""event"",""trial"",""time""
""fullscreenenter"",""1"",""29021""
","
","","","","","","1563.0999999996275","images/train6.png","","","memory_trial","1","definitely_old",""
"html-keyboard-response","198","649041","0.0-18.0-0.77","5970","approach_avoid_sv1","""event"",""trial"",""time""
""fullscreenenter"",""1"",""29021""
","
","
","""event"",""trial"",""time""
""fullscreenenter"",""1"",""29021""
","
","","","","","","null","<div style=""font-size:60px;"">+</div>","null","","fixation","","",""
"memory-trial","199","651183","0.0-18.0-1.77","5970","approach_avoid_sv1","""event"",""trial"",""time""
""fullscreenenter"",""1"",""29021""
","
","
","""event"",""trial"",""time""
""fullscreenenter"",""1"",""29021""
","
","","","","","","1124.5999999996275","images/truck6.png","","","memory_trial","4","definitely_new",""
"html-keyboard-response","200","651697","0.0-18.0-0.78","5970","approach_avoid_sv1","""event"",""trial"",""time""
""fullscreenenter"",""1"",""29021""
","
","
","""event"",""trial"",""time""
""fullscreenenter"",""1"",""29021""
","
","","","","","","null","<div style=""font-size:60px;"">+</div>","null","","fixation","","",""
"memory-trial","201","654102","0.0-18.0-1.78","5970","approach_avoid_sv1","""event"",""trial"",""time""
""fullscreenenter"",""1"",""29021""
","
","
","""event"",""trial"",""time""
""fullscreenenter"",""1"",""29021""
","
","","","","","","1397.0999999996275","images/boat1.png","","","memory_trial","2","maybe_old",""
"html-keyboard-response","202","654608","0.0-18.0-0.79","5970","approach_avoid_sv1","""event"",""trial"",""time""
""fullscreenenter"",""1"",""29021""
","
","
","""event"",""trial"",""time""
""fullscreenenter"",""1"",""29021""
","
","","","","","","null","<div style=""font-size:60px;"">+</div>","null","","fixation","","",""
"memory-trial","203","657035","0.0-18.0-1.79","5970","approach_avoid_sv1","""event"",""trial"",""time""
""fullscreenenter"",""1"",""29021""
","
","
","""event"",""trial"",""time""
""fullscreenenter"",""1"",""29021""
","
","","","","","","1415.2000000011176","images/rodent2.png","","","memory_trial","1","definitely_old",""
"html-keyboard-response","204","657542","0.0-18.0-0.80","5970","approach_avoid_sv1","""event"",""trial"",""time""
""fullscreenenter"",""1"",""29021""
","
","
","""event"",""trial"",""time""
""fullscreenenter"",""1"",""29021""
","
","","","","","","null","<div style=""font-size:60px;"">+</div>","null","","fixation","","",""
"memory-trial","205","658799","0.0-18.0-1.80","5970","approach_avoid_sv1","""event"",""trial"",""time""
""fullscreenenter"",""1"",""29021""
","
","
","""event"",""trial"",""time""
""fullscreenenter"",""1"",""29021""
","
","","","","","","247.89999999850988","images/truck2.png","","","memory_trial","2","maybe_old",""
"html-keyboard-response","206","659304","0.0-18.0-0.81","5970","approach_avoid_sv1","""event"",""trial"",""time""
""fullscreenenter"",""1"",""29021""
","
","
","""event"",""trial"",""time""
""fullscreenenter"",""1"",""29021""
","
","","","","","","null","<div style=""font-size:60px;"">+</div>","null","","fixation","","",""
"memory-trial","207","661051","0.0-18.0-1.81","5970","approach_avoid_sv1","""event"",""trial"",""time""
""fullscreenenter"",""1"",""29021""
","
","
","""event"",""trial"",""time""
""fullscreenenter"",""1"",""29021""
","
","","","","","","728.7000000011176","images/chair3.png","","","memory_trial","3","maybe_new",""
"html-keyboard-response","208","661558","0.0-18.0-0.82","5970","approach_avoid_sv1","""event"",""trial"",""time""
""fullscreenenter"",""1"",""29021""
","
","
","""event"",""trial"",""time""
""fullscreenenter"",""1"",""29021""
","
","","","","","","null","<div style=""font-size:60px;"">+</div>","null","","fixation","","",""
"memory-trial","209","663652","0.0-18.0-1.82","5970","approach_avoid_sv1","""event"",""trial"",""time""
""fullscreenenter"",""1"",""29021""
","
","
","""event"",""trial"",""time""
""fullscreenenter"",""1"",""29021""
","
","","","","","","1081.0999999996275","images/rodent7.png","","","memory_trial","4","definitely_new",""
"html-keyboard-response","210","664158","0.0-18.0-0.83","5970","approach_avoid_sv1","""event"",""trial"",""time""
""fullscreenenter"",""1"",""29021""
","
","
","""event"",""trial"",""time""
""fullscreenenter"",""1"",""29021""
","
","","","","","","null","<div style=""font-size:60px;"">+</div>","null","","fixation","","",""
"memory-trial","211","665180","0.0-18.0-1.83","5970","approach_avoid_sv1","""event"",""trial"",""time""
""fullscreenenter"",""1"",""29021""
","
","
","""event"",""trial"",""time""
""fullscreenenter"",""1"",""29021""
","
","","","","","","6.5","images/orange1.png","","","memory_trial","2","maybe_old",""
"html-keyboard-response","212","665687","0.0-18.0-0.84","5970","approach_avoid_sv1","""event"",""trial"",""time""
""fullscreenenter"",""1"",""29021""
","
","
","""event"",""trial"",""time""
""fullscreenenter"",""1"",""29021""
","
","","","","","","null","<div style=""font-size:60px;"">+</div>","null","","fixation","","",""
"memory-trial","213","667197","0.0-18.0-1.84","5970","approach_avoid_sv1","""event"",""trial"",""time""
""fullscreenenter"",""1"",""29021""
","
","
","""event"",""trial"",""time""
""fullscreenenter"",""1"",""29021""
","
","","","","","","506.5","images/horse4.png","","","memory_trial","1","definitely_old",""
"html-keyboard-response","214","667703","0.0-18.0-0.85","5970","approach_avoid_sv1","""event"",""trial"",""time""
""fullscreenenter"",""1"",""29021""
","
","
","""event"",""trial"",""time""
""fullscreenenter"",""1"",""29021""
","
","","","","","","null","<div style=""font-size:60px;"">+</div>","null","","fixation","","",""
"memory-trial","215","668787","0.0-18.0-1.85","5970","approach_avoid_sv1","""event"",""trial"",""time""
""fullscreenenter"",""1"",""29021""
","
","
","""event"",""trial"",""time""
""fullscreenenter"",""1"",""29021""
","
","","","","","","69","images/flower6.png","","","memory_trial","2","maybe_old",""
"html-keyboard-response","216","669293","0.0-18.0-0.86","5970","approach_avoid_sv1","""event"",""trial"",""time""
""fullscreenenter"",""1"",""29021""
","
","
","""event"",""trial"",""time""
""fullscreenenter"",""1"",""29021""
","
","","","","","","null","<div style=""font-size:60px;"">+</div>","null","","fixation","","",""
"memory-trial","217","671121","0.0-18.0-1.86","5970","approach_avoid_sv1","""event"",""trial"",""time""
""fullscreenenter"",""1"",""29021""
","
","
","""event"",""trial"",""time""
""fullscreenenter"",""1"",""29021""
","
","","","","","","817.3000000007451","images/horse8.png","","","memory_trial","4","definitely_new",""
"html-keyboard-response","218","671636","0.0-18.0-0.87","5970","approach_avoid_sv1","""event"",""trial"",""time""
""fullscreenenter"",""1"",""29021""
","
","
","""event"",""trial"",""time""
""fullscreenenter"",""1"",""29021""
","
","","","","","","null","<div style=""font-size:60px;"">+</div>","null","","fixation","","",""
"memory-trial","219","674839","0.0-18.0-1.87","5970","approach_avoid_sv1","""event"",""trial"",""time""
""fullscreenenter"",""1"",""29021""
","
","
","""event"",""trial"",""time""
""fullscreenenter"",""1"",""29021""
","
","","","","","","2189.9000000003725","images/flower5.png","","","memory_trial","2","maybe_old",""
"html-keyboard-response","220","675345","0.0-18.0-0.88","5970","approach_avoid_sv1","""event"",""trial"",""time""
""fullscreenenter"",""1"",""29021""
","
","
","""event"",""trial"",""time""
""fullscreenenter"",""1"",""29021""
","
","","","","","","null","<div style=""font-size:60px;"">+</div>","null","","fixation","","",""
"memory-trial","221","678723","0.0-18.0-1.88","5970","approach_avoid_sv1","""event"",""trial"",""time""
""fullscreenenter"",""1"",""29021""
","
","
","""event"",""trial"",""time""
""fullscreenenter"",""1"",""29021""
","
","","","","","","2370.7000000011176","images/sheep7.png","","","memory_trial","2","maybe_old",""
"html-keyboard-response","222","679224","0.0-18.0-0.89","5970","approach_avoid_sv1","""event"",""trial"",""time""
""fullscreenenter"",""1"",""29021""
","
","
","""event"",""trial"",""time""
""fullscreenenter"",""1"",""29021""
","
","","","","","","null","<div style=""font-size:60px;"">+</div>","null","","fixation","","",""
"memory-trial","223","681509","0.0-18.0-1.89","5970","approach_avoid_sv1","""event"",""trial"",""time""
""fullscreenenter"",""1"",""29021""
","
","
","""event"",""trial"",""time""
""fullscreenenter"",""1"",""29021""
","
","","","","","","1271.9000000003725","images/cat7.png","","","memory_trial","1","definitely_old",""
"html-keyboard-response","224","682019","0.0-18.0-0.90","5970","approach_avoid_sv1","""event"",""trial"",""time""
""fullscreenenter"",""1"",""29021""
","
","
","""event"",""trial"",""time""
""fullscreenenter"",""1"",""29021""
","
","","","","","","null","<div style=""font-size:60px;"">+</div>","null","","fixation","","",""
"memory-trial","225","684801","0.0-18.0-1.90","5970","approach_avoid_sv1","""event"",""trial"",""time""
""fullscreenenter"",""1"",""29021""
","
","
","""event"",""trial"",""time""
""fullscreenenter"",""1"",""29021""
","
","","","","","","1771.199999999255","images/tree1.png","","","memory_trial","4","definitely_new",""
"html-keyboard-response","226","685321","0.0-18.0-0.91","5970","approach_avoid_sv1","""event"",""trial"",""time""
""fullscreenenter"",""1"",""29021""
","
","
","""event"",""trial"",""time""
""fullscreenenter"",""1"",""29021""
","
","","","","","","null","<div style=""font-size:60px;"">+</div>","null","","fixation","","",""
"memory-trial","227","687340","0.0-18.0-1.91","5970","approach_avoid_sv1","""event"",""trial"",""time""
""fullscreenenter"",""1"",""29021""
""blur"",""228"",""929530""
""focus"",""228"",""1712135""
","""event"",""trial"",""time""
""blur"",""228"",""929530""
","""event"",""trial"",""time""
""focus"",""228"",""1712135""
","""event"",""trial"",""time""
""fullscreenenter"",""1"",""29021""
","
","","","","","","1013.2999999988824","images/sofa6.png","","","memory_trial","3","maybe_new",""
"html-button-response","228","1737819","0.0-18.0-2.91-0.91","5970","approach_avoid_sv1","""event"",""trial"",""time""
""fullscreenenter"",""1"",""29021""
""blur"",""228"",""929530""
""focus"",""228"",""1712135""
","""event"",""trial"",""time""
""blur"",""228"",""929530""
","""event"",""trial"",""time""
""focus"",""228"",""1712135""
","""event"",""trial"",""time""
""fullscreenenter"",""1"",""29021""
","
","","","","","","1050482.5","<p> Take a break! </p><p> Click the button to continue. </p>","0","","break","","",""
"html-keyboard-response","229","1738329","0.0-18.0-0.92","5970","approach_avoid_sv1","""event"",""trial"",""time""
""fullscreenenter"",""1"",""29021""
""blur"",""228"",""929530""
""focus"",""228"",""1712135""
","""event"",""trial"",""time""
""blur"",""228"",""929530""
","""event"",""trial"",""time""
""focus"",""228"",""1712135""
","""event"",""trial"",""time""
""fullscreenenter"",""1"",""29021""
","
","","","","","","null","<div style=""font-size:60px;"">+</div>","null","","fixation","","",""
"memory-trial","230","1741775","0.0-18.0-1.92","5970","approach_avoid_sv1","""event"",""trial"",""time""
""fullscreenenter"",""1"",""29021""
""blur"",""228"",""929530""
""focus"",""228"",""1712135""
","""event"",""trial"",""time""
""blur"",""228"",""929530""
","""event"",""trial"",""time""
""focus"",""228"",""1712135""
","""event"",""trial"",""time""
""fullscreenenter"",""1"",""29021""
","
","","","","","","2429","images/bush5.png","","","memory_trial","4","definitely_new",""
"html-keyboard-response","231","1742281","0.0-18.0-0.93","5970","approach_avoid_sv1","""event"",""trial"",""time""
""fullscreenenter"",""1"",""29021""
""blur"",""228"",""929530""
""focus"",""228"",""1712135""
","""event"",""trial"",""time""
""blur"",""228"",""929530""
","""event"",""trial"",""time""
""focus"",""228"",""1712135""
","""event"",""trial"",""time""
""fullscreenenter"",""1"",""29021""
","
","","","","","","null","<div style=""font-size:60px;"">+</div>","null","","fixation","","",""
"memory-trial","232","1745174","0.0-18.0-1.93","5970","approach_avoid_sv1","""event"",""trial"",""time""
""fullscreenenter"",""1"",""29021""
""blur"",""228"",""929530""
""focus"",""228"",""1712135""
","""event"",""trial"",""time""
""blur"",""228"",""929530""
","""event"",""trial"",""time""
""focus"",""228"",""1712135""
","""event"",""trial"",""time""
""fullscreenenter"",""1"",""29021""
","
","","","","","","1880.4000000003725","images/cat8.png","","","memory_trial","1","definitely_old",""
"html-keyboard-response","233","1745689","0.0-18.0-0.94","5970","approach_avoid_sv1","""event"",""trial"",""time""
""fullscreenenter"",""1"",""29021""
""blur"",""228"",""929530""
""focus"",""228"",""1712135""
","""event"",""trial"",""time""
""blur"",""228"",""929530""
","""event"",""trial"",""time""
""focus"",""228"",""1712135""
","""event"",""trial"",""time""
""fullscreenenter"",""1"",""29021""
","
","","","","","","null","<div style=""font-size:60px;"">+</div>","null","","fixation","","",""
"memory-trial","234","1747748","0.0-18.0-1.94","5970","approach_avoid_sv1","""event"",""trial"",""time""
""fullscreenenter"",""1"",""29021""
""blur"",""228"",""929530""
""focus"",""228"",""1712135""
","""event"",""trial"",""time""
""blur"",""228"",""929530""
","""event"",""trial"",""time""
""focus"",""228"",""1712135""
","""event"",""trial"",""time""
""fullscreenenter"",""1"",""29021""
","
","","","","","","1047.800000000745","images/dog4.png","","","memory_trial","2","maybe_old",""
"html-keyboard-response","235","1748257","0.0-18.0-0.95","5970","approach_avoid_sv1","""event"",""trial"",""time""
""fullscreenenter"",""1"",""29021""
""blur"",""228"",""929530""
""focus"",""228"",""1712135""
","""event"",""trial"",""time""
""blur"",""228"",""929530""
","""event"",""trial"",""time""
""focus"",""228"",""1712135""
","""event"",""trial"",""time""
""fullscreenenter"",""1"",""29021""
","
","","","","","","null","<div style=""font-size:60px;"">+</div>","null","","fixation","","",""
"memory-trial","236","1751636","0.0-18.0-1.95","5970","approach_avoid_sv1","""event"",""trial"",""time""
""fullscreenenter"",""1"",""29021""
""blur"",""228"",""929530""
""focus"",""228"",""1712135""
","""event"",""trial"",""time""
""blur"",""228"",""929530""
","""event"",""trial"",""time""
""focus"",""228"",""1712135""
","""event"",""trial"",""time""
""fullscreenenter"",""1"",""29021""
","
","","","","","","2368.5999999996275","images/rabbit8.png","","","memory_trial","3","maybe_new",""
"html-keyboard-response","237","1752153","0.0-18.0-0.96","5970","approach_avoid_sv1","""event"",""trial"",""time""
""fullscreenenter"",""1"",""29021""
""blur"",""228"",""929530""
""focus"",""228"",""1712135""
","""event"",""trial"",""time""
""blur"",""228"",""929530""
","""event"",""trial"",""time""
""focus"",""228"",""1712135""
","""event"",""trial"",""time""
""fullscreenenter"",""1"",""29021""
","
","","","","","","null","<div style=""font-size:60px;"">+</div>","null","","fixation","","",""
"memory-trial","238","1755113","0.0-18.0-1.96","5970","approach_avoid_sv1","""event"",""trial"",""time""
""fullscreenenter"",""1"",""29021""
""blur"",""228"",""929530""
""focus"",""228"",""1712135""
","""event"",""trial"",""time""
""blur"",""228"",""929530""
","""event"",""trial"",""time""
""focus"",""228"",""1712135""
","""event"",""trial"",""time""
""fullscreenenter"",""1"",""29021""
","
","","","","","","1945.0999999996275","images/straw5.png","","","memory_trial","3","maybe_new",""
"html-keyboard-response","239","1755624","0.0-18.0-0.97","5970","approach_avoid_sv1","""event"",""trial"",""time""
""fullscreenenter"",""1"",""29021""
""blur"",""228"",""929530""
""focus"",""228"",""1712135""
","""event"",""trial"",""time""
""blur"",""228"",""929530""
","""event"",""trial"",""time""
""focus"",""228"",""1712135""
","""event"",""trial"",""time""
""fullscreenenter"",""1"",""29021""
","
","","","","","","null","<div style=""font-size:60px;"">+</div>","null","","fixation","","",""
"memory-trial","240","1758204","0.0-18.0-1.97","5970","approach_avoid_sv1","""event"",""trial"",""time""
""fullscreenenter"",""1"",""29021""
""blur"",""228"",""929530""
""focus"",""228"",""1712135""
","""event"",""trial"",""time""
""blur"",""228"",""929530""
","""event"",""trial"",""time""
""focus"",""228"",""1712135""
","""event"",""trial"",""time""
""fullscreenenter"",""1"",""29021""
","
","","","","","","1568.5999999996275","images/cow2.png","","","memory_trial","2","maybe_old",""
"html-keyboard-response","241","1758725","0.0-18.0-0.98","5970","approach_avoid_sv1","""event"",""trial"",""time""
""fullscreenenter"",""1"",""29021""
""blur"",""228"",""929530""
""focus"",""228"",""1712135""
","""event"",""trial"",""time""
""blur"",""228"",""929530""
","""event"",""trial"",""time""
""focus"",""228"",""1712135""
","""event"",""trial"",""time""
""fullscreenenter"",""1"",""29021""
","
","","","","","","null","<div style=""font-size:60px;"">+</div>","null","","fixation","","",""
"memory-trial","242","1763627","0.0-18.0-1.98","5970","approach_avoid_sv1","""event"",""trial"",""time""
""fullscreenenter"",""1"",""29021""
""blur"",""228"",""929530""
""focus"",""228"",""1712135""
","""event"",""trial"",""time""
""blur"",""228"",""929530""
","""event"",""trial"",""time""
""focus"",""228"",""1712135""
","""event"",""trial"",""time""
""fullscreenenter"",""1"",""29021""
","
","","","","","","3886.2999999988824","images/bush8.png","","","memory_trial","1","definitely_old",""
"html-keyboard-response","243","1764147","0.0-18.0-0.99","5970","approach_avoid_sv1","""event"",""trial"",""time""
""fullscreenenter"",""1"",""29021""
""blur"",""228"",""929530""
""focus"",""228"",""1712135""
","""event"",""trial"",""time""
""blur"",""228"",""929530""
","""event"",""trial"",""time""
""focus"",""228"",""1712135""
","""event"",""trial"",""time""
""fullscreenenter"",""1"",""29021""
","
","","","","","","null","<div style=""font-size:60px;"">+</div>","null","","fixation","","",""
"memory-trial","244","1768064","0.0-18.0-1.99","5970","approach_avoid_sv1","""event"",""trial"",""time""
""fullscreenenter"",""1"",""29021""
""blur"",""228"",""929530""
""focus"",""228"",""1712135""
","""event"",""trial"",""time""
""blur"",""228"",""929530""
","""event"",""trial"",""time""
""focus"",""228"",""1712135""
","""event"",""trial"",""time""
""fullscreenenter"",""1"",""29021""
","
","","","","","","2903.2000000011176","images/horse5.png","","","memory_trial","3","maybe_new",""
"html-keyboard-response","245","1768569","0.0-18.0-0.100","5970","approach_avoid_sv1","""event"",""trial"",""time""
""fullscreenenter"",""1"",""29021""
""blur"",""228"",""929530""
""focus"",""228"",""1712135""
","""event"",""trial"",""time""
""blur"",""228"",""929530""
","""event"",""trial"",""time""
""focus"",""228"",""1712135""
","""event"",""trial"",""time""
""fullscreenenter"",""1"",""29021""
","
","","","","","","null","<div style=""font-size:60px;"">+</div>","null","","fixation","","",""
"memory-trial","246","1771684","0.0-18.0-1.100","5970","approach_avoid_sv1","""event"",""trial"",""time""
""fullscreenenter"",""1"",""29021""
""blur"",""228"",""929530""
""focus"",""228"",""1712135""
","""event"",""trial"",""time""
""blur"",""228"",""929530""
","""event"",""trial"",""time""
""focus"",""228"",""1712135""
","""event"",""trial"",""time""
""fullscreenenter"",""1"",""29021""
","
","","","","","","2106.5999999996275","images/cactus8.png","","","memory_trial","3","maybe_new",""
"html-keyboard-response","247","1772197","0.0-18.0-0.101","5970","approach_avoid_sv1","""event"",""trial"",""time""
""fullscreenenter"",""1"",""29021""
""blur"",""228"",""929530""
""focus"",""228"",""1712135""
","""event"",""trial"",""time""
""blur"",""228"",""929530""
","""event"",""trial"",""time""
""focus"",""228"",""1712135""
","""event"",""trial"",""time""
""fullscreenenter"",""1"",""29021""
","
","","","","","","null","<div style=""font-size:60px;"">+</div>","null","","fixation","","",""
"memory-trial","248","1776404","0.0-18.0-1.101","5970","approach_avoid_sv1","""event"",""trial"",""time""
""fullscreenenter"",""1"",""29021""
""blur"",""228"",""929530""
""focus"",""228"",""1712135""
","""event"",""trial"",""time""
""blur"",""228"",""929530""
","""event"",""trial"",""time""
""focus"",""228"",""1712135""
","""event"",""trial"",""time""
""fullscreenenter"",""1"",""29021""
","
","","","","","","3203.5","images/tree5.png","","","memory_trial","4","definitely_new",""
"html-keyboard-response","249","1776912","0.0-18.0-0.102","5970","approach_avoid_sv1","""event"",""trial"",""time""
""fullscreenenter"",""1"",""29021""
""blur"",""228"",""929530""
""focus"",""228"",""1712135""
","""event"",""trial"",""time""
""blur"",""228"",""929530""
","""event"",""trial"",""time""
""focus"",""228"",""1712135""
","""event"",""trial"",""time""
""fullscreenenter"",""1"",""29021""
","
","","","","","","null","<div style=""font-size:60px;"">+</div>","null","","fixation","","",""
"memory-trial","250","1779488","0.0-18.0-1.102","5970","approach_avoid_sv1","""event"",""trial"",""time""
""fullscreenenter"",""1"",""29021""
""blur"",""228"",""929530""
""focus"",""228"",""1712135""
","""event"",""trial"",""time""
""blur"",""228"",""929530""
","""event"",""trial"",""time""
""focus"",""228"",""1712135""
","""event"",""trial"",""time""
""fullscreenenter"",""1"",""29021""
","
","","","","","","1568.800000000745","images/chair6.png","","","memory_trial","2","maybe_old",""
"html-keyboard-response","251","1780014","0.0-18.0-0.103","5970","approach_avoid_sv1","""event"",""trial"",""time""
""fullscreenenter"",""1"",""29021""
""blur"",""228"",""929530""
""focus"",""228"",""1712135""
","""event"",""trial"",""time""
""blur"",""228"",""929530""
","""event"",""trial"",""time""
""focus"",""228"",""1712135""
","""event"",""trial"",""time""
""fullscreenenter"",""1"",""29021""
","
","","","","","","null","<div style=""font-size:60px;"">+</div>","null","","fixation","","",""
"memory-trial","252","1782197","0.0-18.0-1.103","5970","approach_avoid_sv1","""event"",""trial"",""time""
""fullscreenenter"",""1"",""29021""
""blur"",""228"",""929530""
""focus"",""228"",""1712135""
","""event"",""trial"",""time""
""blur"",""228"",""929530""
","""event"",""trial"",""time""
""focus"",""228"",""1712135""
","""event"",""trial"",""time""
""fullscreenenter"",""1"",""29021""
","
","","","","","","1179.5999999996275","images/tree2.png","","","memory_trial","4","definitely_new",""
"html-keyboard-response","253","1782709","0.0-18.0-0.104","5970","approach_avoid_sv1","""event"",""trial"",""time""
""fullscreenenter"",""1"",""29021""
""blur"",""228"",""929530""
""focus"",""228"",""1712135""
","""event"",""trial"",""time""
""blur"",""228"",""929530""
","""event"",""trial"",""time""
""focus"",""228"",""1712135""
","""event"",""trial"",""time""
""fullscreenenter"",""1"",""29021""
","
","","","","","","null","<div style=""font-size:60px;"">+</div>","null","","fixation","","",""
"memory-trial","254","1785344","0.0-18.0-1.104","5970","approach_avoid_sv1","""event"",""trial"",""time""
""fullscreenenter"",""1"",""29021""
""blur"",""228"",""929530""
""focus"",""228"",""1712135""
","""event"",""trial"",""time""
""blur"",""228"",""929530""
","""event"",""trial"",""time""
""focus"",""228"",""1712135""
","""event"",""trial"",""time""
""fullscreenenter"",""1"",""29021""
","
","","","","","","1624","images/cat3.png","","","memory_trial","3","maybe_new",""
"html-keyboard-response","255","1785859","0.0-18.0-0.105","5970","approach_avoid_sv1","""event"",""trial"",""time""
""fullscreenenter"",""1"",""29021""
""blur"",""228"",""929530""
""focus"",""228"",""1712135""
","""event"",""trial"",""time""
""blur"",""228"",""929530""
","""event"",""trial"",""time""
""focus"",""228"",""1712135""
","""event"",""trial"",""time""
""fullscreenenter"",""1"",""29021""
","
","","","","","","null","<div style=""font-size:60px;"">+</div>","null","","fixation","","",""
"memory-trial","256","1788504","0.0-18.0-1.105","5970","approach_avoid_sv1","""event"",""trial"",""time""
""fullscreenenter"",""1"",""29021""
""blur"",""228"",""929530""
""focus"",""228"",""1712135""
","""event"",""trial"",""time""
""blur"",""228"",""929530""
","""event"",""trial"",""time""
""focus"",""228"",""1712135""
","""event"",""trial"",""time""
""fullscreenenter"",""1"",""29021""
","
","","","","","","1638.9000000003725","images/horse7.png","","","memory_trial","1","definitely_old",""
"html-keyboard-response","257","1789016","0.0-18.0-0.106","5970","approach_avoid_sv1","""event"",""trial"",""time""
""fullscreenenter"",""1"",""29021""
""blur"",""228"",""929530""
""focus"",""228"",""1712135""
","""event"",""trial"",""time""
""blur"",""228"",""929530""
","""event"",""trial"",""time""
""focus"",""228"",""1712135""
","""event"",""trial"",""time""
""fullscreenenter"",""1"",""29021""
","
","","","","","","null","<div style=""font-size:60px;"">+</div>","null","","fixation","","",""
"memory-trial","258","1791180","0.0-18.0-1.106","5970","approach_avoid_sv1","""event"",""trial"",""time""
""fullscreenenter"",""1"",""29021""
""blur"",""228"",""929530""
""focus"",""228"",""1712135""
","""event"",""trial"",""time""
""blur"",""228"",""929530""
","""event"",""trial"",""time""
""focus"",""228"",""1712135""
","""event"",""trial"",""time""
""fullscreenenter"",""1"",""29021""
","
","","","","","","1149.5999999996275","images/horse2.png","","","memory_trial","2","maybe_old",""
"html-keyboard-response","259","1791700","0.0-18.0-0.107","5970","approach_avoid_sv1","""event"",""trial"",""time""
""fullscreenenter"",""1"",""29021""
""blur"",""228"",""929530""
""focus"",""228"",""1712135""
","""event"",""trial"",""time""
""blur"",""228"",""929530""
","""event"",""trial"",""time""
""focus"",""228"",""1712135""
","""event"",""trial"",""time""
""fullscreenenter"",""1"",""29021""
","
","","","","","","null","<div style=""font-size:60px;"">+</div>","null","","fixation","","",""
"memory-trial","260","1793828","0.0-18.0-1.107","5970","approach_avoid_sv1","""event"",""trial"",""time""
""fullscreenenter"",""1"",""29021""
""blur"",""228"",""929530""
""focus"",""228"",""1712135""
","""event"",""trial"",""time""
""blur"",""228"",""929530""
","""event"",""trial"",""time""
""focus"",""228"",""1712135""
","""event"",""trial"",""time""
""fullscreenenter"",""1"",""29021""
","
","","","","","","1116.300000000745","images/truck7.png","","","memory_trial","3","maybe_new",""
"html-keyboard-response","261","1794338","0.0-18.0-0.108","5970","approach_avoid_sv1","""event"",""trial"",""time""
""fullscreenenter"",""1"",""29021""
""blur"",""228"",""929530""
""focus"",""228"",""1712135""
","""event"",""trial"",""time""
""blur"",""228"",""929530""
","""event"",""trial"",""time""
""focus"",""228"",""1712135""
","""event"",""trial"",""time""
""fullscreenenter"",""1"",""29021""
","
","","","","","","null","<div style=""font-size:60px;"">+</div>","null","","fixation","","",""
"memory-trial","262","1796412","0.0-18.0-1.108","5970","approach_avoid_sv1","""event"",""trial"",""time""
""fullscreenenter"",""1"",""29021""
""blur"",""228"",""929530""
""focus"",""228"",""1712135""
","""event"",""trial"",""time""
""blur"",""228"",""929530""
","""event"",""trial"",""time""
""focus"",""228"",""1712135""
","""event"",""trial"",""time""
""fullscreenenter"",""1"",""29021""
","
","","","","","","1062.9000000003725","images/horse3.png","","","memory_trial","2","maybe_old",""
"html-keyboard-response","263","1796916","0.0-18.0-0.109","5970","approach_avoid_sv1","""event"",""trial"",""time""
""fullscreenenter"",""1"",""29021""
""blur"",""228"",""929530""
""focus"",""228"",""1712135""
","""event"",""trial"",""time""
""blur"",""228"",""929530""
","""event"",""trial"",""time""
""focus"",""228"",""1712135""
","""event"",""trial"",""time""
""fullscreenenter"",""1"",""29021""
","
","","","","","","null","<div style=""font-size:60px;"">+</div>","null","","fixation","","",""
"memory-trial","264","1798955","0.0-18.0-1.109","5970","approach_avoid_sv1","""event"",""trial"",""time""
""fullscreenenter"",""1"",""29021""
""blur"",""228"",""929530""
""focus"",""228"",""1712135""
","""event"",""trial"",""time""
""blur"",""228"",""929530""
","""event"",""trial"",""time""
""focus"",""228"",""1712135""
","""event"",""trial"",""time""
""fullscreenenter"",""1"",""29021""
","
","","","","","","1022.8000000007451","images/apple5.png","","","memory_trial","3","maybe_new",""
"html-keyboard-response","265","1799466","0.0-18.0-0.110","5970","approach_avoid_sv1","""event"",""trial"",""time""
""fullscreenenter"",""1"",""29021""
""blur"",""228"",""929530""
""focus"",""228"",""1712135""
","""event"",""trial"",""time""
""blur"",""228"",""929530""
","""event"",""trial"",""time""
""focus"",""228"",""1712135""
","""event"",""trial"",""time""
""fullscreenenter"",""1"",""29021""
","
","","","","","","null","<div style=""font-size:60px;"">+</div>","null","","fixation","","",""
"memory-trial","266","1801933","0.0-18.0-1.110","5970","approach_avoid_sv1","""event"",""trial"",""time""
""fullscreenenter"",""1"",""29021""
""blur"",""228"",""929530""
""focus"",""228"",""1712135""
","""event"",""trial"",""time""
""blur"",""228"",""929530""
","""event"",""trial"",""time""
""focus"",""228"",""1712135""
","""event"",""trial"",""time""
""fullscreenenter"",""1"",""29021""
","
","","","","","","1449.0999999996275","images/bed1.png","","","memory_trial","1","definitely_old",""
"html-keyboard-response","267","1802448","0.0-18.0-0.111","5970","approach_avoid_sv1","""event"",""trial"",""time""
""fullscreenenter"",""1"",""29021""
""blur"",""228"",""929530""
""focus"",""228"",""1712135""
","""event"",""trial"",""time""
""blur"",""228"",""929530""
","""event"",""trial"",""time""
""focus"",""228"",""1712135""
","""event"",""trial"",""time""
""fullscreenenter"",""1"",""29021""
","
","","","","","","null","<div style=""font-size:60px;"">+</div>","null","","fixation","","",""
"memory-trial","268","1804693","0.0-18.0-1.111","5970","approach_avoid_sv1","""event"",""trial"",""time""
""fullscreenenter"",""1"",""29021""
""blur"",""228"",""929530""
""focus"",""228"",""1712135""
","""event"",""trial"",""time""
""blur"",""228"",""929530""
","""event"",""trial"",""time""
""focus"",""228"",""1712135""
","""event"",""trial"",""time""
""fullscreenenter"",""1"",""29021""
","
","","","","","","1236","images/cow1.png","","","memory_trial","2","maybe_old",""
"html-keyboard-response","269","1805203","0.0-18.0-0.112","5970","approach_avoid_sv1","""event"",""trial"",""time""
""fullscreenenter"",""1"",""29021""
""blur"",""228"",""929530""
""focus"",""228"",""1712135""
","""event"",""trial"",""time""
""blur"",""228"",""929530""
","""event"",""trial"",""time""
""focus"",""228"",""1712135""
","""event"",""trial"",""time""
""fullscreenenter"",""1"",""29021""
","
","","","","","","null","<div style=""font-size:60px;"">+</div>","null","","fixation","","",""
"memory-trial","270","1809141","0.0-18.0-1.112","5970","approach_avoid_sv1","""event"",""trial"",""time""
""fullscreenenter"",""1"",""29021""
""blur"",""228"",""929530""
""focus"",""228"",""1712135""
","""event"",""trial"",""time""
""blur"",""228"",""929530""
","""event"",""trial"",""time""
""focus"",""228"",""1712135""
","""event"",""trial"",""time""
""fullscreenenter"",""1"",""29021""
","
","","","","","","2935.5","images/chair7.png","","","memory_trial","2","maybe_old",""
"html-keyboard-response","271","1809657","0.0-18.0-0.113","5970","approach_avoid_sv1","""event"",""trial"",""time""
""fullscreenenter"",""1"",""29021""
""blur"",""228"",""929530""
""focus"",""228"",""1712135""
","""event"",""trial"",""time""
""blur"",""228"",""929530""
","""event"",""trial"",""time""
""focus"",""228"",""1712135""
","""event"",""trial"",""time""
""fullscreenenter"",""1"",""29021""
","
","","","","","","null","<div style=""font-size:60px;"">+</div>","null","","fixation","","",""
