"trial_type","trial_index","time_elapsed","internal_node_id","subject_id","task_version","interactions","blur_events","focus_events","fullscreenenter_events","fullscreenexit_events","success","timeout","failed_images","failed_audio","failed_video","rt","stimulus","response","button_pressed","task_part","key_press","answer","correct"
"pavlovia","0","4","0.0-0.0","5739","approach_avoid_sv1","""event"",""trial"",""time""
""fullscreenenter"",""1"",""1539""
","
","
","""event"",""trial"",""time""
""fullscreenenter"",""1"",""1539""
","
","","","","","","","","","","","","",""
"fullscreen","1","2536","0.0-1.0","5739","approach_avoid_sv1","""event"",""trial"",""time""
""fullscreenenter"",""1"",""1539""
","
","
","""event"",""trial"",""time""
""fullscreenenter"",""1"",""1539""
","
","true","","","","","","","","","","","",""
"preload","2","3841","0.0-2.0","5739","approach_avoid_sv1","""event"",""trial"",""time""
""fullscreenenter"",""1"",""1539""
","
","
","""event"",""trial"",""time""
""fullscreenenter"",""1"",""1539""
","
","true","false","[]","[]","[]","","","","","","","",""
"preload","3","4369","0.0-3.0","5739","approach_avoid_sv1","""event"",""trial"",""time""
""fullscreenenter"",""1"",""1539""
","
","
","""event"",""trial"",""time""
""fullscreenenter"",""1"",""1539""
","
","true","false","[]","[]","[]","","","","","","","",""
"preload","4","4573","0.0-4.0","5739","approach_avoid_sv1","""event"",""trial"",""time""
""fullscreenenter"",""1"",""1539""
","
","
","""event"",""trial"",""time""
""fullscreenenter"",""1"",""1539""
","
","true","false","[]","[]","[]","","","","","","","",""
"audio-keyboard-response","5","6989","0.0-5.0","5739","approach_avoid_sv1","""event"",""trial"",""time""
""fullscreenenter"",""1"",""1539""
","
","
","""event"",""trial"",""time""
""fullscreenenter"",""1"",""1539""
","
","","","","","","2418.666666666667","audio/beep_loop.wav"," ","","","","",""
"audio-button-response","6","8189","0.0-6.0","5739","approach_avoid_sv1","""event"",""trial"",""time""
""fullscreenenter"",""1"",""1539""
","
","
","""event"",""trial"",""time""
""fullscreenenter"",""1"",""1539""
","
","","","","","","1200","audio/turtle.wav","3","","","","",""
"audio-button-response","7","10325","0.0-7.0","5739","approach_avoid_sv1","""event"",""trial"",""time""
""fullscreenenter"",""1"",""1539""
","
","
","""event"",""trial"",""time""
""fullscreenenter"",""1"",""1539""
","
","","","","","","1131","audio/shark.wav","2","","","","",""
"preload","8","12718","0.0-8.0","5739","approach_avoid_sv1","""event"",""trial"",""time""
""fullscreenenter"",""1"",""1539""
","
","
","""event"",""trial"",""time""
""fullscreenenter"",""1"",""1539""
","
","true","false","[]","[]","[]","","","","","","","",""
"learning-instructions","9","19928","0.0-9.0-0.0","5739","approach_avoid_sv1","""event"",""trial"",""time""
""fullscreenenter"",""1"",""1539""
","
","
","""event"",""trial"",""time""
""fullscreenenter"",""1"",""1539""
","
","","","","","","2729.8000000000466","<p> Welcome back! </p><p> Last week, you had to make choices about lots of different items.  </p>","","0","instructions","","",""
"learning-instructions","10","26138","0.0-9.0-0.1","5739","approach_avoid_sv1","""event"",""trial"",""time""
""fullscreenenter"",""1"",""1539""
","
","
","""event"",""trial"",""time""
""fullscreenenter"",""1"",""1539""
","
","","","","","","2090.5","<p> Today, we are going to ask you to try to remember all the items. </p>","","0","instructions","","",""
"learning-instructions","11","37528","0.0-9.0-0.2","5739","approach_avoid_sv1","""event"",""trial"",""time""
""fullscreenenter"",""1"",""1539""
","
","
","""event"",""trial"",""time""
""fullscreenenter"",""1"",""1539""
","
","","","","","","1259.2000000000698","<p> On every trial, you will see an image. </p><p> The image may be an OLD image you saw during the games last week or it may be a NEW image that was not presented. </p>","","0","instructions","","",""
"learning-instructions","12","47691","0.0-9.0-0.3","5739","approach_avoid_sv1","""event"",""trial"",""time""
""fullscreenenter"",""1"",""1539""
","
","
","""event"",""trial"",""time""
""fullscreenenter"",""1"",""1539""
","
","","","","","","1672.9000000000233","<p> You need to select whether the image is:  </p><p>  'Definitely old', 'Maybe old', 'Maybe new', or 'Definitely new.'  </p><div class=""mem-choice-instructions-grid""><div class=""choice-option"" id=""choice-option-1"" ><img src=""images/definitely_old_1.png"" id=""choice-option-img-1"" class=""choice-option-img"" stage=""1""></div><div class=""choice-option"" id=""choice-option-2"" ><img src=""images/maybe_old_1.png"" id=""choice-option-img-2"" class=""choice-option-img"" stage=""1""></div><div class=""choice-option"" id=""choice-option-3"" ><img src=""images/maybe_new_1.png"" id=""choice-option-img-3"" class=""choice-option-img"" stage=""1""></div><div class=""choice-option"" id=""choice-option-4"" > <img src=""images/definitely_new_1.png"" id=""choice-option-img-4"" class=""choice-option-img"" stage=""1""></div></div>","","0","instructions","","",""
"learning-instructions","13","54846","0.0-9.0-0.4","5739","approach_avoid_sv1","""event"",""trial"",""time""
""fullscreenenter"",""1"",""1539""
","
","
","""event"",""trial"",""time""
""fullscreenenter"",""1"",""1539""
","
","","","","","","647.9000000000233","<p> You should use the 1, 2, 3, and 4 keys to make your responses.  </p><div class=""mem-choice-instructions-grid""><div class=""choice-option"" id=""choice-option-1"" ><img src=""images/definitely_old.png"" id=""choice-option-img-1"" class=""choice-option-img"" stage=""1""></div><div class=""choice-option"" id=""choice-option-2"" ><img src=""images/maybe_old.png"" id=""choice-option-img-2"" class=""choice-option-img"" stage=""1""></div><div class=""choice-option"" id=""choice-option-3"" ><img src=""images/maybe_new.png"" id=""choice-option-img-3"" class=""choice-option-img"" stage=""1""></div><div class=""choice-option"" id=""choice-option-4"" > <img src=""images/definitely_new.png"" id=""choice-option-img-4"" class=""choice-option-img"" stage=""1""></div></div>","","0","instructions","","",""
"learning-instructions","14","62437","0.0-9.0-0.5","5739","approach_avoid_sv1","""event"",""trial"",""time""
""fullscreenenter"",""1"",""1539""
","
","
","""event"",""trial"",""time""
""fullscreenenter"",""1"",""1539""
","
","","","","","","1258.5","<p> You will have 10 seconds to make each response.  </p><p>  Make sure to respond before time runs out! </p>","","0","instructions","","",""
"learning-instructions","15","70274","0.0-9.0-0.6","5739","approach_avoid_sv1","""event"",""trial"",""time""
""fullscreenenter"",""1"",""1539""
","
","
","""event"",""trial"",""time""
""fullscreenenter"",""1"",""1539""
","
","","","","","","756.0999999999767","<p> Today, you will see each image ONCE only.  </p><p>  That means none of the images will repeat. </p>","","0","instructions","","",""
"learning-instructions","16","83876","0.0-9.0-0.7","5739","approach_avoid_sv1","""event"",""trial"",""time""
""fullscreenenter"",""1"",""1539""
","
","
","""event"",""trial"",""time""
""fullscreenenter"",""1"",""1539""
","
","","","","","","938.1999999999534","<p> Before you play the real game, it is time to practice. </p><p>  Just like in the real game, some of the images in the practice will be ones you have seen before. </p><p>  Others will be entirely new. </p>","","0","instructions","","",""
"html-button-response","17","85337","0.0-10.0","5739","approach_avoid_sv1","""event"",""trial"",""time""
""fullscreenenter"",""1"",""1539""
","
","
","""event"",""trial"",""time""
""fullscreenenter"",""1"",""1539""
","
","","","","","","1351.0999999999767","<p> Ready to practice? </p><p> Remember, use the 1, 2, 3, and 4 keys to make your responses. </p>","0","","instructions","","",""
"html-keyboard-response","18","85958","0.0-11.0-0.0","5739","approach_avoid_sv1","""event"",""trial"",""time""
""fullscreenenter"",""1"",""1539""
","
","
","""event"",""trial"",""time""
""fullscreenenter"",""1"",""1539""
","
","","","","","","null","<div style=""font-size:60px;"">+</div>","null","","fixation","","",""
"memory-trial","19","88688","0.0-11.0-1.0","5739","approach_avoid_sv1","""event"",""trial"",""time""
""fullscreenenter"",""1"",""1539""
","
","
","""event"",""trial"",""time""
""fullscreenenter"",""1"",""1539""
","
","","","","","","1717.1000000000931","images/ball1.png","","","practice","3","maybe_new",""
"html-keyboard-response","20","89202","0.0-11.0-0.1","5739","approach_avoid_sv1","""event"",""trial"",""time""
""fullscreenenter"",""1"",""1539""
","
","
","""event"",""trial"",""time""
""fullscreenenter"",""1"",""1539""
","
","","","","","","null","<div style=""font-size:60px;"">+</div>","null","","fixation","","",""
"memory-trial","21","91579","0.0-11.0-1.1","5739","approach_avoid_sv1","""event"",""trial"",""time""
""fullscreenenter"",""1"",""1539""
","
","
","""event"",""trial"",""time""
""fullscreenenter"",""1"",""1539""
","
","","","","","","1363.3000000000466","images/racket3.png","","","practice","2","maybe_old",""
"html-keyboard-response","22","92096","0.0-11.0-0.2","5739","approach_avoid_sv1","""event"",""trial"",""time""
""fullscreenenter"",""1"",""1539""
","
","
","""event"",""trial"",""time""
""fullscreenenter"",""1"",""1539""
","
","","","","","","null","<div style=""font-size:60px;"">+</div>","null","","fixation","","",""
"memory-trial","23","94296","0.0-11.0-1.2","5739","approach_avoid_sv1","""event"",""trial"",""time""
""fullscreenenter"",""1"",""1539""
","
","
","""event"",""trial"",""time""
""fullscreenenter"",""1"",""1539""
","
","","","","","","1183.7000000000698","images/racket5.png","","","practice","1","definitely_old",""
"html-keyboard-response","24","94812","0.0-11.0-0.3","5739","approach_avoid_sv1","""event"",""trial"",""time""
""fullscreenenter"",""1"",""1539""
","
","
","""event"",""trial"",""time""
""fullscreenenter"",""1"",""1539""
","
","","","","","","null","<div style=""font-size:60px;"">+</div>","null","","fixation","","",""
"memory-trial","25","97342","0.0-11.0-1.3","5739","approach_avoid_sv1","""event"",""trial"",""time""
""fullscreenenter"",""1"",""1539""
","
","
","""event"",""trial"",""time""
""fullscreenenter"",""1"",""1539""
","
","","","","","","1511","images/ball3.png","","","practice","1","definitely_old",""
"html-keyboard-response","26","97848","0.0-11.0-0.4","5739","approach_avoid_sv1","""event"",""trial"",""time""
""fullscreenenter"",""1"",""1539""
","
","
","""event"",""trial"",""time""
""fullscreenenter"",""1"",""1539""
","
","","","","","","null","<div style=""font-size:60px;"">+</div>","null","","fixation","","",""
"memory-trial","27","100024","0.0-11.0-1.4","5739","approach_avoid_sv1","""event"",""trial"",""time""
""fullscreenenter"",""1"",""1539""
","
","
","""event"",""trial"",""time""
""fullscreenenter"",""1"",""1539""
","
","","","","","","1168.2999999999302","images/racket2.png","","","practice","3","maybe_new",""
"html-keyboard-response","28","100527","0.0-11.0-0.5","5739","approach_avoid_sv1","""event"",""trial"",""time""
""fullscreenenter"",""1"",""1539""
","
","
","""event"",""trial"",""time""
""fullscreenenter"",""1"",""1539""
","
","","","","","","null","<div style=""font-size:60px;"">+</div>","null","","fixation","","",""
"memory-trial","29","102328","0.0-11.0-1.5","5739","approach_avoid_sv1","""event"",""trial"",""time""
""fullscreenenter"",""1"",""1539""
","
","
","""event"",""trial"",""time""
""fullscreenenter"",""1"",""1539""
","
","","","","","","796.5999999999767","images/ball5.png","","","practice","2","maybe_old",""
"html-keyboard-response","30","102832","0.0-11.0-0.6","5739","approach_avoid_sv1","""event"",""trial"",""time""
""fullscreenenter"",""1"",""1539""
","
","
","""event"",""trial"",""time""
""fullscreenenter"",""1"",""1539""
","
","","","","","","null","<div style=""font-size:60px;"">+</div>","null","","fixation","","",""
"memory-trial","31","104630","0.0-11.0-1.6","5739","approach_avoid_sv1","""event"",""trial"",""time""
""fullscreenenter"",""1"",""1539""
","
","
","""event"",""trial"",""time""
""fullscreenenter"",""1"",""1539""
","
","","","","","","776.9000000000233","images/ball2.png","","","practice","2","maybe_old",""
"html-keyboard-response","32","105147","0.0-11.0-0.7","5739","approach_avoid_sv1","""event"",""trial"",""time""
""fullscreenenter"",""1"",""1539""
","
","
","""event"",""trial"",""time""
""fullscreenenter"",""1"",""1539""
","
","","","","","","null","<div style=""font-size:60px;"">+</div>","null","","fixation","","",""
"memory-trial","33","106981","0.0-11.0-1.7","5739","approach_avoid_sv1","""event"",""trial"",""time""
""fullscreenenter"",""1"",""1539""
","
","
","""event"",""trial"",""time""
""fullscreenenter"",""1"",""1539""
","
","","","","","","823.8000000000466","images/racket1.png","","","practice","2","maybe_old",""
"learning-instructions","34","115442","0.0-12.0-0.0","5739","approach_avoid_sv1","""event"",""trial"",""time""
""fullscreenenter"",""1"",""1539""
","
","
","""event"",""trial"",""time""
""fullscreenenter"",""1"",""1539""
","
","","","","","","1154.2000000000698","<p> Great! You have completed the practice. </p><p> Before you start, we're going to ask you a few questions about how the game works.  </p>","","0","instructions","","",""
"preload","35","116645","0.0-13.0","5739","approach_avoid_sv1","""event"",""trial"",""time""
""fullscreenenter"",""1"",""1539""
","
","
","""event"",""trial"",""time""
""fullscreenenter"",""1"",""1539""
","
","true","false","[]","[]","[]","","","","","","","",""
"comp-q","36","123020","0.0-14.0-0.0","5739","approach_avoid_sv1","""event"",""trial"",""time""
""fullscreenenter"",""1"",""1539""
","
","
","""event"",""trial"",""time""
""fullscreenenter"",""1"",""1539""
","
","","","","","","550.8000000000466","<p> <b> True or False? </b> </p><p> In this game, you will only see each image once. </p>","","1","comp_question","","","false"
"comp-q","37","137357","0.0-14.0-1.0","5739","approach_avoid_sv1","""event"",""trial"",""time""
""fullscreenenter"",""1"",""1539""
","
","
","""event"",""trial"",""time""
""fullscreenenter"",""1"",""1539""
","
","","","","","","7789.20000000007","<p> <b>Incorrect.</b> You will see many different images <i> one time each </i> in this game. </p>","","0","comp_answer","","",""
"comp-q","38","144056","0.0-14.1-0.1","5739","approach_avoid_sv1","""event"",""trial"",""time""
""fullscreenenter"",""1"",""1539""
","
","
","""event"",""trial"",""time""
""fullscreenenter"",""1"",""1539""
","
","","","","","","768.2000000000698","<p> <b> True or False? </b> </p><p> In this game, you will only see each image once. </p>","","0","comp_question","","","true"
"comp-q","39","153703","0.0-14.1-1.1","5739","approach_avoid_sv1","""event"",""trial"",""time""
""fullscreenenter"",""1"",""1539""
","
","
","""event"",""trial"",""time""
""fullscreenenter"",""1"",""1539""
","
","","","","","","3304.4000000000233","<p> <b> That's right! </b> You will see many different images <i> one time each </i> in this game. </p>","","0","comp_answer","","",""
"comp-q","40","160522","0.0-15.0-0.0","5739","approach_avoid_sv1","""event"",""trial"",""time""
""fullscreenenter"",""1"",""1539""
","
","
","""event"",""trial"",""time""
""fullscreenenter"",""1"",""1539""
","
","","","","","","1793.3000000000466","<p> <b> True or False? </b> </p><p> You should use the mouse and click to make your response. </p>","","1","comp_question","","","true"
"comp-q","41","172103","0.0-15.0-1.0","5739","approach_avoid_sv1","""event"",""trial"",""time""
""fullscreenenter"",""1"",""1539""
","
","
","""event"",""trial"",""time""
""fullscreenenter"",""1"",""1539""
","
","","","","","","5084","<p><b> That's right! </b> You should use the '1', '2', '3', and '4' keys to make your response. </p>","","0","comp_answer","","",""
"comp-q","42","181079","0.0-16.0-0.0","5739","approach_avoid_sv1","""event"",""trial"",""time""
""fullscreenenter"",""1"",""1539""
","
","
","""event"",""trial"",""time""
""fullscreenenter"",""1"",""1539""
","
","","","","","","3300.4000000000233","<p> <b> True or False? </b> </p><p> You will have as much time as you want to make each choice. </p>","","1","comp_question","","","true"
"comp-q","43","188356","0.0-16.0-1.0","5739","approach_avoid_sv1","""event"",""trial"",""time""
""fullscreenenter"",""1"",""1539""
","
","
","""event"",""trial"",""time""
""fullscreenenter"",""1"",""1539""
","
","","","","","","2578","<p> <b> That's right! </b> You will only have 10 seconds to make each choice. </p>","","0","comp_answer","","",""
"learning-instructions","44","198526","0.0-17.0","5739","approach_avoid_sv1","""event"",""trial"",""time""
""fullscreenenter"",""1"",""1539""
","
","
","""event"",""trial"",""time""
""fullscreenenter"",""1"",""1539""
","
","","","","","","1497.5","<p> Great! You are now ready to begin the game. </p><p> Remember, use the 1, 2, 3, and 4 keys to make your responses. </p>","","0","instructions","","",""
"html-keyboard-response","45","199137","0.0-18.0-0.0","5739","approach_avoid_sv1","""event"",""trial"",""time""
""fullscreenenter"",""1"",""1539""
","
","
","""event"",""trial"",""time""
""fullscreenenter"",""1"",""1539""
","
","","","","","","null","<div style=""font-size:60px;"">+</div>","null","","fixation","","",""
"memory-trial","46","201243","0.0-18.0-1.0","5739","approach_avoid_sv1","""event"",""trial"",""time""
""fullscreenenter"",""1"",""1539""
","
","
","""event"",""trial"",""time""
""fullscreenenter"",""1"",""1539""
","
","","","","","","1094.7999999999302","images/orange3.png","","","memory_trial","2","maybe_old",""
"html-keyboard-response","47","201762","0.0-18.0-0.1","5739","approach_avoid_sv1","""event"",""trial"",""time""
""fullscreenenter"",""1"",""1539""
","
","
","""event"",""trial"",""time""
""fullscreenenter"",""1"",""1539""
","
","","","","","","null","<div style=""font-size:60px;"">+</div>","null","","fixation","","",""
"memory-trial","48","204392","0.0-18.0-1.1","5739","approach_avoid_sv1","""event"",""trial"",""time""
""fullscreenenter"",""1"",""1539""
","
","
","""event"",""trial"",""time""
""fullscreenenter"",""1"",""1539""
","
","","","","","","1612.2000000000698","images/dog3.png","","","memory_trial","1","definitely_old",""
"html-keyboard-response","49","204907","0.0-18.0-0.2","5739","approach_avoid_sv1","""event"",""trial"",""time""
""fullscreenenter"",""1"",""1539""
","
","
","""event"",""trial"",""time""
""fullscreenenter"",""1"",""1539""
","
","","","","","","null","<div style=""font-size:60px;"">+</div>","null","","fixation","","",""
"memory-trial","50","206890","0.0-18.0-1.2","5739","approach_avoid_sv1","""event"",""trial"",""time""
""fullscreenenter"",""1"",""1539""
","
","
","""event"",""trial"",""time""
""fullscreenenter"",""1"",""1539""
","
","","","","","","977.5999999999767","images/sofa1.png","","","memory_trial","1","definitely_old",""
"html-keyboard-response","51","207401","0.0-18.0-0.3","5739","approach_avoid_sv1","""event"",""trial"",""time""
""fullscreenenter"",""1"",""1539""
","
","
","""event"",""trial"",""time""
""fullscreenenter"",""1"",""1539""
","
","","","","","","null","<div style=""font-size:60px;"">+</div>","null","","fixation","","",""
"memory-trial","52","210750","0.0-18.0-1.3","5739","approach_avoid_sv1","""event"",""trial"",""time""
""fullscreenenter"",""1"",""1539""
","
","
","""event"",""trial"",""time""
""fullscreenenter"",""1"",""1539""
","
","","","","","","2339.5","images/straw4.png","","","memory_trial","3","maybe_new",""
"html-keyboard-response","53","211257","0.0-18.0-0.4","5739","approach_avoid_sv1","""event"",""trial"",""time""
""fullscreenenter"",""1"",""1539""
","
","
","""event"",""trial"",""time""
""fullscreenenter"",""1"",""1539""
","
","","","","","","null","<div style=""font-size:60px;"">+</div>","null","","fixation","","",""
"memory-trial","54","213215","0.0-18.0-1.4","5739","approach_avoid_sv1","""event"",""trial"",""time""
""fullscreenenter"",""1"",""1539""
","
","
","""event"",""trial"",""time""
""fullscreenenter"",""1"",""1539""
","
","","","","","","944.6999999999534","images/train3.png","","","memory_trial","3","maybe_new",""
"html-keyboard-response","55","213730","0.0-18.0-0.5","5739","approach_avoid_sv1","""event"",""trial"",""time""
""fullscreenenter"",""1"",""1539""
","
","
","""event"",""trial"",""time""
""fullscreenenter"",""1"",""1539""
","
","","","","","","null","<div style=""font-size:60px;"">+</div>","null","","fixation","","",""
"memory-trial","56","215933","0.0-18.0-1.5","5739","approach_avoid_sv1","""event"",""trial"",""time""
""fullscreenenter"",""1"",""1539""
","
","
","""event"",""trial"",""time""
""fullscreenenter"",""1"",""1539""
","
","","","","","","1185.0999999999767","images/bush8.png","","","memory_trial","3","maybe_new",""
"html-keyboard-response","57","216450","0.0-18.0-0.6","5739","approach_avoid_sv1","""event"",""trial"",""time""
""fullscreenenter"",""1"",""1539""
","
","
","""event"",""trial"",""time""
""fullscreenenter"",""1"",""1539""
","
","","","","","","null","<div style=""font-size:60px;"">+</div>","null","","fixation","","",""
"memory-trial","58","218361","0.0-18.0-1.6","5739","approach_avoid_sv1","""event"",""trial"",""time""
""fullscreenenter"",""1"",""1539""
","
","
","""event"",""trial"",""time""
""fullscreenenter"",""1"",""1539""
","
","","","","","","901.2000000000698","images/rabbit5.png","","","memory_trial","2","maybe_old",""
"html-keyboard-response","59","218871","0.0-18.0-0.7","5739","approach_avoid_sv1","""event"",""trial"",""time""
""fullscreenenter"",""1"",""1539""
","
","
","""event"",""trial"",""time""
""fullscreenenter"",""1"",""1539""
","
","","","","","","null","<div style=""font-size:60px;"">+</div>","null","","fixation","","",""
"memory-trial","60","221880","0.0-18.0-1.7","5739","approach_avoid_sv1","""event"",""trial"",""time""
""fullscreenenter"",""1"",""1539""
","
","
","""event"",""trial"",""time""
""fullscreenenter"",""1"",""1539""
","
","","","","","","2004.4000000000233","images/goat1.png","","","memory_trial","3","maybe_new",""
"html-keyboard-response","61","222398","0.0-18.0-0.8","5739","approach_avoid_sv1","""event"",""trial"",""time""
""fullscreenenter"",""1"",""1539""
","
","
","""event"",""trial"",""time""
""fullscreenenter"",""1"",""1539""
","
","","","","","","null","<div style=""font-size:60px;"">+</div>","null","","fixation","","",""
"memory-trial","62","224220","0.0-18.0-1.8","5739","approach_avoid_sv1","""event"",""trial"",""time""
""fullscreenenter"",""1"",""1539""
","
","
","""event"",""trial"",""time""
""fullscreenenter"",""1"",""1539""
","
","","","","","","808.8999999999069","images/banana4.png","","","memory_trial","1","definitely_old",""
"html-keyboard-response","63","224728","0.0-18.0-0.9","5739","approach_avoid_sv1","""event"",""trial"",""time""
""fullscreenenter"",""1"",""1539""
","
","
","""event"",""trial"",""time""
""fullscreenenter"",""1"",""1539""
","
","","","","","","null","<div style=""font-size:60px;"">+</div>","null","","fixation","","",""
"memory-trial","64","227207","0.0-18.0-1.9","5739","approach_avoid_sv1","""event"",""trial"",""time""
""fullscreenenter"",""1"",""1539""
","
","
","""event"",""trial"",""time""
""fullscreenenter"",""1"",""1539""
","
","","","","","","1474.7999999999302","images/boat3.png","","","memory_trial","3","maybe_new",""
"html-keyboard-response","65","227711","0.0-18.0-0.10","5739","approach_avoid_sv1","""event"",""trial"",""time""
""fullscreenenter"",""1"",""1539""
","
","
","""event"",""trial"",""time""
""fullscreenenter"",""1"",""1539""
","
","","","","","","null","<div style=""font-size:60px;"">+</div>","null","","fixation","","",""
"memory-trial","66","229872","0.0-18.0-1.10","5739","approach_avoid_sv1","""event"",""trial"",""time""
""fullscreenenter"",""1"",""1539""
","
","
","""event"",""trial"",""time""
""fullscreenenter"",""1"",""1539""
","
","","","","","","1155.3000000000466","images/goat6.png","","","memory_trial","3","maybe_new",""
"html-keyboard-response","67","230376","0.0-18.0-0.11","5739","approach_avoid_sv1","""event"",""trial"",""time""
""fullscreenenter"",""1"",""1539""
","
","
","""event"",""trial"",""time""
""fullscreenenter"",""1"",""1539""
","
","","","","","","null","<div style=""font-size:60px;"">+</div>","null","","fixation","","",""
"memory-trial","68","232127","0.0-18.0-1.11","5739","approach_avoid_sv1","""event"",""trial"",""time""
""fullscreenenter"",""1"",""1539""
","
","
","""event"",""trial"",""time""
""fullscreenenter"",""1"",""1539""
","
","","","","","","747.9000000000233","images/horse6.png","","","memory_trial","2","maybe_old",""
"html-keyboard-response","69","232632","0.0-18.0-0.12","5739","approach_avoid_sv1","""event"",""trial"",""time""
""fullscreenenter"",""1"",""1539""
","
","
","""event"",""trial"",""time""
""fullscreenenter"",""1"",""1539""
","
","","","","","","null","<div style=""font-size:60px;"">+</div>","null","","fixation","","",""
"memory-trial","70","234792","0.0-18.0-1.12","5739","approach_avoid_sv1","""event"",""trial"",""time""
""fullscreenenter"",""1"",""1539""
","
","
","""event"",""trial"",""time""
""fullscreenenter"",""1"",""1539""
","
","","","","","","1156.5999999999767","images/train7.png","","","memory_trial","3","maybe_new",""
"html-keyboard-response","71","235296","0.0-18.0-0.13","5739","approach_avoid_sv1","""event"",""trial"",""time""
""fullscreenenter"",""1"",""1539""
","
","
","""event"",""trial"",""time""
""fullscreenenter"",""1"",""1539""
","
","","","","","","null","<div style=""font-size:60px;"">+</div>","null","","fixation","","",""
"memory-trial","72","236896","0.0-18.0-1.13","5739","approach_avoid_sv1","""event"",""trial"",""time""
""fullscreenenter"",""1"",""1539""
","
","
","""event"",""trial"",""time""
""fullscreenenter"",""1"",""1539""
","
","","","","","","598","images/plane8.png","","","memory_trial","1","definitely_old",""
"html-keyboard-response","73","237400","0.0-18.0-0.14","5739","approach_avoid_sv1","""event"",""trial"",""time""
""fullscreenenter"",""1"",""1539""
","
","
","""event"",""trial"",""time""
""fullscreenenter"",""1"",""1539""
","
","","","","","","null","<div style=""font-size:60px;"">+</div>","null","","fixation","","",""
"memory-trial","74","239359","0.0-18.0-1.14","5739","approach_avoid_sv1","""event"",""trial"",""time""
""fullscreenenter"",""1"",""1539""
","
","
","""event"",""trial"",""time""
""fullscreenenter"",""1"",""1539""
","
","","","","","","953.8000000000466","images/rodent2.png","","","memory_trial","1","definitely_old",""
"html-keyboard-response","75","239863","0.0-18.0-0.15","5739","approach_avoid_sv1","""event"",""trial"",""time""
""fullscreenenter"",""1"",""1539""
","
","
","""event"",""trial"",""time""
""fullscreenenter"",""1"",""1539""
","
","","","","","","null","<div style=""font-size:60px;"">+</div>","null","","fixation","","",""
"memory-trial","76","242129","0.0-18.0-1.15","5739","approach_avoid_sv1","""event"",""trial"",""time""
""fullscreenenter"",""1"",""1539""
","
","
","""event"",""trial"",""time""
""fullscreenenter"",""1"",""1539""
","
","","","","","","1260.6999999999534","images/straw6.png","","","memory_trial","4","definitely_new",""
"html-keyboard-response","77","242633","0.0-18.0-0.16","5739","approach_avoid_sv1","""event"",""trial"",""time""
""fullscreenenter"",""1"",""1539""
","
","
","""event"",""trial"",""time""
""fullscreenenter"",""1"",""1539""
","
","","","","","","null","<div style=""font-size:60px;"">+</div>","null","","fixation","","",""
"memory-trial","78","244185","0.0-18.0-1.16","5739","approach_avoid_sv1","""event"",""trial"",""time""
""fullscreenenter"",""1"",""1539""
","
","
","""event"",""trial"",""time""
""fullscreenenter"",""1"",""1539""
","
","","","","","","547.2999999999302","images/apple4.png","","","memory_trial","3","maybe_new",""
"html-keyboard-response","79","244688","0.0-18.0-0.17","5739","approach_avoid_sv1","""event"",""trial"",""time""
""fullscreenenter"",""1"",""1539""
","
","
","""event"",""trial"",""time""
""fullscreenenter"",""1"",""1539""
","
","","","","","","null","<div style=""font-size:60px;"">+</div>","null","","fixation","","",""
"memory-trial","80","246792","0.0-18.0-1.17","5739","approach_avoid_sv1","""event"",""trial"",""time""
""fullscreenenter"",""1"",""1539""
","
","
","""event"",""trial"",""time""
""fullscreenenter"",""1"",""1539""
","
","","","","","","1101.1999999999534","images/cactus3.png","","","memory_trial","1","definitely_old",""
"html-keyboard-response","81","247297","0.0-18.0-0.18","5739","approach_avoid_sv1","""event"",""trial"",""time""
""fullscreenenter"",""1"",""1539""
","
","
","""event"",""trial"",""time""
""fullscreenenter"",""1"",""1539""
","
","","","","","","null","<div style=""font-size:60px;"">+</div>","null","","fixation","","",""
"memory-trial","82","249257","0.0-18.0-1.18","5739","approach_avoid_sv1","""event"",""trial"",""time""
""fullscreenenter"",""1"",""1539""
","
","
","""event"",""trial"",""time""
""fullscreenenter"",""1"",""1539""
","
","","","","","","955.7000000000698","images/horse5.png","","","memory_trial","2","maybe_old",""
"html-keyboard-response","83","249761","0.0-18.0-0.19","5739","approach_avoid_sv1","""event"",""trial"",""time""
""fullscreenenter"",""1"",""1539""
","
","
","""event"",""trial"",""time""
""fullscreenenter"",""1"",""1539""
","
","","","","","","null","<div style=""font-size:60px;"">+</div>","null","","fixation","","",""
"memory-trial","84","251592","0.0-18.0-1.19","5739","approach_avoid_sv1","""event"",""trial"",""time""
""fullscreenenter"",""1"",""1539""
","
","
","""event"",""trial"",""time""
""fullscreenenter"",""1"",""1539""
","
","","","","","","828.3000000000466","images/train4.png","","","memory_trial","3","maybe_new",""
"html-keyboard-response","85","252096","0.0-18.0-0.20","5739","approach_avoid_sv1","""event"",""trial"",""time""
""fullscreenenter"",""1"",""1539""
","
","
","""event"",""trial"",""time""
""fullscreenenter"",""1"",""1539""
","
","","","","","","null","<div style=""font-size:60px;"">+</div>","null","","fixation","","",""
"memory-trial","86","253344","0.0-18.0-1.20","5739","approach_avoid_sv1","""event"",""trial"",""time""
""fullscreenenter"",""1"",""1539""
","
","
","""event"",""trial"",""time""
""fullscreenenter"",""1"",""1539""
","
","","","","","","244.40000000002328","images/sheep3.png","","","memory_trial","2","maybe_old",""
"html-keyboard-response","87","253848","0.0-18.0-0.21","5739","approach_avoid_sv1","""event"",""trial"",""time""
""fullscreenenter"",""1"",""1539""
","
","
","""event"",""trial"",""time""
""fullscreenenter"",""1"",""1539""
","
","","","","","","null","<div style=""font-size:60px;"">+</div>","null","","fixation","","",""
"memory-trial","88","255201","0.0-18.0-1.21","5739","approach_avoid_sv1","""event"",""trial"",""time""
""fullscreenenter"",""1"",""1539""
","
","
","""event"",""trial"",""time""
""fullscreenenter"",""1"",""1539""
","
","","","","","","347.5","images/bed7.png","","","memory_trial","2","maybe_old",""
"html-keyboard-response","89","255705","0.0-18.0-0.22","5739","approach_avoid_sv1","""event"",""trial"",""time""
""fullscreenenter"",""1"",""1539""
","
","
","""event"",""trial"",""time""
""fullscreenenter"",""1"",""1539""
","
","","","","","","null","<div style=""font-size:60px;"">+</div>","null","","fixation","","",""
"memory-trial","90","257129","0.0-18.0-1.22","5739","approach_avoid_sv1","""event"",""trial"",""time""
""fullscreenenter"",""1"",""1539""
","
","
","""event"",""trial"",""time""
""fullscreenenter"",""1"",""1539""
","
","","","","","","419.5","images/goat8.png","","","memory_trial","1","definitely_old",""
"html-keyboard-response","91","257632","0.0-18.0-0.23","5739","approach_avoid_sv1","""event"",""trial"",""time""
""fullscreenenter"",""1"",""1539""
","
","
","""event"",""trial"",""time""
""fullscreenenter"",""1"",""1539""
","
","","","","","","null","<div style=""font-size:60px;"">+</div>","null","","fixation","","",""
"memory-trial","92","258927","0.0-18.0-1.23","5739","approach_avoid_sv1","""event"",""trial"",""time""
""fullscreenenter"",""1"",""1539""
","
","
","""event"",""trial"",""time""
""fullscreenenter"",""1"",""1539""
","
","","","","","","273.0999999999767","images/dog7.png","","","memory_trial","3","maybe_new",""
"html-keyboard-response","93","259433","0.0-18.0-0.24","5739","approach_avoid_sv1","""event"",""trial"",""time""
""fullscreenenter"",""1"",""1539""
","
","
","""event"",""trial"",""time""
""fullscreenenter"",""1"",""1539""
","
","","","","","","null","<div style=""font-size:60px;"">+</div>","null","","fixation","","",""
"memory-trial","94","260744","0.0-18.0-1.24","5739","approach_avoid_sv1","""event"",""trial"",""time""
""fullscreenenter"",""1"",""1539""
","
","
","""event"",""trial"",""time""
""fullscreenenter"",""1"",""1539""
","
","","","","","","308.5","images/banana6.png","","","memory_trial","2","maybe_old",""
"html-keyboard-response","95","261249","0.0-18.0-0.25","5739","approach_avoid_sv1","""event"",""trial"",""time""
""fullscreenenter"",""1"",""1539""
","
","
","""event"",""trial"",""time""
""fullscreenenter"",""1"",""1539""
","
","","","","","","null","<div style=""font-size:60px;"">+</div>","null","","fixation","","",""
"memory-trial","96","265337","0.0-18.0-1.25","5739","approach_avoid_sv1","""event"",""trial"",""time""
""fullscreenenter"",""1"",""1539""
","
","
","""event"",""trial"",""time""
""fullscreenenter"",""1"",""1539""
","
","","","","","","3079.9000000000233","images/train2.png","","","memory_trial","4","definitely_new",""
"html-keyboard-response","97","265841","0.0-18.0-0.26","5739","approach_avoid_sv1","""event"",""trial"",""time""
""fullscreenenter"",""1"",""1539""
","
","
","""event"",""trial"",""time""
""fullscreenenter"",""1"",""1539""
","
","","","","","","null","<div style=""font-size:60px;"">+</div>","null","","fixation","","",""
"memory-trial","98","269736","0.0-18.0-1.26","5739","approach_avoid_sv1","""event"",""trial"",""time""
""fullscreenenter"",""1"",""1539""
","
","
","""event"",""trial"",""time""
""fullscreenenter"",""1"",""1539""
","
","","","","","","2890.9000000000233","images/flower4.png","","","memory_trial","1","definitely_old",""
"html-keyboard-response","99","270241","0.0-18.0-0.27","5739","approach_avoid_sv1","""event"",""trial"",""time""
""fullscreenenter"",""1"",""1539""
","
","
","""event"",""trial"",""time""
""fullscreenenter"",""1"",""1539""
","
","","","","","","null","<div style=""font-size:60px;"">+</div>","null","","fixation","","",""
"memory-trial","100","272001","0.0-18.0-1.27","5739","approach_avoid_sv1","""event"",""trial"",""time""
""fullscreenenter"",""1"",""1539""
","
","
","""event"",""trial"",""time""
""fullscreenenter"",""1"",""1539""
","
","","","","","","750.3999999999069","images/horse2.png","","","memory_trial","1","definitely_old",""
"html-keyboard-response","101","272504","0.0-18.0-0.28","5739","approach_avoid_sv1","""event"",""trial"",""time""
""fullscreenenter"",""1"",""1539""
","
","
","""event"",""trial"",""time""
""fullscreenenter"",""1"",""1539""
","
","","","","","","null","<div style=""font-size:60px;"">+</div>","null","","fixation","","",""
"memory-trial","102","274536","0.0-18.0-1.28","5739","approach_avoid_sv1","""event"",""trial"",""time""
""fullscreenenter"",""1"",""1539""
","
","
","""event"",""trial"",""time""
""fullscreenenter"",""1"",""1539""
","
","","","","","","1022.6999999999534","images/tree4.png","","","memory_trial","1","definitely_old",""
"html-keyboard-response","103","275040","0.0-18.0-0.29","5739","approach_avoid_sv1","""event"",""trial"",""time""
""fullscreenenter"",""1"",""1539""
","
","
","""event"",""trial"",""time""
""fullscreenenter"",""1"",""1539""
","
","","","","","","null","<div style=""font-size:60px;"">+</div>","null","","fixation","","",""
"memory-trial","104","276408","0.0-18.0-1.29","5739","approach_avoid_sv1","""event"",""trial"",""time""
""fullscreenenter"",""1"",""1539""
","
","
","""event"",""trial"",""time""
""fullscreenenter"",""1"",""1539""
","
","","","","","","366.20000000006985","images/sofa6.png","","","memory_trial","1","definitely_old",""
"html-keyboard-response","105","276912","0.0-18.0-0.30","5739","approach_avoid_sv1","""event"",""trial"",""time""
""fullscreenenter"",""1"",""1539""
","
","
","""event"",""trial"",""time""
""fullscreenenter"",""1"",""1539""
","
","","","","","","null","<div style=""font-size:60px;"">+</div>","null","","fixation","","",""
"memory-trial","106","278577","0.0-18.0-1.30","5739","approach_avoid_sv1","""event"",""trial"",""time""
""fullscreenenter"",""1"",""1539""
","
","
","""event"",""trial"",""time""
""fullscreenenter"",""1"",""1539""
","
","","","","","","659","images/cow6.png","","","memory_trial","4","definitely_new",""
"html-keyboard-response","107","279080","0.0-18.0-0.31","5739","approach_avoid_sv1","""event"",""trial"",""time""
""fullscreenenter"",""1"",""1539""
","
","
","""event"",""trial"",""time""
""fullscreenenter"",""1"",""1539""
","
","","","","","","null","<div style=""font-size:60px;"">+</div>","null","","fixation","","",""
"memory-trial","108","280277","0.0-18.0-1.31","5739","approach_avoid_sv1","""event"",""trial"",""time""
""fullscreenenter"",""1"",""1539""
","
","
","""event"",""trial"",""time""
""fullscreenenter"",""1"",""1539""
","
","","","","","","175.59999999997672","images/orange4.png","","","memory_trial","2","maybe_old",""
"html-keyboard-response","109","280785","0.0-18.0-0.32","5739","approach_avoid_sv1","""event"",""trial"",""time""
""fullscreenenter"",""1"",""1539""
","
","
","""event"",""trial"",""time""
""fullscreenenter"",""1"",""1539""
","
","","","","","","null","<div style=""font-size:60px;"">+</div>","null","","fixation","","",""
"memory-trial","110","283513","0.0-18.0-1.32","5739","approach_avoid_sv1","""event"",""trial"",""time""
""fullscreenenter"",""1"",""1539""
","
","
","""event"",""trial"",""time""
""fullscreenenter"",""1"",""1539""
","
","","","","","","1720.3999999999069","images/boat4.png","","","memory_trial","3","maybe_new",""
"html-keyboard-response","111","284017","0.0-18.0-0.33","5739","approach_avoid_sv1","""event"",""trial"",""time""
""fullscreenenter"",""1"",""1539""
","
","
","""event"",""trial"",""time""
""fullscreenenter"",""1"",""1539""
","
","","","","","","null","<div style=""font-size:60px;"">+</div>","null","","fixation","","",""
"memory-trial","112","285720","0.0-18.0-1.33","5739","approach_avoid_sv1","""event"",""trial"",""time""
""fullscreenenter"",""1"",""1539""
","
","
","""event"",""trial"",""time""
""fullscreenenter"",""1"",""1539""
","
","","","","","","697.5","images/bush7.png","","","memory_trial","2","maybe_old",""
"html-keyboard-response","113","286224","0.0-18.0-0.34","5739","approach_avoid_sv1","""event"",""trial"",""time""
""fullscreenenter"",""1"",""1539""
","
","
","""event"",""trial"",""time""
""fullscreenenter"",""1"",""1539""
","
","","","","","","null","<div style=""font-size:60px;"">+</div>","null","","fixation","","",""
"memory-trial","114","287905","0.0-18.0-1.34","5739","approach_avoid_sv1","""event"",""trial"",""time""
""fullscreenenter"",""1"",""1539""
","
","
","""event"",""trial"",""time""
""fullscreenenter"",""1"",""1539""
","
","","","","","","677.5999999999767","images/bush6.png","","","memory_trial","2","maybe_old",""
"html-keyboard-response","115","288408","0.0-18.0-0.35","5739","approach_avoid_sv1","""event"",""trial"",""time""
""fullscreenenter"",""1"",""1539""
","
","
","""event"",""trial"",""time""
""fullscreenenter"",""1"",""1539""
","
","","","","","","null","<div style=""font-size:60px;"">+</div>","null","","fixation","","",""
"memory-trial","116","289841","0.0-18.0-1.35","5739","approach_avoid_sv1","""event"",""trial"",""time""
""fullscreenenter"",""1"",""1539""
","
","
","""event"",""trial"",""time""
""fullscreenenter"",""1"",""1539""
","
","","","","","","426.80000000004657","images/table8.png","","","memory_trial","3","maybe_new",""
"html-keyboard-response","117","290344","0.0-18.0-0.36","5739","approach_avoid_sv1","""event"",""trial"",""time""
""fullscreenenter"",""1"",""1539""
","
","
","""event"",""trial"",""time""
""fullscreenenter"",""1"",""1539""
","
","","","","","","null","<div style=""font-size:60px;"">+</div>","null","","fixation","","",""
"memory-trial","118","291744","0.0-18.0-1.36","5739","approach_avoid_sv1","""event"",""trial"",""time""
""fullscreenenter"",""1"",""1539""
","
","
","""event"",""trial"",""time""
""fullscreenenter"",""1"",""1539""
","
","","","","","","396.89999999990687","images/rodent3.png","","","memory_trial","3","maybe_new",""
"html-keyboard-response","119","292248","0.0-18.0-0.37","5739","approach_avoid_sv1","""event"",""trial"",""time""
""fullscreenenter"",""1"",""1539""
","
","
","""event"",""trial"",""time""
""fullscreenenter"",""1"",""1539""
","
","","","","","","null","<div style=""font-size:60px;"">+</div>","null","","fixation","","",""
"memory-trial","120","293728","0.0-18.0-1.37","5739","approach_avoid_sv1","""event"",""trial"",""time""
""fullscreenenter"",""1"",""1539""
","
","
","""event"",""trial"",""time""
""fullscreenenter"",""1"",""1539""
","
","","","","","","475.69999999995343","images/bed1.png","","","memory_trial","3","maybe_new",""
"html-keyboard-response","121","294232","0.0-18.0-0.38","5739","approach_avoid_sv1","""event"",""trial"",""time""
""fullscreenenter"",""1"",""1539""
","
","
","""event"",""trial"",""time""
""fullscreenenter"",""1"",""1539""
","
","","","","","","null","<div style=""font-size:60px;"">+</div>","null","","fixation","","",""
"memory-trial","122","295832","0.0-18.0-1.38","5739","approach_avoid_sv1","""event"",""trial"",""time""
""fullscreenenter"",""1"",""1539""
","
","
","""event"",""trial"",""time""
""fullscreenenter"",""1"",""1539""
","
","","","","","","597.8000000000466","images/bed8.png","","","memory_trial","1","definitely_old",""
"html-keyboard-response","123","296336","0.0-18.0-0.39","5739","approach_avoid_sv1","""event"",""trial"",""time""
""fullscreenenter"",""1"",""1539""
","
","
","""event"",""trial"",""time""
""fullscreenenter"",""1"",""1539""
","
","","","","","","null","<div style=""font-size:60px;"">+</div>","null","","fixation","","",""
"memory-trial","124","298073","0.0-18.0-1.39","5739","approach_avoid_sv1","""event"",""trial"",""time""
""fullscreenenter"",""1"",""1539""
","
","
","""event"",""trial"",""time""
""fullscreenenter"",""1"",""1539""
","
","","","","","","733.0999999999767","images/plane6.png","","","memory_trial","3","maybe_new",""
"html-keyboard-response","125","298576","0.0-18.0-0.40","5739","approach_avoid_sv1","""event"",""trial"",""time""
""fullscreenenter"",""1"",""1539""
","
","
","""event"",""trial"",""time""
""fullscreenenter"",""1"",""1539""
","
","","","","","","null","<div style=""font-size:60px;"">+</div>","null","","fixation","","",""
"memory-trial","126","300560","0.0-18.0-1.40","5739","approach_avoid_sv1","""event"",""trial"",""time""
""fullscreenenter"",""1"",""1539""
","
","
","""event"",""trial"",""time""
""fullscreenenter"",""1"",""1539""
","
","","","","","","979.1999999999534","images/sofa7.png","","","memory_trial","1","definitely_old",""
"html-keyboard-response","127","301064","0.0-18.0-0.41","5739","approach_avoid_sv1","""event"",""trial"",""time""
""fullscreenenter"",""1"",""1539""
","
","
","""event"",""trial"",""time""
""fullscreenenter"",""1"",""1539""
","
","","","","","","null","<div style=""font-size:60px;"">+</div>","null","","fixation","","",""
"memory-trial","128","302425","0.0-18.0-1.41","5739","approach_avoid_sv1","""event"",""trial"",""time""
""fullscreenenter"",""1"",""1539""
","
","
","""event"",""trial"",""time""
""fullscreenenter"",""1"",""1539""
","
","","","","","","351.0999999999767","images/plane4.png","","","memory_trial","3","maybe_new",""
"html-button-response","129","304229","0.0-18.0-2.41-0.41","5739","approach_avoid_sv1","""event"",""trial"",""time""
""fullscreenenter"",""1"",""1539""
","
","
","""event"",""trial"",""time""
""fullscreenenter"",""1"",""1539""
","
","","","","","","1803.1000000000931","<p> Take a break! </p><p> Click the button to continue. </p>","0","","break","","",""
"html-keyboard-response","130","304736","0.0-18.0-0.42","5739","approach_avoid_sv1","""event"",""trial"",""time""
""fullscreenenter"",""1"",""1539""
","
","
","""event"",""trial"",""time""
""fullscreenenter"",""1"",""1539""
","
","","","","","","null","<div style=""font-size:60px;"">+</div>","null","","fixation","","",""
"memory-trial","131","306248","0.0-18.0-1.42","5739","approach_avoid_sv1","""event"",""trial"",""time""
""fullscreenenter"",""1"",""1539""
","
","
","""event"",""trial"",""time""
""fullscreenenter"",""1"",""1539""
","
","","","","","","508.5999999999767","images/table7.png","","","memory_trial","3","maybe_new",""
"html-keyboard-response","132","306752","0.0-18.0-0.43","5739","approach_avoid_sv1","""event"",""trial"",""time""
""fullscreenenter"",""1"",""1539""
","
","
","""event"",""trial"",""time""
""fullscreenenter"",""1"",""1539""
","
","","","","","","null","<div style=""font-size:60px;"">+</div>","null","","fixation","","",""
"memory-trial","133","308080","0.0-18.0-1.43","5739","approach_avoid_sv1","""event"",""trial"",""time""
""fullscreenenter"",""1"",""1539""
","
","
","""event"",""trial"",""time""
""fullscreenenter"",""1"",""1539""
","
","","","","","","324.19999999995343","images/truck1.png","","","memory_trial","3","maybe_new",""
"html-keyboard-response","134","308584","0.0-18.0-0.44","5739","approach_avoid_sv1","""event"",""trial"",""time""
""fullscreenenter"",""1"",""1539""
","
","
","""event"",""trial"",""time""
""fullscreenenter"",""1"",""1539""
","
","","","","","","null","<div style=""font-size:60px;"">+</div>","null","","fixation","","",""
"memory-trial","135","310896","0.0-18.0-1.44","5739","approach_avoid_sv1","""event"",""trial"",""time""
""fullscreenenter"",""1"",""1539""
","
","
","""event"",""trial"",""time""
""fullscreenenter"",""1"",""1539""
","
","","","","","","1309.9000000000233","images/cat8.png","","","memory_trial","2","maybe_old",""
"html-keyboard-response","136","311400","0.0-18.0-0.45","5739","approach_avoid_sv1","""event"",""trial"",""time""
""fullscreenenter"",""1"",""1539""
","
","
","""event"",""trial"",""time""
""fullscreenenter"",""1"",""1539""
","
","","","","","","null","<div style=""font-size:60px;"">+</div>","null","","fixation","","",""
"memory-trial","137","312960","0.0-18.0-1.45","5739","approach_avoid_sv1","""event"",""trial"",""time""
""fullscreenenter"",""1"",""1539""
","
","
","""event"",""trial"",""time""
""fullscreenenter"",""1"",""1539""
","
","","","","","","552.2999999999302","images/rodent1.png","","","memory_trial","1","definitely_old",""
"html-keyboard-response","138","313464","0.0-18.0-0.46","5739","approach_avoid_sv1","""event"",""trial"",""time""
""fullscreenenter"",""1"",""1539""
","
","
","""event"",""trial"",""time""
""fullscreenenter"",""1"",""1539""
","
","","","","","","null","<div style=""font-size:60px;"">+</div>","null","","fixation","","",""
"memory-trial","139","314993","0.0-18.0-1.46","5739","approach_avoid_sv1","""event"",""trial"",""time""
""fullscreenenter"",""1"",""1539""
","
","
","""event"",""trial"",""time""
""fullscreenenter"",""1"",""1539""
","
","","","","","","521.5999999999767","images/cat6.png","","","memory_trial","1","definitely_old",""
"html-keyboard-response","140","315497","0.0-18.0-0.47","5739","approach_avoid_sv1","""event"",""trial"",""time""
""fullscreenenter"",""1"",""1539""
","
","
","""event"",""trial"",""time""
""fullscreenenter"",""1"",""1539""
","
","","","","","","null","<div style=""font-size:60px;"">+</div>","null","","fixation","","",""
"memory-trial","141","316800","0.0-18.0-1.47","5739","approach_avoid_sv1","""event"",""trial"",""time""
""fullscreenenter"",""1"",""1539""
","
","
","""event"",""trial"",""time""
""fullscreenenter"",""1"",""1539""
","
","","","","","","297.4000000000233","images/horse1.png","","","memory_trial","4","definitely_new",""
"html-keyboard-response","142","317304","0.0-18.0-0.48","5739","approach_avoid_sv1","""event"",""trial"",""time""
""fullscreenenter"",""1"",""1539""
","
","
","""event"",""trial"",""time""
""fullscreenenter"",""1"",""1539""
","
","","","","","","null","<div style=""font-size:60px;"">+</div>","null","","fixation","","",""
"memory-trial","143","318401","0.0-18.0-1.48","5739","approach_avoid_sv1","""event"",""trial"",""time""
""fullscreenenter"",""1"",""1539""
","
","
","""event"",""trial"",""time""
""fullscreenenter"",""1"",""1539""
","
","","","","","","90.29999999993015","images/sheep4.png","","","memory_trial","1","definitely_old",""
"html-keyboard-response","144","318904","0.0-18.0-0.49","5739","approach_avoid_sv1","""event"",""trial"",""time""
""fullscreenenter"",""1"",""1539""
","
","
","""event"",""trial"",""time""
""fullscreenenter"",""1"",""1539""
","
","","","","","","null","<div style=""font-size:60px;"">+</div>","null","","fixation","","",""
"memory-trial","145","320408","0.0-18.0-1.49","5739","approach_avoid_sv1","""event"",""trial"",""time""
""fullscreenenter"",""1"",""1539""
","
","
","""event"",""trial"",""time""
""fullscreenenter"",""1"",""1539""
","
","","","","","","499.89999999990687","images/cat7.png","","","memory_trial","2","maybe_old",""
"html-keyboard-response","146","320913","0.0-18.0-0.50","5739","approach_avoid_sv1","""event"",""trial"",""time""
""fullscreenenter"",""1"",""1539""
","
","
","""event"",""trial"",""time""
""fullscreenenter"",""1"",""1539""
","
","","","","","","null","<div style=""font-size:60px;"">+</div>","null","","fixation","","",""
"memory-trial","147","322616","0.0-18.0-1.50","5739","approach_avoid_sv1","""event"",""trial"",""time""
""fullscreenenter"",""1"",""1539""
","
","
","""event"",""trial"",""time""
""fullscreenenter"",""1"",""1539""
","
","","","","","","701.2000000000698","images/truck2.png","","","memory_trial","2","maybe_old",""
"html-keyboard-response","148","323121","0.0-18.0-0.51","5739","approach_avoid_sv1","""event"",""trial"",""time""
""fullscreenenter"",""1"",""1539""
","
","
","""event"",""trial"",""time""
""fullscreenenter"",""1"",""1539""
","
","","","","","","null","<div style=""font-size:60px;"">+</div>","null","","fixation","","",""
"memory-trial","149","325008","0.0-18.0-1.51","5739","approach_avoid_sv1","""event"",""trial"",""time""
""fullscreenenter"",""1"",""1539""
","
","
","""event"",""trial"",""time""
""fullscreenenter"",""1"",""1539""
","
","","","","","","879.7000000000698","images/sofa2.png","","","memory_trial","1","definitely_old",""
"html-keyboard-response","150","325512","0.0-18.0-0.52","5739","approach_avoid_sv1","""event"",""trial"",""time""
""fullscreenenter"",""1"",""1539""
","
","
","""event"",""trial"",""time""
""fullscreenenter"",""1"",""1539""
","
","","","","","","null","<div style=""font-size:60px;"">+</div>","null","","fixation","","",""
"memory-trial","151","326912","0.0-18.0-1.52","5739","approach_avoid_sv1","""event"",""trial"",""time""
""fullscreenenter"",""1"",""1539""
","
","
","""event"",""trial"",""time""
""fullscreenenter"",""1"",""1539""
","
","","","","","","397.5999999999767","images/orange6.png","","","memory_trial","3","maybe_new",""
"html-keyboard-response","152","327416","0.0-18.0-0.53","5739","approach_avoid_sv1","""event"",""trial"",""time""
""fullscreenenter"",""1"",""1539""
","
","
","""event"",""trial"",""time""
""fullscreenenter"",""1"",""1539""
","
","","","","","","null","<div style=""font-size:60px;"">+</div>","null","","fixation","","",""
"memory-trial","153","329073","0.0-18.0-1.53","5739","approach_avoid_sv1","""event"",""trial"",""time""
""fullscreenenter"",""1"",""1539""
","
","
","""event"",""trial"",""time""
""fullscreenenter"",""1"",""1539""
","
","","","","","","652.8999999999069","images/boat7.png","","","memory_trial","3","maybe_new",""
"html-keyboard-response","154","329576","0.0-18.0-0.54","5739","approach_avoid_sv1","""event"",""trial"",""time""
""fullscreenenter"",""1"",""1539""
","
","
","""event"",""trial"",""time""
""fullscreenenter"",""1"",""1539""
","
","","","","","","null","<div style=""font-size:60px;"">+</div>","null","","fixation","","",""
"memory-trial","155","331280","0.0-18.0-1.54","5739","approach_avoid_sv1","""event"",""trial"",""time""
""fullscreenenter"",""1"",""1539""
","
","
","""event"",""trial"",""time""
""fullscreenenter"",""1"",""1539""
","
","","","","","","701.6999999999534","images/sofa3.png","","","memory_trial","1","definitely_old",""
"html-keyboard-response","156","331785","0.0-18.0-0.55","5739","approach_avoid_sv1","""event"",""trial"",""time""
""fullscreenenter"",""1"",""1539""
","
","
","""event"",""trial"",""time""
""fullscreenenter"",""1"",""1539""
","
","","","","","","null","<div style=""font-size:60px;"">+</div>","null","","fixation","","",""
"memory-trial","157","333073","0.0-18.0-1.55","5739","approach_avoid_sv1","""event"",""trial"",""time""
""fullscreenenter"",""1"",""1539""
","
","
","""event"",""trial"",""time""
""fullscreenenter"",""1"",""1539""
","
","","","","","","283.29999999993015","images/truck3.png","","","memory_trial","3","maybe_new",""
"html-keyboard-response","158","333576","0.0-18.0-0.56","5739","approach_avoid_sv1","""event"",""trial"",""time""
""fullscreenenter"",""1"",""1539""
","
","
","""event"",""trial"",""time""
""fullscreenenter"",""1"",""1539""
","
","","","","","","null","<div style=""font-size:60px;"">+</div>","null","","fixation","","",""
"memory-trial","159","335336","0.0-18.0-1.56","5739","approach_avoid_sv1","""event"",""trial"",""time""
""fullscreenenter"",""1"",""1539""
","
","
","""event"",""trial"",""time""
""fullscreenenter"",""1"",""1539""
","
","","","","","","754.7999999999302","images/straw7.png","","","memory_trial","3","maybe_new",""
"html-keyboard-response","160","335840","0.0-18.0-0.57","5739","approach_avoid_sv1","""event"",""trial"",""time""
""fullscreenenter"",""1"",""1539""
","
","
","""event"",""trial"",""time""
""fullscreenenter"",""1"",""1539""
","
","","","","","","null","<div style=""font-size:60px;"">+</div>","null","","fixation","","",""
"memory-trial","161","337424","0.0-18.0-1.57","5739","approach_avoid_sv1","""event"",""trial"",""time""
""fullscreenenter"",""1"",""1539""
","
","
","""event"",""trial"",""time""
""fullscreenenter"",""1"",""1539""
","
","","","","","","575","images/truck6.png","","","memory_trial","3","maybe_new",""
"html-keyboard-response","162","337928","0.0-18.0-0.58","5739","approach_avoid_sv1","""event"",""trial"",""time""
""fullscreenenter"",""1"",""1539""
","
","
","""event"",""trial"",""time""
""fullscreenenter"",""1"",""1539""
","
","","","","","","null","<div style=""font-size:60px;"">+</div>","null","","fixation","","",""
"memory-trial","163","339352","0.0-18.0-1.58","5739","approach_avoid_sv1","""event"",""trial"",""time""
""fullscreenenter"",""1"",""1539""
","
","
","""event"",""trial"",""time""
""fullscreenenter"",""1"",""1539""
","
","","","","","","419.0999999999767","images/plane5.png","","","memory_trial","3","maybe_new",""
"html-keyboard-response","164","339856","0.0-18.0-0.59","5739","approach_avoid_sv1","""event"",""trial"",""time""
""fullscreenenter"",""1"",""1539""
","
","
","""event"",""trial"",""time""
""fullscreenenter"",""1"",""1539""
","
","","","","","","null","<div style=""font-size:60px;"">+</div>","null","","fixation","","",""
"memory-trial","165","341288","0.0-18.0-1.59","5739","approach_avoid_sv1","""event"",""trial"",""time""
""fullscreenenter"",""1"",""1539""
","
","
","""event"",""trial"",""time""
""fullscreenenter"",""1"",""1539""
","
","","","","","","424.4000000000233","images/rabbit3.png","","","memory_trial","3","maybe_new",""
"html-keyboard-response","166","341792","0.0-18.0-0.60","5739","approach_avoid_sv1","""event"",""trial"",""time""
""fullscreenenter"",""1"",""1539""
","
","
","""event"",""trial"",""time""
""fullscreenenter"",""1"",""1539""
","
","","","","","","null","<div style=""font-size:60px;"">+</div>","null","","fixation","","",""
"memory-trial","167","343440","0.0-18.0-1.60","5739","approach_avoid_sv1","""event"",""trial"",""time""
""fullscreenenter"",""1"",""1539""
","
","
","""event"",""trial"",""time""
""fullscreenenter"",""1"",""1539""
","
","","","","","","645","images/dog5.png","","","memory_trial","1","definitely_old",""
"html-keyboard-response","168","343942","0.0-18.0-0.61","5739","approach_avoid_sv1","""event"",""trial"",""time""
""fullscreenenter"",""1"",""1539""
","
","
","""event"",""trial"",""time""
""fullscreenenter"",""1"",""1539""
","
","","","","","","null","<div style=""font-size:60px;"">+</div>","null","","fixation","","",""
"memory-trial","169","345385","0.0-18.0-1.61","5739","approach_avoid_sv1","""event"",""trial"",""time""
""fullscreenenter"",""1"",""1539""
","
","
","""event"",""trial"",""time""
""fullscreenenter"",""1"",""1539""
","
","","","","","","436.9000000000233","images/plane3.png","","","memory_trial","2","maybe_old",""
"html-keyboard-response","170","345888","0.0-18.0-0.62","5739","approach_avoid_sv1","""event"",""trial"",""time""
""fullscreenenter"",""1"",""1539""
","
","
","""event"",""trial"",""time""
""fullscreenenter"",""1"",""1539""
","
","","","","","","null","<div style=""font-size:60px;"">+</div>","null","","fixation","","",""
"memory-trial","171","347569","0.0-18.0-1.62","5739","approach_avoid_sv1","""event"",""trial"",""time""
""fullscreenenter"",""1"",""1539""
","
","
","""event"",""trial"",""time""
""fullscreenenter"",""1"",""1539""
","
","","","","","","676.6999999999534","images/horse4.png","","","memory_trial","2","maybe_old",""
"html-keyboard-response","172","348072","0.0-18.0-0.63","5739","approach_avoid_sv1","""event"",""trial"",""time""
""fullscreenenter"",""1"",""1539""
","
","
","""event"",""trial"",""time""
""fullscreenenter"",""1"",""1539""
","
","","","","","","null","<div style=""font-size:60px;"">+</div>","null","","fixation","","",""
"memory-trial","173","349457","0.0-18.0-1.63","5739","approach_avoid_sv1","""event"",""trial"",""time""
""fullscreenenter"",""1"",""1539""
","
","
","""event"",""trial"",""time""
""fullscreenenter"",""1"",""1539""
","
","","","","","","375.69999999995343","images/cow7.png","","","memory_trial","3","maybe_new",""
"html-keyboard-response","174","349961","0.0-18.0-0.64","5739","approach_avoid_sv1","""event"",""trial"",""time""
""fullscreenenter"",""1"",""1539""
","
","
","""event"",""trial"",""time""
""fullscreenenter"",""1"",""1539""
","
","","","","","","null","<div style=""font-size:60px;"">+</div>","null","","fixation","","",""
"memory-trial","175","351384","0.0-18.0-1.64","5739","approach_avoid_sv1","""event"",""trial"",""time""
""fullscreenenter"",""1"",""1539""
","
","
","""event"",""trial"",""time""
""fullscreenenter"",""1"",""1539""
","
","","","","","","421.4000000000233","images/cow3.png","","","memory_trial","4","definitely_new",""
"html-keyboard-response","176","351888","0.0-18.0-0.65","5739","approach_avoid_sv1","""event"",""trial"",""time""
""fullscreenenter"",""1"",""1539""
","
","
","""event"",""trial"",""time""
""fullscreenenter"",""1"",""1539""
","
","","","","","","null","<div style=""font-size:60px;"">+</div>","null","","fixation","","",""
"memory-trial","177","353625","0.0-18.0-1.65","5739","approach_avoid_sv1","""event"",""trial"",""time""
""fullscreenenter"",""1"",""1539""
","
","
","""event"",""trial"",""time""
""fullscreenenter"",""1"",""1539""
","
","","","","","","729.1999999999534","images/dog2.png","","","memory_trial","3","maybe_new",""
"html-keyboard-response","178","354128","0.0-18.0-0.66","5739","approach_avoid_sv1","""event"",""trial"",""time""
""fullscreenenter"",""1"",""1539""
","
","
","""event"",""trial"",""time""
""fullscreenenter"",""1"",""1539""
","
","","","","","","null","<div style=""font-size:60px;"">+</div>","null","","fixation","","",""
"memory-trial","179","356512","0.0-18.0-1.66","5739","approach_avoid_sv1","""event"",""trial"",""time""
""fullscreenenter"",""1"",""1539""
","
","
","""event"",""trial"",""time""
""fullscreenenter"",""1"",""1539""
","
","","","","","","1381.5999999999767","images/table2.png","","","memory_trial","2","maybe_old",""
"html-keyboard-response","180","357017","0.0-18.0-0.67","5739","approach_avoid_sv1","""event"",""trial"",""time""
""fullscreenenter"",""1"",""1539""
","
","
","""event"",""trial"",""time""
""fullscreenenter"",""1"",""1539""
","
","","","","","","null","<div style=""font-size:60px;"">+</div>","null","","fixation","","",""
"memory-trial","181","358472","0.0-18.0-1.67","5739","approach_avoid_sv1","""event"",""trial"",""time""
""fullscreenenter"",""1"",""1539""
","
","
","""event"",""trial"",""time""
""fullscreenenter"",""1"",""1539""
","
","","","","","","452.9000000000233","images/rabbit6.png","","","memory_trial","4","definitely_new",""
"html-keyboard-response","182","358976","0.0-18.0-0.68","5739","approach_avoid_sv1","""event"",""trial"",""time""
""fullscreenenter"",""1"",""1539""
","
","
","""event"",""trial"",""time""
""fullscreenenter"",""1"",""1539""
","
","","","","","","null","<div style=""font-size:60px;"">+</div>","null","","fixation","","",""
"memory-trial","183","360536","0.0-18.0-1.68","5739","approach_avoid_sv1","""event"",""trial"",""time""
""fullscreenenter"",""1"",""1539""
","
","
","""event"",""trial"",""time""
""fullscreenenter"",""1"",""1539""
","
","","","","","","551.9000000000233","images/table4.png","","","memory_trial","3","maybe_new",""
"html-keyboard-response","184","361041","0.0-18.0-0.69","5739","approach_avoid_sv1","""event"",""trial"",""time""
""fullscreenenter"",""1"",""1539""
","
","
","""event"",""trial"",""time""
""fullscreenenter"",""1"",""1539""
","
","","","","","","null","<div style=""font-size:60px;"">+</div>","null","","fixation","","",""
"memory-trial","185","362368","0.0-18.0-1.69","5739","approach_avoid_sv1","""event"",""trial"",""time""
""fullscreenenter"",""1"",""1539""
","
","
","""event"",""trial"",""time""
""fullscreenenter"",""1"",""1539""
","
","","","","","","319.70000000006985","images/straw5.png","","","memory_trial","4","definitely_new",""
"html-keyboard-response","186","362873","0.0-18.0-0.70","5739","approach_avoid_sv1","""event"",""trial"",""time""
""fullscreenenter"",""1"",""1539""
","
","
","""event"",""trial"",""time""
""fullscreenenter"",""1"",""1539""
","
","","","","","","null","<div style=""font-size:60px;"">+</div>","null","","fixation","","",""
"memory-trial","187","364649","0.0-18.0-1.70","5739","approach_avoid_sv1","""event"",""trial"",""time""
""fullscreenenter"",""1"",""1539""
","
","
","""event"",""trial"",""time""
""fullscreenenter"",""1"",""1539""
","
","","","","","","771.0999999999767","images/truck8.png","","","memory_trial","1","definitely_old",""
"html-keyboard-response","188","365153","0.0-18.0-0.71","5739","approach_avoid_sv1","""event"",""trial"",""time""
""fullscreenenter"",""1"",""1539""
","
","
","""event"",""trial"",""time""
""fullscreenenter"",""1"",""1539""
","
","","","","","","null","<div style=""font-size:60px;"">+</div>","null","","fixation","","",""
"memory-trial","189","367265","0.0-18.0-1.71","5739","approach_avoid_sv1","""event"",""trial"",""time""
""fullscreenenter"",""1"",""1539""
","
","
","""event"",""trial"",""time""
""fullscreenenter"",""1"",""1539""
","
","","","","","","1108.5","images/cat1.png","","","memory_trial","2","maybe_old",""
"html-keyboard-response","190","367768","0.0-18.0-0.72","5739","approach_avoid_sv1","""event"",""trial"",""time""
""fullscreenenter"",""1"",""1539""
","
","
","""event"",""trial"",""time""
""fullscreenenter"",""1"",""1539""
","
","","","","","","null","<div style=""font-size:60px;"">+</div>","null","","fixation","","",""
"memory-trial","191","369025","0.0-18.0-1.72","5739","approach_avoid_sv1","""event"",""trial"",""time""
""fullscreenenter"",""1"",""1539""
","
","
","""event"",""trial"",""time""
""fullscreenenter"",""1"",""1539""
","
","","","","","","250.20000000006985","images/banana7.png","","","memory_trial","3","maybe_new",""
"html-keyboard-response","192","369528","0.0-18.0-0.73","5739","approach_avoid_sv1","""event"",""trial"",""time""
""fullscreenenter"",""1"",""1539""
","
","
","""event"",""trial"",""time""
""fullscreenenter"",""1"",""1539""
","
","","","","","","null","<div style=""font-size:60px;"">+</div>","null","","fixation","","",""
"memory-trial","193","370929","0.0-18.0-1.73","5739","approach_avoid_sv1","""event"",""trial"",""time""
""fullscreenenter"",""1"",""1539""
","
","
","""event"",""trial"",""time""
""fullscreenenter"",""1"",""1539""
","
","","","","","","396.69999999995343","images/cow1.png","","","memory_trial","3","maybe_new",""
"html-keyboard-response","194","371433","0.0-18.0-0.74","5739","approach_avoid_sv1","""event"",""trial"",""time""
""fullscreenenter"",""1"",""1539""
","
","
","""event"",""trial"",""time""
""fullscreenenter"",""1"",""1539""
","
","","","","","","null","<div style=""font-size:60px;"">+</div>","null","","fixation","","",""
"memory-trial","195","373065","0.0-18.0-1.74","5739","approach_avoid_sv1","""event"",""trial"",""time""
""fullscreenenter"",""1"",""1539""
","
","
","""event"",""trial"",""time""
""fullscreenenter"",""1"",""1539""
","
","","","","","","627.6999999999534","images/table5.png","","","memory_trial","3","maybe_new",""
"html-keyboard-response","196","373569","0.0-18.0-0.75","5739","approach_avoid_sv1","""event"",""trial"",""time""
""fullscreenenter"",""1"",""1539""
","
","
","""event"",""trial"",""time""
""fullscreenenter"",""1"",""1539""
","
","","","","","","null","<div style=""font-size:60px;"">+</div>","null","","fixation","","",""
"memory-trial","197","375408","0.0-18.0-1.75","5739","approach_avoid_sv1","""event"",""trial"",""time""
""fullscreenenter"",""1"",""1539""
","
","
","""event"",""trial"",""time""
""fullscreenenter"",""1"",""1539""
","
","","","","","","831.9000000000233","images/cactus4.png","","","memory_trial","4","definitely_new",""
"html-keyboard-response","198","375913","0.0-18.0-0.76","5739","approach_avoid_sv1","""event"",""trial"",""time""
""fullscreenenter"",""1"",""1539""
","
","
","""event"",""trial"",""time""
""fullscreenenter"",""1"",""1539""
","
","","","","","","null","<div style=""font-size:60px;"">+</div>","null","","fixation","","",""
"memory-trial","199","377760","0.0-18.0-1.76","5739","approach_avoid_sv1","""event"",""trial"",""time""
""fullscreenenter"",""1"",""1539""
","
","
","""event"",""trial"",""time""
""fullscreenenter"",""1"",""1539""
","
","","","","","","845.6999999999534","images/train1.png","","","memory_trial","1","definitely_old",""
"html-keyboard-response","200","378265","0.0-18.0-0.77","5739","approach_avoid_sv1","""event"",""trial"",""time""
""fullscreenenter"",""1"",""1539""
","
","
","""event"",""trial"",""time""
""fullscreenenter"",""1"",""1539""
","
","","","","","","null","<div style=""font-size:60px;"">+</div>","null","","fixation","","",""
"memory-trial","201","380025","0.0-18.0-1.77","5739","approach_avoid_sv1","""event"",""trial"",""time""
""fullscreenenter"",""1"",""1539""
","
","
","""event"",""trial"",""time""
""fullscreenenter"",""1"",""1539""
","
","","","","","","755.9000000000233","images/rodent8.png","","","memory_trial","1","definitely_old",""
"html-keyboard-response","202","380529","0.0-18.0-0.78","5739","approach_avoid_sv1","""event"",""trial"",""time""
""fullscreenenter"",""1"",""1539""
","
","
","""event"",""trial"",""time""
""fullscreenenter"",""1"",""1539""
","
","","","","","","null","<div style=""font-size:60px;"">+</div>","null","","fixation","","",""
"memory-trial","203","383025","0.0-18.0-1.78","5739","approach_avoid_sv1","""event"",""trial"",""time""
""fullscreenenter"",""1"",""1539""
","
","
","""event"",""trial"",""time""
""fullscreenenter"",""1"",""1539""
","
","","","","","","1491","images/flower5.png","","","memory_trial","3","maybe_new",""
"html-keyboard-response","204","383529","0.0-18.0-0.79","5739","approach_avoid_sv1","""event"",""trial"",""time""
""fullscreenenter"",""1"",""1539""
","
","
","""event"",""trial"",""time""
""fullscreenenter"",""1"",""1539""
","
","","","","","","null","<div style=""font-size:60px;"">+</div>","null","","fixation","","",""
"memory-trial","205","385465","0.0-18.0-1.79","5739","approach_avoid_sv1","""event"",""trial"",""time""
""fullscreenenter"",""1"",""1539""
","
","
","""event"",""trial"",""time""
""fullscreenenter"",""1"",""1539""
","
","","","","","","929.8999999999069","images/plane1.png","","","memory_trial","3","maybe_new",""
"html-keyboard-response","206","385969","0.0-18.0-0.80","5739","approach_avoid_sv1","""event"",""trial"",""time""
""fullscreenenter"",""1"",""1539""
","
","
","""event"",""trial"",""time""
""fullscreenenter"",""1"",""1539""
","
","","","","","","null","<div style=""font-size:60px;"">+</div>","null","","fixation","","",""
"memory-trial","207","388057","0.0-18.0-1.80","5739","approach_avoid_sv1","""event"",""trial"",""time""
""fullscreenenter"",""1"",""1539""
","
","
","""event"",""trial"",""time""
""fullscreenenter"",""1"",""1539""
","
","","","","","","1080.1999999999534","images/horse3.png","","","memory_trial","3","maybe_new",""
"html-keyboard-response","208","388561","0.0-18.0-0.81","5739","approach_avoid_sv1","""event"",""trial"",""time""
""fullscreenenter"",""1"",""1539""
","
","
","""event"",""trial"",""time""
""fullscreenenter"",""1"",""1539""
","
","","","","","","null","<div style=""font-size:60px;"">+</div>","null","","fixation","","",""
"memory-trial","209","390921","0.0-18.0-1.81","5739","approach_avoid_sv1","""event"",""trial"",""time""
""fullscreenenter"",""1"",""1539""
","
","
","""event"",""trial"",""time""
""fullscreenenter"",""1"",""1539""
","
","","","","","","1356.7000000000698","images/cow4.png","","","memory_trial","2","maybe_old",""
"html-keyboard-response","210","391425","0.0-18.0-0.82","5739","approach_avoid_sv1","""event"",""trial"",""time""
""fullscreenenter"",""1"",""1539""
","
","
","""event"",""trial"",""time""
""fullscreenenter"",""1"",""1539""
","
","","","","","","null","<div style=""font-size:60px;"">+</div>","null","","fixation","","",""
"memory-trial","211","393959","0.0-18.0-1.82","5739","approach_avoid_sv1","""event"",""trial"",""time""
""fullscreenenter"",""1"",""1539""
","
","
","""event"",""trial"",""time""
""fullscreenenter"",""1"",""1539""
","
","","","","","","1512.6999999999534","images/cactus8.png","","","memory_trial","1","definitely_old",""
"html-keyboard-response","212","394464","0.0-18.0-0.83","5739","approach_avoid_sv1","""event"",""trial"",""time""
""fullscreenenter"",""1"",""1539""
","
","
","""event"",""trial"",""time""
""fullscreenenter"",""1"",""1539""
","
","","","","","","null","<div style=""font-size:60px;"">+</div>","null","","fixation","","",""
"memory-trial","213","396688","0.0-18.0-1.83","5739","approach_avoid_sv1","""event"",""trial"",""time""
""fullscreenenter"",""1"",""1539""
","
","
","""event"",""trial"",""time""
""fullscreenenter"",""1"",""1539""
","
","","","","","","1218.5","images/flower3.png","","","memory_trial","3","maybe_new",""
"html-keyboard-response","214","397193","0.0-18.0-0.84","5739","approach_avoid_sv1","""event"",""trial"",""time""
""fullscreenenter"",""1"",""1539""
","
","
","""event"",""trial"",""time""
""fullscreenenter"",""1"",""1539""
","
","","","","","","null","<div style=""font-size:60px;"">+</div>","null","","fixation","","",""
"memory-trial","215","399468","0.0-18.0-1.84","5739","approach_avoid_sv1","""event"",""trial"",""time""
""fullscreenenter"",""1"",""1539""
","
","
","""event"",""trial"",""time""
""fullscreenenter"",""1"",""1539""
","
","","","","","","1257.6999999999534","images/straw1.png","","","memory_trial","3","maybe_new",""
"html-keyboard-response","216","399977","0.0-18.0-0.85","5739","approach_avoid_sv1","""event"",""trial"",""time""
""fullscreenenter"",""1"",""1539""
","
","
","""event"",""trial"",""time""
""fullscreenenter"",""1"",""1539""
","
","","","","","","null","<div style=""font-size:60px;"">+</div>","null","","fixation","","",""
"memory-trial","217","401945","0.0-18.0-1.85","5739","approach_avoid_sv1","""event"",""trial"",""time""
""fullscreenenter"",""1"",""1539""
","
","
","""event"",""trial"",""time""
""fullscreenenter"",""1"",""1539""
","
","","","","","","960.4000000001397","images/cactus1.png","","","memory_trial","1","definitely_old",""
"html-keyboard-response","218","402449","0.0-18.0-0.86","5739","approach_avoid_sv1","""event"",""trial"",""time""
""fullscreenenter"",""1"",""1539""
","
","
","""event"",""trial"",""time""
""fullscreenenter"",""1"",""1539""
","
","","","","","","null","<div style=""font-size:60px;"">+</div>","null","","fixation","","",""
"memory-trial","219","404233","0.0-18.0-1.86","5739","approach_avoid_sv1","""event"",""trial"",""time""
""fullscreenenter"",""1"",""1539""
","
","
","""event"",""trial"",""time""
""fullscreenenter"",""1"",""1539""
","
","","","","","","776.1000000000931","images/plane7.png","","","memory_trial","2","maybe_old",""
"html-keyboard-response","220","404737","0.0-18.0-0.87","5739","approach_avoid_sv1","""event"",""trial"",""time""
""fullscreenenter"",""1"",""1539""
","
","
","""event"",""trial"",""time""
""fullscreenenter"",""1"",""1539""
","
","","","","","","null","<div style=""font-size:60px;"">+</div>","null","","fixation","","",""
"memory-trial","221","406337","0.0-18.0-1.87","5739","approach_avoid_sv1","""event"",""trial"",""time""
""fullscreenenter"",""1"",""1539""
","
","
","""event"",""trial"",""time""
""fullscreenenter"",""1"",""1539""
","
","","","","","","598.1000000000931","images/boat2.png","","","memory_trial","2","maybe_old",""
"html-keyboard-response","222","406840","0.0-18.0-0.88","5739","approach_avoid_sv1","""event"",""trial"",""time""
""fullscreenenter"",""1"",""1539""
","
","
","""event"",""trial"",""time""
""fullscreenenter"",""1"",""1539""
","
","","","","","","null","<div style=""font-size:60px;"">+</div>","null","","fixation","","",""
"memory-trial","223","408353","0.0-18.0-1.88","5739","approach_avoid_sv1","""event"",""trial"",""time""
""fullscreenenter"",""1"",""1539""
","
","
","""event"",""trial"",""time""
""fullscreenenter"",""1"",""1539""
","
","","","","","","504.4000000001397","images/cat2.png","","","memory_trial","3","maybe_new",""
"html-keyboard-response","224","408857","0.0-18.0-0.89","5739","approach_avoid_sv1","""event"",""trial"",""time""
""fullscreenenter"",""1"",""1539""
","
","
","""event"",""trial"",""time""
""fullscreenenter"",""1"",""1539""
","
","","","","","","null","<div style=""font-size:60px;"">+</div>","null","","fixation","","",""
"memory-trial","225","410777","0.0-18.0-1.89","5739","approach_avoid_sv1","""event"",""trial"",""time""
""fullscreenenter"",""1"",""1539""
","
","
","""event"",""trial"",""time""
""fullscreenenter"",""1"",""1539""
","
","","","","","","914.4000000001397","images/chair7.png","","","memory_trial","1","definitely_old",""
"html-keyboard-response","226","411281","0.0-18.0-0.90","5739","approach_avoid_sv1","""event"",""trial"",""time""
""fullscreenenter"",""1"",""1539""
","
","
","""event"",""trial"",""time""
""fullscreenenter"",""1"",""1539""
","
","","","","","","null","<div style=""font-size:60px;"">+</div>","null","","fixation","","",""
"memory-trial","227","413290","0.0-18.0-1.90","5739","approach_avoid_sv1","""event"",""trial"",""time""
""fullscreenenter"",""1"",""1539""
","
","
","""event"",""trial"",""time""
""fullscreenenter"",""1"",""1539""
","
","","","","","","1005.5","images/chair6.png","","","memory_trial","1","definitely_old",""
"html-keyboard-response","228","413792","0.0-18.0-0.91","5739","approach_avoid_sv1","""event"",""trial"",""time""
""fullscreenenter"",""1"",""1539""
","
","
","""event"",""trial"",""time""
""fullscreenenter"",""1"",""1539""
","
","","","","","","null","<div style=""font-size:60px;"">+</div>","null","","fixation","","",""
"memory-trial","229","415561","0.0-18.0-1.91","5739","approach_avoid_sv1","""event"",""trial"",""time""
""fullscreenenter"",""1"",""1539""
","
","
","""event"",""trial"",""time""
""fullscreenenter"",""1"",""1539""
","
","","","","","","760.5","images/bush1.png","","","memory_trial","4","definitely_new",""
"html-button-response","230","417074","0.0-18.0-2.91-0.91","5739","approach_avoid_sv1","""event"",""trial"",""time""
""fullscreenenter"",""1"",""1539""
","
","
","""event"",""trial"",""time""
""fullscreenenter"",""1"",""1539""
","
","","","","","","1512.6999999999534","<p> Take a break! </p><p> Click the button to continue. </p>","0","","break","","",""
"html-keyboard-response","231","417577","0.0-18.0-0.92","5739","approach_avoid_sv1","""event"",""trial"",""time""
""fullscreenenter"",""1"",""1539""
","
","
","""event"",""trial"",""time""
""fullscreenenter"",""1"",""1539""
","
","","","","","","null","<div style=""font-size:60px;"">+</div>","null","","fixation","","",""
"memory-trial","232","419080","0.0-18.0-1.92","5739","approach_avoid_sv1","""event"",""trial"",""time""
""fullscreenenter"",""1"",""1539""
","
","
","""event"",""trial"",""time""
""fullscreenenter"",""1"",""1539""
","
","","","","","","499.60000000009313","images/apple8.png","","","memory_trial","2","maybe_old",""
"html-keyboard-response","233","419585","0.0-18.0-0.93","5739","approach_avoid_sv1","""event"",""trial"",""time""
""fullscreenenter"",""1"",""1539""
","
","
","""event"",""trial"",""time""
""fullscreenenter"",""1"",""1539""
","
","","","","","","null","<div style=""font-size:60px;"">+</div>","null","","fixation","","",""
"memory-trial","234","420889","0.0-18.0-1.93","5739","approach_avoid_sv1","""event"",""trial"",""time""
""fullscreenenter"",""1"",""1539""
","
","
","""event"",""trial"",""time""
""fullscreenenter"",""1"",""1539""
","
","","","","","","299.69999999995343","images/cow5.png","","","memory_trial","3","maybe_new",""
"html-keyboard-response","235","421393","0.0-18.0-0.94","5739","approach_avoid_sv1","""event"",""trial"",""time""
""fullscreenenter"",""1"",""1539""
","
","
","""event"",""trial"",""time""
""fullscreenenter"",""1"",""1539""
","
","","","","","","null","<div style=""font-size:60px;"">+</div>","null","","fixation","","",""
"memory-trial","236","422745","0.0-18.0-1.94","5739","approach_avoid_sv1","""event"",""trial"",""time""
""fullscreenenter"",""1"",""1539""
","
","
","""event"",""trial"",""time""
""fullscreenenter"",""1"",""1539""
","
","","","","","","345.60000000009313","images/banana2.png","","","memory_trial","2","maybe_old",""
"html-keyboard-response","237","423249","0.0-18.0-0.95","5739","approach_avoid_sv1","""event"",""trial"",""time""
""fullscreenenter"",""1"",""1539""
","
","
","""event"",""trial"",""time""
""fullscreenenter"",""1"",""1539""
","
","","","","","","null","<div style=""font-size:60px;"">+</div>","null","","fixation","","",""
"memory-trial","238","424521","0.0-18.0-1.95","5739","approach_avoid_sv1","""event"",""trial"",""time""
""fullscreenenter"",""1"",""1539""
","
","
","""event"",""trial"",""time""
""fullscreenenter"",""1"",""1539""
","
","","","","","","268.69999999995343","images/apple7.png","","","memory_trial","1","definitely_old",""
"html-keyboard-response","239","425025","0.0-18.0-0.96","5739","approach_avoid_sv1","""event"",""trial"",""time""
""fullscreenenter"",""1"",""1539""
","
","
","""event"",""trial"",""time""
""fullscreenenter"",""1"",""1539""
","
","","","","","","null","<div style=""font-size:60px;"">+</div>","null","","fixation","","",""
"memory-trial","240","426937","0.0-18.0-1.96","5739","approach_avoid_sv1","""event"",""trial"",""time""
""fullscreenenter"",""1"",""1539""
","
","
","""event"",""trial"",""time""
""fullscreenenter"",""1"",""1539""
","
","","","","","","908.1999999999534","images/rabbit2.png","","","memory_trial","3","maybe_new",""
"html-keyboard-response","241","427448","0.0-18.0-0.97","5739","approach_avoid_sv1","""event"",""trial"",""time""
""fullscreenenter"",""1"",""1539""
","
","
","""event"",""trial"",""time""
""fullscreenenter"",""1"",""1539""
","
","","","","","","null","<div style=""font-size:60px;"">+</div>","null","","fixation","","",""
"memory-trial","242","429201","0.0-18.0-1.97","5739","approach_avoid_sv1","""event"",""trial"",""time""
""fullscreenenter"",""1"",""1539""
","
","
","""event"",""trial"",""time""
""fullscreenenter"",""1"",""1539""
","
","","","","","","744.3000000000466","images/rodent6.png","","","memory_trial","1","definitely_old",""
"html-keyboard-response","243","429704","0.0-18.0-0.98","5739","approach_avoid_sv1","""event"",""trial"",""time""
""fullscreenenter"",""1"",""1539""
","
","
","""event"",""trial"",""time""
""fullscreenenter"",""1"",""1539""
","
","","","","","","null","<div style=""font-size:60px;"">+</div>","null","","fixation","","",""
"memory-trial","244","434961","0.0-18.0-1.98","5739","approach_avoid_sv1","""event"",""trial"",""time""
""fullscreenenter"",""1"",""1539""
","
","
","""event"",""trial"",""time""
""fullscreenenter"",""1"",""1539""
","
","","","","","","4253.800000000047","images/flower6.png","","","memory_trial","3","maybe_new",""
"html-keyboard-response","245","435465","0.0-18.0-0.99","5739","approach_avoid_sv1","""event"",""trial"",""time""
""fullscreenenter"",""1"",""1539""
","
","
","""event"",""trial"",""time""
""fullscreenenter"",""1"",""1539""
","
","","","","","","null","<div style=""font-size:60px;"">+</div>","null","","fixation","","",""
"memory-trial","246","437209","0.0-18.0-1.99","5739","approach_avoid_sv1","""event"",""trial"",""time""
""fullscreenenter"",""1"",""1539""
","
","
","""event"",""trial"",""time""
""fullscreenenter"",""1"",""1539""
","
","","","","","","735.6000000000931","images/goat3.png","","","memory_trial","2","maybe_old",""
"html-keyboard-response","247","437713","0.0-18.0-0.100","5739","approach_avoid_sv1","""event"",""trial"",""time""
""fullscreenenter"",""1"",""1539""
","
","
","""event"",""trial"",""time""
""fullscreenenter"",""1"",""1539""
","
","","","","","","null","<div style=""font-size:60px;"">+</div>","null","","fixation","","",""
"memory-trial","248","439065","0.0-18.0-1.100","5739","approach_avoid_sv1","""event"",""trial"",""time""
""fullscreenenter"",""1"",""1539""
","
","
","""event"",""trial"",""time""
""fullscreenenter"",""1"",""1539""
","
","","","","","","345.60000000009313","images/boat8.png","","","memory_trial","3","maybe_new",""
"html-keyboard-response","249","439569","0.0-18.0-0.101","5739","approach_avoid_sv1","""event"",""trial"",""time""
""fullscreenenter"",""1"",""1539""
","
","
","""event"",""trial"",""time""
""fullscreenenter"",""1"",""1539""
","
","","","","","","null","<div style=""font-size:60px;"">+</div>","null","","fixation","","",""
"memory-trial","250","440968","0.0-18.0-1.101","5739","approach_avoid_sv1","""event"",""trial"",""time""
""fullscreenenter"",""1"",""1539""
","
","
","""event"",""trial"",""time""
""fullscreenenter"",""1"",""1539""
","
","","","","","","394.4000000001397","images/chair5.png","","","memory_trial","1","definitely_old",""
"html-keyboard-response","251","441472","0.0-18.0-0.102","5739","approach_avoid_sv1","""event"",""trial"",""time""
""fullscreenenter"",""1"",""1539""
","
","
","""event"",""trial"",""time""
""fullscreenenter"",""1"",""1539""
","
","","","","","","null","<div style=""font-size:60px;"">+</div>","null","","fixation","","",""
"memory-trial","252","443025","0.0-18.0-1.102","5739","approach_avoid_sv1","""event"",""trial"",""time""
""fullscreenenter"",""1"",""1539""
","
","
","""event"",""trial"",""time""
""fullscreenenter"",""1"",""1539""
","
","","","","","","549.8999999999069","images/cat5.png","","","memory_trial","1","definitely_old",""
"html-keyboard-response","253","443529","0.0-18.0-0.103","5739","approach_avoid_sv1","""event"",""trial"",""time""
""fullscreenenter"",""1"",""1539""
","
","
","""event"",""trial"",""time""
""fullscreenenter"",""1"",""1539""
","
","","","","","","null","<div style=""font-size:60px;"">+</div>","null","","fixation","","",""
"memory-trial","254","445545","0.0-18.0-1.103","5739","approach_avoid_sv1","""event"",""trial"",""time""
""fullscreenenter"",""1"",""1539""
","
","
","""event"",""trial"",""time""
""fullscreenenter"",""1"",""1539""
","
","","","","","","1012.5","images/straw8.png","","","memory_trial","4","definitely_new",""
"html-keyboard-response","255","446049","0.0-18.0-0.104","5739","approach_avoid_sv1","""event"",""trial"",""time""
""fullscreenenter"",""1"",""1539""
","
","
","""event"",""trial"",""time""
""fullscreenenter"",""1"",""1539""
","
","","","","","","null","<div style=""font-size:60px;"">+</div>","null","","fixation","","",""
"memory-trial","256","448057","0.0-18.0-1.104","5739","approach_avoid_sv1","""event"",""trial"",""time""
""fullscreenenter"",""1"",""1539""
","
","
","""event"",""trial"",""time""
""fullscreenenter"",""1"",""1539""
","
","","","","","","1004.6999999999534","images/orange1.png","","","memory_trial","3","maybe_new",""
"html-keyboard-response","257","448561","0.0-18.0-0.105","5739","approach_avoid_sv1","""event"",""trial"",""time""
""fullscreenenter"",""1"",""1539""
","
","
","""event"",""trial"",""time""
""fullscreenenter"",""1"",""1539""
","
","","","","","","null","<div style=""font-size:60px;"">+</div>","null","","fixation","","",""
"memory-trial","258","450249","0.0-18.0-1.105","5739","approach_avoid_sv1","""event"",""trial"",""time""
""fullscreenenter"",""1"",""1539""
","
","
","""event"",""trial"",""time""
""fullscreenenter"",""1"",""1539""
","
","","","","","","678.1000000000931","images/tree1.png","","","memory_trial","2","maybe_old",""
"html-keyboard-response","259","450752","0.0-18.0-0.106","5739","approach_avoid_sv1","""event"",""trial"",""time""
""fullscreenenter"",""1"",""1539""
","
","
","""event"",""trial"",""time""
""fullscreenenter"",""1"",""1539""
","
","","","","","","null","<div style=""font-size:60px;"">+</div>","null","","fixation","","",""
"memory-trial","260","452561","0.0-18.0-1.106","5739","approach_avoid_sv1","""event"",""trial"",""time""
""fullscreenenter"",""1"",""1539""
","
","
","""event"",""trial"",""time""
""fullscreenenter"",""1"",""1539""
","
","","","","","","799.1000000000931","images/plane2.png","","","memory_trial","2","maybe_old",""
"html-keyboard-response","261","453065","0.0-18.0-0.107","5739","approach_avoid_sv1","""event"",""trial"",""time""
""fullscreenenter"",""1"",""1539""
","
","
","""event"",""trial"",""time""
""fullscreenenter"",""1"",""1539""
","
","","","","","","null","<div style=""font-size:60px;"">+</div>","null","","fixation","","",""
"memory-trial","262","454441","0.0-18.0-1.107","5739","approach_avoid_sv1","""event"",""trial"",""time""
""fullscreenenter"",""1"",""1539""
","
","
","""event"",""trial"",""time""
""fullscreenenter"",""1"",""1539""
","
","","","","","","368.69999999995343","images/dog4.png","","","memory_trial","2","maybe_old",""
"html-keyboard-response","263","454945","0.0-18.0-0.108","5739","approach_avoid_sv1","""event"",""trial"",""time""
""fullscreenenter"",""1"",""1539""
","
","
","""event"",""trial"",""time""
""fullscreenenter"",""1"",""1539""
","
","","","","","","null","<div style=""font-size:60px;"">+</div>","null","","fixation","","",""
"memory-trial","264","456473","0.0-18.0-1.108","5739","approach_avoid_sv1","""event"",""trial"",""time""
""fullscreenenter"",""1"",""1539""
","
","
","""event"",""trial"",""time""
""fullscreenenter"",""1"",""1539""
","
","","","","","","522.8000000000466","images/flower1.png","","","memory_trial","2","maybe_old",""
"html-keyboard-response","265","456977","0.0-18.0-0.109","5739","approach_avoid_sv1","""event"",""trial"",""time""
""fullscreenenter"",""1"",""1539""
","
","
","""event"",""trial"",""time""
""fullscreenenter"",""1"",""1539""
","
","","","","","","null","<div style=""font-size:60px;"">+</div>","null","","fixation","","",""
"memory-trial","266","458280","0.0-18.0-1.109","5739","approach_avoid_sv1","""event"",""trial"",""time""
""fullscreenenter"",""1"",""1539""
","
","
","""event"",""trial"",""time""
""fullscreenenter"",""1"",""1539""
","
","","","","","","297.9000000001397","images/bed3.png","","","memory_trial","3","maybe_new",""
"html-keyboard-response","267","458784","0.0-18.0-0.110","5739","approach_avoid_sv1","""event"",""trial"",""time""
""fullscreenenter"",""1"",""1539""
","
","
","""event"",""trial"",""time""
""fullscreenenter"",""1"",""1539""
","
","","","","","","null","<div style=""font-size:60px;"">+</div>","null","","fixation","","",""
"memory-trial","268","460289","0.0-18.0-1.110","5739","approach_avoid_sv1","""event"",""trial"",""time""
""fullscreenenter"",""1"",""1539""
","
","
","""event"",""trial"",""time""
""fullscreenenter"",""1"",""1539""
","
","","","","","","498","images/train6.png","","","memory_trial","3","maybe_new",""
"html-keyboard-response","269","460793","0.0-18.0-0.111","5739","approach_avoid_sv1","""event"",""trial"",""time""
""fullscreenenter"",""1"",""1539""
","
","
","""event"",""trial"",""time""
""fullscreenenter"",""1"",""1539""
","
","","","","","","null","<div style=""font-size:60px;"">+</div>","null","","fixation","","",""
"memory-trial","270","462089","0.0-18.0-1.111","5739","approach_avoid_sv1","""event"",""trial"",""time""
""fullscreenenter"",""1"",""1539""
","
","
","""event"",""trial"",""time""
""fullscreenenter"",""1"",""1539""
","
","","","","","","293.80000000004657","images/rodent7.png","","","memory_trial","1","definitely_old",""
"html-keyboard-response","271","462593","0.0-18.0-0.112","5739","approach_avoid_sv1","""event"",""trial"",""time""
""fullscreenenter"",""1"",""1539""
","
","
","""event"",""trial"",""time""
""fullscreenenter"",""1"",""1539""
","
","","","","","","null","<div style=""font-size:60px;"">+</div>","null","","fixation","","",""
"memory-trial","272","464656","0.0-18.0-1.112","5739","approach_avoid_sv1","""event"",""trial"",""time""
""fullscreenenter"",""1"",""1539""
","
","
","""event"",""trial"",""time""
""fullscreenenter"",""1"",""1539""
","
","","","","","","1059.9000000001397","images/sheep1.png","","","memory_trial","2","maybe_old",""
"html-keyboard-response","273","465161","0.0-18.0-0.113","5739","approach_avoid_sv1","""event"",""trial"",""time""
""fullscreenenter"",""1"",""1539""
","
","
","""event"",""trial"",""time""
""fullscreenenter"",""1"",""1539""
","
","","","","","","null","<div style=""font-size:60px;"">+</div>","null","","fixation","","",""
"memory-trial","274","466752","0.0-18.0-1.113","5739","approach_avoid_sv1","""event"",""trial"",""time""
""fullscreenenter"",""1"",""1539""
","
","
","""event"",""trial"",""time""
""fullscreenenter"",""1"",""1539""
","
","","","","","","584.3999999999069","images/horse7.png","","","memory_trial","2","maybe_old",""
"html-keyboard-response","275","467256","0.0-18.0-0.114","5739","approach_avoid_sv1","""event"",""trial"",""time""
""fullscreenenter"",""1"",""1539""
","
","
","""event"",""trial"",""time""
""fullscreenenter"",""1"",""1539""
","
","","","","","","null","<div style=""font-size:60px;"">+</div>","null","","fixation","","",""
"memory-trial","276","470281","0.0-18.0-1.114","5739","approach_avoid_sv1","""event"",""trial"",""time""
""fullscreenenter"",""1"",""1539""
","
","
","""event"",""trial"",""time""
""fullscreenenter"",""1"",""1539""
","
","","","","","","2014.8999999999069","images/table3.png","","","memory_trial","1","definitely_old",""
"html-keyboard-response","277","470785","0.0-18.0-0.115","5739","approach_avoid_sv1","""event"",""trial"",""time""
""fullscreenenter"",""1"",""1539""
","
","
","""event"",""trial"",""time""
""fullscreenenter"",""1"",""1539""
","
","","","","","","null","<div style=""font-size:60px;"">+</div>","null","","fixation","","",""
"memory-trial","278","473376","0.0-18.0-1.115","5739","approach_avoid_sv1","""event"",""trial"",""time""
""fullscreenenter"",""1"",""1539""
","
","
","""event"",""trial"",""time""
""fullscreenenter"",""1"",""1539""
","
","","","","","","1586","images/train5.png","","","memory_trial","3","maybe_new",""
"html-keyboard-response","279","473881","0.0-18.0-0.116","5739","approach_avoid_sv1","""event"",""trial"",""time""
""fullscreenenter"",""1"",""1539""
","
","
","""event"",""trial"",""time""
""fullscreenenter"",""1"",""1539""
","
","","","","","","null","<div style=""font-size:60px;"">+</div>","null","","fixation","","",""
"memory-trial","280","475537","0.0-18.0-1.116","5739","approach_avoid_sv1","""event"",""trial"",""time""
""fullscreenenter"",""1"",""1539""
","
","
","""event"",""trial"",""time""
""fullscreenenter"",""1"",""1539""
","
","","","","","","653","images/tree6.png","","","memory_trial","4","definitely_new",""
"html-keyboard-response","281","476041","0.0-18.0-0.117","5739","approach_avoid_sv1","""event"",""trial"",""time""
""fullscreenenter"",""1"",""1539""
","
","
","""event"",""trial"",""time""
""fullscreenenter"",""1"",""1539""
","
","","","","","","null","<div style=""font-size:60px;"">+</div>","null","","fixation","","",""
"memory-trial","282","477896","0.0-18.0-1.117","5739","approach_avoid_sv1","""event"",""trial"",""time""
""fullscreenenter"",""1"",""1539""
","
","
","""event"",""trial"",""time""
""fullscreenenter"",""1"",""1539""
","
","","","","","","852.1000000000931","images/goat5.png","","","memory_trial","2","maybe_old",""
"html-keyboard-response","283","478401","0.0-18.0-0.118","5739","approach_avoid_sv1","""event"",""trial"",""time""
""fullscreenenter"",""1"",""1539""
","
","
","""event"",""trial"",""time""
""fullscreenenter"",""1"",""1539""
","
","","","","","","null","<div style=""font-size:60px;"">+</div>","null","","fixation","","",""
"memory-trial","284","479808","0.0-18.0-1.118","5739","approach_avoid_sv1","""event"",""trial"",""time""
""fullscreenenter"",""1"",""1539""
","
","
","""event"",""trial"",""time""
""fullscreenenter"",""1"",""1539""
","
","","","","","","402","images/banana1.png","","","memory_trial","4","definitely_new",""
"html-keyboard-response","285","480313","0.0-18.0-0.119","5739","approach_avoid_sv1","""event"",""trial"",""time""
""fullscreenenter"",""1"",""1539""
","
","
","""event"",""trial"",""time""
""fullscreenenter"",""1"",""1539""
","
","","","","","","null","<div style=""font-size:60px;"">+</div>","null","","fixation","","",""
"memory-trial","286","481993","0.0-18.0-1.119","5739","approach_avoid_sv1","""event"",""trial"",""time""
""fullscreenenter"",""1"",""1539""
","
","
","""event"",""trial"",""time""
""fullscreenenter"",""1"",""1539""
","
","","","","","","671.8000000000466","images/bed4.png","","","memory_trial","1","definitely_old",""
"html-keyboard-response","287","482497","0.0-18.0-0.120","5739","approach_avoid_sv1","""event"",""trial"",""time""
""fullscreenenter"",""1"",""1539""
","
","
","""event"",""trial"",""time""
""fullscreenenter"",""1"",""1539""
","
","","","","","","null","<div style=""font-size:60px;"">+</div>","null","","fixation","","",""
"memory-trial","288","483976","0.0-18.0-1.120","5739","approach_avoid_sv1","""event"",""trial"",""time""
""fullscreenenter"",""1"",""1539""
","
","
","""event"",""trial"",""time""
""fullscreenenter"",""1"",""1539""
","
","","","","","","471.60000000009313","images/sofa4.png","","","memory_trial","1","definitely_old",""
"html-keyboard-response","289","484481","0.0-18.0-0.121","5739","approach_avoid_sv1","""event"",""trial"",""time""
""fullscreenenter"",""1"",""1539""
","
","
","""event"",""trial"",""time""
""fullscreenenter"",""1"",""1539""
","
","","","","","","null","<div style=""font-size:60px;"">+</div>","null","","fixation","","",""
"memory-trial","290","486089","0.0-18.0-1.121","5739","approach_avoid_sv1","""event"",""trial"",""time""
""fullscreenenter"",""1"",""1539""
","
","
","""event"",""trial"",""time""
""fullscreenenter"",""1"",""1539""
","
","","","","","","601.0999999998603","images/truck4.png","","","memory_trial","4","definitely_new",""
"html-keyboard-response","291","486597","0.0-18.0-0.122","5739","approach_avoid_sv1","""event"",""trial"",""time""
""fullscreenenter"",""1"",""1539""
","
","
","""event"",""trial"",""time""
""fullscreenenter"",""1"",""1539""
","
","","","","","","null","<div style=""font-size:60px;"">+</div>","null","","fixation","","",""
"memory-trial","292","488673","0.0-18.0-1.122","5739","approach_avoid_sv1","""event"",""trial"",""time""
""fullscreenenter"",""1"",""1539""
","
","
","""event"",""trial"",""time""
""fullscreenenter"",""1"",""1539""
","
","","","","","","1071.6999999999534","images/cactus6.png","","","memory_trial","2","maybe_old",""
"html-keyboard-response","293","489176","0.0-18.0-0.123","5739","approach_avoid_sv1","""event"",""trial"",""time""
""fullscreenenter"",""1"",""1539""
","
","
","""event"",""trial"",""time""
""fullscreenenter"",""1"",""1539""
","
","","","","","","null","<div style=""font-size:60px;"">+</div>","null","","fixation","","",""
"memory-trial","294","490937","0.0-18.0-1.123","5739","approach_avoid_sv1","""event"",""trial"",""time""
""fullscreenenter"",""1"",""1539""
","
","
","""event"",""trial"",""time""
""fullscreenenter"",""1"",""1539""
","
","","","","","","756.6999999999534","images/apple1.png","","","memory_trial","4","definitely_new",""
"html-keyboard-response","295","491441","0.0-18.0-0.124","5739","approach_avoid_sv1","""event"",""trial"",""time""
""fullscreenenter"",""1"",""1539""
","
","
","""event"",""trial"",""time""
""fullscreenenter"",""1"",""1539""
","
","","","","","","null","<div style=""font-size:60px;"">+</div>","null","","fixation","","",""
"memory-trial","296","492848","0.0-18.0-1.124","5739","approach_avoid_sv1","""event"",""trial"",""time""
""fullscreenenter"",""1"",""1539""
","
","
","""event"",""trial"",""time""
""fullscreenenter"",""1"",""1539""
","
","","","","","","398.5999999998603","images/sofa8.png","","","memory_trial","3","maybe_new",""
"html-keyboard-response","297","493352","0.0-18.0-0.125","5739","approach_avoid_sv1","""event"",""trial"",""time""
""fullscreenenter"",""1"",""1539""
","
","
","""event"",""trial"",""time""
""fullscreenenter"",""1"",""1539""
","
