"trial_type","trial_index","time_elapsed","internal_node_id","subject_id","task_version","interactions","blur_events","focus_events","fullscreenenter_events","fullscreenexit_events","success","timeout","failed_images","failed_audio","failed_video","rt","stimulus","response","button_pressed","task_part","key_press","answer","correct"
"pavlovia","0","2","0.0-0.0","7573","approach_avoid_sv1","""event"",""trial"",""time""
""fullscreenenter"",""1"",""1313""
","
","
","""event"",""trial"",""time""
""fullscreenenter"",""1"",""1313""
","
","","","","","","","","","","","","",""
"fullscreen","1","2307","0.0-1.0","7573","approach_avoid_sv1","""event"",""trial"",""time""
""fullscreenenter"",""1"",""1313""
","
","
","""event"",""trial"",""time""
""fullscreenenter"",""1"",""1313""
","
","true","","","","","","","","","","","",""
"preload","2","27708","0.0-2.0","7573","approach_avoid_sv1","""event"",""trial"",""time""
""fullscreenenter"",""1"",""1313""
","
","
","""event"",""trial"",""time""
""fullscreenenter"",""1"",""1313""
","
","true","false","[]","[]","[]","","","","","","","",""
"preload","3","54076","0.0-3.0","7573","approach_avoid_sv1","""event"",""trial"",""time""
""fullscreenenter"",""1"",""1313""
","
","
","""event"",""trial"",""time""
""fullscreenenter"",""1"",""1313""
","
","true","false","[]","[]","[]","","","","","","","",""
"preload","4","55636","0.0-4.0","7573","approach_avoid_sv1","""event"",""trial"",""time""
""fullscreenenter"",""1"",""1313""
","
","
","""event"",""trial"",""time""
""fullscreenenter"",""1"",""1313""
","
","true","false","[]","[]","[]","","","","","","","",""
"audio-keyboard-response","5","57151","0.0-5.0","7573","approach_avoid_sv1","""event"",""trial"",""time""
""fullscreenenter"",""1"",""1313""
","
","
","""event"",""trial"",""time""
""fullscreenenter"",""1"",""1313""
","
","","","","","","1520","audio/beep_loop.wav"," ","","","","",""
"audio-button-response","6","58429","0.0-6.0","7573","approach_avoid_sv1","""event"",""trial"",""time""
""fullscreenenter"",""1"",""1313""
","
","
","""event"",""trial"",""time""
""fullscreenenter"",""1"",""1313""
","
","","","","","","1269","audio/turtle.wav","3","","","","",""
"audio-button-response","7","60233","0.0-7.0","7573","approach_avoid_sv1","""event"",""trial"",""time""
""fullscreenenter"",""1"",""1313""
","
","
","""event"",""trial"",""time""
""fullscreenenter"",""1"",""1313""
","
","","","","","","800","audio/shark.wav","2","","","","",""
"preload","8","91221","0.0-8.0","7573","approach_avoid_sv1","""event"",""trial"",""time""
""fullscreenenter"",""1"",""1313""
","
","
","""event"",""trial"",""time""
""fullscreenenter"",""1"",""1313""
","
","true","false","[]","[]","[]","","","","","","","",""
"learning-instructions","9","98075","0.0-9.0-0.0","7573","approach_avoid_sv1","""event"",""trial"",""time""
""fullscreenenter"",""1"",""1313""
","
","
","""event"",""trial"",""time""
""fullscreenenter"",""1"",""1313""
","
","","","","","","2381.9000000953674","<p> Welcome back! </p><p> Last week, you had to make choices about lots of different items.  </p>","","0","instructions","","",""
"learning-instructions","10","102582","0.0-9.0-0.1","7573","approach_avoid_sv1","""event"",""trial"",""time""
""fullscreenenter"",""1"",""1313""
","
","
","""event"",""trial"",""time""
""fullscreenenter"",""1"",""1313""
","
","","","","","","380","<p> Today, we are going to ask you to try to remember all the items. </p>","","0","instructions","","",""
"learning-instructions","11","113007","0.0-9.0-0.2","7573","approach_avoid_sv1","""event"",""trial"",""time""
""fullscreenenter"",""1"",""1313""
","
","
","""event"",""trial"",""time""
""fullscreenenter"",""1"",""1313""
","
","","","","","","283.7999999523163","<p> On every trial, you will see an image. </p><p> The image may be an OLD image you saw during the games last week or it may be a NEW image that was not presented. </p>","","0","instructions","","",""
"learning-instructions","12","123220","0.0-9.0-0.3","7573","approach_avoid_sv1","""event"",""trial"",""time""
""fullscreenenter"",""1"",""1313""
","
","
","""event"",""trial"",""time""
""fullscreenenter"",""1"",""1313""
","
","","","","","","1717","<p> You need to select whether the image is:  </p><p>  'Definitely old', 'Maybe old', 'Maybe new', or 'Definitely new.'  </p><div class=""mem-choice-instructions-grid""><div class=""choice-option"" id=""choice-option-1"" ><img src=""images/definitely_old_1.png"" id=""choice-option-img-1"" class=""choice-option-img"" stage=""1""></div><div class=""choice-option"" id=""choice-option-2"" ><img src=""images/maybe_old_1.png"" id=""choice-option-img-2"" class=""choice-option-img"" stage=""1""></div><div class=""choice-option"" id=""choice-option-3"" ><img src=""images/maybe_new_1.png"" id=""choice-option-img-3"" class=""choice-option-img"" stage=""1""></div><div class=""choice-option"" id=""choice-option-4"" > <img src=""images/definitely_new_1.png"" id=""choice-option-img-4"" class=""choice-option-img"" stage=""1""></div></div>","","0","instructions","","",""
"learning-instructions","13","130072","0.0-9.0-0.4","7573","approach_avoid_sv1","""event"",""trial"",""time""
""fullscreenenter"",""1"",""1313""
","
","
","""event"",""trial"",""time""
""fullscreenenter"",""1"",""1313""
","
","","","","","","338.5","<p> You should use the 1, 2, 3, and 4 keys to make your responses.  </p><div class=""mem-choice-instructions-grid""><div class=""choice-option"" id=""choice-option-1"" ><img src=""images/definitely_old.png"" id=""choice-option-img-1"" class=""choice-option-img"" stage=""1""></div><div class=""choice-option"" id=""choice-option-2"" ><img src=""images/maybe_old.png"" id=""choice-option-img-2"" class=""choice-option-img"" stage=""1""></div><div class=""choice-option"" id=""choice-option-3"" ><img src=""images/maybe_new.png"" id=""choice-option-img-3"" class=""choice-option-img"" stage=""1""></div><div class=""choice-option"" id=""choice-option-4"" > <img src=""images/definitely_new.png"" id=""choice-option-img-4"" class=""choice-option-img"" stage=""1""></div></div>","","0","instructions","","",""
"learning-instructions","14","137711","0.0-9.0-0.5","7573","approach_avoid_sv1","""event"",""trial"",""time""
""fullscreenenter"",""1"",""1313""
","
","
","""event"",""trial"",""time""
""fullscreenenter"",""1"",""1313""
","
","","","","","","1307.8999998569489","<p> You will have 10 seconds to make each response.  </p><p>  Make sure to respond before time runs out! </p>","","0","instructions","","",""
"learning-instructions","15","145720","0.0-9.0-0.6","7573","approach_avoid_sv1","""event"",""trial"",""time""
""fullscreenenter"",""1"",""1313""
","
","
","""event"",""trial"",""time""
""fullscreenenter"",""1"",""1313""
","
","","","","","","937","<p> Today, you will see each image ONCE only.  </p><p>  That means none of the images will repeat. </p>","","0","instructions","","",""
"learning-instructions","16","158777","0.0-9.0-0.7","7573","approach_avoid_sv1","""event"",""trial"",""time""
""fullscreenenter"",""1"",""1313""
","
","
","""event"",""trial"",""time""
""fullscreenenter"",""1"",""1313""
","
","","","","","","383.60000014305115","<p> Before you play the real game, it is time to practice. </p><p>  Just like in the real game, some of the images in the practice will be ones you have seen before. </p><p>  Others will be entirely new. </p>","","0","instructions","","",""
"html-button-response","17","160364","0.0-10.0","7573","approach_avoid_sv1","""event"",""trial"",""time""
""fullscreenenter"",""1"",""1313""
","
","
","""event"",""trial"",""time""
""fullscreenenter"",""1"",""1313""
","
","","","","","","1481.2000000476837","<p> Ready to practice? </p><p> Remember, use the 1, 2, 3, and 4 keys to make your responses. </p>","0","","instructions","","",""
"html-keyboard-response","18","160968","0.0-11.0-0.0","7573","approach_avoid_sv1","""event"",""trial"",""time""
""fullscreenenter"",""1"",""1313""
","
","
","""event"",""trial"",""time""
""fullscreenenter"",""1"",""1313""
","
","","","","","","null","<div style=""font-size:60px;"">+</div>","null","","fixation","","",""
"memory-trial","19","164492","0.0-11.0-1.0","7573","approach_avoid_sv1","""event"",""trial"",""time""
""fullscreenenter"",""1"",""1313""
","
","
","""event"",""trial"",""time""
""fullscreenenter"",""1"",""1313""
","
","","","","","","2513.699999809265","images/ball3.png","","","practice","2","maybe_old",""
"html-keyboard-response","20","164993","0.0-11.0-0.1","7573","approach_avoid_sv1","""event"",""trial"",""time""
""fullscreenenter"",""1"",""1313""
","
","
","""event"",""trial"",""time""
""fullscreenenter"",""1"",""1313""
","
","","","","","","null","<div style=""font-size:60px;"">+</div>","null","","fixation","","",""
"memory-trial","21","167976","0.0-11.0-1.1","7573","approach_avoid_sv1","""event"",""trial"",""time""
""fullscreenenter"",""1"",""1313""
","
","
","""event"",""trial"",""time""
""fullscreenenter"",""1"",""1313""
","
","","","","","","1967.2000000476837","images/ball2.png","","","practice","1","definitely_old",""
"html-keyboard-response","22","168490","0.0-11.0-0.2","7573","approach_avoid_sv1","""event"",""trial"",""time""
""fullscreenenter"",""1"",""1313""
","
","
","""event"",""trial"",""time""
""fullscreenenter"",""1"",""1313""
","
","","","","","","null","<div style=""font-size:60px;"">+</div>","null","","fixation","","",""
"memory-trial","23","170516","0.0-11.0-1.2","7573","approach_avoid_sv1","""event"",""trial"",""time""
""fullscreenenter"",""1"",""1313""
","
","
","""event"",""trial"",""time""
""fullscreenenter"",""1"",""1313""
","
","","","","","","1011.0999999046326","images/ball1.png","","","practice","1","definitely_old",""
"html-keyboard-response","24","171023","0.0-11.0-0.3","7573","approach_avoid_sv1","""event"",""trial"",""time""
""fullscreenenter"",""1"",""1313""
","
","
","""event"",""trial"",""time""
""fullscreenenter"",""1"",""1313""
","
","","","","","","null","<div style=""font-size:60px;"">+</div>","null","","fixation","","",""
"memory-trial","25","173405","0.0-11.0-1.3","7573","approach_avoid_sv1","""event"",""trial"",""time""
""fullscreenenter"",""1"",""1313""
","
","
","""event"",""trial"",""time""
""fullscreenenter"",""1"",""1313""
","
","","","","","","1375","images/racket2.png","","","practice","1","definitely_old",""
"html-keyboard-response","26","173919","0.0-11.0-0.4","7573","approach_avoid_sv1","""event"",""trial"",""time""
""fullscreenenter"",""1"",""1313""
","
","
","""event"",""trial"",""time""
""fullscreenenter"",""1"",""1313""
","
","","","","","","null","<div style=""font-size:60px;"">+</div>","null","","fixation","","",""
"memory-trial","27","176632","0.0-11.0-1.4","7573","approach_avoid_sv1","""event"",""trial"",""time""
""fullscreenenter"",""1"",""1313""
","
","
","""event"",""trial"",""time""
""fullscreenenter"",""1"",""1313""
","
","","","","","","1709","images/racket3.png","","","practice","3","maybe_new",""
"html-keyboard-response","28","177146","0.0-11.0-0.5","7573","approach_avoid_sv1","""event"",""trial"",""time""
""fullscreenenter"",""1"",""1313""
","
","
","""event"",""trial"",""time""
""fullscreenenter"",""1"",""1313""
","
","","","","","","null","<div style=""font-size:60px;"">+</div>","null","","fixation","","",""
"memory-trial","29","179360","0.0-11.0-1.5","7573","approach_avoid_sv1","""event"",""trial"",""time""
""fullscreenenter"",""1"",""1313""
","
","
","""event"",""trial"",""time""
""fullscreenenter"",""1"",""1313""
","
","","","","","","1196.4000000953674","images/racket5.png","","","practice","3","maybe_new",""
"html-keyboard-response","30","179865","0.0-11.0-0.6","7573","approach_avoid_sv1","""event"",""trial"",""time""
""fullscreenenter"",""1"",""1313""
","
","
","""event"",""trial"",""time""
""fullscreenenter"",""1"",""1313""
","
","","","","","","null","<div style=""font-size:60px;"">+</div>","null","","fixation","","",""
"memory-trial","31","182602","0.0-11.0-1.6","7573","approach_avoid_sv1","""event"",""trial"",""time""
""fullscreenenter"",""1"",""1313""
","
","
","""event"",""trial"",""time""
""fullscreenenter"",""1"",""1313""
","
","","","","","","1723.2000000476837","images/ball5.png","","","practice","3","maybe_new",""
"html-keyboard-response","32","183108","0.0-11.0-0.7","7573","approach_avoid_sv1","""event"",""trial"",""time""
""fullscreenenter"",""1"",""1313""
","
","
","""event"",""trial"",""time""
""fullscreenenter"",""1"",""1313""
","
","","","","","","null","<div style=""font-size:60px;"">+</div>","null","","fixation","","",""
"memory-trial","33","185468","0.0-11.0-1.7","7573","approach_avoid_sv1","""event"",""trial"",""time""
""fullscreenenter"",""1"",""1313""
","
","
","""event"",""trial"",""time""
""fullscreenenter"",""1"",""1313""
","
","","","","","","1348.4000000953674","images/racket1.png","","","practice","2","maybe_old",""
"learning-instructions","34","196500","0.0-12.0-0.0","7573","approach_avoid_sv1","""event"",""trial"",""time""
""fullscreenenter"",""1"",""1313""
","
","
","""event"",""trial"",""time""
""fullscreenenter"",""1"",""1313""
","
","","","","","","3726.9000000953674","<p> Great! You have completed the practice. </p><p> Before you start, we're going to ask you a few questions about how the game works.  </p>","","0","instructions","","",""
"preload","35","215920","0.0-13.0","7573","approach_avoid_sv1","""event"",""trial"",""time""
""fullscreenenter"",""1"",""1313""
","
","
","""event"",""trial"",""time""
""fullscreenenter"",""1"",""1313""
","
","true","false","[]","[]","[]","","","","","","","",""
"comp-q","36","222339","0.0-14.0-0.0","7573","approach_avoid_sv1","""event"",""trial"",""time""
""fullscreenenter"",""1"",""1313""
","
","
","""event"",""trial"",""time""
""fullscreenenter"",""1"",""1313""
","
","","","","","","595.9000000953674","<p> <b> True or False? </b> </p><p> In this game, you will only see each image once. </p>","","0","comp_question","","","true"
"comp-q","37","229377","0.0-14.0-1.0","7573","approach_avoid_sv1","""event"",""trial"",""time""
""fullscreenenter"",""1"",""1313""
","
","
","""event"",""trial"",""time""
""fullscreenenter"",""1"",""1313""
","
","","","","","","683.9000000953674","<p> <b> That's right! </b> You will see many different images <i> one time each </i> in this game. </p>","","0","comp_answer","","",""
"comp-q","38","234767","0.0-15.0-0.0","7573","approach_avoid_sv1","""event"",""trial"",""time""
""fullscreenenter"",""1"",""1313""
","
","
","""event"",""trial"",""time""
""fullscreenenter"",""1"",""1313""
","
","","","","","","394.5","<p> <b> True or False? </b> </p><p> You should use the mouse and click to make your response. </p>","","1","comp_question","","","true"
"comp-q","39","241811","0.0-15.0-1.0","7573","approach_avoid_sv1","""event"",""trial"",""time""
""fullscreenenter"",""1"",""1313""
","
","
","""event"",""trial"",""time""
""fullscreenenter"",""1"",""1313""
","
","","","","","","538.1000001430511","<p><b> That's right! </b> You should use the '1', '2', '3', and '4' keys to make your response. </p>","","0","comp_answer","","",""
"comp-q","40","248004","0.0-16.0-0.0","7573","approach_avoid_sv1","""event"",""trial"",""time""
""fullscreenenter"",""1"",""1313""
","
","
","""event"",""trial"",""time""
""fullscreenenter"",""1"",""1313""
","
","","","","","","520.7999999523163","<p> <b> True or False? </b> </p><p> You will have as much time as you want to make each choice. </p>","","1","comp_question","","","true"
"comp-q","41","253559","0.0-16.0-1.0","7573","approach_avoid_sv1","""event"",""trial"",""time""
""fullscreenenter"",""1"",""1313""
","
","
","""event"",""trial"",""time""
""fullscreenenter"",""1"",""1313""
","
","","","","","","855.9000000953674","<p> <b> That's right! </b> You will only have 10 seconds to make each choice. </p>","","0","comp_answer","","",""
"learning-instructions","42","264905","0.0-17.0","7573","approach_avoid_sv1","""event"",""trial"",""time""
""fullscreenenter"",""1"",""1313""
","
","
","""event"",""trial"",""time""
""fullscreenenter"",""1"",""1313""
","
","","","","","","2672.0999999046326","<p> Great! You are now ready to begin the game. </p><p> Remember, use the 1, 2, 3, and 4 keys to make your responses. </p>","","0","instructions","","",""
"html-keyboard-response","43","265533","0.0-18.0-0.0","7573","approach_avoid_sv1","""event"",""trial"",""time""
""fullscreenenter"",""1"",""1313""
","
","
","""event"",""trial"",""time""
""fullscreenenter"",""1"",""1313""
","
","","","","","","null","<div style=""font-size:60px;"">+</div>","null","","fixation","","",""
"memory-trial","44","268516","0.0-18.0-1.0","7573","approach_avoid_sv1","""event"",""trial"",""time""
""fullscreenenter"",""1"",""1313""
","
","
","""event"",""trial"",""time""
""fullscreenenter"",""1"",""1313""
","
","","","","","","1970.9000000953674","images/chair2.png","","","memory_trial","1","definitely_old",""
"html-keyboard-response","45","269029","0.0-18.0-0.1","7573","approach_avoid_sv1","""event"",""trial"",""time""
""fullscreenenter"",""1"",""1313""
","
","
","""event"",""trial"",""time""
""fullscreenenter"",""1"",""1313""
","
","","","","","","null","<div style=""font-size:60px;"">+</div>","null","","fixation","","",""
"memory-trial","46","271645","0.0-18.0-1.1","7573","approach_avoid_sv1","""event"",""trial"",""time""
""fullscreenenter"",""1"",""1313""
","
","
","""event"",""trial"",""time""
""fullscreenenter"",""1"",""1313""
","
","","","","","","1612.2999999523163","images/bush1.png","","","memory_trial","2","maybe_old",""
"html-keyboard-response","47","272162","0.0-18.0-0.2","7573","approach_avoid_sv1","""event"",""trial"",""time""
""fullscreenenter"",""1"",""1313""
","
","
","""event"",""trial"",""time""
""fullscreenenter"",""1"",""1313""
","
","","","","","","null","<div style=""font-size:60px;"">+</div>","null","","fixation","","",""
"memory-trial","48","274140","0.0-18.0-1.2","7573","approach_avoid_sv1","""event"",""trial"",""time""
""fullscreenenter"",""1"",""1313""
","
","
","""event"",""trial"",""time""
""fullscreenenter"",""1"",""1313""
","
","","","","","","964.7000000476837","images/sheep6.png","","","memory_trial","1","definitely_old",""
"html-keyboard-response","49","274648","0.0-18.0-0.3","7573","approach_avoid_sv1","""event"",""trial"",""time""
""fullscreenenter"",""1"",""1313""
","
","
","""event"",""trial"",""time""
""fullscreenenter"",""1"",""1313""
","
","","","","","","null","<div style=""font-size:60px;"">+</div>","null","","fixation","","",""
"memory-trial","50","277046","0.0-18.0-1.3","7573","approach_avoid_sv1","""event"",""trial"",""time""
""fullscreenenter"",""1"",""1313""
","
","
","""event"",""trial"",""time""
""fullscreenenter"",""1"",""1313""
","
","","","","","","1394","images/truck1.png","","","memory_trial","3","maybe_new",""
"html-keyboard-response","51","277562","0.0-18.0-0.4","7573","approach_avoid_sv1","""event"",""trial"",""time""
""fullscreenenter"",""1"",""1313""
","
","
","""event"",""trial"",""time""
""fullscreenenter"",""1"",""1313""
","
","","","","","","null","<div style=""font-size:60px;"">+</div>","null","","fixation","","",""
"memory-trial","52","279968","0.0-18.0-1.4","7573","approach_avoid_sv1","""event"",""trial"",""time""
""fullscreenenter"",""1"",""1313""
","
","
","""event"",""trial"",""time""
""fullscreenenter"",""1"",""1313""
","
","","","","","","1403.9000000953674","images/plane1.png","","","memory_trial","4","definitely_new",""
"html-keyboard-response","53","280471","0.0-18.0-0.5","7573","approach_avoid_sv1","""event"",""trial"",""time""
""fullscreenenter"",""1"",""1313""
","
","
","""event"",""trial"",""time""
""fullscreenenter"",""1"",""1313""
","
","","","","","","null","<div style=""font-size:60px;"">+</div>","null","","fixation","","",""
"memory-trial","54","283072","0.0-18.0-1.5","7573","approach_avoid_sv1","""event"",""trial"",""time""
""fullscreenenter"",""1"",""1313""
","
","
","""event"",""trial"",""time""
""fullscreenenter"",""1"",""1313""
","
","","","","","","1585.2000000476837","images/orange2.png","","","memory_trial","2","maybe_old",""
"html-keyboard-response","55","283580","0.0-18.0-0.6","7573","approach_avoid_sv1","""event"",""trial"",""time""
""fullscreenenter"",""1"",""1313""
","
","
","""event"",""trial"",""time""
""fullscreenenter"",""1"",""1313""
","
","","","","","","null","<div style=""font-size:60px;"">+</div>","null","","fixation","","",""
"memory-trial","56","286822","0.0-18.0-1.6","7573","approach_avoid_sv1","""event"",""trial"",""time""
""fullscreenenter"",""1"",""1313""
","
","
","""event"",""trial"",""time""
""fullscreenenter"",""1"",""1313""
","
","","","","","","2233.199999809265","images/cow3.png","","","memory_trial","3","maybe_new",""
"html-keyboard-response","57","287335","0.0-18.0-0.7","7573","approach_avoid_sv1","""event"",""trial"",""time""
""fullscreenenter"",""1"",""1313""
","
","
","""event"",""trial"",""time""
""fullscreenenter"",""1"",""1313""
","
","","","","","","null","<div style=""font-size:60px;"">+</div>","null","","fixation","","",""
"memory-trial","58","290006","0.0-18.0-1.7","7573","approach_avoid_sv1","""event"",""trial"",""time""
""fullscreenenter"",""1"",""1313""
","
","
","""event"",""trial"",""time""
""fullscreenenter"",""1"",""1313""
","
","","","","","","1656.3999998569489","images/cat7.png","","","memory_trial","1","definitely_old",""
"html-keyboard-response","59","290520","0.0-18.0-0.8","7573","approach_avoid_sv1","""event"",""trial"",""time""
""fullscreenenter"",""1"",""1313""
","
","
","""event"",""trial"",""time""
""fullscreenenter"",""1"",""1313""
","
","","","","","","null","<div style=""font-size:60px;"">+</div>","null","","fixation","","",""
"memory-trial","60","293939","0.0-18.0-1.8","7573","approach_avoid_sv1","""event"",""trial"",""time""
""fullscreenenter"",""1"",""1313""
","
","
","""event"",""trial"",""time""
""fullscreenenter"",""1"",""1313""
","
","","","","","","2417.7999999523163","images/truck6.png","","","memory_trial","1","definitely_old",""
"html-keyboard-response","61","294440","0.0-18.0-0.9","7573","approach_avoid_sv1","""event"",""trial"",""time""
""fullscreenenter"",""1"",""1313""
","
","
","""event"",""trial"",""time""
""fullscreenenter"",""1"",""1313""
","
","","","","","","null","<div style=""font-size:60px;"">+</div>","null","","fixation","","",""
"memory-trial","62","296382","0.0-18.0-1.9","7573","approach_avoid_sv1","""event"",""trial"",""time""
""fullscreenenter"",""1"",""1313""
","
","
","""event"",""trial"",""time""
""fullscreenenter"",""1"",""1313""
","
","","","","","","940.2999999523163","images/bed4.png","","","memory_trial","1","definitely_old",""
"html-keyboard-response","63","296883","0.0-18.0-0.10","7573","approach_avoid_sv1","""event"",""trial"",""time""
""fullscreenenter"",""1"",""1313""
","
","
","""event"",""trial"",""time""
""fullscreenenter"",""1"",""1313""
","
","","","","","","null","<div style=""font-size:60px;"">+</div>","null","","fixation","","",""
"memory-trial","64","298731","0.0-18.0-1.10","7573","approach_avoid_sv1","""event"",""trial"",""time""
""fullscreenenter"",""1"",""1313""
","
","
","""event"",""trial"",""time""
""fullscreenenter"",""1"",""1313""
","
","","","","","","846.6000001430511","images/orange4.png","","","memory_trial","1","definitely_old",""
"html-keyboard-response","65","299232","0.0-18.0-0.11","7573","approach_avoid_sv1","""event"",""trial"",""time""
""fullscreenenter"",""1"",""1313""
","
","
","""event"",""trial"",""time""
""fullscreenenter"",""1"",""1313""
","
","","","","","","null","<div style=""font-size:60px;"">+</div>","null","","fixation","","",""
"memory-trial","66","303274","0.0-18.0-1.11","7573","approach_avoid_sv1","""event"",""trial"",""time""
""fullscreenenter"",""1"",""1313""
","
","
","""event"",""trial"",""time""
""fullscreenenter"",""1"",""1313""
","
","","","","","","3041.2999999523163","images/dog1.png","","","memory_trial","4","definitely_new",""
"html-keyboard-response","67","303776","0.0-18.0-0.12","7573","approach_avoid_sv1","""event"",""trial"",""time""
""fullscreenenter"",""1"",""1313""
","
","
","""event"",""trial"",""time""
""fullscreenenter"",""1"",""1313""
","
","","","","","","null","<div style=""font-size:60px;"">+</div>","null","","fixation","","",""
"memory-trial","68","306404","0.0-18.0-1.12","7573","approach_avoid_sv1","""event"",""trial"",""time""
""fullscreenenter"",""1"",""1313""
","
","
","""event"",""trial"",""time""
""fullscreenenter"",""1"",""1313""
","
","","","","","","1625.2999999523163","images/bush5.png","","","memory_trial","3","maybe_new",""
"html-keyboard-response","69","306905","0.0-18.0-0.13","7573","approach_avoid_sv1","""event"",""trial"",""time""
""fullscreenenter"",""1"",""1313""
","
","
","""event"",""trial"",""time""
""fullscreenenter"",""1"",""1313""
","
","","","","","","null","<div style=""font-size:60px;"">+</div>","null","","fixation","","",""
"memory-trial","70","310270","0.0-18.0-1.13","7573","approach_avoid_sv1","""event"",""trial"",""time""
""fullscreenenter"",""1"",""1313""
","
","
","""event"",""trial"",""time""
""fullscreenenter"",""1"",""1313""
","
","","","","","","2363.2999999523163","images/train6.png","","","memory_trial","2","maybe_old",""
"html-keyboard-response","71","310771","0.0-18.0-0.14","7573","approach_avoid_sv1","""event"",""trial"",""time""
""fullscreenenter"",""1"",""1313""
","
","
","""event"",""trial"",""time""
""fullscreenenter"",""1"",""1313""
","
","","","","","","null","<div style=""font-size:60px;"">+</div>","null","","fixation","","",""
"memory-trial","72","312780","0.0-18.0-1.14","7573","approach_avoid_sv1","""event"",""trial"",""time""
""fullscreenenter"",""1"",""1313""
","
","
","""event"",""trial"",""time""
""fullscreenenter"",""1"",""1313""
","
","","","","","","1006.5999999046326","images/orange6.png","","","memory_trial","1","definitely_old",""
"html-keyboard-response","73","313281","0.0-18.0-0.15","7573","approach_avoid_sv1","""event"",""trial"",""time""
""fullscreenenter"",""1"",""1313""
","
","
","""event"",""trial"",""time""
""fullscreenenter"",""1"",""1313""
","
","","","","","","null","<div style=""font-size:60px;"">+</div>","null","","fixation","","",""
"memory-trial","74","316092","0.0-18.0-1.15","7573","approach_avoid_sv1","""event"",""trial"",""time""
""fullscreenenter"",""1"",""1313""
","
","
","""event"",""trial"",""time""
""fullscreenenter"",""1"",""1313""
","
","","","","","","1809.5","images/bush8.png","","","memory_trial","2","maybe_old",""
"html-keyboard-response","75","316593","0.0-18.0-0.16","7573","approach_avoid_sv1","""event"",""trial"",""time""
""fullscreenenter"",""1"",""1313""
","
","
","""event"",""trial"",""time""
""fullscreenenter"",""1"",""1313""
","
","","","","","","null","<div style=""font-size:60px;"">+</div>","null","","fixation","","",""
"memory-trial","76","320659","0.0-18.0-1.16","7573","approach_avoid_sv1","""event"",""trial"",""time""
""fullscreenenter"",""1"",""1313""
","
","
","""event"",""trial"",""time""
""fullscreenenter"",""1"",""1313""
","
","","","","","","3064.600000143051","images/plane3.png","","","memory_trial","3","maybe_new",""
"html-keyboard-response","77","321161","0.0-18.0-0.17","7573","approach_avoid_sv1","""event"",""trial"",""time""
""fullscreenenter"",""1"",""1313""
","
","
","""event"",""trial"",""time""
""fullscreenenter"",""1"",""1313""
","
","","","","","","null","<div style=""font-size:60px;"">+</div>","null","","fixation","","",""
"memory-trial","78","323687","0.0-18.0-1.17","7573","approach_avoid_sv1","""event"",""trial"",""time""
""fullscreenenter"",""1"",""1313""
","
","
","""event"",""trial"",""time""
""fullscreenenter"",""1"",""1313""
","
","","","","","","1523.2999999523163","images/bed1.png","","","memory_trial","2","maybe_old",""
"html-keyboard-response","79","324188","0.0-18.0-0.18","7573","approach_avoid_sv1","""event"",""trial"",""time""
""fullscreenenter"",""1"",""1313""
","
","
","""event"",""trial"",""time""
""fullscreenenter"",""1"",""1313""
","
","","","","","","null","<div style=""font-size:60px;"">+</div>","null","","fixation","","",""
"memory-trial","80","326516","0.0-18.0-1.18","7573","approach_avoid_sv1","""event"",""trial"",""time""
""fullscreenenter"",""1"",""1313""
","
","
","""event"",""trial"",""time""
""fullscreenenter"",""1"",""1313""
","
","","","","","","1326.0999999046326","images/cat6.png","","","memory_trial","2","maybe_old",""
"html-keyboard-response","81","327018","0.0-18.0-0.19","7573","approach_avoid_sv1","""event"",""trial"",""time""
""fullscreenenter"",""1"",""1313""
","
","
","""event"",""trial"",""time""
""fullscreenenter"",""1"",""1313""
","
","","","","","","null","<div style=""font-size:60px;"">+</div>","null","","fixation","","",""
"memory-trial","82","329197","0.0-18.0-1.19","7573","approach_avoid_sv1","""event"",""trial"",""time""
""fullscreenenter"",""1"",""1313""
","
","
","""event"",""trial"",""time""
""fullscreenenter"",""1"",""1313""
","
","","","","","","1177.8999998569489","images/table7.png","","","memory_trial","3","maybe_new",""
"html-keyboard-response","83","329698","0.0-18.0-0.20","7573","approach_avoid_sv1","""event"",""trial"",""time""
""fullscreenenter"",""1"",""1313""
","
","
","""event"",""trial"",""time""
""fullscreenenter"",""1"",""1313""
","
","","","","","","null","<div style=""font-size:60px;"">+</div>","null","","fixation","","",""
"memory-trial","84","332087","0.0-18.0-1.20","7573","approach_avoid_sv1","""event"",""trial"",""time""
""fullscreenenter"",""1"",""1313""
","
","
","""event"",""trial"",""time""
""fullscreenenter"",""1"",""1313""
","
","","","","","","1387.2000000476837","images/truck7.png","","","memory_trial","2","maybe_old",""
"html-keyboard-response","85","332587","0.0-18.0-0.21","7573","approach_avoid_sv1","""event"",""trial"",""time""
""fullscreenenter"",""1"",""1313""
","
","
","""event"",""trial"",""time""
""fullscreenenter"",""1"",""1313""
","
","","","","","","null","<div style=""font-size:60px;"">+</div>","null","","fixation","","",""
"memory-trial","86","335722","0.0-18.0-1.21","7573","approach_avoid_sv1","""event"",""trial"",""time""
""fullscreenenter"",""1"",""1313""
","
","
","""event"",""trial"",""time""
""fullscreenenter"",""1"",""1313""
","
","","","","","","2133.7000000476837","images/banana4.png","","","memory_trial","3","maybe_new",""
"html-keyboard-response","87","336223","0.0-18.0-0.22","7573","approach_avoid_sv1","""event"",""trial"",""time""
""fullscreenenter"",""1"",""1313""
","
","
","""event"",""trial"",""time""
""fullscreenenter"",""1"",""1313""
","
","","","","","","null","<div style=""font-size:60px;"">+</div>","null","","fixation","","",""
"memory-trial","88","340559","0.0-18.0-1.22","7573","approach_avoid_sv1","""event"",""trial"",""time""
""fullscreenenter"",""1"",""1313""
","
","
","""event"",""trial"",""time""
""fullscreenenter"",""1"",""1313""
","
","","","","","","3334.199999809265","images/apple6.png","","","memory_trial","3","maybe_new",""
"html-keyboard-response","89","341060","0.0-18.0-0.23","7573","approach_avoid_sv1","""event"",""trial"",""time""
""fullscreenenter"",""1"",""1313""
","
","
","""event"",""trial"",""time""
""fullscreenenter"",""1"",""1313""
","
","","","","","","null","<div style=""font-size:60px;"">+</div>","null","","fixation","","",""
"memory-trial","90","343489","0.0-18.0-1.23","7573","approach_avoid_sv1","""event"",""trial"",""time""
""fullscreenenter"",""1"",""1313""
","
","
","""event"",""trial"",""time""
""fullscreenenter"",""1"",""1313""
","
","","","","","","1426.8999998569489","images/cat1.png","","","memory_trial","1","definitely_old",""
"html-keyboard-response","91","343990","0.0-18.0-0.24","7573","approach_avoid_sv1","""event"",""trial"",""time""
""fullscreenenter"",""1"",""1313""
","
","
","""event"",""trial"",""time""
""fullscreenenter"",""1"",""1313""
","
","","","","","","null","<div style=""font-size:60px;"">+</div>","null","","fixation","","",""
"memory-trial","92","346340","0.0-18.0-1.24","7573","approach_avoid_sv1","""event"",""trial"",""time""
""fullscreenenter"",""1"",""1313""
","
","
","""event"",""trial"",""time""
""fullscreenenter"",""1"",""1313""
","
","","","","","","1348.5","images/chair1.png","","","memory_trial","1","definitely_old",""
"html-keyboard-response","93","346841","0.0-18.0-0.25","7573","approach_avoid_sv1","""event"",""trial"",""time""
""fullscreenenter"",""1"",""1313""
","
","
","""event"",""trial"",""time""
""fullscreenenter"",""1"",""1313""
","
","","","","","","null","<div style=""font-size:60px;"">+</div>","null","","fixation","","",""
"memory-trial","94","349849","0.0-18.0-1.25","7573","approach_avoid_sv1","""event"",""trial"",""time""
""fullscreenenter"",""1"",""1313""
","
","
","""event"",""trial"",""time""
""fullscreenenter"",""1"",""1313""
","
","","","","","","2006.4000000953674","images/boat5.png","","","memory_trial","1","definitely_old",""
"html-keyboard-response","95","350350","0.0-18.0-0.26","7573","approach_avoid_sv1","""event"",""trial"",""time""
""fullscreenenter"",""1"",""1313""
","
","
","""event"",""trial"",""time""
""fullscreenenter"",""1"",""1313""
","
","","","","","","null","<div style=""font-size:60px;"">+</div>","null","","fixation","","",""
"memory-trial","96","353056","0.0-18.0-1.26","7573","approach_avoid_sv1","""event"",""trial"",""time""
""fullscreenenter"",""1"",""1313""
","
","
","""event"",""trial"",""time""
""fullscreenenter"",""1"",""1313""
","
","","","","","","1703.4000000953674","images/bush7.png","","","memory_trial","2","maybe_old",""
"html-keyboard-response","97","353557","0.0-18.0-0.27","7573","approach_avoid_sv1","""event"",""trial"",""time""
""fullscreenenter"",""1"",""1313""
","
","
","""event"",""trial"",""time""
""fullscreenenter"",""1"",""1313""
","
","","","","","","null","<div style=""font-size:60px;"">+</div>","null","","fixation","","",""
"memory-trial","98","355679","0.0-18.0-1.27","7573","approach_avoid_sv1","""event"",""trial"",""time""
""fullscreenenter"",""1"",""1313""
","
","
","""event"",""trial"",""time""
""fullscreenenter"",""1"",""1313""
","
","","","","","","1119.0999999046326","images/apple7.png","","","memory_trial","3","maybe_new",""
"html-keyboard-response","99","356180","0.0-18.0-0.28","7573","approach_avoid_sv1","""event"",""trial"",""time""
""fullscreenenter"",""1"",""1313""
","
","
","""event"",""trial"",""time""
""fullscreenenter"",""1"",""1313""
","
","","","","","","null","<div style=""font-size:60px;"">+</div>","null","","fixation","","",""
"memory-trial","100","358372","0.0-18.0-1.28","7573","approach_avoid_sv1","""event"",""trial"",""time""
""fullscreenenter"",""1"",""1313""
","
","
","""event"",""trial"",""time""
""fullscreenenter"",""1"",""1313""
","
","","","","","","1189.9000000953674","images/train4.png","","","memory_trial","1","definitely_old",""
"html-keyboard-response","101","358873","0.0-18.0-0.29","7573","approach_avoid_sv1","""event"",""trial"",""time""
""fullscreenenter"",""1"",""1313""
","
","
","""event"",""trial"",""time""
""fullscreenenter"",""1"",""1313""
","
","","","","","","null","<div style=""font-size:60px;"">+</div>","null","","fixation","","",""
"memory-trial","102","361257","0.0-18.0-1.29","7573","approach_avoid_sv1","""event"",""trial"",""time""
""fullscreenenter"",""1"",""1313""
","
","
","""event"",""trial"",""time""
""fullscreenenter"",""1"",""1313""
","
","","","","","","1381.4000000953674","images/apple5.png","","","memory_trial","3","maybe_new",""
"html-keyboard-response","103","361758","0.0-18.0-0.30","7573","approach_avoid_sv1","""event"",""trial"",""time""
""fullscreenenter"",""1"",""1313""
","
","
","""event"",""trial"",""time""
""fullscreenenter"",""1"",""1313""
","
","","","","","","null","<div style=""font-size:60px;"">+</div>","null","","fixation","","",""
"memory-trial","104","364352","0.0-18.0-1.30","7573","approach_avoid_sv1","""event"",""trial"",""time""
""fullscreenenter"",""1"",""1313""
","
","
","""event"",""trial"",""time""
""fullscreenenter"",""1"",""1313""
","
","","","","","","1592.2999999523163","images/tree8.png","","","memory_trial","1","definitely_old",""
"html-keyboard-response","105","364853","0.0-18.0-0.31","7573","approach_avoid_sv1","""event"",""trial"",""time""
""fullscreenenter"",""1"",""1313""
","
","
","""event"",""trial"",""time""
""fullscreenenter"",""1"",""1313""
","
","","","","","","null","<div style=""font-size:60px;"">+</div>","null","","fixation","","",""
"memory-trial","106","367135","0.0-18.0-1.31","7573","approach_avoid_sv1","""event"",""trial"",""time""
""fullscreenenter"",""1"",""1313""
","
","
","""event"",""trial"",""time""
""fullscreenenter"",""1"",""1313""
","
","","","","","","1281","images/bush4.png","","","memory_trial","1","definitely_old",""
"html-keyboard-response","107","367636","0.0-18.0-0.32","7573","approach_avoid_sv1","""event"",""trial"",""time""
""fullscreenenter"",""1"",""1313""
","
","
","""event"",""trial"",""time""
""fullscreenenter"",""1"",""1313""
","
","","","","","","null","<div style=""font-size:60px;"">+</div>","null","","fixation","","",""
"memory-trial","108","370353","0.0-18.0-1.32","7573","approach_avoid_sv1","""event"",""trial"",""time""
""fullscreenenter"",""1"",""1313""
","
","
","""event"",""trial"",""time""
""fullscreenenter"",""1"",""1313""
","
","","","","","","1715.2000000476837","images/train5.png","","","memory_trial","2","maybe_old",""
"html-keyboard-response","109","370853","0.0-18.0-0.33","7573","approach_avoid_sv1","""event"",""trial"",""time""
""fullscreenenter"",""1"",""1313""
","
","
","""event"",""trial"",""time""
""fullscreenenter"",""1"",""1313""
","
","","","","","","null","<div style=""font-size:60px;"">+</div>","null","","fixation","","",""
"memory-trial","110","373255","0.0-18.0-1.33","7573","approach_avoid_sv1","""event"",""trial"",""time""
""fullscreenenter"",""1"",""1313""
","
","
","""event"",""trial"",""time""
""fullscreenenter"",""1"",""1313""
","
","","","","","","1399.5","images/table5.png","","","memory_trial","3","maybe_new",""
"html-keyboard-response","111","373756","0.0-18.0-0.34","7573","approach_avoid_sv1","""event"",""trial"",""time""
""fullscreenenter"",""1"",""1313""
","
","
","""event"",""trial"",""time""
""fullscreenenter"",""1"",""1313""
","
","","","","","","null","<div style=""font-size:60px;"">+</div>","null","","fixation","","",""
"memory-trial","112","377020","0.0-18.0-1.34","7573","approach_avoid_sv1","""event"",""trial"",""time""
""fullscreenenter"",""1"",""1313""
","
","
","""event"",""trial"",""time""
""fullscreenenter"",""1"",""1313""
","
","","","","","","2263.0999999046326","images/flower4.png","","","memory_trial","3","maybe_new",""
"html-keyboard-response","113","377521","0.0-18.0-0.35","7573","approach_avoid_sv1","""event"",""trial"",""time""
""fullscreenenter"",""1"",""1313""
","
","
","""event"",""trial"",""time""
""fullscreenenter"",""1"",""1313""
","
","","","","","","null","<div style=""font-size:60px;"">+</div>","null","","fixation","","",""
"memory-trial","114","380116","0.0-18.0-1.35","7573","approach_avoid_sv1","""event"",""trial"",""time""
""fullscreenenter"",""1"",""1313""
","
","
","""event"",""trial"",""time""
""fullscreenenter"",""1"",""1313""
","
","","","","","","1593","images/bush6.png","","","memory_trial","1","definitely_old",""
"html-keyboard-response","115","380617","0.0-18.0-0.36","7573","approach_avoid_sv1","""event"",""trial"",""time""
""fullscreenenter"",""1"",""1313""
","
","
","""event"",""trial"",""time""
""fullscreenenter"",""1"",""1313""
","
","","","","","","null","<div style=""font-size:60px;"">+</div>","null","","fixation","","",""
"memory-trial","116","382686","0.0-18.0-1.36","7573","approach_avoid_sv1","""event"",""trial"",""time""
""fullscreenenter"",""1"",""1313""
","
","
","""event"",""trial"",""time""
""fullscreenenter"",""1"",""1313""
","
","","","","","","1066.4000000953674","images/truck3.png","","","memory_trial","1","definitely_old",""
"html-keyboard-response","117","383187","0.0-18.0-0.37","7573","approach_avoid_sv1","""event"",""trial"",""time""
""fullscreenenter"",""1"",""1313""
","
","
","""event"",""trial"",""time""
""fullscreenenter"",""1"",""1313""
","
","","","","","","null","<div style=""font-size:60px;"">+</div>","null","","fixation","","",""
"memory-trial","118","385373","0.0-18.0-1.37","7573","approach_avoid_sv1","""event"",""trial"",""time""
""fullscreenenter"",""1"",""1313""
","
","
","""event"",""trial"",""time""
""fullscreenenter"",""1"",""1313""
","
","","","","","","1184","images/sofa8.png","","","memory_trial","1","definitely_old",""
"html-keyboard-response","119","385874","0.0-18.0-0.38","7573","approach_avoid_sv1","""event"",""trial"",""time""
""fullscreenenter"",""1"",""1313""
","
","
","""event"",""trial"",""time""
""fullscreenenter"",""1"",""1313""
","
","","","","","","null","<div style=""font-size:60px;"">+</div>","null","","fixation","","",""
"memory-trial","120","388439","0.0-18.0-1.38","7573","approach_avoid_sv1","""event"",""trial"",""time""
""fullscreenenter"",""1"",""1313""
","
","
","""event"",""trial"",""time""
""fullscreenenter"",""1"",""1313""
","
","","","","","","1563.5","images/sheep5.png","","","memory_trial","2","maybe_old",""
"html-keyboard-response","121","388940","0.0-18.0-0.39","7573","approach_avoid_sv1","""event"",""trial"",""time""
""fullscreenenter"",""1"",""1313""
","
","
","""event"",""trial"",""time""
""fullscreenenter"",""1"",""1313""
","
","","","","","","null","<div style=""font-size:60px;"">+</div>","null","","fixation","","",""
"memory-trial","122","391187","0.0-18.0-1.39","7573","approach_avoid_sv1","""event"",""trial"",""time""
""fullscreenenter"",""1"",""1313""
","
","
","""event"",""trial"",""time""
""fullscreenenter"",""1"",""1313""
","
","","","","","","1246","images/orange5.png","","","memory_trial","2","maybe_old",""
"html-keyboard-response","123","391688","0.0-18.0-0.40","7573","approach_avoid_sv1","""event"",""trial"",""time""
""fullscreenenter"",""1"",""1313""
","
","
","""event"",""trial"",""time""
""fullscreenenter"",""1"",""1313""
","
","","","","","","null","<div style=""font-size:60px;"">+</div>","null","","fixation","","",""
"memory-trial","124","393982","0.0-18.0-1.40","7573","approach_avoid_sv1","""event"",""trial"",""time""
""fullscreenenter"",""1"",""1313""
","
","
","""event"",""trial"",""time""
""fullscreenenter"",""1"",""1313""
","
","","","","","","1292","images/rabbit3.png","","","memory_trial","1","definitely_old",""
"html-keyboard-response","125","394483","0.0-18.0-0.41","7573","approach_avoid_sv1","""event"",""trial"",""time""
""fullscreenenter"",""1"",""1313""
","
","
","""event"",""trial"",""time""
""fullscreenenter"",""1"",""1313""
","
","","","","","","null","<div style=""font-size:60px;"">+</div>","null","","fixation","","",""
"memory-trial","126","396711","0.0-18.0-1.41","7573","approach_avoid_sv1","""event"",""trial"",""time""
""fullscreenenter"",""1"",""1313""
","
","
","""event"",""trial"",""time""
""fullscreenenter"",""1"",""1313""
","
","","","","","","1226.0999999046326","images/goat8.png","","","memory_trial","2","maybe_old",""
"html-button-response","127","398638","0.0-18.0-2.41-0.41","7573","approach_avoid_sv1","""event"",""trial"",""time""
""fullscreenenter"",""1"",""1313""
","
","
","""event"",""trial"",""time""
""fullscreenenter"",""1"",""1313""
","
","","","","","","1926.7999999523163","<p> Take a break! </p><p> Click the button to continue. </p>","0","","break","","",""
"html-keyboard-response","128","399140","0.0-18.0-0.42","7573","approach_avoid_sv1","""event"",""trial"",""time""
""fullscreenenter"",""1"",""1313""
","
","
","""event"",""trial"",""time""
""fullscreenenter"",""1"",""1313""
","
","","","","","","null","<div style=""font-size:60px;"">+</div>","null","","fixation","","",""
"memory-trial","129","403021","0.0-18.0-1.42","7573","approach_avoid_sv1","""event"",""trial"",""time""
""fullscreenenter"",""1"",""1313""
","
","
","""event"",""trial"",""time""
""fullscreenenter"",""1"",""1313""
","
","","","","","","2879","images/chair4.png","","","memory_trial","2","maybe_old",""
"html-keyboard-response","130","403521","0.0-18.0-0.43","7573","approach_avoid_sv1","""event"",""trial"",""time""
""fullscreenenter"",""1"",""1313""
","
","
","""event"",""trial"",""time""
""fullscreenenter"",""1"",""1313""
","
","","","","","","null","<div style=""font-size:60px;"">+</div>","null","","fixation","","",""
"memory-trial","131","406716","0.0-18.0-1.43","7573","approach_avoid_sv1","""event"",""trial"",""time""
""fullscreenenter"",""1"",""1313""
","
","
","""event"",""trial"",""time""
""fullscreenenter"",""1"",""1313""
","
","","","","","","2192.600000143051","images/banana8.png","","","memory_trial","4","definitely_new",""
"html-keyboard-response","132","407218","0.0-18.0-0.44","7573","approach_avoid_sv1","""event"",""trial"",""time""
""fullscreenenter"",""1"",""1313""
","
","
","""event"",""trial"",""time""
""fullscreenenter"",""1"",""1313""
","
","","","","","","null","<div style=""font-size:60px;"">+</div>","null","","fixation","","",""
"memory-trial","133","409472","0.0-18.0-1.44","7573","approach_avoid_sv1","""event"",""trial"",""time""
""fullscreenenter"",""1"",""1313""
","
","
","""event"",""trial"",""time""
""fullscreenenter"",""1"",""1313""
","
","","","","","","1252.2999999523163","images/orange8.png","","","memory_trial","1","definitely_old",""
"html-keyboard-response","134","409972","0.0-18.0-0.45","7573","approach_avoid_sv1","""event"",""trial"",""time""
""fullscreenenter"",""1"",""1313""
","
","
","""event"",""trial"",""time""
""fullscreenenter"",""1"",""1313""
","
","","","","","","null","<div style=""font-size:60px;"">+</div>","null","","fixation","","",""
"memory-trial","135","412302","0.0-18.0-1.45","7573","approach_avoid_sv1","""event"",""trial"",""time""
""fullscreenenter"",""1"",""1313""
","
","
","""event"",""trial"",""time""
""fullscreenenter"",""1"",""1313""
","
","","","","","","1327.5999999046326","images/cactus1.png","","","memory_trial","1","definitely_old",""
"html-keyboard-response","136","412802","0.0-18.0-0.46","7573","approach_avoid_sv1","""event"",""trial"",""time""
""fullscreenenter"",""1"",""1313""
","
","
","""event"",""trial"",""time""
""fullscreenenter"",""1"",""1313""
","
","","","","","","null","<div style=""font-size:60px;"">+</div>","null","","fixation","","",""
"memory-trial","137","415228","0.0-18.0-1.46","7573","approach_avoid_sv1","""event"",""trial"",""time""
""fullscreenenter"",""1"",""1313""
","
","
","""event"",""trial"",""time""
""fullscreenenter"",""1"",""1313""
","
","","","","","","1424.6999998092651","images/cow1.png","","","memory_trial","3","maybe_new",""
"html-keyboard-response","138","415729","0.0-18.0-0.47","7573","approach_avoid_sv1","""event"",""trial"",""time""
""fullscreenenter"",""1"",""1313""
","
","
","""event"",""trial"",""time""
""fullscreenenter"",""1"",""1313""
","
","","","","","","null","<div style=""font-size:60px;"">+</div>","null","","fixation","","",""
"memory-trial","139","417808","0.0-18.0-1.47","7573","approach_avoid_sv1","""event"",""trial"",""time""
""fullscreenenter"",""1"",""1313""
","
","
","""event"",""trial"",""time""
""fullscreenenter"",""1"",""1313""
","
","","","","","","1077.2000000476837","images/table1.png","","","memory_trial","3","maybe_new",""
"html-keyboard-response","140","418309","0.0-18.0-0.48","7573","approach_avoid_sv1","""event"",""trial"",""time""
""fullscreenenter"",""1"",""1313""
","
","
","""event"",""trial"",""time""
""fullscreenenter"",""1"",""1313""
","
","","","","","","null","<div style=""font-size:60px;"">+</div>","null","","fixation","","",""
"memory-trial","141","420758","0.0-18.0-1.48","7573","approach_avoid_sv1","""event"",""trial"",""time""
""fullscreenenter"",""1"",""1313""
","
","
","""event"",""trial"",""time""
""fullscreenenter"",""1"",""1313""
","
","","","","","","1447.2000000476837","images/cat8.png","","","memory_trial","1","definitely_old",""
"html-keyboard-response","142","421258","0.0-18.0-0.49","7573","approach_avoid_sv1","""event"",""trial"",""time""
""fullscreenenter"",""1"",""1313""
","
","
","""event"",""trial"",""time""
""fullscreenenter"",""1"",""1313""
","
","","","","","","null","<div style=""font-size:60px;"">+</div>","null","","fixation","","",""
"memory-trial","143","424123","0.0-18.0-1.49","7573","approach_avoid_sv1","""event"",""trial"",""time""
""fullscreenenter"",""1"",""1313""
","
","
","""event"",""trial"",""time""
""fullscreenenter"",""1"",""1313""
","
","","","","","","1862.5","images/flower1.png","","","memory_trial","3","maybe_new",""
"html-keyboard-response","144","424625","0.0-18.0-0.50","7573","approach_avoid_sv1","""event"",""trial"",""time""
""fullscreenenter"",""1"",""1313""
","
","
","""event"",""trial"",""time""
""fullscreenenter"",""1"",""1313""
","
","","","","","","null","<div style=""font-size:60px;"">+</div>","null","","fixation","","",""
"memory-trial","145","427124","0.0-18.0-1.50","7573","approach_avoid_sv1","""event"",""trial"",""time""
""fullscreenenter"",""1"",""1313""
","
","
","""event"",""trial"",""time""
""fullscreenenter"",""1"",""1313""
","
","","","","","","1496.2000000476837","images/horse8.png","","","memory_trial","3","maybe_new",""
"html-keyboard-response","146","427625","0.0-18.0-0.51","7573","approach_avoid_sv1","""event"",""trial"",""time""
""fullscreenenter"",""1"",""1313""
","
","
","""event"",""trial"",""time""
""fullscreenenter"",""1"",""1313""
","
","","","","","","null","<div style=""font-size:60px;"">+</div>","null","","fixation","","",""
"memory-trial","147","431359","0.0-18.0-1.51","7573","approach_avoid_sv1","""event"",""trial"",""time""
""fullscreenenter"",""1"",""1313""
","
","
","""event"",""trial"",""time""
""fullscreenenter"",""1"",""1313""
","
","","","","","","2732.399999856949","images/table3.png","","","memory_trial","3","maybe_new",""
"html-keyboard-response","148","431861","0.0-18.0-0.52","7573","approach_avoid_sv1","""event"",""trial"",""time""
""fullscreenenter"",""1"",""1313""
","
","
","""event"",""trial"",""time""
""fullscreenenter"",""1"",""1313""
","
","","","","","","null","<div style=""font-size:60px;"">+</div>","null","","fixation","","",""
"memory-trial","149","434019","0.0-18.0-1.52","7573","approach_avoid_sv1","""event"",""trial"",""time""
""fullscreenenter"",""1"",""1313""
","
","
","""event"",""trial"",""time""
""fullscreenenter"",""1"",""1313""
","
","","","","","","1156.7999999523163","images/plane2.png","","","memory_trial","4","definitely_new",""
"html-keyboard-response","150","434520","0.0-18.0-0.53","7573","approach_avoid_sv1","""event"",""trial"",""time""
""fullscreenenter"",""1"",""1313""
","
","
","""event"",""trial"",""time""
""fullscreenenter"",""1"",""1313""
","
","","","","","","null","<div style=""font-size:60px;"">+</div>","null","","fixation","","",""
"memory-trial","151","436789","0.0-18.0-1.53","7573","approach_avoid_sv1","""event"",""trial"",""time""
""fullscreenenter"",""1"",""1313""
","
","
","""event"",""trial"",""time""
""fullscreenenter"",""1"",""1313""
","
","","","","","","1267.3999998569489","images/boat6.png","","","memory_trial","2","maybe_old",""
"html-keyboard-response","152","437289","0.0-18.0-0.54","7573","approach_avoid_sv1","""event"",""trial"",""time""
""fullscreenenter"",""1"",""1313""
","
","
","""event"",""trial"",""time""
""fullscreenenter"",""1"",""1313""
","
","","","","","","null","<div style=""font-size:60px;"">+</div>","null","","fixation","","",""
"memory-trial","153","439677","0.0-18.0-1.54","7573","approach_avoid_sv1","""event"",""trial"",""time""
""fullscreenenter"",""1"",""1313""
","
","
","""event"",""trial"",""time""
""fullscreenenter"",""1"",""1313""
","
","","","","","","1386.2000000476837","images/table4.png","","","memory_trial","3","maybe_new",""
"html-keyboard-response","154","440178","0.0-18.0-0.55","7573","approach_avoid_sv1","""event"",""trial"",""time""
""fullscreenenter"",""1"",""1313""
","
","
","""event"",""trial"",""time""
""fullscreenenter"",""1"",""1313""
","
","","","","","","null","<div style=""font-size:60px;"">+</div>","null","","fixation","","",""
"memory-trial","155","442847","0.0-18.0-1.55","7573","approach_avoid_sv1","""event"",""trial"",""time""
""fullscreenenter"",""1"",""1313""
","
","
","""event"",""trial"",""time""
""fullscreenenter"",""1"",""1313""
","
","","","","","","1666.7000000476837","images/sheep2.png","","","memory_trial","2","maybe_old",""
"html-keyboard-response","156","443347","0.0-18.0-0.56","7573","approach_avoid_sv1","""event"",""trial"",""time""
""fullscreenenter"",""1"",""1313""
","
","
","""event"",""trial"",""time""
""fullscreenenter"",""1"",""1313""
","
","","","","","","null","<div style=""font-size:60px;"">+</div>","null","","fixation","","",""
"memory-trial","157","445813","0.0-18.0-1.56","7573","approach_avoid_sv1","""event"",""trial"",""time""
""fullscreenenter"",""1"",""1313""
","
","
","""event"",""trial"",""time""
""fullscreenenter"",""1"",""1313""
","
","","","","","","1464.0999999046326","images/dog2.png","","","memory_trial","3","maybe_new",""
"html-keyboard-response","158","446313","0.0-18.0-0.57","7573","approach_avoid_sv1","""event"",""trial"",""time""
""fullscreenenter"",""1"",""1313""
","
","
","""event"",""trial"",""time""
""fullscreenenter"",""1"",""1313""
","
","","","","","","null","<div style=""font-size:60px;"">+</div>","null","","fixation","","",""
"memory-trial","159","448555","0.0-18.0-1.57","7573","approach_avoid_sv1","""event"",""trial"",""time""
""fullscreenenter"",""1"",""1313""
","
","
","""event"",""trial"",""time""
""fullscreenenter"",""1"",""1313""
","
","","","","","","1240","images/cactus4.png","","","memory_trial","2","maybe_old",""
"html-keyboard-response","160","449056","0.0-18.0-0.58","7573","approach_avoid_sv1","""event"",""trial"",""time""
""fullscreenenter"",""1"",""1313""
","
","
","""event"",""trial"",""time""
""fullscreenenter"",""1"",""1313""
","
","","","","","","null","<div style=""font-size:60px;"">+</div>","null","","fixation","","",""
"memory-trial","161","452525","0.0-18.0-1.58","7573","approach_avoid_sv1","""event"",""trial"",""time""
""fullscreenenter"",""1"",""1313""
","
","
","""event"",""trial"",""time""
""fullscreenenter"",""1"",""1313""
","
","","","","","","2467.5999999046326","images/sofa5.png","","","memory_trial","2","maybe_old",""
"html-keyboard-response","162","453026","0.0-18.0-0.59","7573","approach_avoid_sv1","""event"",""trial"",""time""
""fullscreenenter"",""1"",""1313""
","
","
","""event"",""trial"",""time""
""fullscreenenter"",""1"",""1313""
","
","","","","","","null","<div style=""font-size:60px;"">+</div>","null","","fixation","","",""
"memory-trial","163","455391","0.0-18.0-1.59","7573","approach_avoid_sv1","""event"",""trial"",""time""
""fullscreenenter"",""1"",""1313""
","
","
","""event"",""trial"",""time""
""fullscreenenter"",""1"",""1313""
","
","","","","","","1363.5","images/dog7.png","","","memory_trial","4","definitely_new",""
"html-keyboard-response","164","455892","0.0-18.0-0.60","7573","approach_avoid_sv1","""event"",""trial"",""time""
""fullscreenenter"",""1"",""1313""
","
","
","""event"",""trial"",""time""
""fullscreenenter"",""1"",""1313""
","
","","","","","","null","<div style=""font-size:60px;"">+</div>","null","","fixation","","",""
"memory-trial","165","458426","0.0-18.0-1.60","7573","approach_avoid_sv1","""event"",""trial"",""time""
""fullscreenenter"",""1"",""1313""
","
","
","""event"",""trial"",""time""
""fullscreenenter"",""1"",""1313""
","
","","","","","","1532","images/goat1.png","","","memory_trial","2","maybe_old",""
"html-keyboard-response","166","458927","0.0-18.0-0.61","7573","approach_avoid_sv1","""event"",""trial"",""time""
""fullscreenenter"",""1"",""1313""
","
","
","""event"",""trial"",""time""
""fullscreenenter"",""1"",""1313""
","
","","","","","","null","<div style=""font-size:60px;"">+</div>","null","","fixation","","",""
"memory-trial","167","461249","0.0-18.0-1.61","7573","approach_avoid_sv1","""event"",""trial"",""time""
""fullscreenenter"",""1"",""1313""
","
","
","""event"",""trial"",""time""
""fullscreenenter"",""1"",""1313""
","
","","","","","","1321.2000000476837","images/boat7.png","","","memory_trial","3","maybe_new",""
"html-keyboard-response","168","461750","0.0-18.0-0.62","7573","approach_avoid_sv1","""event"",""trial"",""time""
""fullscreenenter"",""1"",""1313""
","
","
","""event"",""trial"",""time""
""fullscreenenter"",""1"",""1313""
","
","","","","","","null","<div style=""font-size:60px;"">+</div>","null","","fixation","","",""
"memory-trial","169","464429","0.0-18.0-1.62","7573","approach_avoid_sv1","""event"",""trial"",""time""
""fullscreenenter"",""1"",""1313""
","
","
","""event"",""trial"",""time""
""fullscreenenter"",""1"",""1313""
","
","","","","","","1677.2000000476837","images/rabbit4.png","","","memory_trial","2","maybe_old",""
"html-keyboard-response","170","464929","0.0-18.0-0.63","7573","approach_avoid_sv1","""event"",""trial"",""time""
""fullscreenenter"",""1"",""1313""
","
","
","""event"",""trial"",""time""
""fullscreenenter"",""1"",""1313""
","
","","","","","","null","<div style=""font-size:60px;"">+</div>","null","","fixation","","",""
"memory-trial","171","467442","0.0-18.0-1.63","7573","approach_avoid_sv1","""event"",""trial"",""time""
""fullscreenenter"",""1"",""1313""
","
","
","""event"",""trial"",""time""
""fullscreenenter"",""1"",""1313""
","
","","","","","","1502.9000000953674","images/straw2.png","","","memory_trial","2","maybe_old",""
"html-keyboard-response","172","467942","0.0-18.0-0.64","7573","approach_avoid_sv1","""event"",""trial"",""time""
""fullscreenenter"",""1"",""1313""
","
","
","""event"",""trial"",""time""
""fullscreenenter"",""1"",""1313""
","
","","","","","","null","<div style=""font-size:60px;"">+</div>","null","","fixation","","",""
"memory-trial","173","470551","0.0-18.0-1.64","7573","approach_avoid_sv1","""event"",""trial"",""time""
""fullscreenenter"",""1"",""1313""
","
","
","""event"",""trial"",""time""
""fullscreenenter"",""1"",""1313""
","
","","","","","","1606.5","images/sofa3.png","","","memory_trial","1","definitely_old",""
"html-keyboard-response","174","471052","0.0-18.0-0.65","7573","approach_avoid_sv1","""event"",""trial"",""time""
""fullscreenenter"",""1"",""1313""
","
","
","""event"",""trial"",""time""
""fullscreenenter"",""1"",""1313""
","
","","","","","","null","<div style=""font-size:60px;"">+</div>","null","","fixation","","",""
"memory-trial","175","473415","0.0-18.0-1.65","7573","approach_avoid_sv1","""event"",""trial"",""time""
""fullscreenenter"",""1"",""1313""
","
","
","""event"",""trial"",""time""
""fullscreenenter"",""1"",""1313""
","
","","","","","","1360.5","images/rodent2.png","","","memory_trial","1","definitely_old",""
"html-keyboard-response","176","473916","0.0-18.0-0.66","7573","approach_avoid_sv1","""event"",""trial"",""time""
""fullscreenenter"",""1"",""1313""
","
","
","""event"",""trial"",""time""
""fullscreenenter"",""1"",""1313""
","
","","","","","","null","<div style=""font-size:60px;"">+</div>","null","","fixation","","",""
"memory-trial","177","477801","0.0-18.0-1.66","7573","approach_avoid_sv1","""event"",""trial"",""time""
""fullscreenenter"",""1"",""1313""
","
","
","""event"",""trial"",""time""
""fullscreenenter"",""1"",""1313""
","
","","","","","","2883.7000000476837","images/cow6.png","","","memory_trial","4","definitely_new",""
"html-keyboard-response","178","478302","0.0-18.0-0.67","7573","approach_avoid_sv1","""event"",""trial"",""time""
""fullscreenenter"",""1"",""1313""
","
","
","""event"",""trial"",""time""
""fullscreenenter"",""1"",""1313""
","
","","","","","","null","<div style=""font-size:60px;"">+</div>","null","","fixation","","",""
"memory-trial","179","480303","0.0-18.0-1.67","7573","approach_avoid_sv1","""event"",""trial"",""time""
""fullscreenenter"",""1"",""1313""
","
","
","""event"",""trial"",""time""
""fullscreenenter"",""1"",""1313""
","
","","","","","","1000.0999999046326","images/train8.png","","","memory_trial","1","definitely_old",""
"html-keyboard-response","180","480805","0.0-18.0-0.68","7573","approach_avoid_sv1","""event"",""trial"",""time""
""fullscreenenter"",""1"",""1313""
","
","
","""event"",""trial"",""time""
""fullscreenenter"",""1"",""1313""
","
","","","","","","null","<div style=""font-size:60px;"">+</div>","null","","fixation","","",""
"memory-trial","181","484871","0.0-18.0-1.68","7573","approach_avoid_sv1","""event"",""trial"",""time""
""fullscreenenter"",""1"",""1313""
","
","
","""event"",""trial"",""time""
""fullscreenenter"",""1"",""1313""
","
","","","","","","3064.2000000476837","images/horse1.png","","","memory_trial","3","maybe_new",""
"html-keyboard-response","182","485372","0.0-18.0-0.69","7573","approach_avoid_sv1","""event"",""trial"",""time""
""fullscreenenter"",""1"",""1313""
","
","
","""event"",""trial"",""time""
""fullscreenenter"",""1"",""1313""
","
","","","","","","null","<div style=""font-size:60px;"">+</div>","null","","fixation","","",""
"memory-trial","183","487500","0.0-18.0-1.69","7573","approach_avoid_sv1","""event"",""trial"",""time""
""fullscreenenter"",""1"",""1313""
","
","
","""event"",""trial"",""time""
""fullscreenenter"",""1"",""1313""
","
","","","","","","1126.3000001907349","images/sofa7.png","","","memory_trial","2","maybe_old",""
"html-keyboard-response","184","488016","0.0-18.0-0.70","7573","approach_avoid_sv1","""event"",""trial"",""time""
""fullscreenenter"",""1"",""1313""
","
","
","""event"",""trial"",""time""
""fullscreenenter"",""1"",""1313""
","
","","","","","","null","<div style=""font-size:60px;"">+</div>","null","","fixation","","",""
"memory-trial","185","490099","0.0-18.0-1.70","7573","approach_avoid_sv1","""event"",""trial"",""time""
""fullscreenenter"",""1"",""1313""
","
","
","""event"",""trial"",""time""
""fullscreenenter"",""1"",""1313""
","
","","","","","","1080.7000000476837","images/rodent7.png","","","memory_trial","2","maybe_old",""
"html-keyboard-response","186","490599","0.0-18.0-0.71","7573","approach_avoid_sv1","""event"",""trial"",""time""
""fullscreenenter"",""1"",""1313""
","
","
","""event"",""trial"",""time""
""fullscreenenter"",""1"",""1313""
","
","","","","","","null","<div style=""font-size:60px;"">+</div>","null","","fixation","","",""
"memory-trial","187","493655","0.0-18.0-1.71","7573","approach_avoid_sv1","""event"",""trial"",""time""
""fullscreenenter"",""1"",""1313""
","
","
","""event"",""trial"",""time""
""fullscreenenter"",""1"",""1313""
","
","","","","","","2053.600000143051","images/cow8.png","","","memory_trial","3","maybe_new",""
"html-keyboard-response","188","494158","0.0-18.0-0.72","7573","approach_avoid_sv1","""event"",""trial"",""time""
""fullscreenenter"",""1"",""1313""
","
","
","""event"",""trial"",""time""
""fullscreenenter"",""1"",""1313""
","
","","","","","","null","<div style=""font-size:60px;"">+</div>","null","","fixation","","",""
"memory-trial","189","496425","0.0-18.0-1.72","7573","approach_avoid_sv1","""event"",""trial"",""time""
""fullscreenenter"",""1"",""1313""
","
","
","""event"",""trial"",""time""
""fullscreenenter"",""1"",""1313""
","
","","","","","","1265","images/truck8.png","","","memory_trial","1","definitely_old",""
"html-keyboard-response","190","496926","0.0-18.0-0.73","7573","approach_avoid_sv1","""event"",""trial"",""time""
""fullscreenenter"",""1"",""1313""
","
","
","""event"",""trial"",""time""
""fullscreenenter"",""1"",""1313""
","
","","","","","","null","<div style=""font-size:60px;"">+</div>","null","","fixation","","",""
"memory-trial","191","499180","0.0-18.0-1.73","7573","approach_avoid_sv1","""event"",""trial"",""time""
""fullscreenenter"",""1"",""1313""
","
","
","""event"",""trial"",""time""
""fullscreenenter"",""1"",""1313""
","
","","","","","","1251.7999999523163","images/horse2.png","","","memory_trial","1","definitely_old",""
"html-keyboard-response","192","499680","0.0-18.0-0.74","7573","approach_avoid_sv1","""event"",""trial"",""time""
""fullscreenenter"",""1"",""1313""
","
","
","""event"",""trial"",""time""
""fullscreenenter"",""1"",""1313""
","
","","","","","","null","<div style=""font-size:60px;"">+</div>","null","","fixation","","",""
"memory-trial","193","501553","0.0-18.0-1.74","7573","approach_avoid_sv1","""event"",""trial"",""time""
""fullscreenenter"",""1"",""1313""
","
","
","""event"",""trial"",""time""
""fullscreenenter"",""1"",""1313""
","
","","","","","","870.2999999523163","images/sheep7.png","","","memory_trial","1","definitely_old",""
"html-keyboard-response","194","502053","0.0-18.0-0.75","7573","approach_avoid_sv1","""event"",""trial"",""time""
""fullscreenenter"",""1"",""1313""
","
","
","""event"",""trial"",""time""
""fullscreenenter"",""1"",""1313""
","
","","","","","","null","<div style=""font-size:60px;"">+</div>","null","","fixation","","",""
"memory-trial","195","504398","0.0-18.0-1.75","7573","approach_avoid_sv1","""event"",""trial"",""time""
""fullscreenenter"",""1"",""1313""
","
","
","""event"",""trial"",""time""
""fullscreenenter"",""1"",""1313""
","
","","","","","","1341.5","images/cat3.png","","","memory_trial","1","definitely_old",""
"html-keyboard-response","196","504899","0.0-18.0-0.76","7573","approach_avoid_sv1","""event"",""trial"",""time""
""fullscreenenter"",""1"",""1313""
","
","
","""event"",""trial"",""time""
""fullscreenenter"",""1"",""1313""
","
","","","","","","null","<div style=""font-size:60px;"">+</div>","null","","fixation","","",""
"memory-trial","197","507262","0.0-18.0-1.76","7573","approach_avoid_sv1","""event"",""trial"",""time""
""fullscreenenter"",""1"",""1313""
","
","
","""event"",""trial"",""time""
""fullscreenenter"",""1"",""1313""
","
","","","","","","1361.8999998569489","images/table8.png","","","memory_trial","3","maybe_new",""
"html-keyboard-response","198","507764","0.0-18.0-0.77","7573","approach_avoid_sv1","""event"",""trial"",""time""
""fullscreenenter"",""1"",""1313""
","
","
","""event"",""trial"",""time""
""fullscreenenter"",""1"",""1313""
","
","","","","","","null","<div style=""font-size:60px;"">+</div>","null","","fixation","","",""
"memory-trial","199","509870","0.0-18.0-1.77","7573","approach_avoid_sv1","""event"",""trial"",""time""
""fullscreenenter"",""1"",""1313""
","
","
","""event"",""trial"",""time""
""fullscreenenter"",""1"",""1313""
","
","","","","","","1104.8999998569489","images/bed5.png","","","memory_trial","1","definitely_old",""
"html-keyboard-response","200","510371","0.0-18.0-0.78","7573","approach_avoid_sv1","""event"",""trial"",""time""
""fullscreenenter"",""1"",""1313""
","
","
","""event"",""trial"",""time""
""fullscreenenter"",""1"",""1313""
","
","","","","","","null","<div style=""font-size:60px;"">+</div>","null","","fixation","","",""
"memory-trial","201","512297","0.0-18.0-1.78","7573","approach_avoid_sv1","""event"",""trial"",""time""
""fullscreenenter"",""1"",""1313""
","
","
","""event"",""trial"",""time""
""fullscreenenter"",""1"",""1313""
","
","","","","","","923.5999999046326","images/plane8.png","","","memory_trial","4","definitely_new",""
"html-keyboard-response","202","512799","0.0-18.0-0.79","7573","approach_avoid_sv1","""event"",""trial"",""time""
""fullscreenenter"",""1"",""1313""
","
","
","""event"",""trial"",""time""
""fullscreenenter"",""1"",""1313""
","
","","","","","","null","<div style=""font-size:60px;"">+</div>","null","","fixation","","",""
"memory-trial","203","516241","0.0-18.0-1.79","7573","approach_avoid_sv1","""event"",""trial"",""time""
""fullscreenenter"",""1"",""1313""
","
","
","""event"",""trial"",""time""
""fullscreenenter"",""1"",""1313""
","
","","","","","","2441","images/goat4.png","","","memory_trial","1","definitely_old",""
"html-keyboard-response","204","516742","0.0-18.0-0.80","7573","approach_avoid_sv1","""event"",""trial"",""time""
""fullscreenenter"",""1"",""1313""
","
","
","""event"",""trial"",""time""
""fullscreenenter"",""1"",""1313""
","
","","","","","","null","<div style=""font-size:60px;"">+</div>","null","","fixation","","",""
"memory-trial","205","519532","0.0-18.0-1.80","7573","approach_avoid_sv1","""event"",""trial"",""time""
""fullscreenenter"",""1"",""1313""
","
","
","""event"",""trial"",""time""
""fullscreenenter"",""1"",""1313""
","
","","","","","","1788","images/straw8.png","","","memory_trial","1","definitely_old",""
"html-keyboard-response","206","520033","0.0-18.0-0.81","7573","approach_avoid_sv1","""event"",""trial"",""time""
""fullscreenenter"",""1"",""1313""
","
","
","""event"",""trial"",""time""
""fullscreenenter"",""1"",""1313""
","
","","","","","","null","<div style=""font-size:60px;"">+</div>","null","","fixation","","",""
"memory-trial","207","522465","0.0-18.0-1.81","7573","approach_avoid_sv1","""event"",""trial"",""time""
""fullscreenenter"",""1"",""1313""
","
","
","""event"",""trial"",""time""
""fullscreenenter"",""1"",""1313""
","
","","","","","","1428.5999999046326","images/tree2.png","","","memory_trial","2","maybe_old",""
"html-keyboard-response","208","522966","0.0-18.0-0.82","7573","approach_avoid_sv1","""event"",""trial"",""time""
""fullscreenenter"",""1"",""1313""
","
","
","""event"",""trial"",""time""
""fullscreenenter"",""1"",""1313""
","
","","","","","","null","<div style=""font-size:60px;"">+</div>","null","","fixation","","",""
"memory-trial","209","525440","0.0-18.0-1.82","7573","approach_avoid_sv1","""event"",""trial"",""time""
""fullscreenenter"",""1"",""1313""
","
","
","""event"",""trial"",""time""
""fullscreenenter"",""1"",""1313""
","
","","","","","","1472.5","images/banana3.png","","","memory_trial","1","definitely_old",""
"html-keyboard-response","210","525940","0.0-18.0-0.83","7573","approach_avoid_sv1","""event"",""trial"",""time""
""fullscreenenter"",""1"",""1313""
","
","
","""event"",""trial"",""time""
""fullscreenenter"",""1"",""1313""
","
","","","","","","null","<div style=""font-size:60px;"">+</div>","null","","fixation","","",""
"memory-trial","211","528228","0.0-18.0-1.83","7573","approach_avoid_sv1","""event"",""trial"",""time""
""fullscreenenter"",""1"",""1313""
","
","
","""event"",""trial"",""time""
""fullscreenenter"",""1"",""1313""
","
","","","","","","1286.1000001430511","images/straw3.png","","","memory_trial","2","maybe_old",""
"html-keyboard-response","212","528729","0.0-18.0-0.84","7573","approach_avoid_sv1","""event"",""trial"",""time""
""fullscreenenter"",""1"",""1313""
","
","
","""event"",""trial"",""time""
""fullscreenenter"",""1"",""1313""
","
","","","","","","null","<div style=""font-size:60px;"">+</div>","null","","fixation","","",""
"memory-trial","213","531138","0.0-18.0-1.84","7573","approach_avoid_sv1","""event"",""trial"",""time""
""fullscreenenter"",""1"",""1313""
","
","
","""event"",""trial"",""time""
""fullscreenenter"",""1"",""1313""
","
","","","","","","1407.2999999523163","images/dog8.png","","","memory_trial","4","definitely_new",""
"html-keyboard-response","214","531639","0.0-18.0-0.85","7573","approach_avoid_sv1","""event"",""trial"",""time""
""fullscreenenter"",""1"",""1313""
","
","
","""event"",""trial"",""time""
""fullscreenenter"",""1"",""1313""
","
","","","","","","null","<div style=""font-size:60px;"">+</div>","null","","fixation","","",""
"memory-trial","215","534463","0.0-18.0-1.85","7573","approach_avoid_sv1","""event"",""trial"",""time""
""fullscreenenter"",""1"",""1313""
","
","
","""event"",""trial"",""time""
""fullscreenenter"",""1"",""1313""
","
","","","","","","1821.6999998092651","images/bed6.png","","","memory_trial","2","maybe_old",""
"html-keyboard-response","216","534964","0.0-18.0-0.86","7573","approach_avoid_sv1","""event"",""trial"",""time""
""fullscreenenter"",""1"",""1313""
","
","
","""event"",""trial"",""time""
""fullscreenenter"",""1"",""1313""
","
","","","","","","null","<div style=""font-size:60px;"">+</div>","null","","fixation","","",""
"memory-trial","217","537139","0.0-18.0-1.86","7573","approach_avoid_sv1","""event"",""trial"",""time""
""fullscreenenter"",""1"",""1313""
","
","
","""event"",""trial"",""time""
""fullscreenenter"",""1"",""1313""
","
","","","","","","1172.9000000953674","images/cow4.png","","","memory_trial","3","maybe_new",""
"html-keyboard-response","218","537640","0.0-18.0-0.87","7573","approach_avoid_sv1","""event"",""trial"",""time""
""fullscreenenter"",""1"",""1313""
","
","
","""event"",""trial"",""time""
""fullscreenenter"",""1"",""1313""
","
","","","","","","null","<div style=""font-size:60px;"">+</div>","null","","fixation","","",""
"memory-trial","219","539626","0.0-18.0-1.87","7573","approach_avoid_sv1","""event"",""trial"",""time""
""fullscreenenter"",""1"",""1313""
","
","
","""event"",""trial"",""time""
""fullscreenenter"",""1"",""1313""
","
","","","","","","983.8000001907349","images/goat2.png","","","memory_trial","1","definitely_old",""
"html-keyboard-response","220","540128","0.0-18.0-0.88","7573","approach_avoid_sv1","""event"",""trial"",""time""
""fullscreenenter"",""1"",""1313""
","
","
","""event"",""trial"",""time""
""fullscreenenter"",""1"",""1313""
","
","","","","","","null","<div style=""font-size:60px;"">+</div>","null","","fixation","","",""
"memory-trial","221","543023","0.0-18.0-1.88","7573","approach_avoid_sv1","""event"",""trial"",""time""
""fullscreenenter"",""1"",""1313""
","
","
","""event"",""trial"",""time""
""fullscreenenter"",""1"",""1313""
","
","","","","","","1892.7999999523163","images/cat5.png","","","memory_trial","3","maybe_new",""
"html-keyboard-response","222","543524","0.0-18.0-0.89","7573","approach_avoid_sv1","""event"",""trial"",""time""
""fullscreenenter"",""1"",""1313""
","
","
","""event"",""trial"",""time""
""fullscreenenter"",""1"",""1313""
","
","","","","","","null","<div style=""font-size:60px;"">+</div>","null","","fixation","","",""
"memory-trial","223","545511","0.0-18.0-1.89","7573","approach_avoid_sv1","""event"",""trial"",""time""
""fullscreenenter"",""1"",""1313""
","
","
","""event"",""trial"",""time""
""fullscreenenter"",""1"",""1313""
","
","","","","","","985.3999998569489","images/train1.png","","","memory_trial","1","definitely_old",""
"html-keyboard-response","224","546012","0.0-18.0-0.90","7573","approach_avoid_sv1","""event"",""trial"",""time""
""fullscreenenter"",""1"",""1313""
","
","
","""event"",""trial"",""time""
""fullscreenenter"",""1"",""1313""
","
","","","","","","null","<div style=""font-size:60px;"">+</div>","null","","fixation","","",""
"memory-trial","225","548752","0.0-18.0-1.90","7573","approach_avoid_sv1","""event"",""trial"",""time""
""fullscreenenter"",""1"",""1313""
","
","
","""event"",""trial"",""time""
""fullscreenenter"",""1"",""1313""
","
","","","","","","1738","images/boat2.png","","","memory_trial","3","maybe_new",""
"html-keyboard-response","226","549253","0.0-18.0-0.91","7573","approach_avoid_sv1","""event"",""trial"",""time""
""fullscreenenter"",""1"",""1313""
","
","
","""event"",""trial"",""time""
""fullscreenenter"",""1"",""1313""
","
","","","","","","null","<div style=""font-size:60px;"">+</div>","null","","fixation","","",""
"memory-trial","227","551525","0.0-18.0-1.91","7573","approach_avoid_sv1","""event"",""trial"",""time""
""fullscreenenter"",""1"",""1313""
","
","
","""event"",""trial"",""time""
""fullscreenenter"",""1"",""1313""
","
","","","","","","1271","images/cat4.png","","","memory_trial","1","definitely_old",""
"html-button-response","228","553700","0.0-18.0-2.91-0.91","7573","approach_avoid_sv1","""event"",""trial"",""time""
""fullscreenenter"",""1"",""1313""
","
","
","""event"",""trial"",""time""
""fullscreenenter"",""1"",""1313""
","
","","","","","","2174.4000000953674","<p> Take a break! </p><p> Click the button to continue. </p>","0","","break","","",""
"html-keyboard-response","229","554202","0.0-18.0-0.92","7573","approach_avoid_sv1","""event"",""trial"",""time""
""fullscreenenter"",""1"",""1313""
","
","
","""event"",""trial"",""time""
""fullscreenenter"",""1"",""1313""
","
","","","","","","null","<div style=""font-size:60px;"">+</div>","null","","fixation","","",""
"memory-trial","230","557410","0.0-18.0-1.92","7573","approach_avoid_sv1","""event"",""trial"",""time""
""fullscreenenter"",""1"",""1313""
","
","
","""event"",""trial"",""time""
""fullscreenenter"",""1"",""1313""
","
","","","","","","2206.7000000476837","images/cactus7.png","","","memory_trial","1","definitely_old",""
"html-keyboard-response","231","557911","0.0-18.0-0.93","7573","approach_avoid_sv1","""event"",""trial"",""time""
""fullscreenenter"",""1"",""1313""
","
","
","""event"",""trial"",""time""
""fullscreenenter"",""1"",""1313""
","
","","","","","","null","<div style=""font-size:60px;"">+</div>","null","","fixation","","",""
"memory-trial","232","559609","0.0-18.0-1.93","7573","approach_avoid_sv1","""event"",""trial"",""time""
""fullscreenenter"",""1"",""1313""
","
","
","""event"",""trial"",""time""
""fullscreenenter"",""1"",""1313""
","
","","","","","","695.7999999523163","images/goat7.png","","","memory_trial","1","definitely_old",""
"html-keyboard-response","233","560110","0.0-18.0-0.94","7573","approach_avoid_sv1","""event"",""trial"",""time""
""fullscreenenter"",""1"",""1313""
","
","
","""event"",""trial"",""time""
""fullscreenenter"",""1"",""1313""
","
","","","","","","null","<div style=""font-size:60px;"">+</div>","null","","fixation","","",""
"memory-trial","234","562182","0.0-18.0-1.94","7573","approach_avoid_sv1","""event"",""trial"",""time""
""fullscreenenter"",""1"",""1313""
","
","
","""event"",""trial"",""time""
""fullscreenenter"",""1"",""1313""
","
","","","","","","1071.0999999046326","images/rabbit7.png","","","memory_trial","1","definitely_old",""
"html-keyboard-response","235","562683","0.0-18.0-0.95","7573","approach_avoid_sv1","""event"",""trial"",""time""
""fullscreenenter"",""1"",""1313""
","
","
","""event"",""trial"",""time""
""fullscreenenter"",""1"",""1313""
","
","","","","","","null","<div style=""font-size:60px;"">+</div>","null","","fixation","","",""
"memory-trial","236","564637","0.0-18.0-1.95","7573","approach_avoid_sv1","""event"",""trial"",""time""
""fullscreenenter"",""1"",""1313""
","
","
","""event"",""trial"",""time""
""fullscreenenter"",""1"",""1313""
","
","","","","","","952.1000001430511","images/straw5.png","","","memory_trial","1","definitely_old",""
"html-keyboard-response","237","565137","0.0-18.0-0.96","7573","approach_avoid_sv1","""event"",""trial"",""time""
""fullscreenenter"",""1"",""1313""
","
","
","""event"",""trial"",""time""
""fullscreenenter"",""1"",""1313""
","
","","","","","","null","<div style=""font-size:60px;"">+</div>","null","","fixation","","",""
"memory-trial","238","567170","0.0-18.0-1.96","7573","approach_avoid_sv1","""event"",""trial"",""time""
""fullscreenenter"",""1"",""1313""
","
","
","""event"",""trial"",""time""
""fullscreenenter"",""1"",""1313""
","
","","","","","","1031.2999999523163","images/flower2.png","","","memory_trial","3","maybe_new",""
"html-keyboard-response","239","567671","0.0-18.0-0.97","7573","approach_avoid_sv1","""event"",""trial"",""time""
""fullscreenenter"",""1"",""1313""
","
","
","""event"",""trial"",""time""
""fullscreenenter"",""1"",""1313""
","
","","","","","","null","<div style=""font-size:60px;"">+</div>","null","","fixation","","",""
"memory-trial","240","569781","0.0-18.0-1.97","7573","approach_avoid_sv1","""event"",""trial"",""time""
""fullscreenenter"",""1"",""1313""
","
","
","""event"",""trial"",""time""
""fullscreenenter"",""1"",""1313""
","
","","","","","","1107.7000000476837","images/apple1.png","","","memory_trial","4","definitely_new",""
"html-keyboard-response","241","570282","0.0-18.0-0.98","7573","approach_avoid_sv1","""event"",""trial"",""time""
""fullscreenenter"",""1"",""1313""
","
","
","""event"",""trial"",""time""
""fullscreenenter"",""1"",""1313""
","
","","","","","","null","<div style=""font-size:60px;"">+</div>","null","","fixation","","",""
"memory-trial","242","572584","0.0-18.0-1.98","7573","approach_avoid_sv1","""event"",""trial"",""time""
""fullscreenenter"",""1"",""1313""
","
","
","""event"",""trial"",""time""
""fullscreenenter"",""1"",""1313""
","
","","","","","","1287.4000000953674","images/banana6.png","","","memory_trial","3","maybe_new",""
"html-keyboard-response","243","573085","0.0-18.0-0.99","7573","approach_avoid_sv1","""event"",""trial"",""time""
""fullscreenenter"",""1"",""1313""
","
","
","""event"",""trial"",""time""
""fullscreenenter"",""1"",""1313""
","
","","","","","","null","<div style=""font-size:60px;"">+</div>","null","","fixation","","",""
"memory-trial","244","574985","0.0-18.0-1.99","7573","approach_avoid_sv1","""event"",""trial"",""time""
""fullscreenenter"",""1"",""1313""
","
","
","""event"",""trial"",""time""
""fullscreenenter"",""1"",""1313""
","
","","","","","","897.7000000476837","images/tree4.png","","","memory_trial","1","definitely_old",""
"html-keyboard-response","245","575485","0.0-18.0-0.100","7573","approach_avoid_sv1","""event"",""trial"",""time""
""fullscreenenter"",""1"",""1313""
","
","
","""event"",""trial"",""time""
""fullscreenenter"",""1"",""1313""
","
","","","","","","null","<div style=""font-size:60px;"">+</div>","null","","fixation","","",""
"memory-trial","246","577213","0.0-18.0-1.100","7573","approach_avoid_sv1","""event"",""trial"",""time""
""fullscreenenter"",""1"",""1313""
","
","
","""event"",""trial"",""time""
""fullscreenenter"",""1"",""1313""
","
","","","","","","726.7999999523163","images/banana2.png","","","memory_trial","1","definitely_old",""
"html-keyboard-response","247","577715","0.0-18.0-0.101","7573","approach_avoid_sv1","""event"",""trial"",""time""
""fullscreenenter"",""1"",""1313""
","
","
","""event"",""trial"",""time""
""fullscreenenter"",""1"",""1313""
","
","","","","","","null","<div style=""font-size:60px;"">+</div>","null","","fixation","","",""
"memory-trial","248","580007","0.0-18.0-1.101","7573","approach_avoid_sv1","""event"",""trial"",""time""
""fullscreenenter"",""1"",""1313""
","
","
","""event"",""trial"",""time""
""fullscreenenter"",""1"",""1313""
","
","","","","","","1291.5","images/banana5.png","","","memory_trial","2","maybe_old",""
"html-keyboard-response","249","580509","0.0-18.0-0.102","7573","approach_avoid_sv1","""event"",""trial"",""time""
""fullscreenenter"",""1"",""1313""
","
","
","""event"",""trial"",""time""
""fullscreenenter"",""1"",""1313""
","
","","","","","","null","<div style=""font-size:60px;"">+</div>","null","","fixation","","",""
"memory-trial","250","582857","0.0-18.0-1.102","7573","approach_avoid_sv1","""event"",""trial"",""time""
""fullscreenenter"",""1"",""1313""
","
","
","""event"",""trial"",""time""
""fullscreenenter"",""1"",""1313""
","
","","","","","","1346.7000000476837","images/dog6.png","","","memory_trial","3","maybe_new",""
"html-keyboard-response","251","583359","0.0-18.0-0.103","7573","approach_avoid_sv1","""event"",""trial"",""time""
""fullscreenenter"",""1"",""1313""
","
","
","""event"",""trial"",""time""
""fullscreenenter"",""1"",""1313""
","
","","","","","","null","<div style=""font-size:60px;"">+</div>","null","","fixation","","",""
"memory-trial","252","586141","0.0-18.0-1.103","7573","approach_avoid_sv1","""event"",""trial"",""time""
""fullscreenenter"",""1"",""1313""
","
","
","""event"",""trial"",""time""
""fullscreenenter"",""1"",""1313""
","
","","","","","","1780.2000000476837","images/sofa1.png","","","memory_trial","2","maybe_old",""
"html-keyboard-response","253","586641","0.0-18.0-0.104","7573","approach_avoid_sv1","""event"",""trial"",""time""
""fullscreenenter"",""1"",""1313""
","
","
","""event"",""trial"",""time""
""fullscreenenter"",""1"",""1313""
","
","","","","","","null","<div style=""font-size:60px;"">+</div>","null","","fixation","","",""
"memory-trial","254","589020","0.0-18.0-1.104","7573","approach_avoid_sv1","""event"",""trial"",""time""
""fullscreenenter"",""1"",""1313""
","
","
","""event"",""trial"",""time""
""fullscreenenter"",""1"",""1313""
","
","","","","","","1376.6999998092651","images/dog3.png","","","memory_trial","3","maybe_new",""
"html-keyboard-response","255","589521","0.0-18.0-0.105","7573","approach_avoid_sv1","""event"",""trial"",""time""
""fullscreenenter"",""1"",""1313""
","
","
","""event"",""trial"",""time""
""fullscreenenter"",""1"",""1313""
","
","","","","","","null","<div style=""font-size:60px;"">+</div>","null","","fixation","","",""
"memory-trial","256","593217","0.0-18.0-1.105","7573","approach_avoid_sv1","""event"",""trial"",""time""
""fullscreenenter"",""1"",""1313""
","
","
","""event"",""trial"",""time""
""fullscreenenter"",""1"",""1313""
","
","","","","","","2692.2999999523163","images/sofa2.png","","","memory_trial","2","maybe_old",""
"html-keyboard-response","257","593718","0.0-18.0-0.106","7573","approach_avoid_sv1","""event"",""trial"",""time""
""fullscreenenter"",""1"",""1313""
","
","
","""event"",""trial"",""time""
""fullscreenenter"",""1"",""1313""
","
","","","","","","null","<div style=""font-size:60px;"">+</div>","null","","fixation","","",""
"memory-trial","258","596265","0.0-18.0-1.106","7573","approach_avoid_sv1","""event"",""trial"",""time""
""fullscreenenter"",""1"",""1313""
","
","
","""event"",""trial"",""time""
""fullscreenenter"",""1"",""1313""
","
","","","","","","1546","images/horse5.png","","","memory_trial","1","definitely_old",""
"html-keyboard-response","259","596767","0.0-18.0-0.107","7573","approach_avoid_sv1","""event"",""trial"",""time""
""fullscreenenter"",""1"",""1313""
","
","
","""event"",""trial"",""time""
""fullscreenenter"",""1"",""1313""
","
","","","","","","null","<div style=""font-size:60px;"">+</div>","null","","fixation","","",""
"memory-trial","260","598641","0.0-18.0-1.107","7573","approach_avoid_sv1","""event"",""trial"",""time""
""fullscreenenter"",""1"",""1313""
","
","
","""event"",""trial"",""time""
""fullscreenenter"",""1"",""1313""
","
","","","","","","871.0999999046326","images/rabbit8.png","","","memory_trial","1","definitely_old",""
"html-keyboard-response","261","599142","0.0-18.0-0.108","7573","approach_avoid_sv1","""event"",""trial"",""time""
""fullscreenenter"",""1"",""1313""
","
","
","""event"",""trial"",""time""
""fullscreenenter"",""1"",""1313""
","
","","","","","","null","<div style=""font-size:60px;"">+</div>","null","","fixation","","",""
"memory-trial","262","601044","0.0-18.0-1.108","7573","approach_avoid_sv1","""event"",""trial"",""time""
""fullscreenenter"",""1"",""1313""
","
","
","""event"",""trial"",""time""
""fullscreenenter"",""1"",""1313""
","
","","","","","","899.8000001907349","images/goat3.png","","","memory_trial","1","definitely_old",""
"html-keyboard-response","263","601545","0.0-18.0-0.109","7573","approach_avoid_sv1","""event"",""trial"",""time""
""fullscreenenter"",""1"",""1313""
","
","
","""event"",""trial"",""time""
""fullscreenenter"",""1"",""1313""
","
","","","","","","null","<div style=""font-size:60px;"">+</div>","null","","fixation","","",""
"memory-trial","264","604665","0.0-18.0-1.109","7573","approach_avoid_sv1","""event"",""trial"",""time""
""fullscreenenter"",""1"",""1313""
","
","
","""event"",""trial"",""time""
""fullscreenenter"",""1"",""1313""
","
","","","","","","2118.7999999523163","images/rabbit5.png","","","memory_trial","3","maybe_new",""
"html-keyboard-response","265","605166","0.0-18.0-0.110","7573","approach_avoid_sv1","""event"",""trial"",""time""
""fullscreenenter"",""1"",""1313""
","
","
","""event"",""trial"",""time""
""fullscreenenter"",""1"",""1313""
","
","","","","","","null","<div style=""font-size:60px;"">+</div>","null","","fixation","","",""
"memory-trial","266","607932","0.0-18.0-1.110","7573","approach_avoid_sv1","""event"",""trial"",""time""
""fullscreenenter"",""1"",""1313""
","
","
","""event"",""trial"",""time""
""fullscreenenter"",""1"",""1313""
","
","","","","","","1763.7000000476837","images/dog4.png","","","memory_trial","4","definitely_new",""
"html-keyboard-response","267","608433","0.0-18.0-0.111","7573","approach_avoid_sv1","""event"",""trial"",""time""
""fullscreenenter"",""1"",""1313""
","
","
","""event"",""trial"",""time""
""fullscreenenter"",""1"",""1313""
","
","","","","","","null","<div style=""font-size:60px;"">+</div>","null","","fixation","","",""
"memory-trial","268","612008","0.0-18.0-1.111","7573","approach_avoid_sv1","""event"",""trial"",""time""
""fullscreenenter"",""1"",""1313""
","
","
","""event"",""trial"",""time""
""fullscreenenter"",""1"",""1313""
","
","","","","","","2573.5","images/rabbit1.png","","","memory_trial","2","maybe_old",""
"html-keyboard-response","269","612508","0.0-18.0-0.112","7573","approach_avoid_sv1","""event"",""trial"",""time""
""fullscreenenter"",""1"",""1313""
","
","
","""event"",""trial"",""time""
""fullscreenenter"",""1"",""1313""
","
","","","","","","null","<div style=""font-size:60px;"">+</div>","null","","fixation","","",""
"memory-trial","270","615725","0.0-18.0-1.112","7573","approach_avoid_sv1","""event"",""trial"",""time""
""fullscreenenter"",""1"",""1313""
","
","
","""event"",""trial"",""time""
""fullscreenenter"",""1"",""1313""
","
","","","","","","2214.4000000953674","images/apple8.png","","","memory_trial","3","maybe_new",""
"html-keyboard-response","271","616226","0.0-18.0-0.113","7573","approach_avoid_sv1","""event"",""trial"",""time""
""fullscreenenter"",""1"",""1313""
","
","
","""event"",""trial"",""time""
""fullscreenenter"",""1"",""1313""
","
","","","","","","null","<div style=""font-size:60px;"">+</div>","null","","fixation","","",""
"memory-trial","272","618965","0.0-18.0-1.113","7573","approach_avoid_sv1","""event"",""trial"",""time""
""fullscreenenter"",""1"",""1313""
","
","
","""event"",""trial"",""time""
""fullscreenenter"",""1"",""1313""
","
","","","","","","1737.2999999523163","images/tree7.png","","","memory_trial","2","maybe_old",""
"html-keyboard-response","273","619467","0.0-18.0-0.114","7573","approach_avoid_sv1","""event"",""trial"",""time""
""fullscreenenter"",""1"",""1313""
","
","
","""event"",""trial"",""time""
""fullscreenenter"",""1"",""1313""
","
","","","","","","null","<div style=""font-size:60px;"">+</div>","null","","fixation","","",""
"memory-trial","274","621880","0.0-18.0-1.114","7573","approach_avoid_sv1","""event"",""trial"",""time""
""fullscreenenter"",""1"",""1313""
","
","
","""event"",""trial"",""time""
""fullscreenenter"",""1"",""1313""
","
","","","","","","1411.5","images/rodent4.png","","","memory_trial","1","definitely_old",""
"html-keyboard-response","275","622381","0.0-18.0-0.115","7573","approach_avoid_sv1","""event"",""trial"",""time""
""fullscreenenter"",""1"",""1313""
","
","
","""event"",""trial"",""time""
""fullscreenenter"",""1"",""1313""
","
","","","","","","null","<div style=""font-size:60px;"">+</div>","null","","fixation","","",""
"memory-trial","276","625090","0.0-18.0-1.115","7573","approach_avoid_sv1","""event"",""trial"",""time""
""fullscreenenter"",""1"",""1313""
","
","
","""event"",""trial"",""time""
""fullscreenenter"",""1"",""1313""
","
","","","","","","1707.5","images/boat4.png","","","memory_trial","3","maybe_new",""
"html-keyboard-response","277","625591","0.0-18.0-0.116","7573","approach_avoid_sv1","""event"",""trial"",""time""
""fullscreenenter"",""1"",""1313""
","
","
","""event"",""trial"",""time""
""fullscreenenter"",""1"",""1313""
","
","","","","","","null","<div style=""font-size:60px;"">+</div>","null","","fixation","","",""
"memory-trial","278","627591","0.0-18.0-1.116","7573","approach_avoid_sv1","""event"",""trial"",""time""
""fullscreenenter"",""1"",""1313""
","
","
","""event"",""trial"",""time""
""fullscreenenter"",""1"",""1313""
","
","","","","","","998.7000000476837","images/truck5.png","","","memory_trial","1","definitely_old",""
"html-keyboard-response","279","628092","0.0-18.0-0.117","7573","approach_avoid_sv1","""event"",""trial"",""time""
""fullscreenenter"",""1"",""1313""
","
","
","""event"",""trial"",""time""
""fullscreenenter"",""1"",""1313""
","
","","","","","","null","<div style=""font-size:60px;"">+</div>","null","","fixation","","",""
"memory-trial","280","630149","0.0-18.0-1.117","7573","approach_avoid_sv1","""event"",""trial"",""time""
""fullscreenenter"",""1"",""1313""
","
","
","""event"",""trial"",""time""
""fullscreenenter"",""1"",""1313""
","
","","","","","","1055.5999999046326","images/sofa6.png","","","memory_trial","2","maybe_old",""
"html-keyboard-response","281","630650","0.0-18.0-0.118","7573","approach_avoid_sv1","""event"",""trial"",""time""
""fullscreenenter"",""1"",""1313""
","
","
","""event"",""trial"",""time""
""fullscreenenter"",""1"",""1313""
","
","","","","","","null","<div style=""font-size:60px;"">+</div>","null","","fixation","","",""
"memory-trial","282","632940","0.0-18.0-1.118","7573","approach_avoid_sv1","""event"",""trial"",""time""
""fullscreenenter"",""1"",""1313""
","
","
","""event"",""trial"",""time""
""fullscreenenter"",""1"",""1313""
","
","","","","","","1282.5999999046326","images/sheep4.png","","","memory_trial","1","definitely_old",""
"html-keyboard-response","283","633441","0.0-18.0-0.119","7573","approach_avoid_sv1","""event"",""trial"",""time""
""fullscreenenter"",""1"",""1313""
","
","
","""event"",""trial"",""time""
""fullscreenenter"",""1"",""1313""
","
","","","","","","null","<div style=""font-size:60px;"">+</div>","null","","fixation","","",""
"memory-trial","284","635910","0.0-18.0-1.119","7573","approach_avoid_sv1","""event"",""trial"",""time""
""fullscreenenter"",""1"",""1313""
","
","
","""event"",""trial"",""time""
""fullscreenenter"",""1"",""1313""
","
","","","","","","1467.0999999046326","images/bed2.png","","","memory_trial","2","maybe_old",""
"html-keyboard-response","285","636410","0.0-18.0-0.120","7573","approach_avoid_sv1","""event"",""trial"",""time""
""fullscreenenter"",""1"",""1313""
","
","
","""event"",""trial"",""time""
""fullscreenenter"",""1"",""1313""
","
","","","","","","null","<div style=""font-size:60px;"">+</div>","null","","fixation","","",""
"memory-trial","286","641130","0.0-18.0-1.120","7573","approach_avoid_sv1","""event"",""trial"",""time""
""fullscreenenter"",""1"",""1313""
","
","
","""event"",""trial"",""time""
""fullscreenenter"",""1"",""1313""
","
","","","","","","3718.2000000476837","images/plane7.png","","","memory_trial","4","definitely_new",""
"html-keyboard-response","287","641631","0.0-18.0-0.121","7573","approach_avoid_sv1","""event"",""trial"",""time""
""fullscreenenter"",""1"",""1313""
","
","
","""event"",""trial"",""time""
""fullscreenenter"",""1"",""1313""
","
","","","","","","null","<div style=""font-size:60px;"">+</div>","null","","fixation","","",""
"memory-trial","288","644005","0.0-18.0-1.121","7573","approach_avoid_sv1","""event"",""trial"",""time""
""fullscreenenter"",""1"",""1313""
","
","
","""event"",""trial"",""time""
""fullscreenenter"",""1"",""1313""
","
","","","","","","1371.2000000476837","images/flower3.png","","","memory_trial","3","maybe_new",""
"html-keyboard-response","289","644505","0.0-18.0-0.122","7573","approach_avoid_sv1","""event"",""trial"",""time""
""fullscreenenter"",""1"",""1313""
","
","
","""event"",""trial"",""time""
""fullscreenenter"",""1"",""1313""
","
","","","","","","null","<div style=""font-size:60px;"">+</div>","null","","fixation","","",""
"memory-trial","290","647442","0.0-18.0-1.122","7573","approach_avoid_sv1","""event"",""trial"",""time""
""fullscreenenter"",""1"",""1313""
","
","
","""event"",""trial"",""time""
""fullscreenenter"",""1"",""1313""
","
","","","","","","1933.8999998569489","images/rodent5.png","","","memory_trial","2","maybe_old",""
"html-keyboard-response","291","647943","0.0-18.0-0.123","7573","approach_avoid_sv1","""event"",""trial"",""time""
""fullscreenenter"",""1"",""1313""
","
","
","""event"",""trial"",""time""
""fullscreenenter"",""1"",""1313""
","
","","","","","","null","<div style=""font-size:60px;"">+</div>","null","","fixation","","",""
"memory-trial","292","650133","0.0-18.0-1.123","7573","approach_avoid_sv1","""event"",""trial"",""time""
""fullscreenenter"",""1"",""1313""
","
","
","""event"",""trial"",""time""
""fullscreenenter"",""1"",""1313""
","
","","","","","","1188.4000000953674","images/chair7.png","","","memory_trial","1","definitely_old",""
"html-keyboard-response","293","650635","0.0-18.0-0.124","7573","approach_avoid_sv1","""event"",""trial"",""time""
""fullscreenenter"",""1"",""1313""
","
","
","""event"",""trial"",""time""
""fullscreenenter"",""1"",""1313""
","
","","","","","","null","<div style=""font-size:60px;"">+</div>","null","","fixation","","",""
"memory-trial","294","652881","0.0-18.0-1.124","7573","approach_avoid_sv1","""event"",""trial"",""time""
""fullscreenenter"",""1"",""1313""
","
","
","""event"",""trial"",""time""
""fullscreenenter"",""1"",""1313""
","
","","","","","","1245.0999999046326","images/bed8.png","","","memory_trial","1","definitely_old",""
"html-keyboard-response","295","653382","0.0-18.0-0.125","7573","approach_avoid_sv1","""event"",""trial"",""time""
""fullscreenenter"",""1"",""1313""
","
","
","""event"",""trial"",""time""
""fullscreenenter"",""1"",""1313""
","
","","","","","","null","<div style=""font-size:60px;"">+</div>","null","","fixation","","",""
"memory-trial","296","655356","0.0-18.0-1.125","7573","approach_avoid_sv1","""event"",""trial"",""time""
""fullscreenenter"",""1"",""1313""
","
","
","""event"",""trial"",""time""
""fullscreenenter"",""1"",""1313""
","
","","","","","","972.5","images/bed7.png","","","memory_trial","2","maybe_old",""
"html-keyboard-response","297","655858","0.0-18.0-0.126","7573","approach_avoid_sv1","""event"",""trial"",""time""
""fullscreenenter"",""1"",""1313""
","
","
","""event"",""trial"",""time""
""fullscreenenter"",""1"",""1313""
","
","","","","","","null","<div style=""font-size:60px;"">+</div>","null","","fixation","","",""
