"trial_type","trial_index","time_elapsed","internal_node_id","subject_id","task_version","interactions","blur_events","focus_events","fullscreenenter_events","fullscreenexit_events","success","timeout","failed_images","failed_audio","failed_video","rt","stimulus","response","button_pressed","task_part","key_press","answer","correct"
"pavlovia","0","9","0.0-0.0","7076","approach_avoid_sv1","""event"",""trial"",""time""
""fullscreenenter"",""1"",""20918""
","
","
","""event"",""trial"",""time""
""fullscreenenter"",""1"",""20918""
","
","","","","","","","","","","","","",""
"fullscreen","1","21920","0.0-1.0","7076","approach_avoid_sv1","""event"",""trial"",""time""
""fullscreenenter"",""1"",""20918""
","
","
","""event"",""trial"",""time""
""fullscreenenter"",""1"",""20918""
","
","true","","","","","","","","","","","",""
"preload","2","25849","0.0-2.0","7076","approach_avoid_sv1","""event"",""trial"",""time""
""fullscreenenter"",""1"",""20918""
","
","
","""event"",""trial"",""time""
""fullscreenenter"",""1"",""20918""
","
","true","false","[]","[]","[]","","","","","","","",""
"preload","3","28243","0.0-3.0","7076","approach_avoid_sv1","""event"",""trial"",""time""
""fullscreenenter"",""1"",""20918""
","
","
","""event"",""trial"",""time""
""fullscreenenter"",""1"",""20918""
","
","true","false","[]","[]","[]","","","","","","","",""
"preload","4","28688","0.0-4.0","7076","approach_avoid_sv1","""event"",""trial"",""time""
""fullscreenenter"",""1"",""20918""
","
","
","""event"",""trial"",""time""
""fullscreenenter"",""1"",""20918""
","
","true","false","[]","[]","[]","","","","","","","",""
"audio-keyboard-response","5","32482","0.0-5.0","7076","approach_avoid_sv1","""event"",""trial"",""time""
""fullscreenenter"",""1"",""20918""
","
","
","""event"",""trial"",""time""
""fullscreenenter"",""1"",""20918""
","
","","","","","","3720","audio/beep_loop.wav"," ","","","","",""
"audio-button-response","6","34033","0.0-6.0","7076","approach_avoid_sv1","""event"",""trial"",""time""
""fullscreenenter"",""1"",""20918""
","
","
","""event"",""trial"",""time""
""fullscreenenter"",""1"",""20918""
","
","","","","","","1549","audio/turtle.wav","3","","","","",""
"audio-button-response","7","36052","0.0-7.0","7076","approach_avoid_sv1","""event"",""trial"",""time""
""fullscreenenter"",""1"",""20918""
","
","
","""event"",""trial"",""time""
""fullscreenenter"",""1"",""20918""
","
","","","","","","1021","audio/shark.wav","2","","","","",""
"preload","8","40206","0.0-8.0","7076","approach_avoid_sv1","""event"",""trial"",""time""
""fullscreenenter"",""1"",""20918""
","
","
","""event"",""trial"",""time""
""fullscreenenter"",""1"",""20918""
","
","true","false","[]","[]","[]","","","","","","","",""
"learning-instructions","9","48274","0.0-9.0-0.0","7076","approach_avoid_sv1","""event"",""trial"",""time""
""fullscreenenter"",""1"",""20918""
","
","
","""event"",""trial"",""time""
""fullscreenenter"",""1"",""20918""
","
","","","","","","3586.399999856949","<p> Welcome back! </p><p> Last week, you had to make choices about lots of different items.  </p>","","0","instructions","","",""
"learning-instructions","10","53048","0.0-9.0-0.1","7076","approach_avoid_sv1","""event"",""trial"",""time""
""fullscreenenter"",""1"",""20918""
","
","
","""event"",""trial"",""time""
""fullscreenenter"",""1"",""20918""
","
","","","","","","650.9000000953674","<p> Today, we are going to ask you to try to remember all the items. </p>","","0","instructions","","",""
"learning-instructions","11","64228","0.0-9.0-0.2","7076","approach_avoid_sv1","""event"",""trial"",""time""
""fullscreenenter"",""1"",""20918""
","
","
","""event"",""trial"",""time""
""fullscreenenter"",""1"",""20918""
","
","","","","","","1041.5","<p> On every trial, you will see an image. </p><p> The image may be an OLD image you saw during the games last week or it may be a NEW image that was not presented. </p>","","0","instructions","","",""
"learning-instructions","12","73328","0.0-9.0-0.3","7076","approach_avoid_sv1","""event"",""trial"",""time""
""fullscreenenter"",""1"",""20918""
","
","
","""event"",""trial"",""time""
""fullscreenenter"",""1"",""20918""
","
","","","","","","600.2999999523163","<p> You need to select whether the image is:  </p><p>  'Definitely old', 'Maybe old', 'Maybe new', or 'Definitely new.'  </p><div class=""mem-choice-instructions-grid""><div class=""choice-option"" id=""choice-option-1"" ><img src=""images/definitely_old_1.png"" id=""choice-option-img-1"" class=""choice-option-img"" stage=""1""></div><div class=""choice-option"" id=""choice-option-2"" ><img src=""images/maybe_old_1.png"" id=""choice-option-img-2"" class=""choice-option-img"" stage=""1""></div><div class=""choice-option"" id=""choice-option-3"" ><img src=""images/maybe_new_1.png"" id=""choice-option-img-3"" class=""choice-option-img"" stage=""1""></div><div class=""choice-option"" id=""choice-option-4"" > <img src=""images/definitely_new_1.png"" id=""choice-option-img-4"" class=""choice-option-img"" stage=""1""></div></div>","","0","instructions","","",""
"learning-instructions","13","80419","0.0-9.0-0.4","7076","approach_avoid_sv1","""event"",""trial"",""time""
""fullscreenenter"",""1"",""20918""
","
","
","""event"",""trial"",""time""
""fullscreenenter"",""1"",""20918""
","
","","","","","","572.0999999046326","<p> You should use the 1, 2, 3, and 4 keys to make your responses.  </p><div class=""mem-choice-instructions-grid""><div class=""choice-option"" id=""choice-option-1"" ><img src=""images/definitely_old.png"" id=""choice-option-img-1"" class=""choice-option-img"" stage=""1""></div><div class=""choice-option"" id=""choice-option-2"" ><img src=""images/maybe_old.png"" id=""choice-option-img-2"" class=""choice-option-img"" stage=""1""></div><div class=""choice-option"" id=""choice-option-3"" ><img src=""images/maybe_new.png"" id=""choice-option-img-3"" class=""choice-option-img"" stage=""1""></div><div class=""choice-option"" id=""choice-option-4"" > <img src=""images/definitely_new.png"" id=""choice-option-img-4"" class=""choice-option-img"" stage=""1""></div></div>","","0","instructions","","",""
"learning-instructions","14","87397","0.0-9.0-0.5","7076","approach_avoid_sv1","""event"",""trial"",""time""
""fullscreenenter"",""1"",""20918""
","
","
","""event"",""trial"",""time""
""fullscreenenter"",""1"",""20918""
","
","","","","","","640.5","<p> You will have 10 seconds to make each response.  </p><p>  Make sure to respond before time runs out! </p>","","0","instructions","","",""
"learning-instructions","15","95171","0.0-9.0-0.6","7076","approach_avoid_sv1","""event"",""trial"",""time""
""fullscreenenter"",""1"",""20918""
","
","
","""event"",""trial"",""time""
""fullscreenenter"",""1"",""20918""
","
","","","","","","694","<p> Today, you will see each image ONCE only.  </p><p>  That means none of the images will repeat. </p>","","0","instructions","","",""
"learning-instructions","16","108895","0.0-9.0-0.7","7076","approach_avoid_sv1","""event"",""trial"",""time""
""fullscreenenter"",""1"",""20918""
","
","
","""event"",""trial"",""time""
""fullscreenenter"",""1"",""20918""
","
","","","","","","1048.5","<p> Before you play the real game, it is time to practice. </p><p>  Just like in the real game, some of the images in the practice will be ones you have seen before. </p><p>  Others will be entirely new. </p>","","0","instructions","","",""
"html-button-response","17","113139","0.0-10.0","7076","approach_avoid_sv1","""event"",""trial"",""time""
""fullscreenenter"",""1"",""20918""
","
","
","""event"",""trial"",""time""
""fullscreenenter"",""1"",""20918""
","
","","","","","","4132.299999952316","<p> Ready to practice? </p><p> Remember, use the 1, 2, 3, and 4 keys to make your responses. </p>","0","","instructions","","",""
"html-keyboard-response","18","113754","0.0-11.0-0.0","7076","approach_avoid_sv1","""event"",""trial"",""time""
""fullscreenenter"",""1"",""20918""
","
","
","""event"",""trial"",""time""
""fullscreenenter"",""1"",""20918""
","
","","","","","","null","<div style=""font-size:60px;"">+</div>","null","","fixation","","",""
"memory-trial","19","117806","0.0-11.0-1.0","7076","approach_avoid_sv1","""event"",""trial"",""time""
""fullscreenenter"",""1"",""20918""
","
","
","""event"",""trial"",""time""
""fullscreenenter"",""1"",""20918""
","
","","","","","","3041.5","images/ball5.png","","","practice","4","definitely_new",""
"html-keyboard-response","20","118308","0.0-11.0-0.1","7076","approach_avoid_sv1","""event"",""trial"",""time""
""fullscreenenter"",""1"",""20918""
","
","
","""event"",""trial"",""time""
""fullscreenenter"",""1"",""20918""
","
","","","","","","null","<div style=""font-size:60px;"">+</div>","null","","fixation","","",""
"memory-trial","21","123792","0.0-11.0-1.1","7076","approach_avoid_sv1","""event"",""trial"",""time""
""fullscreenenter"",""1"",""20918""
","
","
","""event"",""trial"",""time""
""fullscreenenter"",""1"",""20918""
","
","","","","","","4479.799999952316","images/racket3.png","","","practice","1","definitely_old",""
"html-keyboard-response","22","124294","0.0-11.0-0.2","7076","approach_avoid_sv1","""event"",""trial"",""time""
""fullscreenenter"",""1"",""20918""
","
","
","""event"",""trial"",""time""
""fullscreenenter"",""1"",""20918""
","
","","","","","","null","<div style=""font-size:60px;"">+</div>","null","","fixation","","",""
"memory-trial","23","128526","0.0-11.0-1.2","7076","approach_avoid_sv1","""event"",""trial"",""time""
""fullscreenenter"",""1"",""20918""
","
","
","""event"",""trial"",""time""
""fullscreenenter"",""1"",""20918""
","
","","","","","","3216.600000143051","images/ball3.png","","","practice","3","maybe_new",""
"html-keyboard-response","24","129031","0.0-11.0-0.3","7076","approach_avoid_sv1","""event"",""trial"",""time""
""fullscreenenter"",""1"",""20918""
","
","
","""event"",""trial"",""time""
""fullscreenenter"",""1"",""20918""
","
","","","","","","null","<div style=""font-size:60px;"">+</div>","null","","fixation","","",""
"memory-trial","25","131441","0.0-11.0-1.3","7076","approach_avoid_sv1","""event"",""trial"",""time""
""fullscreenenter"",""1"",""20918""
","
","
","""event"",""trial"",""time""
""fullscreenenter"",""1"",""20918""
","
","","","","","","1399.7000000476837","images/racket1.png","","","practice","1","definitely_old",""
"html-keyboard-response","26","131950","0.0-11.0-0.4","7076","approach_avoid_sv1","""event"",""trial"",""time""
""fullscreenenter"",""1"",""20918""
","
","
","""event"",""trial"",""time""
""fullscreenenter"",""1"",""20918""
","
","","","","","","null","<div style=""font-size:60px;"">+</div>","null","","fixation","","",""
"memory-trial","27","134471","0.0-11.0-1.4","7076","approach_avoid_sv1","""event"",""trial"",""time""
""fullscreenenter"",""1"",""20918""
","
","
","""event"",""trial"",""time""
""fullscreenenter"",""1"",""20918""
","
","","","","","","1517.5","images/racket2.png","","","practice","4","definitely_new",""
"html-keyboard-response","28","134982","0.0-11.0-0.5","7076","approach_avoid_sv1","""event"",""trial"",""time""
""fullscreenenter"",""1"",""20918""
","
","
","""event"",""trial"",""time""
""fullscreenenter"",""1"",""20918""
","
","","","","","","null","<div style=""font-size:60px;"">+</div>","null","","fixation","","",""
"memory-trial","29","137471","0.0-11.0-1.5","7076","approach_avoid_sv1","""event"",""trial"",""time""
""fullscreenenter"",""1"",""20918""
","
","
","""event"",""trial"",""time""
""fullscreenenter"",""1"",""20918""
","
","","","","","","1478.5999999046326","images/ball1.png","","","practice","1","definitely_old",""
"html-keyboard-response","30","137972","0.0-11.0-0.6","7076","approach_avoid_sv1","""event"",""trial"",""time""
""fullscreenenter"",""1"",""20918""
","
","
","""event"",""trial"",""time""
""fullscreenenter"",""1"",""20918""
","
","","","","","","null","<div style=""font-size:60px;"">+</div>","null","","fixation","","",""
"memory-trial","31","140701","0.0-11.0-1.6","7076","approach_avoid_sv1","""event"",""trial"",""time""
""fullscreenenter"",""1"",""20918""
","
","
","""event"",""trial"",""time""
""fullscreenenter"",""1"",""20918""
","
","","","","","","1726.6000001430511","images/racket5.png","","","practice","4","definitely_new",""
"html-keyboard-response","32","141202","0.0-11.0-0.7","7076","approach_avoid_sv1","""event"",""trial"",""time""
""fullscreenenter"",""1"",""20918""
","
","
","""event"",""trial"",""time""
""fullscreenenter"",""1"",""20918""
","
","","","","","","null","<div style=""font-size:60px;"">+</div>","null","","fixation","","",""
"memory-trial","33","143357","0.0-11.0-1.7","7076","approach_avoid_sv1","""event"",""trial"",""time""
""fullscreenenter"",""1"",""20918""
","
","
","""event"",""trial"",""time""
""fullscreenenter"",""1"",""20918""
","
","","","","","","1151.5999999046326","images/ball2.png","","","practice","1","definitely_old",""
"learning-instructions","34","152362","0.0-12.0-0.0","7076","approach_avoid_sv1","""event"",""trial"",""time""
""fullscreenenter"",""1"",""20918""
","
","
","""event"",""trial"",""time""
""fullscreenenter"",""1"",""20918""
","
","","","","","","1652.5","<p> Great! You have completed the practice. </p><p> Before you start, we're going to ask you a few questions about how the game works.  </p>","","0","instructions","","",""
"preload","35","158628","0.0-13.0","7076","approach_avoid_sv1","""event"",""trial"",""time""
""fullscreenenter"",""1"",""20918""
","
","
","""event"",""trial"",""time""
""fullscreenenter"",""1"",""20918""
","
","true","false","[]","[]","[]","","","","","","","",""
"comp-q","36","165623","0.0-14.0-0.0","7076","approach_avoid_sv1","""event"",""trial"",""time""
""fullscreenenter"",""1"",""20918""
","
","
","""event"",""trial"",""time""
""fullscreenenter"",""1"",""20918""
","
","","","","","","1162.7000000476837","<p> <b> True or False? </b> </p><p> In this game, you will only see each image once. </p>","","0","comp_question","","","true"
"comp-q","37","173069","0.0-14.0-1.0","7076","approach_avoid_sv1","""event"",""trial"",""time""
""fullscreenenter"",""1"",""20918""
","
","
","""event"",""trial"",""time""
""fullscreenenter"",""1"",""20918""
","
","","","","","","1099.0999999046326","<p> <b> That's right! </b> You will see many different images <i> one time each </i> in this game. </p>","","0","comp_answer","","",""
"comp-q","38","178997","0.0-15.0-0.0","7076","approach_avoid_sv1","""event"",""trial"",""time""
""fullscreenenter"",""1"",""20918""
","
","
","""event"",""trial"",""time""
""fullscreenenter"",""1"",""20918""
","
","","","","","","906.8000001907349","<p> <b> True or False? </b> </p><p> You should use the mouse and click to make your response. </p>","","0","comp_question","","","false"
"comp-q","39","186428","0.0-15.0-1.0","7076","approach_avoid_sv1","""event"",""trial"",""time""
""fullscreenenter"",""1"",""20918""
","
","
","""event"",""trial"",""time""
""fullscreenenter"",""1"",""20918""
","
","","","","","","898.1000001430511","<p><b> Incorrect. </b> You should use the '1', '2', '3', and '4' keys to make your response. </p>","","0","comp_answer","","",""
"comp-q","40","192672","0.0-15.1-0.1","7076","approach_avoid_sv1","""event"",""trial"",""time""
""fullscreenenter"",""1"",""20918""
","
","
","""event"",""trial"",""time""
""fullscreenenter"",""1"",""20918""
","
","","","","","","1231.3000001907349","<p> <b> True or False? </b> </p><p> You should use the mouse and click to make your response. </p>","","1","comp_question","","","true"
"comp-q","41","200292","0.0-15.1-1.1","7076","approach_avoid_sv1","""event"",""trial"",""time""
""fullscreenenter"",""1"",""20918""
","
","
","""event"",""trial"",""time""
""fullscreenenter"",""1"",""20918""
","
","","","","","","1122.2000000476837","<p><b> That's right! </b> You should use the '1', '2', '3', and '4' keys to make your response. </p>","","0","comp_answer","","",""
"comp-q","42","209347","0.0-16.0-0.0","7076","approach_avoid_sv1","""event"",""trial"",""time""
""fullscreenenter"",""1"",""20918""
","
","
","""event"",""trial"",""time""
""fullscreenenter"",""1"",""20918""
","
","","","","","","3387","<p> <b> True or False? </b> </p><p> You will have as much time as you want to make each choice. </p>","","1","comp_question","","","true"
"comp-q","43","215025","0.0-16.0-1.0","7076","approach_avoid_sv1","""event"",""trial"",""time""
""fullscreenenter"",""1"",""20918""
","
","
","""event"",""trial"",""time""
""fullscreenenter"",""1"",""20918""
","
","","","","","","965","<p> <b> That's right! </b> You will only have 10 seconds to make each choice. </p>","","0","comp_answer","","",""
"learning-instructions","44","225548","0.0-17.0","7076","approach_avoid_sv1","""event"",""trial"",""time""
""fullscreenenter"",""1"",""20918""
","
","
","""event"",""trial"",""time""
""fullscreenenter"",""1"",""20918""
","
","","","","","","1858","<p> Great! You are now ready to begin the game. </p><p> Remember, use the 1, 2, 3, and 4 keys to make your responses. </p>","","0","instructions","","",""
"html-keyboard-response","45","226161","0.0-18.0-0.0","7076","approach_avoid_sv1","""event"",""trial"",""time""
""fullscreenenter"",""1"",""20918""
","
","
","""event"",""trial"",""time""
""fullscreenenter"",""1"",""20918""
","
","","","","","","null","<div style=""font-size:60px;"">+</div>","null","","fixation","","",""
"memory-trial","46","229992","0.0-18.0-1.0","7076","approach_avoid_sv1","""event"",""trial"",""time""
""fullscreenenter"",""1"",""20918""
","
","
","""event"",""trial"",""time""
""fullscreenenter"",""1"",""20918""
","
","","","","","","2826.2000000476837","images/boat4.png","","","memory_trial","1","definitely_old",""
"html-keyboard-response","47","230502","0.0-18.0-0.1","7076","approach_avoid_sv1","""event"",""trial"",""time""
""fullscreenenter"",""1"",""20918""
","
","
","""event"",""trial"",""time""
""fullscreenenter"",""1"",""20918""
","
","","","","","","null","<div style=""font-size:60px;"">+</div>","null","","fixation","","",""
"memory-trial","48","233052","0.0-18.0-1.1","7076","approach_avoid_sv1","""event"",""trial"",""time""
""fullscreenenter"",""1"",""20918""
","
","
","""event"",""trial"",""time""
""fullscreenenter"",""1"",""20918""
","
","","","","","","1538.8000001907349","images/bed3.png","","","memory_trial","4","definitely_new",""
"html-keyboard-response","49","233560","0.0-18.0-0.2","7076","approach_avoid_sv1","""event"",""trial"",""time""
""fullscreenenter"",""1"",""20918""
","
","
","""event"",""trial"",""time""
""fullscreenenter"",""1"",""20918""
","
","","","","","","null","<div style=""font-size:60px;"">+</div>","null","","fixation","","",""
"memory-trial","50","235909","0.0-18.0-1.2","7076","approach_avoid_sv1","""event"",""trial"",""time""
""fullscreenenter"",""1"",""20918""
","
","
","""event"",""trial"",""time""
""fullscreenenter"",""1"",""20918""
","
","","","","","","1337","images/chair1.png","","","memory_trial","3","maybe_new",""
"html-keyboard-response","51","236414","0.0-18.0-0.3","7076","approach_avoid_sv1","""event"",""trial"",""time""
""fullscreenenter"",""1"",""20918""
","
","
","""event"",""trial"",""time""
""fullscreenenter"",""1"",""20918""
","
","","","","","","null","<div style=""font-size:60px;"">+</div>","null","","fixation","","",""
"memory-trial","52","239602","0.0-18.0-1.3","7076","approach_avoid_sv1","""event"",""trial"",""time""
""fullscreenenter"",""1"",""20918""
","
","
","""event"",""trial"",""time""
""fullscreenenter"",""1"",""20918""
","
","","","","","","2175.300000190735","images/cow3.png","","","memory_trial","2","maybe_old",""
"html-keyboard-response","53","240108","0.0-18.0-0.4","7076","approach_avoid_sv1","""event"",""trial"",""time""
""fullscreenenter"",""1"",""20918""
","
","
","""event"",""trial"",""time""
""fullscreenenter"",""1"",""20918""
","
","","","","","","null","<div style=""font-size:60px;"">+</div>","null","","fixation","","",""
"memory-trial","54","243259","0.0-18.0-1.4","7076","approach_avoid_sv1","""event"",""trial"",""time""
""fullscreenenter"",""1"",""20918""
","
","
","""event"",""trial"",""time""
""fullscreenenter"",""1"",""20918""
","
","","","","","","2141.7000000476837","images/cat8.png","","","memory_trial","3","maybe_new",""
"html-keyboard-response","55","243760","0.0-18.0-0.5","7076","approach_avoid_sv1","""event"",""trial"",""time""
""fullscreenenter"",""1"",""20918""
","
","
","""event"",""trial"",""time""
""fullscreenenter"",""1"",""20918""
","
","","","","","","null","<div style=""font-size:60px;"">+</div>","null","","fixation","","",""
"memory-trial","56","245827","0.0-18.0-1.5","7076","approach_avoid_sv1","""event"",""trial"",""time""
""fullscreenenter"",""1"",""20918""
","
","
","""event"",""trial"",""time""
""fullscreenenter"",""1"",""20918""
","
","","","","","","1055.7000000476837","images/sheep4.png","","","memory_trial","3","maybe_new",""
"html-keyboard-response","57","246333","0.0-18.0-0.6","7076","approach_avoid_sv1","""event"",""trial"",""time""
""fullscreenenter"",""1"",""20918""
","
","
","""event"",""trial"",""time""
""fullscreenenter"",""1"",""20918""
","
","","","","","","null","<div style=""font-size:60px;"">+</div>","null","","fixation","","",""
"memory-trial","58","248657","0.0-18.0-1.6","7076","approach_avoid_sv1","""event"",""trial"",""time""
""fullscreenenter"",""1"",""20918""
","
","
","""event"",""trial"",""time""
""fullscreenenter"",""1"",""20918""
","
","","","","","","1309.7000000476837","images/goat1.png","","","memory_trial","1","definitely_old",""
"html-keyboard-response","59","249157","0.0-18.0-0.7","7076","approach_avoid_sv1","""event"",""trial"",""time""
""fullscreenenter"",""1"",""20918""
","
","
","""event"",""trial"",""time""
""fullscreenenter"",""1"",""20918""
","
","","","","","","null","<div style=""font-size:60px;"">+</div>","null","","fixation","","",""
"memory-trial","60","251302","0.0-18.0-1.7","7076","approach_avoid_sv1","""event"",""trial"",""time""
""fullscreenenter"",""1"",""20918""
","
","
","""event"",""trial"",""time""
""fullscreenenter"",""1"",""20918""
","
","","","","","","1138.5","images/straw5.png","","","memory_trial","1","definitely_old",""
"html-keyboard-response","61","251811","0.0-18.0-0.8","7076","approach_avoid_sv1","""event"",""trial"",""time""
""fullscreenenter"",""1"",""20918""
","
","
","""event"",""trial"",""time""
""fullscreenenter"",""1"",""20918""
","
","","","","","","null","<div style=""font-size:60px;"">+</div>","null","","fixation","","",""
"memory-trial","62","254028","0.0-18.0-1.8","7076","approach_avoid_sv1","""event"",""trial"",""time""
""fullscreenenter"",""1"",""20918""
","
","
","""event"",""trial"",""time""
""fullscreenenter"",""1"",""20918""
","
","","","","","","1215.5","images/flower7.png","","","memory_trial","1","definitely_old",""
"html-keyboard-response","63","254530","0.0-18.0-0.9","7076","approach_avoid_sv1","""event"",""trial"",""time""
""fullscreenenter"",""1"",""20918""
","
","
","""event"",""trial"",""time""
""fullscreenenter"",""1"",""20918""
","
","","","","","","null","<div style=""font-size:60px;"">+</div>","null","","fixation","","",""
"memory-trial","64","256754","0.0-18.0-1.9","7076","approach_avoid_sv1","""event"",""trial"",""time""
""fullscreenenter"",""1"",""20918""
","
","
","""event"",""trial"",""time""
""fullscreenenter"",""1"",""20918""
","
","","","","","","1222.2000000476837","images/sheep1.png","","","memory_trial","4","definitely_new",""
"html-keyboard-response","65","257255","0.0-18.0-0.10","7076","approach_avoid_sv1","""event"",""trial"",""time""
""fullscreenenter"",""1"",""20918""
","
","
","""event"",""trial"",""time""
""fullscreenenter"",""1"",""20918""
","
","","","","","","null","<div style=""font-size:60px;"">+</div>","null","","fixation","","",""
"memory-trial","66","260268","0.0-18.0-1.10","7076","approach_avoid_sv1","""event"",""trial"",""time""
""fullscreenenter"",""1"",""20918""
","
","
","""event"",""trial"",""time""
""fullscreenenter"",""1"",""20918""
","
","","","","","","2010.5999999046326","images/dog2.png","","","memory_trial","2","maybe_old",""
"html-keyboard-response","67","260769","0.0-18.0-0.11","7076","approach_avoid_sv1","""event"",""trial"",""time""
""fullscreenenter"",""1"",""20918""
","
","
","""event"",""trial"",""time""
""fullscreenenter"",""1"",""20918""
","
","","","","","","null","<div style=""font-size:60px;"">+</div>","null","","fixation","","",""
"memory-trial","68","262716","0.0-18.0-1.11","7076","approach_avoid_sv1","""event"",""trial"",""time""
""fullscreenenter"",""1"",""20918""
","
","
","""event"",""trial"",""time""
""fullscreenenter"",""1"",""20918""
","
","","","","","","944.9000000953674","images/straw4.png","","","memory_trial","1","definitely_old",""
"html-keyboard-response","69","263218","0.0-18.0-0.12","7076","approach_avoid_sv1","""event"",""trial"",""time""
""fullscreenenter"",""1"",""20918""
","
","
","""event"",""trial"",""time""
""fullscreenenter"",""1"",""20918""
","
","","","","","","null","<div style=""font-size:60px;"">+</div>","null","","fixation","","",""
"memory-trial","70","265102","0.0-18.0-1.12","7076","approach_avoid_sv1","""event"",""trial"",""time""
""fullscreenenter"",""1"",""20918""
","
","
","""event"",""trial"",""time""
""fullscreenenter"",""1"",""20918""
","
","","","","","","881.0999999046326","images/boat6.png","","","memory_trial","1","definitely_old",""
"html-keyboard-response","71","265603","0.0-18.0-0.13","7076","approach_avoid_sv1","""event"",""trial"",""time""
""fullscreenenter"",""1"",""20918""
","
","
","""event"",""trial"",""time""
""fullscreenenter"",""1"",""20918""
","
","","","","","","null","<div style=""font-size:60px;"">+</div>","null","","fixation","","",""
"memory-trial","72","268123","0.0-18.0-1.13","7076","approach_avoid_sv1","""event"",""trial"",""time""
""fullscreenenter"",""1"",""20918""
","
","
","""event"",""trial"",""time""
""fullscreenenter"",""1"",""20918""
","
","","","","","","1517.3999998569489","images/table8.png","","","memory_trial","3","maybe_new",""
"html-keyboard-response","73","268625","0.0-18.0-0.14","7076","approach_avoid_sv1","""event"",""trial"",""time""
""fullscreenenter"",""1"",""20918""
","
","
","""event"",""trial"",""time""
""fullscreenenter"",""1"",""20918""
","
","","","","","","null","<div style=""font-size:60px;"">+</div>","null","","fixation","","",""
"memory-trial","74","270781","0.0-18.0-1.14","7076","approach_avoid_sv1","""event"",""trial"",""time""
""fullscreenenter"",""1"",""20918""
","
","
","""event"",""trial"",""time""
""fullscreenenter"",""1"",""20918""
","
","","","","","","1148.2999999523163","images/rabbit3.png","","","memory_trial","3","maybe_new",""
"html-keyboard-response","75","271282","0.0-18.0-0.15","7076","approach_avoid_sv1","""event"",""trial"",""time""
""fullscreenenter"",""1"",""20918""
","
","
","""event"",""trial"",""time""
""fullscreenenter"",""1"",""20918""
","
","","","","","","null","<div style=""font-size:60px;"">+</div>","null","","fixation","","",""
"memory-trial","76","273744","0.0-18.0-1.15","7076","approach_avoid_sv1","""event"",""trial"",""time""
""fullscreenenter"",""1"",""20918""
","
","
","""event"",""trial"",""time""
""fullscreenenter"",""1"",""20918""
","
","","","","","","1460.1000001430511","images/sofa7.png","","","memory_trial","2","maybe_old",""
"html-keyboard-response","77","274245","0.0-18.0-0.16","7076","approach_avoid_sv1","""event"",""trial"",""time""
""fullscreenenter"",""1"",""20918""
","
","
","""event"",""trial"",""time""
""fullscreenenter"",""1"",""20918""
","
","","","","","","null","<div style=""font-size:60px;"">+</div>","null","","fixation","","",""
"memory-trial","78","276207","0.0-18.0-1.16","7076","approach_avoid_sv1","""event"",""trial"",""time""
""fullscreenenter"",""1"",""20918""
","
","
","""event"",""trial"",""time""
""fullscreenenter"",""1"",""20918""
","
","","","","","","959.2999999523163","images/bush4.png","","","memory_trial","1","definitely_old",""
"html-keyboard-response","79","276709","0.0-18.0-0.17","7076","approach_avoid_sv1","""event"",""trial"",""time""
""fullscreenenter"",""1"",""20918""
","
","
","""event"",""trial"",""time""
""fullscreenenter"",""1"",""20918""
","
","","","","","","null","<div style=""font-size:60px;"">+</div>","null","","fixation","","",""
"memory-trial","80","278451","0.0-18.0-1.17","7076","approach_avoid_sv1","""event"",""trial"",""time""
""fullscreenenter"",""1"",""20918""
","
","
","""event"",""trial"",""time""
""fullscreenenter"",""1"",""20918""
","
","","","","","","739","images/banana6.png","","","memory_trial","1","definitely_old",""
"html-keyboard-response","81","278952","0.0-18.0-0.18","7076","approach_avoid_sv1","""event"",""trial"",""time""
""fullscreenenter"",""1"",""20918""
","
","
","""event"",""trial"",""time""
""fullscreenenter"",""1"",""20918""
","
","","","","","","null","<div style=""font-size:60px;"">+</div>","null","","fixation","","",""
"memory-trial","82","281823","0.0-18.0-1.18","7076","approach_avoid_sv1","""event"",""trial"",""time""
""fullscreenenter"",""1"",""20918""
","
","
","""event"",""trial"",""time""
""fullscreenenter"",""1"",""20918""
","
","","","","","","1868","images/flower5.png","","","memory_trial","4","definitely_new",""
"html-keyboard-response","83","282324","0.0-18.0-0.19","7076","approach_avoid_sv1","""event"",""trial"",""time""
""fullscreenenter"",""1"",""20918""
","
","
","""event"",""trial"",""time""
""fullscreenenter"",""1"",""20918""
","
","","","","","","null","<div style=""font-size:60px;"">+</div>","null","","fixation","","",""
"memory-trial","84","284788","0.0-18.0-1.19","7076","approach_avoid_sv1","""event"",""trial"",""time""
""fullscreenenter"",""1"",""20918""
","
","
","""event"",""trial"",""time""
""fullscreenenter"",""1"",""20918""
","
","","","","","","1461.7000000476837","images/bed2.png","","","memory_trial","4","definitely_new",""
"html-keyboard-response","85","285290","0.0-18.0-0.20","7076","approach_avoid_sv1","""event"",""trial"",""time""
""fullscreenenter"",""1"",""20918""
","
","
","""event"",""trial"",""time""
""fullscreenenter"",""1"",""20918""
","
","","","","","","null","<div style=""font-size:60px;"">+</div>","null","","fixation","","",""
"memory-trial","86","287677","0.0-18.0-1.20","7076","approach_avoid_sv1","""event"",""trial"",""time""
""fullscreenenter"",""1"",""20918""
","
","
","""event"",""trial"",""time""
""fullscreenenter"",""1"",""20918""
","
","","","","","","1384.4000000953674","images/table1.png","","","memory_trial","1","definitely_old",""
"html-keyboard-response","87","288179","0.0-18.0-0.21","7076","approach_avoid_sv1","""event"",""trial"",""time""
""fullscreenenter"",""1"",""20918""
","
","
","""event"",""trial"",""time""
""fullscreenenter"",""1"",""20918""
","
","","","","","","null","<div style=""font-size:60px;"">+</div>","null","","fixation","","",""
"memory-trial","88","290550","0.0-18.0-1.21","7076","approach_avoid_sv1","""event"",""trial"",""time""
""fullscreenenter"",""1"",""20918""
","
","
","""event"",""trial"",""time""
""fullscreenenter"",""1"",""20918""
","
","","","","","","1369.2000000476837","images/chair4.png","","","memory_trial","4","definitely_new",""
"html-keyboard-response","89","291052","0.0-18.0-0.22","7076","approach_avoid_sv1","""event"",""trial"",""time""
""fullscreenenter"",""1"",""20918""
","
","
","""event"",""trial"",""time""
""fullscreenenter"",""1"",""20918""
","
","","","","","","null","<div style=""font-size:60px;"">+</div>","null","","fixation","","",""
"memory-trial","90","292794","0.0-18.0-1.22","7076","approach_avoid_sv1","""event"",""trial"",""time""
""fullscreenenter"",""1"",""20918""
","
","
","""event"",""trial"",""time""
""fullscreenenter"",""1"",""20918""
","
","","","","","","738.7000000476837","images/train1.png","","","memory_trial","1","definitely_old",""
"html-keyboard-response","91","293296","0.0-18.0-0.23","7076","approach_avoid_sv1","""event"",""trial"",""time""
""fullscreenenter"",""1"",""20918""
","
","
","""event"",""trial"",""time""
""fullscreenenter"",""1"",""20918""
","
","","","","","","null","<div style=""font-size:60px;"">+</div>","null","","fixation","","",""
"memory-trial","92","296318","0.0-18.0-1.23","7076","approach_avoid_sv1","""event"",""trial"",""time""
""fullscreenenter"",""1"",""20918""
","
","
","""event"",""trial"",""time""
""fullscreenenter"",""1"",""20918""
","
","","","","","","2020.2000000476837","images/bush8.png","","","memory_trial","2","maybe_old",""
"html-keyboard-response","93","296819","0.0-18.0-0.24","7076","approach_avoid_sv1","""event"",""trial"",""time""
""fullscreenenter"",""1"",""20918""
","
","
","""event"",""trial"",""time""
""fullscreenenter"",""1"",""20918""
","
","","","","","","null","<div style=""font-size:60px;"">+</div>","null","","fixation","","",""
"memory-trial","94","299136","0.0-18.0-1.24","7076","approach_avoid_sv1","""event"",""trial"",""time""
""fullscreenenter"",""1"",""20918""
","
","
","""event"",""trial"",""time""
""fullscreenenter"",""1"",""20918""
","
","","","","","","1313.2999999523163","images/orange5.png","","","memory_trial","3","maybe_new",""
"html-keyboard-response","95","299638","0.0-18.0-0.25","7076","approach_avoid_sv1","""event"",""trial"",""time""
""fullscreenenter"",""1"",""20918""
","
","
","""event"",""trial"",""time""
""fullscreenenter"",""1"",""20918""
","
","","","","","","null","<div style=""font-size:60px;"">+</div>","null","","fixation","","",""
"memory-trial","96","301965","0.0-18.0-1.25","7076","approach_avoid_sv1","""event"",""trial"",""time""
""fullscreenenter"",""1"",""20918""
","
","
","""event"",""trial"",""time""
""fullscreenenter"",""1"",""20918""
","
","","","","","","1324.2000000476837","images/apple5.png","","","memory_trial","4","definitely_new",""
"html-keyboard-response","97","302466","0.0-18.0-0.26","7076","approach_avoid_sv1","""event"",""trial"",""time""
""fullscreenenter"",""1"",""20918""
","
","
","""event"",""trial"",""time""
""fullscreenenter"",""1"",""20918""
","
","","","","","","null","<div style=""font-size:60px;"">+</div>","null","","fixation","","",""
"memory-trial","98","304879","0.0-18.0-1.26","7076","approach_avoid_sv1","""event"",""trial"",""time""
""fullscreenenter"",""1"",""20918""
","
","
","""event"",""trial"",""time""
""fullscreenenter"",""1"",""20918""
","
","","","","","","1409.3999998569489","images/goat6.png","","","memory_trial","4","definitely_new",""
"html-keyboard-response","99","305380","0.0-18.0-0.27","7076","approach_avoid_sv1","""event"",""trial"",""time""
""fullscreenenter"",""1"",""20918""
","
","
","""event"",""trial"",""time""
""fullscreenenter"",""1"",""20918""
","
","","","","","","null","<div style=""font-size:60px;"">+</div>","null","","fixation","","",""
"memory-trial","100","307939","0.0-18.0-1.27","7076","approach_avoid_sv1","""event"",""trial"",""time""
""fullscreenenter"",""1"",""20918""
","
","
","""event"",""trial"",""time""
""fullscreenenter"",""1"",""20918""
","
","","","","","","1556.5999999046326","images/rabbit7.png","","","memory_trial","3","maybe_new",""
"html-keyboard-response","101","308440","0.0-18.0-0.28","7076","approach_avoid_sv1","""event"",""trial"",""time""
""fullscreenenter"",""1"",""20918""
","
","
","""event"",""trial"",""time""
""fullscreenenter"",""1"",""20918""
","
","","","","","","null","<div style=""font-size:60px;"">+</div>","null","","fixation","","",""
"memory-trial","102","310559","0.0-18.0-1.28","7076","approach_avoid_sv1","""event"",""trial"",""time""
""fullscreenenter"",""1"",""20918""
","
","
","""event"",""trial"",""time""
""fullscreenenter"",""1"",""20918""
","
","","","","","","1108.3999998569489","images/cow6.png","","","memory_trial","3","maybe_new",""
"html-keyboard-response","103","311061","0.0-18.0-0.29","7076","approach_avoid_sv1","""event"",""trial"",""time""
""fullscreenenter"",""1"",""20918""
","
","
","""event"",""trial"",""time""
""fullscreenenter"",""1"",""20918""
","
","","","","","","null","<div style=""font-size:60px;"">+</div>","null","","fixation","","",""
"memory-trial","104","314560","0.0-18.0-1.29","7076","approach_avoid_sv1","""event"",""trial"",""time""
""fullscreenenter"",""1"",""20918""
","
","
","""event"",""trial"",""time""
""fullscreenenter"",""1"",""20918""
","
","","","","","","2490.4000000953674","images/tree6.png","","","memory_trial","2","maybe_old",""
"html-keyboard-response","105","315061","0.0-18.0-0.30","7076","approach_avoid_sv1","""event"",""trial"",""time""
""fullscreenenter"",""1"",""20918""
","
","
","""event"",""trial"",""time""
""fullscreenenter"",""1"",""20918""
","
","","","","","","null","<div style=""font-size:60px;"">+</div>","null","","fixation","","",""
"memory-trial","106","317302","0.0-18.0-1.30","7076","approach_avoid_sv1","""event"",""trial"",""time""
""fullscreenenter"",""1"",""20918""
","
","
","""event"",""trial"",""time""
""fullscreenenter"",""1"",""20918""
","
","","","","","","1237.3999998569489","images/rodent3.png","","","memory_trial","2","maybe_old",""
"html-keyboard-response","107","317804","0.0-18.0-0.31","7076","approach_avoid_sv1","""event"",""trial"",""time""
""fullscreenenter"",""1"",""20918""
","
","
","""event"",""trial"",""time""
""fullscreenenter"",""1"",""20918""
","
","","","","","","null","<div style=""font-size:60px;"">+</div>","null","","fixation","","",""
"memory-trial","108","319980","0.0-18.0-1.31","7076","approach_avoid_sv1","""event"",""trial"",""time""
""fullscreenenter"",""1"",""20918""
","
","
","""event"",""trial"",""time""
""fullscreenenter"",""1"",""20918""
","
","","","","","","1173.4000000953674","images/boat1.png","","","memory_trial","4","definitely_new",""
"html-keyboard-response","109","320481","0.0-18.0-0.32","7076","approach_avoid_sv1","""event"",""trial"",""time""
""fullscreenenter"",""1"",""20918""
","
","
","""event"",""trial"",""time""
""fullscreenenter"",""1"",""20918""
","
","","","","","","null","<div style=""font-size:60px;"">+</div>","null","","fixation","","",""
"memory-trial","110","322359","0.0-18.0-1.32","7076","approach_avoid_sv1","""event"",""trial"",""time""
""fullscreenenter"",""1"",""20918""
","
","
","""event"",""trial"",""time""
""fullscreenenter"",""1"",""20918""
","
","","","","","","874.2000000476837","images/bush3.png","","","memory_trial","2","maybe_old",""
"html-keyboard-response","111","322860","0.0-18.0-0.33","7076","approach_avoid_sv1","""event"",""trial"",""time""
""fullscreenenter"",""1"",""20918""
","
","
","""event"",""trial"",""time""
""fullscreenenter"",""1"",""20918""
","
","","","","","","null","<div style=""font-size:60px;"">+</div>","null","","fixation","","",""
"memory-trial","112","324999","0.0-18.0-1.33","7076","approach_avoid_sv1","""event"",""trial"",""time""
""fullscreenenter"",""1"",""20918""
","
","
","""event"",""trial"",""time""
""fullscreenenter"",""1"",""20918""
","
","","","","","","1136.1999998092651","images/truck5.png","","","memory_trial","4","definitely_new",""
"html-keyboard-response","113","325501","0.0-18.0-0.34","7076","approach_avoid_sv1","""event"",""trial"",""time""
""fullscreenenter"",""1"",""20918""
","
","
","""event"",""trial"",""time""
""fullscreenenter"",""1"",""20918""
","
","","","","","","null","<div style=""font-size:60px;"">+</div>","null","","fixation","","",""
"memory-trial","114","327457","0.0-18.0-1.34","7076","approach_avoid_sv1","""event"",""trial"",""time""
""fullscreenenter"",""1"",""20918""
","
","
","""event"",""trial"",""time""
""fullscreenenter"",""1"",""20918""
","
","","","","","","953.5999999046326","images/orange4.png","","","memory_trial","4","definitely_new",""
"html-keyboard-response","115","327958","0.0-18.0-0.35","7076","approach_avoid_sv1","""event"",""trial"",""time""
""fullscreenenter"",""1"",""20918""
","
","
","""event"",""trial"",""time""
""fullscreenenter"",""1"",""20918""
","
","","","","","","null","<div style=""font-size:60px;"">+</div>","null","","fixation","","",""
"memory-trial","116","329779","0.0-18.0-1.35","7076","approach_avoid_sv1","""event"",""trial"",""time""
""fullscreenenter"",""1"",""20918""
","
","
","""event"",""trial"",""time""
""fullscreenenter"",""1"",""20918""
","
","","","","","","818.2000000476837","images/orange6.png","","","memory_trial","4","definitely_new",""
"html-keyboard-response","117","330281","0.0-18.0-0.36","7076","approach_avoid_sv1","""event"",""trial"",""time""
""fullscreenenter"",""1"",""20918""
","
","
","""event"",""trial"",""time""
""fullscreenenter"",""1"",""20918""
","
","","","","","","null","<div style=""font-size:60px;"">+</div>","null","","fixation","","",""
"memory-trial","118","332193","0.0-18.0-1.36","7076","approach_avoid_sv1","""event"",""trial"",""time""
""fullscreenenter"",""1"",""20918""
","
","
","""event"",""trial"",""time""
""fullscreenenter"",""1"",""20918""
","
","","","","","","908.5","images/bed4.png","","","memory_trial","4","definitely_new",""
"html-keyboard-response","119","332694","0.0-18.0-0.37","7076","approach_avoid_sv1","""event"",""trial"",""time""
""fullscreenenter"",""1"",""20918""
","
","
","""event"",""trial"",""time""
""fullscreenenter"",""1"",""20918""
","
","","","","","","null","<div style=""font-size:60px;"">+</div>","null","","fixation","","",""
"memory-trial","120","335037","0.0-18.0-1.37","7076","approach_avoid_sv1","""event"",""trial"",""time""
""fullscreenenter"",""1"",""20918""
","
","
","""event"",""trial"",""time""
""fullscreenenter"",""1"",""20918""
","
","","","","","","1339.2999999523163","images/rodent8.png","","","memory_trial","4","definitely_new",""
"html-keyboard-response","121","335538","0.0-18.0-0.38","7076","approach_avoid_sv1","""event"",""trial"",""time""
""fullscreenenter"",""1"",""20918""
","
","
","""event"",""trial"",""time""
""fullscreenenter"",""1"",""20918""
","
","","","","","","null","<div style=""font-size:60px;"">+</div>","null","","fixation","","",""
"memory-trial","122","337880","0.0-18.0-1.38","7076","approach_avoid_sv1","""event"",""trial"",""time""
""fullscreenenter"",""1"",""20918""
","
","
","""event"",""trial"",""time""
""fullscreenenter"",""1"",""20918""
","
","","","","","","1339.5999999046326","images/cat7.png","","","memory_trial","2","maybe_old",""
"html-keyboard-response","123","338382","0.0-18.0-0.39","7076","approach_avoid_sv1","""event"",""trial"",""time""
""fullscreenenter"",""1"",""20918""
","
","
","""event"",""trial"",""time""
""fullscreenenter"",""1"",""20918""
","
","","","","","","null","<div style=""font-size:60px;"">+</div>","null","","fixation","","",""
"memory-trial","124","340267","0.0-18.0-1.39","7076","approach_avoid_sv1","""event"",""trial"",""time""
""fullscreenenter"",""1"",""20918""
","
","
","""event"",""trial"",""time""
""fullscreenenter"",""1"",""20918""
","
","","","","","","882.5","images/dog5.png","","","memory_trial","4","definitely_new",""
"html-keyboard-response","125","340769","0.0-18.0-0.40","7076","approach_avoid_sv1","""event"",""trial"",""time""
""fullscreenenter"",""1"",""20918""
","
","
","""event"",""trial"",""time""
""fullscreenenter"",""1"",""20918""
","
","","","","","","null","<div style=""font-size:60px;"">+</div>","null","","fixation","","",""
"memory-trial","126","343203","0.0-18.0-1.40","7076","approach_avoid_sv1","""event"",""trial"",""time""
""fullscreenenter"",""1"",""20918""
","
","
","""event"",""trial"",""time""
""fullscreenenter"",""1"",""20918""
","
","","","","","","1431.6999998092651","images/boat5.png","","","memory_trial","1","definitely_old",""
"html-keyboard-response","127","343704","0.0-18.0-0.41","7076","approach_avoid_sv1","""event"",""trial"",""time""
""fullscreenenter"",""1"",""20918""
","
","
","""event"",""trial"",""time""
""fullscreenenter"",""1"",""20918""
","
","","","","","","null","<div style=""font-size:60px;"">+</div>","null","","fixation","","",""
"memory-trial","128","346408","0.0-18.0-1.41","7076","approach_avoid_sv1","""event"",""trial"",""time""
""fullscreenenter"",""1"",""20918""
","
","
","""event"",""trial"",""time""
""fullscreenenter"",""1"",""20918""
","
","","","","","","1702.0999999046326","images/orange7.png","","","memory_trial","4","definitely_new",""
"html-button-response","129","349491","0.0-18.0-2.41-0.41","7076","approach_avoid_sv1","""event"",""trial"",""time""
""fullscreenenter"",""1"",""20918""
","
","
","""event"",""trial"",""time""
""fullscreenenter"",""1"",""20918""
","
","","","","","","3082.300000190735","<p> Take a break! </p><p> Click the button to continue. </p>","0","","break","","",""
"html-keyboard-response","130","349993","0.0-18.0-0.42","7076","approach_avoid_sv1","""event"",""trial"",""time""
""fullscreenenter"",""1"",""20918""
","
","
","""event"",""trial"",""time""
""fullscreenenter"",""1"",""20918""
","
","","","","","","null","<div style=""font-size:60px;"">+</div>","null","","fixation","","",""
"memory-trial","131","354008","0.0-18.0-1.42","7076","approach_avoid_sv1","""event"",""trial"",""time""
""fullscreenenter"",""1"",""20918""
","
","
","""event"",""trial"",""time""
""fullscreenenter"",""1"",""20918""
","
","","","","","","3008.399999856949","images/truck6.png","","","memory_trial","4","definitely_new",""
"html-keyboard-response","132","354511","0.0-18.0-0.43","7076","approach_avoid_sv1","""event"",""trial"",""time""
""fullscreenenter"",""1"",""20918""
","
","
","""event"",""trial"",""time""
""fullscreenenter"",""1"",""20918""
","
","","","","","","null","<div style=""font-size:60px;"">+</div>","null","","fixation","","",""
"memory-trial","133","358068","0.0-18.0-1.43","7076","approach_avoid_sv1","""event"",""trial"",""time""
""fullscreenenter"",""1"",""20918""
","
","
","""event"",""trial"",""time""
""fullscreenenter"",""1"",""20918""
","
","","","","","","2554.7000000476837","images/orange3.png","","","memory_trial","4","definitely_new",""
"html-keyboard-response","134","358581","0.0-18.0-0.44","7076","approach_avoid_sv1","""event"",""trial"",""time""
""fullscreenenter"",""1"",""20918""
","
","
","""event"",""trial"",""time""
""fullscreenenter"",""1"",""20918""
","
","","","","","","null","<div style=""font-size:60px;"">+</div>","null","","fixation","","",""
"memory-trial","135","361480","0.0-18.0-1.44","7076","approach_avoid_sv1","""event"",""trial"",""time""
""fullscreenenter"",""1"",""20918""
","
","
","""event"",""trial"",""time""
""fullscreenenter"",""1"",""20918""
","
","","","","","","1894.4000000953674","images/straw3.png","","","memory_trial","2","maybe_old",""
"html-keyboard-response","136","361981","0.0-18.0-0.45","7076","approach_avoid_sv1","""event"",""trial"",""time""
""fullscreenenter"",""1"",""20918""
","
","
","""event"",""trial"",""time""
""fullscreenenter"",""1"",""20918""
","
","","","","","","null","<div style=""font-size:60px;"">+</div>","null","","fixation","","",""
"memory-trial","137","364660","0.0-18.0-1.45","7076","approach_avoid_sv1","""event"",""trial"",""time""
""fullscreenenter"",""1"",""20918""
","
","
","""event"",""trial"",""time""
""fullscreenenter"",""1"",""20918""
","
","","","","","","1676.5","images/rodent2.png","","","memory_trial","3","maybe_new",""
"html-keyboard-response","138","365160","0.0-18.0-0.46","7076","approach_avoid_sv1","""event"",""trial"",""time""
""fullscreenenter"",""1"",""20918""
","
","
","""event"",""trial"",""time""
""fullscreenenter"",""1"",""20918""
","
","","","","","","null","<div style=""font-size:60px;"">+</div>","null","","fixation","","",""
"memory-trial","139","367119","0.0-18.0-1.46","7076","approach_avoid_sv1","""event"",""trial"",""time""
""fullscreenenter"",""1"",""20918""
","
","
","""event"",""trial"",""time""
""fullscreenenter"",""1"",""20918""
","
","","","","","","954.2999999523163","images/chair2.png","","","memory_trial","4","definitely_new",""
"html-keyboard-response","140","367621","0.0-18.0-0.47","7076","approach_avoid_sv1","""event"",""trial"",""time""
""fullscreenenter"",""1"",""20918""
","
","
","""event"",""trial"",""time""
""fullscreenenter"",""1"",""20918""
","
","","","","","","null","<div style=""font-size:60px;"">+</div>","null","","fixation","","",""
"memory-trial","141","369561","0.0-18.0-1.47","7076","approach_avoid_sv1","""event"",""trial"",""time""
""fullscreenenter"",""1"",""20918""
","
","
","""event"",""trial"",""time""
""fullscreenenter"",""1"",""20918""
","
","","","","","","937.3999998569489","images/flower3.png","","","memory_trial","4","definitely_new",""
"html-keyboard-response","142","370063","0.0-18.0-0.48","7076","approach_avoid_sv1","""event"",""trial"",""time""
""fullscreenenter"",""1"",""20918""
","
","
","""event"",""trial"",""time""
""fullscreenenter"",""1"",""20918""
","
","","","","","","null","<div style=""font-size:60px;"">+</div>","null","","fixation","","",""
"memory-trial","143","372254","0.0-18.0-1.48","7076","approach_avoid_sv1","""event"",""trial"",""time""
""fullscreenenter"",""1"",""20918""
","
","
","""event"",""trial"",""time""
""fullscreenenter"",""1"",""20918""
","
","","","","","","1176","images/straw1.png","","","memory_trial","1","definitely_old",""
"html-keyboard-response","144","372755","0.0-18.0-0.49","7076","approach_avoid_sv1","""event"",""trial"",""time""
""fullscreenenter"",""1"",""20918""
","
","
","""event"",""trial"",""time""
""fullscreenenter"",""1"",""20918""
","
","","","","","","null","<div style=""font-size:60px;"">+</div>","null","","fixation","","",""
"memory-trial","145","375496","0.0-18.0-1.49","7076","approach_avoid_sv1","""event"",""trial"",""time""
""fullscreenenter"",""1"",""20918""
","
","
","""event"",""trial"",""time""
""fullscreenenter"",""1"",""20918""
","
","","","","","","1737.8999998569489","images/tree5.png","","","memory_trial","4","definitely_new",""
"html-keyboard-response","146","375998","0.0-18.0-0.50","7076","approach_avoid_sv1","""event"",""trial"",""time""
""fullscreenenter"",""1"",""20918""
","
","
","""event"",""trial"",""time""
""fullscreenenter"",""1"",""20918""
","
","","","","","","null","<div style=""font-size:60px;"">+</div>","null","","fixation","","",""
"memory-trial","147","378024","0.0-18.0-1.50","7076","approach_avoid_sv1","""event"",""trial"",""time""
""fullscreenenter"",""1"",""20918""
","
","
","""event"",""trial"",""time""
""fullscreenenter"",""1"",""20918""
","
","","","","","","1024.0999999046326","images/table2.png","","","memory_trial","1","definitely_old",""
"html-keyboard-response","148","378527","0.0-18.0-0.51","7076","approach_avoid_sv1","""event"",""trial"",""time""
""fullscreenenter"",""1"",""20918""
","
","
","""event"",""trial"",""time""
""fullscreenenter"",""1"",""20918""
","
","","","","","","null","<div style=""font-size:60px;"">+</div>","null","","fixation","","",""
"memory-trial","149","380399","0.0-18.0-1.51","7076","approach_avoid_sv1","""event"",""trial"",""time""
""fullscreenenter"",""1"",""20918""
","
","
","""event"",""trial"",""time""
""fullscreenenter"",""1"",""20918""
","
","","","","","","869.2999999523163","images/flower1.png","","","memory_trial","4","definitely_new",""
"html-keyboard-response","150","380900","0.0-18.0-0.52","7076","approach_avoid_sv1","""event"",""trial"",""time""
""fullscreenenter"",""1"",""20918""
","
","
","""event"",""trial"",""time""
""fullscreenenter"",""1"",""20918""
","
","","","","","","null","<div style=""font-size:60px;"">+</div>","null","","fixation","","",""
"memory-trial","151","383241","0.0-18.0-1.52","7076","approach_avoid_sv1","""event"",""trial"",""time""
""fullscreenenter"",""1"",""20918""
","
","
","""event"",""trial"",""time""
""fullscreenenter"",""1"",""20918""
","
","","","","","","1338.5","images/straw8.png","","","memory_trial","4","definitely_new",""
"html-keyboard-response","152","383743","0.0-18.0-0.53","7076","approach_avoid_sv1","""event"",""trial"",""time""
""fullscreenenter"",""1"",""20918""
","
","
","""event"",""trial"",""time""
""fullscreenenter"",""1"",""20918""
","
","","","","","","null","<div style=""font-size:60px;"">+</div>","null","","fixation","","",""
"memory-trial","153","386024","0.0-18.0-1.53","7076","approach_avoid_sv1","""event"",""trial"",""time""
""fullscreenenter"",""1"",""20918""
","
","
","""event"",""trial"",""time""
""fullscreenenter"",""1"",""20918""
","
","","","","","","1278.8999998569489","images/tree1.png","","","memory_trial","1","definitely_old",""
"html-keyboard-response","154","386534","0.0-18.0-0.54","7076","approach_avoid_sv1","""event"",""trial"",""time""
""fullscreenenter"",""1"",""20918""
","
","
","""event"",""trial"",""time""
""fullscreenenter"",""1"",""20918""
","
","","","","","","null","<div style=""font-size:60px;"">+</div>","null","","fixation","","",""
"memory-trial","155","388814","0.0-18.0-1.54","7076","approach_avoid_sv1","""event"",""trial"",""time""
""fullscreenenter"",""1"",""20918""
","
","
","""event"",""trial"",""time""
""fullscreenenter"",""1"",""20918""
","
","","","","","","1276.5","images/banana3.png","","","memory_trial","4","definitely_new",""
"html-keyboard-response","156","389316","0.0-18.0-0.55","7076","approach_avoid_sv1","""event"",""trial"",""time""
""fullscreenenter"",""1"",""20918""
","
","
","""event"",""trial"",""time""
""fullscreenenter"",""1"",""20918""
","
","","","","","","null","<div style=""font-size:60px;"">+</div>","null","","fixation","","",""
"memory-trial","157","391190","0.0-18.0-1.55","7076","approach_avoid_sv1","""event"",""trial"",""time""
""fullscreenenter"",""1"",""20918""
","
","
","""event"",""trial"",""time""
""fullscreenenter"",""1"",""20918""
","
","","","","","","871.1000001430511","images/dog8.png","","","memory_trial","4","definitely_new",""
"html-keyboard-response","158","391691","0.0-18.0-0.56","7076","approach_avoid_sv1","""event"",""trial"",""time""
""fullscreenenter"",""1"",""20918""
","
","
","""event"",""trial"",""time""
""fullscreenenter"",""1"",""20918""
","
","","","","","","null","<div style=""font-size:60px;"">+</div>","null","","fixation","","",""
"memory-trial","159","393597","0.0-18.0-1.56","7076","approach_avoid_sv1","""event"",""trial"",""time""
""fullscreenenter"",""1"",""20918""
","
","
","""event"",""trial"",""time""
""fullscreenenter"",""1"",""20918""
","
","","","","","","902.1999998092651","images/cow7.png","","","memory_trial","1","definitely_old",""
"html-keyboard-response","160","394098","0.0-18.0-0.57","7076","approach_avoid_sv1","""event"",""trial"",""time""
""fullscreenenter"",""1"",""20918""
","
","
","""event"",""trial"",""time""
""fullscreenenter"",""1"",""20918""
","
","","","","","","null","<div style=""font-size:60px;"">+</div>","null","","fixation","","",""
"memory-trial","161","396183","0.0-18.0-1.57","7076","approach_avoid_sv1","""event"",""trial"",""time""
""fullscreenenter"",""1"",""20918""
","
","
","""event"",""trial"",""time""
""fullscreenenter"",""1"",""20918""
","
","","","","","","1082.7000000476837","images/sheep5.png","","","memory_trial","1","definitely_old",""
"html-keyboard-response","162","396685","0.0-18.0-0.58","7076","approach_avoid_sv1","""event"",""trial"",""time""
""fullscreenenter"",""1"",""20918""
","
","
","""event"",""trial"",""time""
""fullscreenenter"",""1"",""20918""
","
","","","","","","null","<div style=""font-size:60px;"">+</div>","null","","fixation","","",""
"memory-trial","163","398843","0.0-18.0-1.58","7076","approach_avoid_sv1","""event"",""trial"",""time""
""fullscreenenter"",""1"",""20918""
","
","
","""event"",""trial"",""time""
""fullscreenenter"",""1"",""20918""
","
","","","","","","1155.7999999523163","images/flower2.png","","","memory_trial","2","maybe_old",""
"html-keyboard-response","164","399344","0.0-18.0-0.59","7076","approach_avoid_sv1","""event"",""trial"",""time""
""fullscreenenter"",""1"",""20918""
","
","
","""event"",""trial"",""time""
""fullscreenenter"",""1"",""20918""
","
","","","","","","null","<div style=""font-size:60px;"">+</div>","null","","fixation","","",""
"memory-trial","165","401652","0.0-18.0-1.59","7076","approach_avoid_sv1","""event"",""trial"",""time""
""fullscreenenter"",""1"",""20918""
","
","
","""event"",""trial"",""time""
""fullscreenenter"",""1"",""20918""
","
","","","","","","1304.6999998092651","images/plane1.png","","","memory_trial","4","definitely_new",""
"html-keyboard-response","166","402154","0.0-18.0-0.60","7076","approach_avoid_sv1","""event"",""trial"",""time""
""fullscreenenter"",""1"",""20918""
","
","
","""event"",""trial"",""time""
""fullscreenenter"",""1"",""20918""
","
","","","","","","null","<div style=""font-size:60px;"">+</div>","null","","fixation","","",""
"memory-trial","167","404699","0.0-18.0-1.60","7076","approach_avoid_sv1","""event"",""trial"",""time""
""fullscreenenter"",""1"",""20918""
","
","
","""event"",""trial"",""time""
""fullscreenenter"",""1"",""20918""
","
","","","","","","1542.2000000476837","images/train2.png","","","memory_trial","3","maybe_new",""
"html-keyboard-response","168","405200","0.0-18.0-0.61","7076","approach_avoid_sv1","""event"",""trial"",""time""
""fullscreenenter"",""1"",""20918""
","
","
","""event"",""trial"",""time""
""fullscreenenter"",""1"",""20918""
","
","","","","","","null","<div style=""font-size:60px;"">+</div>","null","","fixation","","",""
"memory-trial","169","407460","0.0-18.0-1.61","7076","approach_avoid_sv1","""event"",""trial"",""time""
""fullscreenenter"",""1"",""20918""
","
","
","""event"",""trial"",""time""
""fullscreenenter"",""1"",""20918""
","
","","","","","","1255.7999999523163","images/table4.png","","","memory_trial","3","maybe_new",""
"html-keyboard-response","170","407961","0.0-18.0-0.62","7076","approach_avoid_sv1","""event"",""trial"",""time""
""fullscreenenter"",""1"",""20918""
","
","
","""event"",""trial"",""time""
""fullscreenenter"",""1"",""20918""
","
","","","","","","null","<div style=""font-size:60px;"">+</div>","null","","fixation","","",""
"memory-trial","171","410032","0.0-18.0-1.62","7076","approach_avoid_sv1","""event"",""trial"",""time""
""fullscreenenter"",""1"",""20918""
","
","
","""event"",""trial"",""time""
""fullscreenenter"",""1"",""20918""
","
","","","","","","1067.6000001430511","images/cactus8.png","","","memory_trial","4","definitely_new",""
"html-keyboard-response","172","410534","0.0-18.0-0.63","7076","approach_avoid_sv1","""event"",""trial"",""time""
""fullscreenenter"",""1"",""20918""
","
","
","""event"",""trial"",""time""
""fullscreenenter"",""1"",""20918""
","
","","","","","","null","<div style=""font-size:60px;"">+</div>","null","","fixation","","",""
"memory-trial","173","412485","0.0-18.0-1.63","7076","approach_avoid_sv1","""event"",""trial"",""time""
""fullscreenenter"",""1"",""20918""
","
","
","""event"",""trial"",""time""
""fullscreenenter"",""1"",""20918""
","
","","","","","","947.4000000953674","images/orange2.png","","","memory_trial","3","maybe_new",""
"html-keyboard-response","174","412987","0.0-18.0-0.64","7076","approach_avoid_sv1","""event"",""trial"",""time""
""fullscreenenter"",""1"",""20918""
","
","
","""event"",""trial"",""time""
""fullscreenenter"",""1"",""20918""
","
","","","","","","null","<div style=""font-size:60px;"">+</div>","null","","fixation","","",""
"memory-trial","175","415827","0.0-18.0-1.64","7076","approach_avoid_sv1","""event"",""trial"",""time""
""fullscreenenter"",""1"",""20918""
","
","
","""event"",""trial"",""time""
""fullscreenenter"",""1"",""20918""
","
","","","","","","1837","images/plane3.png","","","memory_trial","2","maybe_old",""
"html-keyboard-response","176","416328","0.0-18.0-0.65","7076","approach_avoid_sv1","""event"",""trial"",""time""
""fullscreenenter"",""1"",""20918""
","
","
","""event"",""trial"",""time""
""fullscreenenter"",""1"",""20918""
","
","","","","","","null","<div style=""font-size:60px;"">+</div>","null","","fixation","","",""
"memory-trial","177","418228","0.0-18.0-1.65","7076","approach_avoid_sv1","""event"",""trial"",""time""
""fullscreenenter"",""1"",""20918""
","
","
","""event"",""trial"",""time""
""fullscreenenter"",""1"",""20918""
","
","","","","","","892.5","images/horse6.png","","","memory_trial","3","maybe_new",""
"html-keyboard-response","178","418730","0.0-18.0-0.66","7076","approach_avoid_sv1","""event"",""trial"",""time""
""fullscreenenter"",""1"",""20918""
","
","
","""event"",""trial"",""time""
""fullscreenenter"",""1"",""20918""
","
","","","","","","null","<div style=""font-size:60px;"">+</div>","null","","fixation","","",""
"memory-trial","179","420419","0.0-18.0-1.66","7076","approach_avoid_sv1","""event"",""trial"",""time""
""fullscreenenter"",""1"",""20918""
","
","
","""event"",""trial"",""time""
""fullscreenenter"",""1"",""20918""
","
","","","","","","685","images/cactus3.png","","","memory_trial","4","definitely_new",""
"html-keyboard-response","180","420920","0.0-18.0-0.67","7076","approach_avoid_sv1","""event"",""trial"",""time""
""fullscreenenter"",""1"",""20918""
","
","
","""event"",""trial"",""time""
""fullscreenenter"",""1"",""20918""
","
","","","","","","null","<div style=""font-size:60px;"">+</div>","null","","fixation","","",""
"memory-trial","181","422916","0.0-18.0-1.67","7076","approach_avoid_sv1","""event"",""trial"",""time""
""fullscreenenter"",""1"",""20918""
","
","
","""event"",""trial"",""time""
""fullscreenenter"",""1"",""20918""
","
","","","","","","993.4000000953674","images/plane2.png","","","memory_trial","1","definitely_old",""
"html-keyboard-response","182","423417","0.0-18.0-0.68","7076","approach_avoid_sv1","""event"",""trial"",""time""
""fullscreenenter"",""1"",""20918""
","
","
","""event"",""trial"",""time""
""fullscreenenter"",""1"",""20918""
","
","","","","","","null","<div style=""font-size:60px;"">+</div>","null","","fixation","","",""
"memory-trial","183","425188","0.0-18.0-1.68","7076","approach_avoid_sv1","""event"",""trial"",""time""
""fullscreenenter"",""1"",""20918""
","
","
","""event"",""trial"",""time""
""fullscreenenter"",""1"",""20918""
","
","","","","","","770","images/boat8.png","","","memory_trial","4","definitely_new",""
"html-keyboard-response","184","425689","0.0-18.0-0.69","7076","approach_avoid_sv1","""event"",""trial"",""time""
""fullscreenenter"",""1"",""20918""
","
","
","""event"",""trial"",""time""
""fullscreenenter"",""1"",""20918""
","
","","","","","","null","<div style=""font-size:60px;"">+</div>","null","","fixation","","",""
"memory-trial","185","427442","0.0-18.0-1.69","7076","approach_avoid_sv1","""event"",""trial"",""time""
""fullscreenenter"",""1"",""20918""
","
","
","""event"",""trial"",""time""
""fullscreenenter"",""1"",""20918""
","
","","","","","","750.2000000476837","images/table3.png","","","memory_trial","4","definitely_new",""
"html-keyboard-response","186","427944","0.0-18.0-0.70","7076","approach_avoid_sv1","""event"",""trial"",""time""
""fullscreenenter"",""1"",""20918""
","
","
","""event"",""trial"",""time""
""fullscreenenter"",""1"",""20918""
","
","","","","","","null","<div style=""font-size:60px;"">+</div>","null","","fixation","","",""
"memory-trial","187","430223","0.0-18.0-1.70","7076","approach_avoid_sv1","""event"",""trial"",""time""
""fullscreenenter"",""1"",""20918""
","
","
","""event"",""trial"",""time""
""fullscreenenter"",""1"",""20918""
","
","","","","","","1275.7000000476837","images/goat3.png","","","memory_trial","2","maybe_old",""
"html-keyboard-response","188","430724","0.0-18.0-0.71","7076","approach_avoid_sv1","""event"",""trial"",""time""
""fullscreenenter"",""1"",""20918""
","
","
","""event"",""trial"",""time""
""fullscreenenter"",""1"",""20918""
","
","","","","","","null","<div style=""font-size:60px;"">+</div>","null","","fixation","","",""
"memory-trial","189","432716","0.0-18.0-1.71","7076","approach_avoid_sv1","""event"",""trial"",""time""
""fullscreenenter"",""1"",""20918""
","
","
","""event"",""trial"",""time""
""fullscreenenter"",""1"",""20918""
","
","","","","","","988.6000001430511","images/cow2.png","","","memory_trial","4","definitely_new",""
"html-keyboard-response","190","433218","0.0-18.0-0.72","7076","approach_avoid_sv1","""event"",""trial"",""time""
""fullscreenenter"",""1"",""20918""
","
","
","""event"",""trial"",""time""
""fullscreenenter"",""1"",""20918""
","
","","","","","","null","<div style=""font-size:60px;"">+</div>","null","","fixation","","",""
"memory-trial","191","435228","0.0-18.0-1.72","7076","approach_avoid_sv1","""event"",""trial"",""time""
""fullscreenenter"",""1"",""20918""
","
","
","""event"",""trial"",""time""
""fullscreenenter"",""1"",""20918""
","
","","","","","","1008.2000000476837","images/cat3.png","","","memory_trial","1","definitely_old",""
"html-keyboard-response","192","435730","0.0-18.0-0.73","7076","approach_avoid_sv1","""event"",""trial"",""time""
""fullscreenenter"",""1"",""20918""
","
","
","""event"",""trial"",""time""
""fullscreenenter"",""1"",""20918""
","
","","","","","","null","<div style=""font-size:60px;"">+</div>","null","","fixation","","",""
"memory-trial","193","437522","0.0-18.0-1.73","7076","approach_avoid_sv1","""event"",""trial"",""time""
""fullscreenenter"",""1"",""20918""
","
","
","""event"",""trial"",""time""
""fullscreenenter"",""1"",""20918""
","
","","","","","","788.5","images/straw7.png","","","memory_trial","4","definitely_new",""
"html-keyboard-response","194","438024","0.0-18.0-0.74","7076","approach_avoid_sv1","""event"",""trial"",""time""
""fullscreenenter"",""1"",""20918""
","
","
","""event"",""trial"",""time""
""fullscreenenter"",""1"",""20918""
","
","","","","","","null","<div style=""font-size:60px;"">+</div>","null","","fixation","","",""
"memory-trial","195","439702","0.0-18.0-1.74","7076","approach_avoid_sv1","""event"",""trial"",""time""
""fullscreenenter"",""1"",""20918""
","
","
","""event"",""trial"",""time""
""fullscreenenter"",""1"",""20918""
","
","","","","","","675.2999999523163","images/chair8.png","","","memory_trial","4","definitely_new",""
"html-keyboard-response","196","440204","0.0-18.0-0.75","7076","approach_avoid_sv1","""event"",""trial"",""time""
""fullscreenenter"",""1"",""20918""
","
","
","""event"",""trial"",""time""
""fullscreenenter"",""1"",""20918""
","
","","","","","","null","<div style=""font-size:60px;"">+</div>","null","","fixation","","",""
"memory-trial","197","442284","0.0-18.0-1.75","7076","approach_avoid_sv1","""event"",""trial"",""time""
""fullscreenenter"",""1"",""20918""
","
","
","""event"",""trial"",""time""
""fullscreenenter"",""1"",""20918""
","
","","","","","","1077.5","images/train5.png","","","memory_trial","2","maybe_old",""
"html-keyboard-response","198","442785","0.0-18.0-0.76","7076","approach_avoid_sv1","""event"",""trial"",""time""
""fullscreenenter"",""1"",""20918""
","
","
","""event"",""trial"",""time""
""fullscreenenter"",""1"",""20918""
","
","","","","","","null","<div style=""font-size:60px;"">+</div>","null","","fixation","","",""
"memory-trial","199","444651","0.0-18.0-1.76","7076","approach_avoid_sv1","""event"",""trial"",""time""
""fullscreenenter"",""1"",""20918""
","
","
","""event"",""trial"",""time""
""fullscreenenter"",""1"",""20918""
","
","","","","","","862.5","images/rabbit2.png","","","memory_trial","4","definitely_new",""
"html-keyboard-response","200","445152","0.0-18.0-0.77","7076","approach_avoid_sv1","""event"",""trial"",""time""
""fullscreenenter"",""1"",""20918""
","
","
","""event"",""trial"",""time""
""fullscreenenter"",""1"",""20918""
","
","","","","","","null","<div style=""font-size:60px;"">+</div>","null","","fixation","","",""
"memory-trial","201","448423","0.0-18.0-1.77","7076","approach_avoid_sv1","""event"",""trial"",""time""
""fullscreenenter"",""1"",""20918""
","
","
","""event"",""trial"",""time""
""fullscreenenter"",""1"",""20918""
","
","","","","","","2268.2999999523163","images/dog4.png","","","memory_trial","2","maybe_old",""
"html-keyboard-response","202","448924","0.0-18.0-0.78","7076","approach_avoid_sv1","""event"",""trial"",""time""
""fullscreenenter"",""1"",""20918""
","
","
","""event"",""trial"",""time""
""fullscreenenter"",""1"",""20918""
","
","","","","","","null","<div style=""font-size:60px;"">+</div>","null","","fixation","","",""
"memory-trial","203","450527","0.0-18.0-1.78","7076","approach_avoid_sv1","""event"",""trial"",""time""
""fullscreenenter"",""1"",""20918""
","
","
","""event"",""trial"",""time""
""fullscreenenter"",""1"",""20918""
","
","","","","","","599.7000000476837","images/cactus4.png","","","memory_trial","4","definitely_new",""
"html-keyboard-response","204","451028","0.0-18.0-0.79","7076","approach_avoid_sv1","""event"",""trial"",""time""
""fullscreenenter"",""1"",""20918""
","
","
","""event"",""trial"",""time""
""fullscreenenter"",""1"",""20918""
","
","","","","","","null","<div style=""font-size:60px;"">+</div>","null","","fixation","","",""
"memory-trial","205","452573","0.0-18.0-1.79","7076","approach_avoid_sv1","""event"",""trial"",""time""
""fullscreenenter"",""1"",""20918""
","
","
","""event"",""trial"",""time""
""fullscreenenter"",""1"",""20918""
","
","","","","","","541.5999999046326","images/chair6.png","","","memory_trial","1","definitely_old",""
"html-keyboard-response","206","453074","0.0-18.0-0.80","7076","approach_avoid_sv1","""event"",""trial"",""time""
""fullscreenenter"",""1"",""20918""
","
","
","""event"",""trial"",""time""
""fullscreenenter"",""1"",""20918""
","
","","","","","","null","<div style=""font-size:60px;"">+</div>","null","","fixation","","",""
"memory-trial","207","454920","0.0-18.0-1.80","7076","approach_avoid_sv1","""event"",""trial"",""time""
""fullscreenenter"",""1"",""20918""
","
","
","""event"",""trial"",""time""
""fullscreenenter"",""1"",""20918""
","
","","","","","","843.2000000476837","images/bush1.png","","","memory_trial","2","maybe_old",""
"html-keyboard-response","208","455423","0.0-18.0-0.81","7076","approach_avoid_sv1","""event"",""trial"",""time""
""fullscreenenter"",""1"",""20918""
","
","
","""event"",""trial"",""time""
""fullscreenenter"",""1"",""20918""
","
","","","","","","null","<div style=""font-size:60px;"">+</div>","null","","fixation","","",""
"memory-trial","209","457387","0.0-18.0-1.81","7076","approach_avoid_sv1","""event"",""trial"",""time""
""fullscreenenter"",""1"",""20918""
","
","
","""event"",""trial"",""time""
""fullscreenenter"",""1"",""20918""
","
","","","","","","962.0999999046326","images/cat6.png","","","memory_trial","4","definitely_new",""
"html-keyboard-response","210","457887","0.0-18.0-0.82","7076","approach_avoid_sv1","""event"",""trial"",""time""
""fullscreenenter"",""1"",""20918""
","
","
","""event"",""trial"",""time""
""fullscreenenter"",""1"",""20918""
","
","","","","","","null","<div style=""font-size:60px;"">+</div>","null","","fixation","","",""
"memory-trial","211","460151","0.0-18.0-1.82","7076","approach_avoid_sv1","""event"",""trial"",""time""
""fullscreenenter"",""1"",""20918""
","
","
","""event"",""trial"",""time""
""fullscreenenter"",""1"",""20918""
","
","","","","","","1260.8000001907349","images/bush2.png","","","memory_trial","1","definitely_old",""
"html-keyboard-response","212","460653","0.0-18.0-0.83","7076","approach_avoid_sv1","""event"",""trial"",""time""
""fullscreenenter"",""1"",""20918""
","
","
","""event"",""trial"",""time""
""fullscreenenter"",""1"",""20918""
","
","","","","","","null","<div style=""font-size:60px;"">+</div>","null","","fixation","","",""
"memory-trial","213","463323","0.0-18.0-1.83","7076","approach_avoid_sv1","""event"",""trial"",""time""
""fullscreenenter"",""1"",""20918""
","
","
","""event"",""trial"",""time""
""fullscreenenter"",""1"",""20918""
","
","","","","","","1667.4000000953674","images/boat3.png","","","memory_trial","4","definitely_new",""
"html-keyboard-response","214","463825","0.0-18.0-0.84","7076","approach_avoid_sv1","""event"",""trial"",""time""
""fullscreenenter"",""1"",""20918""
","
","
","""event"",""trial"",""time""
""fullscreenenter"",""1"",""20918""
","
","","","","","","null","<div style=""font-size:60px;"">+</div>","null","","fixation","","",""
"memory-trial","215","466322","0.0-18.0-1.84","7076","approach_avoid_sv1","""event"",""trial"",""time""
""fullscreenenter"",""1"",""20918""
","
","
","""event"",""trial"",""time""
""fullscreenenter"",""1"",""20918""
","
","","","","","","1496.1000001430511","images/flower8.png","","","memory_trial","2","maybe_old",""
"html-keyboard-response","216","466825","0.0-18.0-0.85","7076","approach_avoid_sv1","""event"",""trial"",""time""
""fullscreenenter"",""1"",""20918""
","
","
","""event"",""trial"",""time""
""fullscreenenter"",""1"",""20918""
","
","","","","","","null","<div style=""font-size:60px;"">+</div>","null","","fixation","","",""
"memory-trial","217","468545","0.0-18.0-1.85","7076","approach_avoid_sv1","""event"",""trial"",""time""
""fullscreenenter"",""1"",""20918""
","
","
","""event"",""trial"",""time""
""fullscreenenter"",""1"",""20918""
","
","","","","","","717.7000000476837","images/straw2.png","","","memory_trial","4","definitely_new",""
"html-keyboard-response","218","469046","0.0-18.0-0.86","7076","approach_avoid_sv1","""event"",""trial"",""time""
""fullscreenenter"",""1"",""20918""
","
","
","""event"",""trial"",""time""
""fullscreenenter"",""1"",""20918""
","
","","","","","","null","<div style=""font-size:60px;"">+</div>","null","","fixation","","",""
"memory-trial","219","471267","0.0-18.0-1.86","7076","approach_avoid_sv1","""event"",""trial"",""time""
""fullscreenenter"",""1"",""20918""
","
","
","""event"",""trial"",""time""
""fullscreenenter"",""1"",""20918""
","
","","","","","","1217.4000000953674","images/cow5.png","","","memory_trial","2","maybe_old",""
"html-keyboard-response","220","471768","0.0-18.0-0.87","7076","approach_avoid_sv1","""event"",""trial"",""time""
""fullscreenenter"",""1"",""20918""
","
","
","""event"",""trial"",""time""
""fullscreenenter"",""1"",""20918""
","
","","","","","","null","<div style=""font-size:60px;"">+</div>","null","","fixation","","",""
"memory-trial","221","474168","0.0-18.0-1.87","7076","approach_avoid_sv1","""event"",""trial"",""time""
""fullscreenenter"",""1"",""20918""
","
","
","""event"",""trial"",""time""
""fullscreenenter"",""1"",""20918""
","
","","","","","","1398.2999999523163","images/bed1.png","","","memory_trial","3","maybe_new",""
"html-keyboard-response","222","474669","0.0-18.0-0.88","7076","approach_avoid_sv1","""event"",""trial"",""time""
""fullscreenenter"",""1"",""20918""
","
","
","""event"",""trial"",""time""
""fullscreenenter"",""1"",""20918""
","
","","","","","","null","<div style=""font-size:60px;"">+</div>","null","","fixation","","",""
"memory-trial","223","476924","0.0-18.0-1.88","7076","approach_avoid_sv1","""event"",""trial"",""time""
""fullscreenenter"",""1"",""20918""
","
","
","""event"",""trial"",""time""
""fullscreenenter"",""1"",""20918""
","
","","","","","","1250.9000000953674","images/plane5.png","","","memory_trial","2","maybe_old",""
"html-keyboard-response","224","477427","0.0-18.0-0.89","7076","approach_avoid_sv1","""event"",""trial"",""time""
""fullscreenenter"",""1"",""20918""
","
","
","""event"",""trial"",""time""
""fullscreenenter"",""1"",""20918""
","
","","","","","","null","<div style=""font-size:60px;"">+</div>","null","","fixation","","",""
"memory-trial","225","479420","0.0-18.0-1.89","7076","approach_avoid_sv1","""event"",""trial"",""time""
""fullscreenenter"",""1"",""20918""
","
","
","""event"",""trial"",""time""
""fullscreenenter"",""1"",""20918""
","
","","","","","","990","images/sofa1.png","","","memory_trial","4","definitely_new",""
"html-keyboard-response","226","479921","0.0-18.0-0.90","7076","approach_avoid_sv1","""event"",""trial"",""time""
""fullscreenenter"",""1"",""20918""
","
","
","""event"",""trial"",""time""
""fullscreenenter"",""1"",""20918""
","
","","","","","","null","<div style=""font-size:60px;"">+</div>","null","","fixation","","",""
"memory-trial","227","481616","0.0-18.0-1.90","7076","approach_avoid_sv1","""event"",""trial"",""time""
""fullscreenenter"",""1"",""20918""
","
","
","""event"",""trial"",""time""
""fullscreenenter"",""1"",""20918""
","
","","","","","","692.9000000953674","images/table5.png","","","memory_trial","4","definitely_new",""
"html-keyboard-response","228","482118","0.0-18.0-0.91","7076","approach_avoid_sv1","""event"",""trial"",""time""
""fullscreenenter"",""1"",""20918""
","
","
","""event"",""trial"",""time""
""fullscreenenter"",""1"",""20918""
","
","","","","","","null","<div style=""font-size:60px;"">+</div>","null","","fixation","","",""
"memory-trial","229","484617","0.0-18.0-1.91","7076","approach_avoid_sv1","""event"",""trial"",""time""
""fullscreenenter"",""1"",""20918""
","
","
","""event"",""trial"",""time""
""fullscreenenter"",""1"",""20918""
","
","","","","","","1497.5","images/cow4.png","","","memory_trial","4","definitely_new",""
"html-button-response","230","492976","0.0-18.0-2.91-0.91","7076","approach_avoid_sv1","""event"",""trial"",""time""
""fullscreenenter"",""1"",""20918""
","
","
","""event"",""trial"",""time""
""fullscreenenter"",""1"",""20918""
","
","","","","","","8357.700000047684","<p> Take a break! </p><p> Click the button to continue. </p>","0","","break","","",""
"html-keyboard-response","231","493479","0.0-18.0-0.92","7076","approach_avoid_sv1","""event"",""trial"",""time""
""fullscreenenter"",""1"",""20918""
","
","
","""event"",""trial"",""time""
""fullscreenenter"",""1"",""20918""
","
","","","","","","null","<div style=""font-size:60px;"">+</div>","null","","fixation","","",""
"memory-trial","232","496110","0.0-18.0-1.92","7076","approach_avoid_sv1","""event"",""trial"",""time""
""fullscreenenter"",""1"",""20918""
","
","
","""event"",""trial"",""time""
""fullscreenenter"",""1"",""20918""
","
","","","","","","1626.7999999523163","images/goat7.png","","","memory_trial","2","maybe_old",""
"html-keyboard-response","233","496611","0.0-18.0-0.93","7076","approach_avoid_sv1","""event"",""trial"",""time""
""fullscreenenter"",""1"",""20918""
","
","
","""event"",""trial"",""time""
""fullscreenenter"",""1"",""20918""
","
","","","","","","null","<div style=""font-size:60px;"">+</div>","null","","fixation","","",""
"memory-trial","234","499301","0.0-18.0-1.93","7076","approach_avoid_sv1","""event"",""trial"",""time""
""fullscreenenter"",""1"",""20918""
","
","
","""event"",""trial"",""time""
""fullscreenenter"",""1"",""20918""
","
","","","","","","1687.3999998569489","images/goat2.png","","","memory_trial","4","definitely_new",""
"html-keyboard-response","235","499802","0.0-18.0-0.94","7076","approach_avoid_sv1","""event"",""trial"",""time""
""fullscreenenter"",""1"",""20918""
","
","
","""event"",""trial"",""time""
""fullscreenenter"",""1"",""20918""
","
","","","","","","null","<div style=""font-size:60px;"">+</div>","null","","fixation","","",""
"memory-trial","236","501858","0.0-18.0-1.94","7076","approach_avoid_sv1","""event"",""trial"",""time""
""fullscreenenter"",""1"",""20918""
","
","
","""event"",""trial"",""time""
""fullscreenenter"",""1"",""20918""
","
","","","","","","1052.2999999523163","images/train7.png","","","memory_trial","3","maybe_new",""
"html-keyboard-response","237","502360","0.0-18.0-0.95","7076","approach_avoid_sv1","""event"",""trial"",""time""
""fullscreenenter"",""1"",""20918""
","
","
","""event"",""trial"",""time""
""fullscreenenter"",""1"",""20918""
","
","","","","","","null","<div style=""font-size:60px;"">+</div>","null","","fixation","","",""
"memory-trial","238","504004","0.0-18.0-1.95","7076","approach_avoid_sv1","""event"",""trial"",""time""
""fullscreenenter"",""1"",""20918""
","
","
","""event"",""trial"",""time""
""fullscreenenter"",""1"",""20918""
","
","","","","","","641.5","images/cactus5.png","","","memory_trial","4","definitely_new",""
"html-keyboard-response","239","504506","0.0-18.0-0.96","7076","approach_avoid_sv1","""event"",""trial"",""time""
""fullscreenenter"",""1"",""20918""
","
","
","""event"",""trial"",""time""
""fullscreenenter"",""1"",""20918""
","
","","","","","","null","<div style=""font-size:60px;"">+</div>","null","","fixation","","",""
"memory-trial","240","507242","0.0-18.0-1.96","7076","approach_avoid_sv1","""event"",""trial"",""time""
""fullscreenenter"",""1"",""20918""
","
","
","""event"",""trial"",""time""
""fullscreenenter"",""1"",""20918""
","
","","","","","","1734.2999999523163","images/plane4.png","","","memory_trial","2","maybe_old",""
"html-keyboard-response","241","507743","0.0-18.0-0.97","7076","approach_avoid_sv1","""event"",""trial"",""time""
""fullscreenenter"",""1"",""20918""
","
","
","""event"",""trial"",""time""
""fullscreenenter"",""1"",""20918""
","
","","","","","","null","<div style=""font-size:60px;"">+</div>","null","","fixation","","",""
"memory-trial","242","509452","0.0-18.0-1.97","7076","approach_avoid_sv1","""event"",""trial"",""time""
""fullscreenenter"",""1"",""20918""
","
","
","""event"",""trial"",""time""
""fullscreenenter"",""1"",""20918""
","
","","","","","","706.2999999523163","images/rodent5.png","","","memory_trial","4","definitely_new",""
"html-keyboard-response","243","509953","0.0-18.0-0.98","7076","approach_avoid_sv1","""event"",""trial"",""time""
""fullscreenenter"",""1"",""20918""
","
","
","""event"",""trial"",""time""
""fullscreenenter"",""1"",""20918""
","
","","","","","","null","<div style=""font-size:60px;"">+</div>","null","","fixation","","",""
"memory-trial","244","512116","0.0-18.0-1.98","7076","approach_avoid_sv1","""event"",""trial"",""time""
""fullscreenenter"",""1"",""20918""
","
","
","""event"",""trial"",""time""
""fullscreenenter"",""1"",""20918""
","
","","","","","","1159.8999998569489","images/dog3.png","","","memory_trial","3","maybe_new",""
"html-keyboard-response","245","512618","0.0-18.0-0.99","7076","approach_avoid_sv1","""event"",""trial"",""time""
""fullscreenenter"",""1"",""20918""
","
","
","""event"",""trial"",""time""
""fullscreenenter"",""1"",""20918""
","
","","","","","","null","<div style=""font-size:60px;"">+</div>","null","","fixation","","",""
"memory-trial","246","514448","0.0-18.0-1.99","7076","approach_avoid_sv1","""event"",""trial"",""time""
""fullscreenenter"",""1"",""20918""
","
","
","""event"",""trial"",""time""
""fullscreenenter"",""1"",""20918""
","
","","","","","","827.7999999523163","images/horse4.png","","","memory_trial","4","definitely_new",""
"html-keyboard-response","247","514949","0.0-18.0-0.100","7076","approach_avoid_sv1","""event"",""trial"",""time""
""fullscreenenter"",""1"",""20918""
","
","
","""event"",""trial"",""time""
""fullscreenenter"",""1"",""20918""
","
","","","","","","null","<div style=""font-size:60px;"">+</div>","null","","fixation","","",""
"memory-trial","248","516998","0.0-18.0-1.100","7076","approach_avoid_sv1","""event"",""trial"",""time""
""fullscreenenter"",""1"",""20918""
","
","
","""event"",""trial"",""time""
""fullscreenenter"",""1"",""20918""
","
","","","","","","1046.7999999523163","images/sofa4.png","","","memory_trial","1","definitely_old",""
"html-keyboard-response","249","517500","0.0-18.0-0.101","7076","approach_avoid_sv1","""event"",""trial"",""time""
""fullscreenenter"",""1"",""20918""
","
","
","""event"",""trial"",""time""
""fullscreenenter"",""1"",""20918""
","
","","","","","","null","<div style=""font-size:60px;"">+</div>","null","","fixation","","",""
"memory-trial","250","519421","0.0-18.0-1.101","7076","approach_avoid_sv1","""event"",""trial"",""time""
""fullscreenenter"",""1"",""20918""
","
","
","""event"",""trial"",""time""
""fullscreenenter"",""1"",""20918""
","
","","","","","","918.7999999523163","images/sofa5.png","","","memory_trial","1","definitely_old",""
"html-keyboard-response","251","519922","0.0-18.0-0.102","7076","approach_avoid_sv1","""event"",""trial"",""time""
""fullscreenenter"",""1"",""20918""
","
","
","""event"",""trial"",""time""
""fullscreenenter"",""1"",""20918""
","
","","","","","","null","<div style=""font-size:60px;"">+</div>","null","","fixation","","",""
"memory-trial","252","522205","0.0-18.0-1.102","7076","approach_avoid_sv1","""event"",""trial"",""time""
""fullscreenenter"",""1"",""20918""
","
","
","""event"",""trial"",""time""
""fullscreenenter"",""1"",""20918""
","
","","","","","","1280.2000000476837","images/bush5.png","","","memory_trial","4","definitely_new",""
"html-keyboard-response","253","522706","0.0-18.0-0.103","7076","approach_avoid_sv1","""event"",""trial"",""time""
""fullscreenenter"",""1"",""20918""
","
","
","""event"",""trial"",""time""
""fullscreenenter"",""1"",""20918""
","
","","","","","","null","<div style=""font-size:60px;"">+</div>","null","","fixation","","",""
"memory-trial","254","524653","0.0-18.0-1.103","7076","approach_avoid_sv1","""event"",""trial"",""time""
""fullscreenenter"",""1"",""20918""
","
","
","""event"",""trial"",""time""
""fullscreenenter"",""1"",""20918""
","
","","","","","","944.5","images/goat4.png","","","memory_trial","4","definitely_new",""
"html-keyboard-response","255","525154","0.0-18.0-0.104","7076","approach_avoid_sv1","""event"",""trial"",""time""
""fullscreenenter"",""1"",""20918""
","
","
","""event"",""trial"",""time""
""fullscreenenter"",""1"",""20918""
","
","","","","","","null","<div style=""font-size:60px;"">+</div>","null","","fixation","","",""
"memory-trial","256","527388","0.0-18.0-1.104","7076","approach_avoid_sv1","""event"",""trial"",""time""
""fullscreenenter"",""1"",""20918""
","
","
","""event"",""trial"",""time""
""fullscreenenter"",""1"",""20918""
","
","","","","","","1231.5999999046326","images/goat5.png","","","memory_trial","4","definitely_new",""
"html-keyboard-response","257","527891","0.0-18.0-0.105","7076","approach_avoid_sv1","""event"",""trial"",""time""
""fullscreenenter"",""1"",""20918""
","
","
","""event"",""trial"",""time""
""fullscreenenter"",""1"",""20918""
","
","","","","","","null","<div style=""font-size:60px;"">+</div>","null","","fixation","","",""
"memory-trial","258","529944","0.0-18.0-1.105","7076","approach_avoid_sv1","""event"",""trial"",""time""
""fullscreenenter"",""1"",""20918""
","
","
","""event"",""trial"",""time""
""fullscreenenter"",""1"",""20918""
","
","","","","","","1050","images/bed6.png","","","memory_trial","4","definitely_new",""
"html-keyboard-response","259","530446","0.0-18.0-0.106","7076","approach_avoid_sv1","""event"",""trial"",""time""
""fullscreenenter"",""1"",""20918""
","
","
","""event"",""trial"",""time""
""fullscreenenter"",""1"",""20918""
","
","","","","","","null","<div style=""font-size:60px;"">+</div>","null","","fixation","","",""
"memory-trial","260","532983","0.0-18.0-1.106","7076","approach_avoid_sv1","""event"",""trial"",""time""
""fullscreenenter"",""1"",""20918""
","
","
","""event"",""trial"",""time""
""fullscreenenter"",""1"",""20918""
","
","","","","","","1535.4000000953674","images/cow1.png","","","memory_trial","1","definitely_old",""
"html-keyboard-response","261","533484","0.0-18.0-0.107","7076","approach_avoid_sv1","""event"",""trial"",""time""
""fullscreenenter"",""1"",""20918""
","
","
","""event"",""trial"",""time""
""fullscreenenter"",""1"",""20918""
","
","","","","","","null","<div style=""font-size:60px;"">+</div>","null","","fixation","","",""
"memory-trial","262","535597","0.0-18.0-1.107","7076","approach_avoid_sv1","""event"",""trial"",""time""
""fullscreenenter"",""1"",""20918""
","
","
","""event"",""trial"",""time""
""fullscreenenter"",""1"",""20918""
","
","","","","","","1110.1000001430511","images/apple2.png","","","memory_trial","1","definitely_old",""
"html-keyboard-response","263","536098","0.0-18.0-0.108","7076","approach_avoid_sv1","""event"",""trial"",""time""
""fullscreenenter"",""1"",""20918""
","
","
","""event"",""trial"",""time""
""fullscreenenter"",""1"",""20918""
","
","","","","","","null","<div style=""font-size:60px;"">+</div>","null","","fixation","","",""
"memory-trial","264","538018","0.0-18.0-1.108","7076","approach_avoid_sv1","""event"",""trial"",""time""
""fullscreenenter"",""1"",""20918""
","
","
","""event"",""trial"",""time""
""fullscreenenter"",""1"",""20918""
","
","","","","","","916.3999998569489","images/rodent4.png","","","memory_trial","1","definitely_old",""
"html-keyboard-response","265","538518","0.0-18.0-0.109","7076","approach_avoid_sv1","""event"",""trial"",""time""
""fullscreenenter"",""1"",""20918""
","
","
","""event"",""trial"",""time""
""fullscreenenter"",""1"",""20918""
","
","","","","","","null","<div style=""font-size:60px;"">+</div>","null","","fixation","","",""
"memory-trial","266","540343","0.0-18.0-1.109","7076","approach_avoid_sv1","""event"",""trial"",""time""
""fullscreenenter"",""1"",""20918""
","
","
","""event"",""trial"",""time""
""fullscreenenter"",""1"",""20918""
","
","","","","","","821.7999999523163","images/chair5.png","","","memory_trial","4","definitely_new",""
"html-keyboard-response","267","540843","0.0-18.0-0.110","7076","approach_avoid_sv1","""event"",""trial"",""time""
""fullscreenenter"",""1"",""20918""
","
","
","""event"",""trial"",""time""
""fullscreenenter"",""1"",""20918""
","
","","","","","","null","<div style=""font-size:60px;"">+</div>","null","","fixation","","",""
"memory-trial","268","542587","0.0-18.0-1.110","7076","approach_avoid_sv1","""event"",""trial"",""time""
""fullscreenenter"",""1"",""20918""
","
","
","""event"",""trial"",""time""
""fullscreenenter"",""1"",""20918""
","
","","","","","","741.1000001430511","images/sheep8.png","","","memory_trial","4","definitely_new",""
"html-keyboard-response","269","543089","0.0-18.0-0.111","7076","approach_avoid_sv1","""event"",""trial"",""time""
""fullscreenenter"",""1"",""20918""
","
","
","""event"",""trial"",""time""
""fullscreenenter"",""1"",""20918""
","
","","","","","","null","<div style=""font-size:60px;"">+</div>","null","","fixation","","",""
"memory-trial","270","546198","0.0-18.0-1.111","7076","approach_avoid_sv1","""event"",""trial"",""time""
""fullscreenenter"",""1"",""20918""
","
","
","""event"",""trial"",""time""
""fullscreenenter"",""1"",""20918""
","
","","","","","","2106.7000000476837","images/rodent1.png","","","memory_trial","3","maybe_new",""
"html-keyboard-response","271","546700","0.0-18.0-0.112","7076","approach_avoid_sv1","""event"",""trial"",""time""
""fullscreenenter"",""1"",""20918""
","
","
","""event"",""trial"",""time""
""fullscreenenter"",""1"",""20918""
","
","","","","","","null","<div style=""font-size:60px;"">+</div>","null","","fixation","","",""
"memory-trial","272","549587","0.0-18.0-1.112","7076","approach_avoid_sv1","""event"",""trial"",""time""
""fullscreenenter"",""1"",""20918""
","
","
","""event"",""trial"",""time""
""fullscreenenter"",""1"",""20918""
","
","","","","","","1884.4000000953674","images/dog6.png","","","memory_trial","3","maybe_new",""
"html-keyboard-response","273","550088","0.0-18.0-0.113","7076","approach_avoid_sv1","""event"",""trial"",""time""
""fullscreenenter"",""1"",""20918""
","
","
","""event"",""trial"",""time""
""fullscreenenter"",""1"",""20918""
","
","","","","","","null","<div style=""font-size:60px;"">+</div>","null","","fixation","","",""
"memory-trial","274","551946","0.0-18.0-1.113","7076","approach_avoid_sv1","""event"",""trial"",""time""
""fullscreenenter"",""1"",""20918""
","
","
","""event"",""trial"",""time""
""fullscreenenter"",""1"",""20918""
","
","","","","","","854.2000000476837","images/tree2.png","","","memory_trial","3","maybe_new",""
"html-keyboard-response","275","552447","0.0-18.0-0.114","7076","approach_avoid_sv1","""event"",""trial"",""time""
""fullscreenenter"",""1"",""20918""
","
","
","""event"",""trial"",""time""
""fullscreenenter"",""1"",""20918""
","
","","","","","","null","<div style=""font-size:60px;"">+</div>","null","","fixation","","",""
"memory-trial","276","555313","0.0-18.0-1.114","7076","approach_avoid_sv1","""event"",""trial"",""time""
""fullscreenenter"",""1"",""20918""
","
","
","""event"",""trial"",""time""
""fullscreenenter"",""1"",""20918""
","
","","","","","","1864","images/rabbit1.png","","","memory_trial","2","maybe_old",""
"html-keyboard-response","277","555814","0.0-18.0-0.115","7076","approach_avoid_sv1","""event"",""trial"",""time""
""fullscreenenter"",""1"",""20918""
","
","
","""event"",""trial"",""time""
""fullscreenenter"",""1"",""20918""
","
","","","","","","null","<div style=""font-size:60px;"">+</div>","null","","fixation","","",""
"memory-trial","278","557937","0.0-18.0-1.115","7076","approach_avoid_sv1","""event"",""trial"",""time""
""fullscreenenter"",""1"",""20918""
","
","
","""event"",""trial"",""time""
""fullscreenenter"",""1"",""20918""
","
","","","","","","1119.7999999523163","images/tree4.png","","","memory_trial","1","definitely_old",""
"html-keyboard-response","279","558438","0.0-18.0-0.116","7076","approach_avoid_sv1","""event"",""trial"",""time""
""fullscreenenter"",""1"",""20918""
","
","
","""event"",""trial"",""time""
""fullscreenenter"",""1"",""20918""
","
","","","","","","null","<div style=""font-size:60px;"">+</div>","null","","fixation","","",""
"memory-trial","280","560806","0.0-18.0-1.116","7076","approach_avoid_sv1","""event"",""trial"",""time""
""fullscreenenter"",""1"",""20918""
","
","
","""event"",""trial"",""time""
""fullscreenenter"",""1"",""20918""
","
","","","","","","1365.6000001430511","images/tree3.png","","","memory_trial","1","definitely_old",""
"html-keyboard-response","281","561308","0.0-18.0-0.117","7076","approach_avoid_sv1","""event"",""trial"",""time""
""fullscreenenter"",""1"",""20918""
","
","
","""event"",""trial"",""time""
""fullscreenenter"",""1"",""20918""
","
","","","","","","null","<div style=""font-size:60px;"">+</div>","null","","fixation","","",""
"memory-trial","282","563840","0.0-18.0-1.117","7076","approach_avoid_sv1","""event"",""trial"",""time""
""fullscreenenter"",""1"",""20918""
","
","
","""event"",""trial"",""time""
""fullscreenenter"",""1"",""20918""
","
","","","","","","1529.8999998569489","images/dog1.png","","","memory_trial","1","definitely_old",""
"html-keyboard-response","283","564341","0.0-18.0-0.118","7076","approach_avoid_sv1","""event"",""trial"",""time""
""fullscreenenter"",""1"",""20918""
","
","
","""event"",""trial"",""time""
""fullscreenenter"",""1"",""20918""
","
","","","","","","null","<div style=""font-size:60px;"">+</div>","null","","fixation","","",""
"memory-trial","284","566372","0.0-18.0-1.118","7076","approach_avoid_sv1","""event"",""trial"",""time""
""fullscreenenter"",""1"",""20918""
","
","
","""event"",""trial"",""time""
""fullscreenenter"",""1"",""20918""
","
","","","","","","1027.5","images/boat7.png","","","memory_trial","1","definitely_old",""
"html-keyboard-response","285","566874","0.0-18.0-0.119","7076","approach_avoid_sv1","""event"",""trial"",""time""
""fullscreenenter"",""1"",""20918""
","
","
","""event"",""trial"",""time""
""fullscreenenter"",""1"",""20918""
","
","","","","","","null","<div style=""font-size:60px;"">+</div>","null","","fixation","","",""
"memory-trial","286","569225","0.0-18.0-1.119","7076","approach_avoid_sv1","""event"",""trial"",""time""
""fullscreenenter"",""1"",""20918""
","
","
","""event"",""trial"",""time""
""fullscreenenter"",""1"",""20918""
","
","","","","","","1348.7000000476837","images/rodent6.png","","","memory_trial","2","maybe_old",""
"html-keyboard-response","287","569727","0.0-18.0-0.120","7076","approach_avoid_sv1","""event"",""trial"",""time""
""fullscreenenter"",""1"",""20918""
","
","
","""event"",""trial"",""time""
""fullscreenenter"",""1"",""20918""
","
","","","","","","null","<div style=""font-size:60px;"">+</div>","null","","fixation","","",""
"memory-trial","288","571751","0.0-18.0-1.120","7076","approach_avoid_sv1","""event"",""trial"",""time""
""fullscreenenter"",""1"",""20918""
","
","
","""event"",""trial"",""time""
""fullscreenenter"",""1"",""20918""
","
","","","","","","1021.2000000476837","images/truck8.png","","","memory_trial","4","definitely_new",""
"html-keyboard-response","289","572252","0.0-18.0-0.121","7076","approach_avoid_sv1","""event"",""trial"",""time""
""fullscreenenter"",""1"",""20918""
","
","
","""event"",""trial"",""time""
""fullscreenenter"",""1"",""20918""
","
","","","","","","null","<div style=""font-size:60px;"">+</div>","null","","fixation","","",""
"memory-trial","290","574277","0.0-18.0-1.121","7076","approach_avoid_sv1","""event"",""trial"",""time""
""fullscreenenter"",""1"",""20918""
","
","
","""event"",""trial"",""time""
""fullscreenenter"",""1"",""20918""
","
","","","","","","1019.9000000953674","images/truck2.png","","","memory_trial","4","definitely_new",""
"html-keyboard-response","291","574779","0.0-18.0-0.122","7076","approach_avoid_sv1","""event"",""trial"",""time""
""fullscreenenter"",""1"",""20918""
","
","
","""event"",""trial"",""time""
""fullscreenenter"",""1"",""20918""
","
","","","","","","null","<div style=""font-size:60px;"">+</div>","null","","fixation","","",""
"memory-trial","292","577251","0.0-18.0-1.122","7076","approach_avoid_sv1","""event"",""trial"",""time""
""fullscreenenter"",""1"",""20918""
","
","
","""event"",""trial"",""time""
""fullscreenenter"",""1"",""20918""
","
","","","","","","1469.8000001907349","images/table7.png","","","memory_trial","1","definitely_old",""
"html-keyboard-response","293","577752","0.0-18.0-0.123","7076","approach_avoid_sv1","""event"",""trial"",""time""
""fullscreenenter"",""1"",""20918""
","
","
","""event"",""trial"",""time""
""fullscreenenter"",""1"",""20918""
","
","","","","","","null","<div style=""font-size:60px;"">+</div>","null","","fixation","","",""
"memory-trial","294","579900","0.0-18.0-1.123","7076","approach_avoid_sv1","""event"",""trial"",""time""
""fullscreenenter"",""1"",""20918""
","
","
","""event"",""trial"",""time""
""fullscreenenter"",""1"",""20918""
","
","","","","","","1144.3999998569489","images/plane6.png","","","memory_trial","1","definitely_old",""
"html-keyboard-response","295","580402","0.0-18.0-0.124","7076","approach_avoid_sv1","""event"",""trial"",""time""
""fullscreenenter"",""1"",""20918""
","
","
","""event"",""trial"",""time""
