"trial_type","trial_index","time_elapsed","internal_node_id","subject_id","task_version","interactions","blur_events","focus_events","fullscreenenter_events","fullscreenexit_events","success","timeout","failed_images","failed_audio","failed_video","rt","stimulus","response","button_pressed","task_part","key_press","answer","correct"
"pavlovia","0","5","0.0-0.0","7146","approach_avoid_sv1","""event"",""trial"",""time""
""fullscreenenter"",""1"",""123918""
","
","
","""event"",""trial"",""time""
""fullscreenenter"",""1"",""123918""
","
","","","","","","","","","","","","",""
"fullscreen","1","124865","0.0-1.0","7146","approach_avoid_sv1","""event"",""trial"",""time""
""fullscreenenter"",""1"",""123918""
","
","
","""event"",""trial"",""time""
""fullscreenenter"",""1"",""123918""
","
","true","","","","","","","","","","","",""
"preload","2","134867","0.0-2.0","7146","approach_avoid_sv1","""event"",""trial"",""time""
""fullscreenenter"",""1"",""123918""
","
","
","""event"",""trial"",""time""
""fullscreenenter"",""1"",""123918""
","
","true","false","[]","[]","[]","","","","","","","",""
"preload","3","161092","0.0-3.0","7146","approach_avoid_sv1","""event"",""trial"",""time""
""fullscreenenter"",""1"",""123918""
","
","
","""event"",""trial"",""time""
""fullscreenenter"",""1"",""123918""
","
","true","false","[]","[]","[]","","","","","","","",""
"preload","4","161513","0.0-4.0","7146","approach_avoid_sv1","""event"",""trial"",""time""
""fullscreenenter"",""1"",""123918""
","
","
","""event"",""trial"",""time""
""fullscreenenter"",""1"",""123918""
","
","true","false","[]","[]","[]","","","","","","","",""
"audio-keyboard-response","5","163812","0.0-5.0","7146","approach_avoid_sv1","""event"",""trial"",""time""
""fullscreenenter"",""1"",""123918""
","
","
","""event"",""trial"",""time""
""fullscreenenter"",""1"",""123918""
","
","","","","","","2290.6666666666665","audio/beep_loop.wav"," ","","","","",""
"audio-button-response","6","165876","0.0-6.0","7146","approach_avoid_sv1","""event"",""trial"",""time""
""fullscreenenter"",""1"",""123918""
","
","
","""event"",""trial"",""time""
""fullscreenenter"",""1"",""123918""
","
","","","","","","2051","audio/turtle.wav","3","","","","",""
"audio-button-response","7","168751","0.0-7.0","7146","approach_avoid_sv1","""event"",""trial"",""time""
""fullscreenenter"",""1"",""123918""
","
","
","""event"",""trial"",""time""
""fullscreenenter"",""1"",""123918""
","
","","","","","","1861","audio/shark.wav","2","","","","",""
"preload","8","173797","0.0-8.0","7146","approach_avoid_sv1","""event"",""trial"",""time""
""fullscreenenter"",""1"",""123918""
","
","
","""event"",""trial"",""time""
""fullscreenenter"",""1"",""123918""
","
","true","false","[]","[]","[]","","","","","","","",""
"learning-instructions","9","183282","0.0-9.0-0.0","7146","approach_avoid_sv1","""event"",""trial"",""time""
""fullscreenenter"",""1"",""123918""
","
","
","""event"",""trial"",""time""
""fullscreenenter"",""1"",""123918""
","
","","","","","","5002.79999999993","<p> Welcome back! </p><p> Last week, you had to make choices about lots of different items.  </p>","","0","instructions","","",""
"learning-instructions","10","191004","0.0-9.0-0.1","7146","approach_avoid_sv1","""event"",""trial"",""time""
""fullscreenenter"",""1"",""123918""
","
","
","""event"",""trial"",""time""
""fullscreenenter"",""1"",""123918""
","
","","","","","","3595.5","<p> Today, we are going to ask you to try to remember all the items. </p>","","0","instructions","","",""
"learning-instructions","11","202206","0.0-9.0-0.2","7146","approach_avoid_sv1","""event"",""trial"",""time""
""fullscreenenter"",""1"",""123918""
","
","
","""event"",""trial"",""time""
""fullscreenenter"",""1"",""123918""
","
","","","","","","1070.1999999999534","<p> On every trial, you will see an image. </p><p> The image may be an OLD image you saw during the games last week or it may be a NEW image that was not presented. </p>","","0","instructions","","",""
"learning-instructions","12","211422","0.0-9.0-0.3","7146","approach_avoid_sv1","""event"",""trial"",""time""
""fullscreenenter"",""1"",""123918""
","
","
","""event"",""trial"",""time""
""fullscreenenter"",""1"",""123918""
","
","","","","","","712.0999999999767","<p> You need to select whether the image is:  </p><p>  'Definitely old', 'Maybe old', 'Maybe new', or 'Definitely new.'  </p><div class=""mem-choice-instructions-grid""><div class=""choice-option"" id=""choice-option-1"" ><img src=""images/definitely_old_1.png"" id=""choice-option-img-1"" class=""choice-option-img"" stage=""1""></div><div class=""choice-option"" id=""choice-option-2"" ><img src=""images/maybe_old_1.png"" id=""choice-option-img-2"" class=""choice-option-img"" stage=""1""></div><div class=""choice-option"" id=""choice-option-3"" ><img src=""images/maybe_new_1.png"" id=""choice-option-img-3"" class=""choice-option-img"" stage=""1""></div><div class=""choice-option"" id=""choice-option-4"" > <img src=""images/definitely_new_1.png"" id=""choice-option-img-4"" class=""choice-option-img"" stage=""1""></div></div>","","0","instructions","","",""
"learning-instructions","13","219244","0.0-9.0-0.4","7146","approach_avoid_sv1","""event"",""trial"",""time""
""fullscreenenter"",""1"",""123918""
","
","
","""event"",""trial"",""time""
""fullscreenenter"",""1"",""123918""
","
","","","","","","1294.0999999999767","<p> You should use the 1, 2, 3, and 4 keys to make your responses.  </p><div class=""mem-choice-instructions-grid""><div class=""choice-option"" id=""choice-option-1"" ><img src=""images/definitely_old.png"" id=""choice-option-img-1"" class=""choice-option-img"" stage=""1""></div><div class=""choice-option"" id=""choice-option-2"" ><img src=""images/maybe_old.png"" id=""choice-option-img-2"" class=""choice-option-img"" stage=""1""></div><div class=""choice-option"" id=""choice-option-3"" ><img src=""images/maybe_new.png"" id=""choice-option-img-3"" class=""choice-option-img"" stage=""1""></div><div class=""choice-option"" id=""choice-option-4"" > <img src=""images/definitely_new.png"" id=""choice-option-img-4"" class=""choice-option-img"" stage=""1""></div></div>","","0","instructions","","",""
"learning-instructions","14","226227","0.0-9.0-0.5","7146","approach_avoid_sv1","""event"",""trial"",""time""
""fullscreenenter"",""1"",""123918""
","
","
","""event"",""trial"",""time""
""fullscreenenter"",""1"",""123918""
","
","","","","","","639.4000000000233","<p> You will have 10 seconds to make each response.  </p><p>  Make sure to respond before time runs out! </p>","","0","instructions","","",""
"learning-instructions","15","234027","0.0-9.0-0.6","7146","approach_avoid_sv1","""event"",""trial"",""time""
""fullscreenenter"",""1"",""123918""
","
","
","""event"",""trial"",""time""
""fullscreenenter"",""1"",""123918""
","
","","","","","","721.5","<p> Today, you will see each image ONCE only.  </p><p>  That means none of the images will repeat. </p>","","0","instructions","","",""
"learning-instructions","16","247300","0.0-9.0-0.7","7146","approach_avoid_sv1","""event"",""trial"",""time""
""fullscreenenter"",""1"",""123918""
","
","
","""event"",""trial"",""time""
""fullscreenenter"",""1"",""123918""
","
","","","","","","603.0999999999767","<p> Before you play the real game, it is time to practice. </p><p>  Just like in the real game, some of the images in the practice will be ones you have seen before. </p><p>  Others will be entirely new. </p>","","0","instructions","","",""
"html-button-response","17","249324","0.0-10.0","7146","approach_avoid_sv1","""event"",""trial"",""time""
""fullscreenenter"",""1"",""123918""
","
","
","""event"",""trial"",""time""
""fullscreenenter"",""1"",""123918""
","
","","","","","","1911.3999999999069","<p> Ready to practice? </p><p> Remember, use the 1, 2, 3, and 4 keys to make your responses. </p>","0","","instructions","","",""
"html-keyboard-response","18","249943","0.0-11.0-0.0","7146","approach_avoid_sv1","""event"",""trial"",""time""
""fullscreenenter"",""1"",""123918""
","
","
","""event"",""trial"",""time""
""fullscreenenter"",""1"",""123918""
","
","","","","","","null","<div style=""font-size:60px;"">+</div>","null","","fixation","","",""
"memory-trial","19","253304","0.0-11.0-1.0","7146","approach_avoid_sv1","""event"",""trial"",""time""
""fullscreenenter"",""1"",""123918""
","
","
","""event"",""trial"",""time""
""fullscreenenter"",""1"",""123918""
","
","","","","","","2340.79999999993","images/ball2.png","","","practice","4","definitely_new",""
"html-keyboard-response","20","253817","0.0-11.0-0.1","7146","approach_avoid_sv1","""event"",""trial"",""time""
""fullscreenenter"",""1"",""123918""
","
","
","""event"",""trial"",""time""
""fullscreenenter"",""1"",""123918""
","
","","","","","","null","<div style=""font-size:60px;"">+</div>","null","","fixation","","",""
"memory-trial","21","256790","0.0-11.0-1.1","7146","approach_avoid_sv1","""event"",""trial"",""time""
""fullscreenenter"",""1"",""123918""
","
","
","""event"",""trial"",""time""
""fullscreenenter"",""1"",""123918""
","
","","","","","","1957.2999999999302","images/ball3.png","","","practice","1","definitely_old",""
"html-keyboard-response","22","257304","0.0-11.0-0.2","7146","approach_avoid_sv1","""event"",""trial"",""time""
""fullscreenenter"",""1"",""123918""
","
","
","""event"",""trial"",""time""
""fullscreenenter"",""1"",""123918""
","
","","","","","","null","<div style=""font-size:60px;"">+</div>","null","","fixation","","",""
"memory-trial","23","261028","0.0-11.0-1.2","7146","approach_avoid_sv1","""event"",""trial"",""time""
""fullscreenenter"",""1"",""123918""
","
","
","""event"",""trial"",""time""
""fullscreenenter"",""1"",""123918""
","
","","","","","","2706.3000000000466","images/racket5.png","","","practice","2","maybe_old",""
"html-keyboard-response","24","261541","0.0-11.0-0.3","7146","approach_avoid_sv1","""event"",""trial"",""time""
""fullscreenenter"",""1"",""123918""
","
","
","""event"",""trial"",""time""
""fullscreenenter"",""1"",""123918""
","
","","","","","","null","<div style=""font-size:60px;"">+</div>","null","","fixation","","",""
"memory-trial","25","264317","0.0-11.0-1.3","7146","approach_avoid_sv1","""event"",""trial"",""time""
""fullscreenenter"",""1"",""123918""
","
","
","""event"",""trial"",""time""
""fullscreenenter"",""1"",""123918""
","
","","","","","","1763.4000000000233","images/racket2.png","","","practice","1","definitely_old",""
"html-keyboard-response","26","264830","0.0-11.0-0.4","7146","approach_avoid_sv1","""event"",""trial"",""time""
""fullscreenenter"",""1"",""123918""
","
","
","""event"",""trial"",""time""
""fullscreenenter"",""1"",""123918""
","
","","","","","","null","<div style=""font-size:60px;"">+</div>","null","","fixation","","",""
"memory-trial","27","267535","0.0-11.0-1.4","7146","approach_avoid_sv1","""event"",""trial"",""time""
""fullscreenenter"",""1"",""123918""
","
","
","""event"",""trial"",""time""
""fullscreenenter"",""1"",""123918""
","
","","","","","","1689.3000000000466","images/racket1.png","","","practice","2","maybe_old",""
"html-keyboard-response","28","268052","0.0-11.0-0.5","7146","approach_avoid_sv1","""event"",""trial"",""time""
""fullscreenenter"",""1"",""123918""
","
","
","""event"",""trial"",""time""
""fullscreenenter"",""1"",""123918""
","
","","","","","","null","<div style=""font-size:60px;"">+</div>","null","","fixation","","",""
"memory-trial","29","270319","0.0-11.0-1.5","7146","approach_avoid_sv1","""event"",""trial"",""time""
""fullscreenenter"",""1"",""123918""
","
","
","""event"",""trial"",""time""
""fullscreenenter"",""1"",""123918""
","
","","","","","","1244.4000000000233","images/racket3.png","","","practice","1","definitely_old",""
"html-keyboard-response","30","270832","0.0-11.0-0.6","7146","approach_avoid_sv1","""event"",""trial"",""time""
""fullscreenenter"",""1"",""123918""
","
","
","""event"",""trial"",""time""
""fullscreenenter"",""1"",""123918""
","
","","","","","","null","<div style=""font-size:60px;"">+</div>","null","","fixation","","",""
"memory-trial","31","273236","0.0-11.0-1.6","7146","approach_avoid_sv1","""event"",""trial"",""time""
""fullscreenenter"",""1"",""123918""
","
","
","""event"",""trial"",""time""
""fullscreenenter"",""1"",""123918""
","
","","","","","","1396.1000000000931","images/ball5.png","","","practice","1","definitely_old",""
"html-keyboard-response","32","273749","0.0-11.0-0.7","7146","approach_avoid_sv1","""event"",""trial"",""time""
""fullscreenenter"",""1"",""123918""
","
","
","""event"",""trial"",""time""
""fullscreenenter"",""1"",""123918""
","
","","","","","","null","<div style=""font-size:60px;"">+</div>","null","","fixation","","",""
"memory-trial","33","275982","0.0-11.0-1.7","7146","approach_avoid_sv1","""event"",""trial"",""time""
""fullscreenenter"",""1"",""123918""
","
","
","""event"",""trial"",""time""
""fullscreenenter"",""1"",""123918""
","
","","","","","","1221.5","images/ball1.png","","","practice","1","definitely_old",""
"learning-instructions","34","284965","0.0-12.0-0.0","7146","approach_avoid_sv1","""event"",""trial"",""time""
""fullscreenenter"",""1"",""123918""
","
","
","""event"",""trial"",""time""
""fullscreenenter"",""1"",""123918""
","
","","","","","","1675.8000000000466","<p> Great! You have completed the practice. </p><p> Before you start, we're going to ask you a few questions about how the game works.  </p>","","0","instructions","","",""
"preload","35","289339","0.0-13.0","7146","approach_avoid_sv1","""event"",""trial"",""time""
""fullscreenenter"",""1"",""123918""
","
","
","""event"",""trial"",""time""
""fullscreenenter"",""1"",""123918""
","
","true","false","[]","[]","[]","","","","","","","",""
"comp-q","36","296192","0.0-14.0-0.0","7146","approach_avoid_sv1","""event"",""trial"",""time""
""fullscreenenter"",""1"",""123918""
","
","
","""event"",""trial"",""time""
""fullscreenenter"",""1"",""123918""
","
","","","","","","1026.1000000000931","<p> <b> True or False? </b> </p><p> In this game, you will only see each image once. </p>","","0","comp_question","","","true"
"comp-q","37","304865","0.0-14.0-1.0","7146","approach_avoid_sv1","""event"",""trial"",""time""
""fullscreenenter"",""1"",""123918""
""blur"",""38"",""309084""
""focus"",""38"",""424451""
","""event"",""trial"",""time""
""blur"",""38"",""309084""
","""event"",""trial"",""time""
""focus"",""38"",""424451""
","""event"",""trial"",""time""
""fullscreenenter"",""1"",""123918""
","
","","","","","","2315.8000000000466","<p> <b> That's right! </b> You will see many different images <i> one time each </i> in this game. </p>","","0","comp_answer","","",""
"comp-q","38","430856","0.0-15.0-0.0","7146","approach_avoid_sv1","""event"",""trial"",""time""
""fullscreenenter"",""1"",""123918""
""blur"",""38"",""309084""
""focus"",""38"",""424451""
","""event"",""trial"",""time""
""blur"",""38"",""309084""
","""event"",""trial"",""time""
""focus"",""38"",""424451""
","""event"",""trial"",""time""
""fullscreenenter"",""1"",""123918""
","
","","","","","","56142.09999999998","<p> <b> True or False? </b> </p><p> You should use the mouse and click to make your response. </p>","","1","comp_question","","","true"
"comp-q","39","443732","0.0-15.0-1.0","7146","approach_avoid_sv1","""event"",""trial"",""time""
""fullscreenenter"",""1"",""123918""
""blur"",""38"",""309084""
""focus"",""38"",""424451""
","""event"",""trial"",""time""
""blur"",""38"",""309084""
","""event"",""trial"",""time""
""focus"",""38"",""424451""
","""event"",""trial"",""time""
""fullscreenenter"",""1"",""123918""
","
","","","","","","6324.800000000047","<p><b> That's right! </b> You should use the '1', '2', '3', and '4' keys to make your response. </p>","","0","comp_answer","","",""
"comp-q","40","450666","0.0-16.0-0.0","7146","approach_avoid_sv1","""event"",""trial"",""time""
""fullscreenenter"",""1"",""123918""
""blur"",""38"",""309084""
""focus"",""38"",""424451""
","""event"",""trial"",""time""
""blur"",""38"",""309084""
","""event"",""trial"",""time""
""focus"",""38"",""424451""
","""event"",""trial"",""time""
""fullscreenenter"",""1"",""123918""
","
","","","","","","1239.8000000000466","<p> <b> True or False? </b> </p><p> You will have as much time as you want to make each choice. </p>","","1","comp_question","","","true"
"comp-q","41","457645","0.0-16.0-1.0","7146","approach_avoid_sv1","""event"",""trial"",""time""
""fullscreenenter"",""1"",""123918""
""blur"",""38"",""309084""
""focus"",""38"",""424451""
","""event"",""trial"",""time""
""blur"",""38"",""309084""
","""event"",""trial"",""time""
""focus"",""38"",""424451""
","""event"",""trial"",""time""
""fullscreenenter"",""1"",""123918""
","
","","","","","","2277.79999999993","<p> <b> That's right! </b> You will only have 10 seconds to make each choice. </p>","","0","comp_answer","","",""
"learning-instructions","42","467647","0.0-17.0","7146","approach_avoid_sv1","""event"",""trial"",""time""
""fullscreenenter"",""1"",""123918""
""blur"",""38"",""309084""
""focus"",""38"",""424451""
","""event"",""trial"",""time""
""blur"",""38"",""309084""
","""event"",""trial"",""time""
""focus"",""38"",""424451""
","""event"",""trial"",""time""
""fullscreenenter"",""1"",""123918""
","
","","","","","","1330.6999999999534","<p> Great! You are now ready to begin the game. </p><p> Remember, use the 1, 2, 3, and 4 keys to make your responses. </p>","","0","instructions","","",""
"html-keyboard-response","43","468268","0.0-18.0-0.0","7146","approach_avoid_sv1","""event"",""trial"",""time""
""fullscreenenter"",""1"",""123918""
""blur"",""38"",""309084""
""focus"",""38"",""424451""
","""event"",""trial"",""time""
""blur"",""38"",""309084""
","""event"",""trial"",""time""
""focus"",""38"",""424451""
","""event"",""trial"",""time""
""fullscreenenter"",""1"",""123918""
","
","","","","","","null","<div style=""font-size:60px;"">+</div>","null","","fixation","","",""
"memory-trial","44","472769","0.0-18.0-1.0","7146","approach_avoid_sv1","""event"",""trial"",""time""
""fullscreenenter"",""1"",""123918""
""blur"",""38"",""309084""
""focus"",""38"",""424451""
","""event"",""trial"",""time""
""blur"",""38"",""309084""
","""event"",""trial"",""time""
""focus"",""38"",""424451""
","""event"",""trial"",""time""
""fullscreenenter"",""1"",""123918""
","
","","","","","","3495.8000000000466","images/bush7.png","","","memory_trial","2","maybe_old",""
"html-keyboard-response","45","473272","0.0-18.0-0.1","7146","approach_avoid_sv1","""event"",""trial"",""time""
""fullscreenenter"",""1"",""123918""
""blur"",""38"",""309084""
""focus"",""38"",""424451""
","""event"",""trial"",""time""
""blur"",""38"",""309084""
","""event"",""trial"",""time""
""focus"",""38"",""424451""
","""event"",""trial"",""time""
""fullscreenenter"",""1"",""123918""
","
","","","","","","null","<div style=""font-size:60px;"">+</div>","null","","fixation","","",""
"memory-trial","46","478134","0.0-18.0-1.1","7146","approach_avoid_sv1","""event"",""trial"",""time""
""fullscreenenter"",""1"",""123918""
""blur"",""38"",""309084""
""focus"",""38"",""424451""
","""event"",""trial"",""time""
""blur"",""38"",""309084""
","""event"",""trial"",""time""
""focus"",""38"",""424451""
","""event"",""trial"",""time""
""fullscreenenter"",""1"",""123918""
","
","","","","","","3849","images/banana1.png","","","memory_trial","3","maybe_new",""
"html-keyboard-response","47","478641","0.0-18.0-0.2","7146","approach_avoid_sv1","""event"",""trial"",""time""
""fullscreenenter"",""1"",""123918""
""blur"",""38"",""309084""
""focus"",""38"",""424451""
","""event"",""trial"",""time""
""blur"",""38"",""309084""
","""event"",""trial"",""time""
""focus"",""38"",""424451""
","""event"",""trial"",""time""
""fullscreenenter"",""1"",""123918""
","
","","","","","","null","<div style=""font-size:60px;"">+</div>","null","","fixation","","",""
"memory-trial","48","481182","0.0-18.0-1.2","7146","approach_avoid_sv1","""event"",""trial"",""time""
""fullscreenenter"",""1"",""123918""
""blur"",""38"",""309084""
""focus"",""38"",""424451""
","""event"",""trial"",""time""
""blur"",""38"",""309084""
","""event"",""trial"",""time""
""focus"",""38"",""424451""
","""event"",""trial"",""time""
""fullscreenenter"",""1"",""123918""
","
","","","","","","1526.5","images/train4.png","","","memory_trial","4","definitely_new",""
"html-keyboard-response","49","481687","0.0-18.0-0.3","7146","approach_avoid_sv1","""event"",""trial"",""time""
""fullscreenenter"",""1"",""123918""
""blur"",""38"",""309084""
""focus"",""38"",""424451""
","""event"",""trial"",""time""
""blur"",""38"",""309084""
","""event"",""trial"",""time""
""focus"",""38"",""424451""
","""event"",""trial"",""time""
""fullscreenenter"",""1"",""123918""
","
","","","","","","null","<div style=""font-size:60px;"">+</div>","null","","fixation","","",""
"memory-trial","50","485025","0.0-18.0-1.3","7146","approach_avoid_sv1","""event"",""trial"",""time""
""fullscreenenter"",""1"",""123918""
""blur"",""38"",""309084""
""focus"",""38"",""424451""
","""event"",""trial"",""time""
""blur"",""38"",""309084""
","""event"",""trial"",""time""
""focus"",""38"",""424451""
","""event"",""trial"",""time""
""fullscreenenter"",""1"",""123918""
","
","","","","","","2327.4000000000233","images/goat5.png","","","memory_trial","2","maybe_old",""
"html-keyboard-response","51","485530","0.0-18.0-0.4","7146","approach_avoid_sv1","""event"",""trial"",""time""
""fullscreenenter"",""1"",""123918""
""blur"",""38"",""309084""
""focus"",""38"",""424451""
","""event"",""trial"",""time""
""blur"",""38"",""309084""
","""event"",""trial"",""time""
""focus"",""38"",""424451""
","""event"",""trial"",""time""
""fullscreenenter"",""1"",""123918""
","
","","","","","","null","<div style=""font-size:60px;"">+</div>","null","","fixation","","",""
"memory-trial","52","487526","0.0-18.0-1.4","7146","approach_avoid_sv1","""event"",""trial"",""time""
""fullscreenenter"",""1"",""123918""
""blur"",""38"",""309084""
""focus"",""38"",""424451""
","""event"",""trial"",""time""
""blur"",""38"",""309084""
","""event"",""trial"",""time""
""focus"",""38"",""424451""
","""event"",""trial"",""time""
""fullscreenenter"",""1"",""123918""
","
","","","","","","987.7999999999302","images/orange7.png","","","memory_trial","1","definitely_old",""
"html-keyboard-response","53","488040","0.0-18.0-0.5","7146","approach_avoid_sv1","""event"",""trial"",""time""
""fullscreenenter"",""1"",""123918""
""blur"",""38"",""309084""
""focus"",""38"",""424451""
","""event"",""trial"",""time""
""blur"",""38"",""309084""
","""event"",""trial"",""time""
""focus"",""38"",""424451""
","""event"",""trial"",""time""
""fullscreenenter"",""1"",""123918""
","
","","","","","","null","<div style=""font-size:60px;"">+</div>","null","","fixation","","",""
"memory-trial","54","490280","0.0-18.0-1.5","7146","approach_avoid_sv1","""event"",""trial"",""time""
""fullscreenenter"",""1"",""123918""
""blur"",""38"",""309084""
""focus"",""38"",""424451""
","""event"",""trial"",""time""
""blur"",""38"",""309084""
","""event"",""trial"",""time""
""focus"",""38"",""424451""
","""event"",""trial"",""time""
""fullscreenenter"",""1"",""123918""
","
","","","","","","1228.7999999999302","images/rodent2.png","","","memory_trial","4","definitely_new",""
"html-keyboard-response","55","490791","0.0-18.0-0.6","7146","approach_avoid_sv1","""event"",""trial"",""time""
""fullscreenenter"",""1"",""123918""
""blur"",""38"",""309084""
""focus"",""38"",""424451""
","""event"",""trial"",""time""
""blur"",""38"",""309084""
","""event"",""trial"",""time""
""focus"",""38"",""424451""
","""event"",""trial"",""time""
""fullscreenenter"",""1"",""123918""
","
","","","","","","null","<div style=""font-size:60px;"">+</div>","null","","fixation","","",""
"memory-trial","56","492879","0.0-18.0-1.6","7146","approach_avoid_sv1","""event"",""trial"",""time""
""fullscreenenter"",""1"",""123918""
""blur"",""38"",""309084""
""focus"",""38"",""424451""
","""event"",""trial"",""time""
""blur"",""38"",""309084""
","""event"",""trial"",""time""
""focus"",""38"",""424451""
","""event"",""trial"",""time""
""fullscreenenter"",""1"",""123918""
","
","","","","","","1079.5999999999767","images/sheep3.png","","","memory_trial","4","definitely_new",""
"html-keyboard-response","57","493392","0.0-18.0-0.7","7146","approach_avoid_sv1","""event"",""trial"",""time""
""fullscreenenter"",""1"",""123918""
""blur"",""38"",""309084""
""focus"",""38"",""424451""
","""event"",""trial"",""time""
""blur"",""38"",""309084""
","""event"",""trial"",""time""
""focus"",""38"",""424451""
","""event"",""trial"",""time""
""fullscreenenter"",""1"",""123918""
","
","","","","","","null","<div style=""font-size:60px;"">+</div>","null","","fixation","","",""
"memory-trial","58","495759","0.0-18.0-1.7","7146","approach_avoid_sv1","""event"",""trial"",""time""
""fullscreenenter"",""1"",""123918""
""blur"",""38"",""309084""
""focus"",""38"",""424451""
","""event"",""trial"",""time""
""blur"",""38"",""309084""
","""event"",""trial"",""time""
""focus"",""38"",""424451""
","""event"",""trial"",""time""
""fullscreenenter"",""1"",""123918""
","
","","","","","","1359.4000000000233","images/straw3.png","","","memory_trial","1","definitely_old",""
"html-keyboard-response","59","496273","0.0-18.0-0.8","7146","approach_avoid_sv1","""event"",""trial"",""time""
""fullscreenenter"",""1"",""123918""
""blur"",""38"",""309084""
""focus"",""38"",""424451""
","""event"",""trial"",""time""
""blur"",""38"",""309084""
","""event"",""trial"",""time""
""focus"",""38"",""424451""
","""event"",""trial"",""time""
""fullscreenenter"",""1"",""123918""
","
","","","","","","null","<div style=""font-size:60px;"">+</div>","null","","fixation","","",""
"memory-trial","60","498388","0.0-18.0-1.8","7146","approach_avoid_sv1","""event"",""trial"",""time""
""fullscreenenter"",""1"",""123918""
""blur"",""38"",""309084""
""focus"",""38"",""424451""
","""event"",""trial"",""time""
""blur"",""38"",""309084""
","""event"",""trial"",""time""
""focus"",""38"",""424451""
","""event"",""trial"",""time""
""fullscreenenter"",""1"",""123918""
","
","","","","","","1112.4000000000233","images/goat6.png","","","memory_trial","4","definitely_new",""
"html-keyboard-response","61","498889","0.0-18.0-0.9","7146","approach_avoid_sv1","""event"",""trial"",""time""
""fullscreenenter"",""1"",""123918""
""blur"",""38"",""309084""
""focus"",""38"",""424451""
","""event"",""trial"",""time""
""blur"",""38"",""309084""
","""event"",""trial"",""time""
""focus"",""38"",""424451""
","""event"",""trial"",""time""
""fullscreenenter"",""1"",""123918""
","
","","","","","","null","<div style=""font-size:60px;"">+</div>","null","","fixation","","",""
"memory-trial","62","501307","0.0-18.0-1.9","7146","approach_avoid_sv1","""event"",""trial"",""time""
""fullscreenenter"",""1"",""123918""
""blur"",""38"",""309084""
""focus"",""38"",""424451""
","""event"",""trial"",""time""
""blur"",""38"",""309084""
","""event"",""trial"",""time""
""focus"",""38"",""424451""
","""event"",""trial"",""time""
""fullscreenenter"",""1"",""123918""
","
","","","","","","1415.5","images/rodent5.png","","","memory_trial","1","definitely_old",""
"html-keyboard-response","63","501808","0.0-18.0-0.10","7146","approach_avoid_sv1","""event"",""trial"",""time""
""fullscreenenter"",""1"",""123918""
""blur"",""38"",""309084""
""focus"",""38"",""424451""
","""event"",""trial"",""time""
""blur"",""38"",""309084""
","""event"",""trial"",""time""
""focus"",""38"",""424451""
","""event"",""trial"",""time""
""fullscreenenter"",""1"",""123918""
","
","","","","","","null","<div style=""font-size:60px;"">+</div>","null","","fixation","","",""
"memory-trial","64","505804","0.0-18.0-1.10","7146","approach_avoid_sv1","""event"",""trial"",""time""
""fullscreenenter"",""1"",""123918""
""blur"",""38"",""309084""
""focus"",""38"",""424451""
","""event"",""trial"",""time""
""blur"",""38"",""309084""
","""event"",""trial"",""time""
""focus"",""38"",""424451""
","""event"",""trial"",""time""
""fullscreenenter"",""1"",""123918""
","
","","","","","","2993.5","images/apple6.png","","","memory_trial","4","definitely_new",""
"html-keyboard-response","65","506305","0.0-18.0-0.11","7146","approach_avoid_sv1","""event"",""trial"",""time""
""fullscreenenter"",""1"",""123918""
""blur"",""38"",""309084""
""focus"",""38"",""424451""
","""event"",""trial"",""time""
""blur"",""38"",""309084""
","""event"",""trial"",""time""
""focus"",""38"",""424451""
","""event"",""trial"",""time""
""fullscreenenter"",""1"",""123918""
","
","","","","","","null","<div style=""font-size:60px;"">+</div>","null","","fixation","","",""
"memory-trial","66","508576","0.0-18.0-1.11","7146","approach_avoid_sv1","""event"",""trial"",""time""
""fullscreenenter"",""1"",""123918""
""blur"",""38"",""309084""
""focus"",""38"",""424451""
","""event"",""trial"",""time""
""blur"",""38"",""309084""
","""event"",""trial"",""time""
""focus"",""38"",""424451""
","""event"",""trial"",""time""
""fullscreenenter"",""1"",""123918""
","
","","","","","","1268.0999999999767","images/orange8.png","","","memory_trial","1","definitely_old",""
"html-keyboard-response","67","509080","0.0-18.0-0.12","7146","approach_avoid_sv1","""event"",""trial"",""time""
""fullscreenenter"",""1"",""123918""
""blur"",""38"",""309084""
""focus"",""38"",""424451""
","""event"",""trial"",""time""
""blur"",""38"",""309084""
","""event"",""trial"",""time""
""focus"",""38"",""424451""
","""event"",""trial"",""time""
""fullscreenenter"",""1"",""123918""
","
","","","","","","null","<div style=""font-size:60px;"">+</div>","null","","fixation","","",""
"memory-trial","68","511064","0.0-18.0-1.12","7146","approach_avoid_sv1","""event"",""trial"",""time""
""fullscreenenter"",""1"",""123918""
""blur"",""38"",""309084""
""focus"",""38"",""424451""
","""event"",""trial"",""time""
""blur"",""38"",""309084""
","""event"",""trial"",""time""
""focus"",""38"",""424451""
","""event"",""trial"",""time""
""fullscreenenter"",""1"",""123918""
","
","","","","","","980.5999999999767","images/goat3.png","","","memory_trial","4","definitely_new",""
"html-keyboard-response","69","511566","0.0-18.0-0.13","7146","approach_avoid_sv1","""event"",""trial"",""time""
""fullscreenenter"",""1"",""123918""
""blur"",""38"",""309084""
""focus"",""38"",""424451""
","""event"",""trial"",""time""
""blur"",""38"",""309084""
","""event"",""trial"",""time""
""focus"",""38"",""424451""
","""event"",""trial"",""time""
""fullscreenenter"",""1"",""123918""
","
","","","","","","null","<div style=""font-size:60px;"">+</div>","null","","fixation","","",""
"memory-trial","70","514131","0.0-18.0-1.13","7146","approach_avoid_sv1","""event"",""trial"",""time""
""fullscreenenter"",""1"",""123918""
""blur"",""38"",""309084""
""focus"",""38"",""424451""
","""event"",""trial"",""time""
""blur"",""38"",""309084""
","""event"",""trial"",""time""
""focus"",""38"",""424451""
","""event"",""trial"",""time""
""fullscreenenter"",""1"",""123918""
","
","","","","","","1561.9000000000233","images/truck5.png","","","memory_trial","4","definitely_new",""
"html-keyboard-response","71","514633","0.0-18.0-0.14","7146","approach_avoid_sv1","""event"",""trial"",""time""
""fullscreenenter"",""1"",""123918""
""blur"",""38"",""309084""
""focus"",""38"",""424451""
","""event"",""trial"",""time""
""blur"",""38"",""309084""
","""event"",""trial"",""time""
""focus"",""38"",""424451""
","""event"",""trial"",""time""
""fullscreenenter"",""1"",""123918""
","
","","","","","","null","<div style=""font-size:60px;"">+</div>","null","","fixation","","",""
"memory-trial","72","517486","0.0-18.0-1.14","7146","approach_avoid_sv1","""event"",""trial"",""time""
""fullscreenenter"",""1"",""123918""
""blur"",""38"",""309084""
""focus"",""38"",""424451""
","""event"",""trial"",""time""
""blur"",""38"",""309084""
","""event"",""trial"",""time""
""focus"",""38"",""424451""
","""event"",""trial"",""time""
""fullscreenenter"",""1"",""123918""
","
","","","","","","1849","images/rodent6.png","","","memory_trial","1","definitely_old",""
"html-keyboard-response","73","517988","0.0-18.0-0.15","7146","approach_avoid_sv1","""event"",""trial"",""time""
""fullscreenenter"",""1"",""123918""
""blur"",""38"",""309084""
""focus"",""38"",""424451""
","""event"",""trial"",""time""
""blur"",""38"",""309084""
","""event"",""trial"",""time""
""focus"",""38"",""424451""
","""event"",""trial"",""time""
""fullscreenenter"",""1"",""123918""
","
","","","","","","null","<div style=""font-size:60px;"">+</div>","null","","fixation","","",""
"memory-trial","74","519970","0.0-18.0-1.15","7146","approach_avoid_sv1","""event"",""trial"",""time""
""fullscreenenter"",""1"",""123918""
""blur"",""38"",""309084""
""focus"",""38"",""424451""
","""event"",""trial"",""time""
""blur"",""38"",""309084""
","""event"",""trial"",""time""
""focus"",""38"",""424451""
","""event"",""trial"",""time""
""fullscreenenter"",""1"",""123918""
","
","","","","","","974.9000000000233","images/dog1.png","","","memory_trial","4","definitely_new",""
"html-keyboard-response","75","520472","0.0-18.0-0.16","7146","approach_avoid_sv1","""event"",""trial"",""time""
""fullscreenenter"",""1"",""123918""
""blur"",""38"",""309084""
""focus"",""38"",""424451""
","""event"",""trial"",""time""
""blur"",""38"",""309084""
","""event"",""trial"",""time""
""focus"",""38"",""424451""
","""event"",""trial"",""time""
""fullscreenenter"",""1"",""123918""
","
","","","","","","null","<div style=""font-size:60px;"">+</div>","null","","fixation","","",""
"memory-trial","76","523683","0.0-18.0-1.16","7146","approach_avoid_sv1","""event"",""trial"",""time""
""fullscreenenter"",""1"",""123918""
""blur"",""38"",""309084""
""focus"",""38"",""424451""
","""event"",""trial"",""time""
""blur"",""38"",""309084""
","""event"",""trial"",""time""
""focus"",""38"",""424451""
","""event"",""trial"",""time""
""fullscreenenter"",""1"",""123918""
","
","","","","","","2204.899999999965","images/cactus6.png","","","memory_trial","3","maybe_new",""
"html-keyboard-response","77","524185","0.0-18.0-0.17","7146","approach_avoid_sv1","""event"",""trial"",""time""
""fullscreenenter"",""1"",""123918""
""blur"",""38"",""309084""
""focus"",""38"",""424451""
","""event"",""trial"",""time""
""blur"",""38"",""309084""
","""event"",""trial"",""time""
""focus"",""38"",""424451""
","""event"",""trial"",""time""
""fullscreenenter"",""1"",""123918""
","
","","","","","","null","<div style=""font-size:60px;"">+</div>","null","","fixation","","",""
"memory-trial","78","527679","0.0-18.0-1.17","7146","approach_avoid_sv1","""event"",""trial"",""time""
""fullscreenenter"",""1"",""123918""
""blur"",""38"",""309084""
""focus"",""38"",""424451""
","""event"",""trial"",""time""
""blur"",""38"",""309084""
","""event"",""trial"",""time""
""focus"",""38"",""424451""
","""event"",""trial"",""time""
""fullscreenenter"",""1"",""123918""
","
","","","","","","2489.3000000000466","images/rabbit2.png","","","memory_trial","3","maybe_new",""
"html-keyboard-response","79","528182","0.0-18.0-0.18","7146","approach_avoid_sv1","""event"",""trial"",""time""
""fullscreenenter"",""1"",""123918""
""blur"",""38"",""309084""
""focus"",""38"",""424451""
","""event"",""trial"",""time""
""blur"",""38"",""309084""
","""event"",""trial"",""time""
""focus"",""38"",""424451""
","""event"",""trial"",""time""
""fullscreenenter"",""1"",""123918""
","
","","","","","","null","<div style=""font-size:60px;"">+</div>","null","","fixation","","",""
"memory-trial","80","530662","0.0-18.0-1.18","7146","approach_avoid_sv1","""event"",""trial"",""time""
""fullscreenenter"",""1"",""123918""
""blur"",""38"",""309084""
""focus"",""38"",""424451""
","""event"",""trial"",""time""
""blur"",""38"",""309084""
","""event"",""trial"",""time""
""focus"",""38"",""424451""
","""event"",""trial"",""time""
""fullscreenenter"",""1"",""123918""
","
","","","","","","1473.1999999999534","images/boat2.png","","","memory_trial","1","definitely_old",""
"html-keyboard-response","81","531163","0.0-18.0-0.19","7146","approach_avoid_sv1","""event"",""trial"",""time""
""fullscreenenter"",""1"",""123918""
""blur"",""38"",""309084""
""focus"",""38"",""424451""
","""event"",""trial"",""time""
""blur"",""38"",""309084""
","""event"",""trial"",""time""
""focus"",""38"",""424451""
","""event"",""trial"",""time""
""fullscreenenter"",""1"",""123918""
","
","","","","","","null","<div style=""font-size:60px;"">+</div>","null","","fixation","","",""
"memory-trial","82","535277","0.0-18.0-1.19","7146","approach_avoid_sv1","""event"",""trial"",""time""
""fullscreenenter"",""1"",""123918""
""blur"",""38"",""309084""
""focus"",""38"",""424451""
","""event"",""trial"",""time""
""blur"",""38"",""309084""
","""event"",""trial"",""time""
""focus"",""38"",""424451""
","""event"",""trial"",""time""
""fullscreenenter"",""1"",""123918""
","
","","","","","","3106.5","images/flower6.png","","","memory_trial","1","definitely_old",""
"html-keyboard-response","83","535779","0.0-18.0-0.20","7146","approach_avoid_sv1","""event"",""trial"",""time""
""fullscreenenter"",""1"",""123918""
""blur"",""38"",""309084""
""focus"",""38"",""424451""
","""event"",""trial"",""time""
""blur"",""38"",""309084""
","""event"",""trial"",""time""
""focus"",""38"",""424451""
","""event"",""trial"",""time""
""fullscreenenter"",""1"",""123918""
","
","","","","","","null","<div style=""font-size:60px;"">+</div>","null","","fixation","","",""
"memory-trial","84","537576","0.0-18.0-1.20","7146","approach_avoid_sv1","""event"",""trial"",""time""
""fullscreenenter"",""1"",""123918""
""blur"",""38"",""309084""
""focus"",""38"",""424451""
","""event"",""trial"",""time""
""blur"",""38"",""309084""
","""event"",""trial"",""time""
""focus"",""38"",""424451""
","""event"",""trial"",""time""
""fullscreenenter"",""1"",""123918""
","
","","","","","","787.8000000000466","images/apple3.png","","","memory_trial","4","definitely_new",""
"html-keyboard-response","85","538079","0.0-18.0-0.21","7146","approach_avoid_sv1","""event"",""trial"",""time""
""fullscreenenter"",""1"",""123918""
""blur"",""38"",""309084""
""focus"",""38"",""424451""
","""event"",""trial"",""time""
""blur"",""38"",""309084""
","""event"",""trial"",""time""
""focus"",""38"",""424451""
","""event"",""trial"",""time""
""fullscreenenter"",""1"",""123918""
","
","","","","","","null","<div style=""font-size:60px;"">+</div>","null","","fixation","","",""
"memory-trial","86","540500","0.0-18.0-1.21","7146","approach_avoid_sv1","""event"",""trial"",""time""
""fullscreenenter"",""1"",""123918""
""blur"",""38"",""309084""
""focus"",""38"",""424451""
","""event"",""trial"",""time""
""blur"",""38"",""309084""
","""event"",""trial"",""time""
""focus"",""38"",""424451""
","""event"",""trial"",""time""
""fullscreenenter"",""1"",""123918""
","
","","","","","","1415.1000000000931","images/table4.png","","","memory_trial","4","definitely_new",""
"html-keyboard-response","87","541002","0.0-18.0-0.22","7146","approach_avoid_sv1","""event"",""trial"",""time""
""fullscreenenter"",""1"",""123918""
""blur"",""38"",""309084""
""focus"",""38"",""424451""
","""event"",""trial"",""time""
""blur"",""38"",""309084""
","""event"",""trial"",""time""
""focus"",""38"",""424451""
","""event"",""trial"",""time""
""fullscreenenter"",""1"",""123918""
","
","","","","","","null","<div style=""font-size:60px;"">+</div>","null","","fixation","","",""
"memory-trial","88","543756","0.0-18.0-1.22","7146","approach_avoid_sv1","""event"",""trial"",""time""
""fullscreenenter"",""1"",""123918""
""blur"",""38"",""309084""
""focus"",""38"",""424451""
","""event"",""trial"",""time""
""blur"",""38"",""309084""
","""event"",""trial"",""time""
""focus"",""38"",""424451""
","""event"",""trial"",""time""
""fullscreenenter"",""1"",""123918""
","
","","","","","","1747.1999999999534","images/bush2.png","","","memory_trial","1","definitely_old",""
"html-keyboard-response","89","544258","0.0-18.0-0.23","7146","approach_avoid_sv1","""event"",""trial"",""time""
""fullscreenenter"",""1"",""123918""
""blur"",""38"",""309084""
""focus"",""38"",""424451""
","""event"",""trial"",""time""
""blur"",""38"",""309084""
","""event"",""trial"",""time""
""focus"",""38"",""424451""
","""event"",""trial"",""time""
""fullscreenenter"",""1"",""123918""
","
","","","","","","null","<div style=""font-size:60px;"">+</div>","null","","fixation","","",""
"memory-trial","90","546100","0.0-18.0-1.23","7146","approach_avoid_sv1","""event"",""trial"",""time""
""fullscreenenter"",""1"",""123918""
""blur"",""38"",""309084""
""focus"",""38"",""424451""
","""event"",""trial"",""time""
""blur"",""38"",""309084""
","""event"",""trial"",""time""
""focus"",""38"",""424451""
","""event"",""trial"",""time""
""fullscreenenter"",""1"",""123918""
","
","","","","","","837.5999999998603","images/plane4.png","","","memory_trial","4","definitely_new",""
"html-keyboard-response","91","546603","0.0-18.0-0.24","7146","approach_avoid_sv1","""event"",""trial"",""time""
""fullscreenenter"",""1"",""123918""
""blur"",""38"",""309084""
""focus"",""38"",""424451""
","""event"",""trial"",""time""
""blur"",""38"",""309084""
","""event"",""trial"",""time""
""focus"",""38"",""424451""
","""event"",""trial"",""time""
""fullscreenenter"",""1"",""123918""
","
","","","","","","null","<div style=""font-size:60px;"">+</div>","null","","fixation","","",""
"memory-trial","92","548497","0.0-18.0-1.24","7146","approach_avoid_sv1","""event"",""trial"",""time""
""fullscreenenter"",""1"",""123918""
""blur"",""38"",""309084""
""focus"",""38"",""424451""
","""event"",""trial"",""time""
""blur"",""38"",""309084""
","""event"",""trial"",""time""
""focus"",""38"",""424451""
","""event"",""trial"",""time""
""fullscreenenter"",""1"",""123918""
","
","","","","","","886.8999999999069","images/sofa1.png","","","memory_trial","4","definitely_new",""
"html-keyboard-response","93","549000","0.0-18.0-0.25","7146","approach_avoid_sv1","""event"",""trial"",""time""
""fullscreenenter"",""1"",""123918""
""blur"",""38"",""309084""
""focus"",""38"",""424451""
","""event"",""trial"",""time""
""blur"",""38"",""309084""
","""event"",""trial"",""time""
""focus"",""38"",""424451""
","""event"",""trial"",""time""
""fullscreenenter"",""1"",""123918""
","
","","","","","","null","<div style=""font-size:60px;"">+</div>","null","","fixation","","",""
"memory-trial","94","551441","0.0-18.0-1.25","7146","approach_avoid_sv1","""event"",""trial"",""time""
""fullscreenenter"",""1"",""123918""
""blur"",""38"",""309084""
""focus"",""38"",""424451""
","""event"",""trial"",""time""
""blur"",""38"",""309084""
","""event"",""trial"",""time""
""focus"",""38"",""424451""
","""event"",""trial"",""time""
""fullscreenenter"",""1"",""123918""
","
","","","","","","1436.3000000000466","images/chair8.png","","","memory_trial","1","definitely_old",""
"html-keyboard-response","95","551943","0.0-18.0-0.26","7146","approach_avoid_sv1","""event"",""trial"",""time""
""fullscreenenter"",""1"",""123918""
""blur"",""38"",""309084""
""focus"",""38"",""424451""
","""event"",""trial"",""time""
""blur"",""38"",""309084""
","""event"",""trial"",""time""
""focus"",""38"",""424451""
","""event"",""trial"",""time""
""fullscreenenter"",""1"",""123918""
","
","","","","","","null","<div style=""font-size:60px;"">+</div>","null","","fixation","","",""
"memory-trial","96","555242","0.0-18.0-1.26","7146","approach_avoid_sv1","""event"",""trial"",""time""
""fullscreenenter"",""1"",""123918""
""blur"",""38"",""309084""
""focus"",""38"",""424451""
","""event"",""trial"",""time""
""blur"",""38"",""309084""
","""event"",""trial"",""time""
""focus"",""38"",""424451""
","""event"",""trial"",""time""
""fullscreenenter"",""1"",""123918""
","
","","","","","","2293.6999999999534","images/cat5.png","","","memory_trial","4","definitely_new",""
"html-keyboard-response","97","555745","0.0-18.0-0.27","7146","approach_avoid_sv1","""event"",""trial"",""time""
""fullscreenenter"",""1"",""123918""
""blur"",""38"",""309084""
""focus"",""38"",""424451""
","""event"",""trial"",""time""
""blur"",""38"",""309084""
","""event"",""trial"",""time""
""focus"",""38"",""424451""
","""event"",""trial"",""time""
""fullscreenenter"",""1"",""123918""
","
","","","","","","null","<div style=""font-size:60px;"">+</div>","null","","fixation","","",""
"memory-trial","98","558368","0.0-18.0-1.27","7146","approach_avoid_sv1","""event"",""trial"",""time""
""fullscreenenter"",""1"",""123918""
""blur"",""38"",""309084""
""focus"",""38"",""424451""
","""event"",""trial"",""time""
""blur"",""38"",""309084""
","""event"",""trial"",""time""
""focus"",""38"",""424451""
","""event"",""trial"",""time""
""fullscreenenter"",""1"",""123918""
","
","","","","","","1617.8000000000466","images/orange6.png","","","memory_trial","4","definitely_new",""
"html-keyboard-response","99","558869","0.0-18.0-0.28","7146","approach_avoid_sv1","""event"",""trial"",""time""
""fullscreenenter"",""1"",""123918""
""blur"",""38"",""309084""
""focus"",""38"",""424451""
","""event"",""trial"",""time""
""blur"",""38"",""309084""
","""event"",""trial"",""time""
""focus"",""38"",""424451""
","""event"",""trial"",""time""
""fullscreenenter"",""1"",""123918""
","
","","","","","","null","<div style=""font-size:60px;"">+</div>","null","","fixation","","",""
"memory-trial","100","562521","0.0-18.0-1.28","7146","approach_avoid_sv1","""event"",""trial"",""time""
""fullscreenenter"",""1"",""123918""
""blur"",""38"",""309084""
""focus"",""38"",""424451""
","""event"",""trial"",""time""
""blur"",""38"",""309084""
","""event"",""trial"",""time""
""focus"",""38"",""424451""
","""event"",""trial"",""time""
""fullscreenenter"",""1"",""123918""
","
","","","","","","2646.3000000000466","images/truck4.png","","","memory_trial","1","definitely_old",""
"html-keyboard-response","101","563023","0.0-18.0-0.29","7146","approach_avoid_sv1","""event"",""trial"",""time""
""fullscreenenter"",""1"",""123918""
""blur"",""38"",""309084""
""focus"",""38"",""424451""
","""event"",""trial"",""time""
""blur"",""38"",""309084""
","""event"",""trial"",""time""
""focus"",""38"",""424451""
","""event"",""trial"",""time""
""fullscreenenter"",""1"",""123918""
","
","","","","","","null","<div style=""font-size:60px;"">+</div>","null","","fixation","","",""
"memory-trial","102","565142","0.0-18.0-1.29","7146","approach_avoid_sv1","""event"",""trial"",""time""
""fullscreenenter"",""1"",""123918""
""blur"",""38"",""309084""
""focus"",""38"",""424451""
","""event"",""trial"",""time""
""blur"",""38"",""309084""
","""event"",""trial"",""time""
""focus"",""38"",""424451""
","""event"",""trial"",""time""
""fullscreenenter"",""1"",""123918""
","
","","","","","","1113.1000000000931","images/goat2.png","","","memory_trial","4","definitely_new",""
"html-keyboard-response","103","565644","0.0-18.0-0.30","7146","approach_avoid_sv1","""event"",""trial"",""time""
""fullscreenenter"",""1"",""123918""
""blur"",""38"",""309084""
""focus"",""38"",""424451""
","""event"",""trial"",""time""
""blur"",""38"",""309084""
","""event"",""trial"",""time""
""focus"",""38"",""424451""
","""event"",""trial"",""time""
""fullscreenenter"",""1"",""123918""
","
","","","","","","null","<div style=""font-size:60px;"">+</div>","null","","fixation","","",""
"memory-trial","104","568859","0.0-18.0-1.30","7146","approach_avoid_sv1","""event"",""trial"",""time""
""fullscreenenter"",""1"",""123918""
""blur"",""38"",""309084""
""focus"",""38"",""424451""
","""event"",""trial"",""time""
""blur"",""38"",""309084""
","""event"",""trial"",""time""
""focus"",""38"",""424451""
","""event"",""trial"",""time""
""fullscreenenter"",""1"",""123918""
","
","","","","","","2207.5999999998603","images/bush8.png","","","memory_trial","1","definitely_old",""
"html-keyboard-response","105","569360","0.0-18.0-0.31","7146","approach_avoid_sv1","""event"",""trial"",""time""
""fullscreenenter"",""1"",""123918""
""blur"",""38"",""309084""
""focus"",""38"",""424451""
","""event"",""trial"",""time""
""blur"",""38"",""309084""
","""event"",""trial"",""time""
""focus"",""38"",""424451""
","""event"",""trial"",""time""
""fullscreenenter"",""1"",""123918""
","
","","","","","","null","<div style=""font-size:60px;"">+</div>","null","","fixation","","",""
"memory-trial","106","571424","0.0-18.0-1.31","7146","approach_avoid_sv1","""event"",""trial"",""time""
""fullscreenenter"",""1"",""123918""
""blur"",""38"",""309084""
""focus"",""38"",""424451""
","""event"",""trial"",""time""
""blur"",""38"",""309084""
","""event"",""trial"",""time""
""focus"",""38"",""424451""
","""event"",""trial"",""time""
""fullscreenenter"",""1"",""123918""
","
","","","","","","1058.7999999998137","images/truck2.png","","","memory_trial","4","definitely_new",""
"html-keyboard-response","107","571927","0.0-18.0-0.32","7146","approach_avoid_sv1","""event"",""trial"",""time""
""fullscreenenter"",""1"",""123918""
""blur"",""38"",""309084""
""focus"",""38"",""424451""
","""event"",""trial"",""time""
""blur"",""38"",""309084""
","""event"",""trial"",""time""
""focus"",""38"",""424451""
","""event"",""trial"",""time""
""fullscreenenter"",""1"",""123918""
","
","","","","","","null","<div style=""font-size:60px;"">+</div>","null","","fixation","","",""
"memory-trial","108","574078","0.0-18.0-1.32","7146","approach_avoid_sv1","""event"",""trial"",""time""
""fullscreenenter"",""1"",""123918""
""blur"",""38"",""309084""
""focus"",""38"",""424451""
","""event"",""trial"",""time""
""blur"",""38"",""309084""
","""event"",""trial"",""time""
""focus"",""38"",""424451""
","""event"",""trial"",""time""
""fullscreenenter"",""1"",""123918""
","
","","","","","","1146.8999999999069","images/bed4.png","","","memory_trial","1","definitely_old",""
"html-keyboard-response","109","574580","0.0-18.0-0.33","7146","approach_avoid_sv1","""event"",""trial"",""time""
""fullscreenenter"",""1"",""123918""
""blur"",""38"",""309084""
""focus"",""38"",""424451""
","""event"",""trial"",""time""
""blur"",""38"",""309084""
","""event"",""trial"",""time""
""focus"",""38"",""424451""
","""event"",""trial"",""time""
""fullscreenenter"",""1"",""123918""
","
","","","","","","null","<div style=""font-size:60px;"">+</div>","null","","fixation","","",""
"memory-trial","110","576939","0.0-18.0-1.33","7146","approach_avoid_sv1","""event"",""trial"",""time""
""fullscreenenter"",""1"",""123918""
""blur"",""38"",""309084""
""focus"",""38"",""424451""
","""event"",""trial"",""time""
""blur"",""38"",""309084""
","""event"",""trial"",""time""
""focus"",""38"",""424451""
","""event"",""trial"",""time""
""fullscreenenter"",""1"",""123918""
","
","","","","","","1351.8999999999069","images/flower1.png","","","memory_trial","4","definitely_new",""
"html-keyboard-response","111","577442","0.0-18.0-0.34","7146","approach_avoid_sv1","""event"",""trial"",""time""
""fullscreenenter"",""1"",""123918""
""blur"",""38"",""309084""
""focus"",""38"",""424451""
","""event"",""trial"",""time""
""blur"",""38"",""309084""
","""event"",""trial"",""time""
""focus"",""38"",""424451""
","""event"",""trial"",""time""
""fullscreenenter"",""1"",""123918""
","
","","","","","","null","<div style=""font-size:60px;"">+</div>","null","","fixation","","",""
"memory-trial","112","579467","0.0-18.0-1.34","7146","approach_avoid_sv1","""event"",""trial"",""time""
""fullscreenenter"",""1"",""123918""
""blur"",""38"",""309084""
""focus"",""38"",""424451""
","""event"",""trial"",""time""
""blur"",""38"",""309084""
","""event"",""trial"",""time""
""focus"",""38"",""424451""
","""event"",""trial"",""time""
""fullscreenenter"",""1"",""123918""
","
","","","","","","1020.1000000000931","images/rabbit6.png","","","memory_trial","4","definitely_new",""
"html-keyboard-response","113","579969","0.0-18.0-0.35","7146","approach_avoid_sv1","""event"",""trial"",""time""
""fullscreenenter"",""1"",""123918""
""blur"",""38"",""309084""
""focus"",""38"",""424451""
","""event"",""trial"",""time""
""blur"",""38"",""309084""
","""event"",""trial"",""time""
""focus"",""38"",""424451""
","""event"",""trial"",""time""
""fullscreenenter"",""1"",""123918""
","
","","","","","","null","<div style=""font-size:60px;"">+</div>","null","","fixation","","",""
"memory-trial","114","583516","0.0-18.0-1.35","7146","approach_avoid_sv1","""event"",""trial"",""time""
""fullscreenenter"",""1"",""123918""
""blur"",""38"",""309084""
""focus"",""38"",""424451""
","""event"",""trial"",""time""
""blur"",""38"",""309084""
","""event"",""trial"",""time""
""focus"",""38"",""424451""
","""event"",""trial"",""time""
""fullscreenenter"",""1"",""123918""
","
","","","","","","2541.5999999998603","images/cactus8.png","","","memory_trial","4","definitely_new",""
"html-keyboard-response","115","584018","0.0-18.0-0.36","7146","approach_avoid_sv1","""event"",""trial"",""time""
""fullscreenenter"",""1"",""123918""
""blur"",""38"",""309084""
""focus"",""38"",""424451""
","""event"",""trial"",""time""
""blur"",""38"",""309084""
","""event"",""trial"",""time""
""focus"",""38"",""424451""
","""event"",""trial"",""time""
""fullscreenenter"",""1"",""123918""
","
","","","","","","null","<div style=""font-size:60px;"">+</div>","null","","fixation","","",""
"memory-trial","116","585995","0.0-18.0-1.36","7146","approach_avoid_sv1","""event"",""trial"",""time""
""fullscreenenter"",""1"",""123918""
""blur"",""38"",""309084""
""focus"",""38"",""424451""
","""event"",""trial"",""time""
""blur"",""38"",""309084""
","""event"",""trial"",""time""
""focus"",""38"",""424451""
","""event"",""trial"",""time""
""fullscreenenter"",""1"",""123918""
","
","","","","","","970.0999999998603","images/dog6.png","","","memory_trial","4","definitely_new",""
"html-keyboard-response","117","586498","0.0-18.0-0.37","7146","approach_avoid_sv1","""event"",""trial"",""time""
""fullscreenenter"",""1"",""123918""
""blur"",""38"",""309084""
""focus"",""38"",""424451""
","""event"",""trial"",""time""
""blur"",""38"",""309084""
","""event"",""trial"",""time""
""focus"",""38"",""424451""
","""event"",""trial"",""time""
""fullscreenenter"",""1"",""123918""
","
","","","","","","null","<div style=""font-size:60px;"">+</div>","null","","fixation","","",""
"memory-trial","118","588801","0.0-18.0-1.37","7146","approach_avoid_sv1","""event"",""trial"",""time""
""fullscreenenter"",""1"",""123918""
""blur"",""38"",""309084""
""focus"",""38"",""424451""
","""event"",""trial"",""time""
""blur"",""38"",""309084""
","""event"",""trial"",""time""
""focus"",""38"",""424451""
","""event"",""trial"",""time""
""fullscreenenter"",""1"",""123918""
","
","","","","","","1297.5","images/sheep6.png","","","memory_trial","4","definitely_new",""
"html-keyboard-response","119","589304","0.0-18.0-0.38","7146","approach_avoid_sv1","""event"",""trial"",""time""
""fullscreenenter"",""1"",""123918""
""blur"",""38"",""309084""
""focus"",""38"",""424451""
","""event"",""trial"",""time""
""blur"",""38"",""309084""
","""event"",""trial"",""time""
""focus"",""38"",""424451""
","""event"",""trial"",""time""
""fullscreenenter"",""1"",""123918""
","
","","","","","","null","<div style=""font-size:60px;"">+</div>","null","","fixation","","",""
"memory-trial","120","591219","0.0-18.0-1.38","7146","approach_avoid_sv1","""event"",""trial"",""time""
""fullscreenenter"",""1"",""123918""
""blur"",""38"",""309084""
""focus"",""38"",""424451""
","""event"",""trial"",""time""
""blur"",""38"",""309084""
","""event"",""trial"",""time""
""focus"",""38"",""424451""
","""event"",""trial"",""time""
""fullscreenenter"",""1"",""123918""
","
","","","","","","910.5","images/apple4.png","","","memory_trial","4","definitely_new",""
"html-keyboard-response","121","591722","0.0-18.0-0.39","7146","approach_avoid_sv1","""event"",""trial"",""time""
""fullscreenenter"",""1"",""123918""
""blur"",""38"",""309084""
""focus"",""38"",""424451""
","""event"",""trial"",""time""
""blur"",""38"",""309084""
","""event"",""trial"",""time""
""focus"",""38"",""424451""
","""event"",""trial"",""time""
""fullscreenenter"",""1"",""123918""
","
","","","","","","null","<div style=""font-size:60px;"">+</div>","null","","fixation","","",""
"memory-trial","122","593715","0.0-18.0-1.39","7146","approach_avoid_sv1","""event"",""trial"",""time""
""fullscreenenter"",""1"",""123918""
""blur"",""38"",""309084""
""focus"",""38"",""424451""
","""event"",""trial"",""time""
""blur"",""38"",""309084""
","""event"",""trial"",""time""
""focus"",""38"",""424451""
","""event"",""trial"",""time""
""fullscreenenter"",""1"",""123918""
","
","","","","","","987.6000000000931","images/sofa2.png","","","memory_trial","4","definitely_new",""
"html-keyboard-response","123","594217","0.0-18.0-0.40","7146","approach_avoid_sv1","""event"",""trial"",""time""
""fullscreenenter"",""1"",""123918""
""blur"",""38"",""309084""
""focus"",""38"",""424451""
","""event"",""trial"",""time""
""blur"",""38"",""309084""
","""event"",""trial"",""time""
""focus"",""38"",""424451""
","""event"",""trial"",""time""
""fullscreenenter"",""1"",""123918""
","
","","","","","","null","<div style=""font-size:60px;"">+</div>","null","","fixation","","",""
"memory-trial","124","596799","0.0-18.0-1.40","7146","approach_avoid_sv1","""event"",""trial"",""time""
""fullscreenenter"",""1"",""123918""
""blur"",""38"",""309084""
""focus"",""38"",""424451""
","""event"",""trial"",""time""
""blur"",""38"",""309084""
","""event"",""trial"",""time""
""focus"",""38"",""424451""
","""event"",""trial"",""time""
""fullscreenenter"",""1"",""123918""
","
","","","","","","1576.6999999999534","images/plane5.png","","","memory_trial","4","definitely_new",""
"html-keyboard-response","125","597302","0.0-18.0-0.41","7146","approach_avoid_sv1","""event"",""trial"",""time""
""fullscreenenter"",""1"",""123918""
""blur"",""38"",""309084""
""focus"",""38"",""424451""
","""event"",""trial"",""time""
""blur"",""38"",""309084""
","""event"",""trial"",""time""
""focus"",""38"",""424451""
","""event"",""trial"",""time""
""fullscreenenter"",""1"",""123918""
","
","","","","","","null","<div style=""font-size:60px;"">+</div>","null","","fixation","","",""
"memory-trial","126","599316","0.0-18.0-1.41","7146","approach_avoid_sv1","""event"",""trial"",""time""
""fullscreenenter"",""1"",""123918""
""blur"",""38"",""309084""
""focus"",""38"",""424451""
","""event"",""trial"",""time""
""blur"",""38"",""309084""
","""event"",""trial"",""time""
""focus"",""38"",""424451""
","""event"",""trial"",""time""
""fullscreenenter"",""1"",""123918""
","
","","","","","","1007.2999999998137","images/table1.png","","","memory_trial","4","definitely_new",""
"html-button-response","127","602423","0.0-18.0-2.41-0.41","7146","approach_avoid_sv1","""event"",""trial"",""time""
""fullscreenenter"",""1"",""123918""
""blur"",""38"",""309084""
""focus"",""38"",""424451""
","""event"",""trial"",""time""
""blur"",""38"",""309084""
","""event"",""trial"",""time""
""focus"",""38"",""424451""
","""event"",""trial"",""time""
""fullscreenenter"",""1"",""123918""
","
","","","","","","3105","<p> Take a break! </p><p> Click the button to continue. </p>","0","","break","","",""
"html-keyboard-response","128","602925","0.0-18.0-0.42","7146","approach_avoid_sv1","""event"",""trial"",""time""
""fullscreenenter"",""1"",""123918""
""blur"",""38"",""309084""
""focus"",""38"",""424451""
","""event"",""trial"",""time""
""blur"",""38"",""309084""
","""event"",""trial"",""time""
""focus"",""38"",""424451""
","""event"",""trial"",""time""
""fullscreenenter"",""1"",""123918""
","
","","","","","","null","<div style=""font-size:60px;"">+</div>","null","","fixation","","",""
"memory-trial","129","606192","0.0-18.0-1.42","7146","approach_avoid_sv1","""event"",""trial"",""time""
""fullscreenenter"",""1"",""123918""
""blur"",""38"",""309084""
""focus"",""38"",""424451""
","""event"",""trial"",""time""
""blur"",""38"",""309084""
","""event"",""trial"",""time""
""focus"",""38"",""424451""
","""event"",""trial"",""time""
""fullscreenenter"",""1"",""123918""
","
","","","","","","2262","images/table3.png","","","memory_trial","1","definitely_old",""
"html-keyboard-response","130","606694","0.0-18.0-0.43","7146","approach_avoid_sv1","""event"",""trial"",""time""
""fullscreenenter"",""1"",""123918""
""blur"",""38"",""309084""
""focus"",""38"",""424451""
","""event"",""trial"",""time""
""blur"",""38"",""309084""
","""event"",""trial"",""time""
""focus"",""38"",""424451""
","""event"",""trial"",""time""
""fullscreenenter"",""1"",""123918""
","
","","","","","","null","<div style=""font-size:60px;"">+</div>","null","","fixation","","",""
"memory-trial","131","608797","0.0-18.0-1.43","7146","approach_avoid_sv1","""event"",""trial"",""time""
""fullscreenenter"",""1"",""123918""
""blur"",""38"",""309084""
""focus"",""38"",""424451""
","""event"",""trial"",""time""
""blur"",""38"",""309084""
","""event"",""trial"",""time""
""focus"",""38"",""424451""
","""event"",""trial"",""time""
""fullscreenenter"",""1"",""123918""
","
","","","","","","1097.4000000001397","images/cat7.png","","","memory_trial","4","definitely_new",""
"html-keyboard-response","132","609302","0.0-18.0-0.44","7146","approach_avoid_sv1","""event"",""trial"",""time""
""fullscreenenter"",""1"",""123918""
""blur"",""38"",""309084""
""focus"",""38"",""424451""
","""event"",""trial"",""time""
""blur"",""38"",""309084""
","""event"",""trial"",""time""
""focus"",""38"",""424451""
","""event"",""trial"",""time""
""fullscreenenter"",""1"",""123918""
","
","","","","","","null","<div style=""font-size:60px;"">+</div>","null","","fixation","","",""
"memory-trial","133","611651","0.0-18.0-1.44","7146","approach_avoid_sv1","""event"",""trial"",""time""
""fullscreenenter"",""1"",""123918""
""blur"",""38"",""309084""
""focus"",""38"",""424451""
","""event"",""trial"",""time""
""blur"",""38"",""309084""
","""event"",""trial"",""time""
""focus"",""38"",""424451""
","""event"",""trial"",""time""
""fullscreenenter"",""1"",""123918""
","
","","","","","","1344.3000000000466","images/train7.png","","","memory_trial","4","definitely_new",""
"html-keyboard-response","134","612153","0.0-18.0-0.45","7146","approach_avoid_sv1","""event"",""trial"",""time""
""fullscreenenter"",""1"",""123918""
""blur"",""38"",""309084""
""focus"",""38"",""424451""
","""event"",""trial"",""time""
""blur"",""38"",""309084""
","""event"",""trial"",""time""
""focus"",""38"",""424451""
","""event"",""trial"",""time""
""fullscreenenter"",""1"",""123918""
","
","","","","","","null","<div style=""font-size:60px;"">+</div>","null","","fixation","","",""
"memory-trial","135","614271","0.0-18.0-1.45","7146","approach_avoid_sv1","""event"",""trial"",""time""
""fullscreenenter"",""1"",""123918""
""blur"",""38"",""309084""
""focus"",""38"",""424451""
","""event"",""trial"",""time""
""blur"",""38"",""309084""
","""event"",""trial"",""time""
""focus"",""38"",""424451""
","""event"",""trial"",""time""
""fullscreenenter"",""1"",""123918""
","
","","","","","","1112.1000000000931","images/flower3.png","","","memory_trial","4","definitely_new",""
"html-keyboard-response","136","614773","0.0-18.0-0.46","7146","approach_avoid_sv1","""event"",""trial"",""time""
""fullscreenenter"",""1"",""123918""
""blur"",""38"",""309084""
""focus"",""38"",""424451""
","""event"",""trial"",""time""
""blur"",""38"",""309084""
","""event"",""trial"",""time""
""focus"",""38"",""424451""
","""event"",""trial"",""time""
""fullscreenenter"",""1"",""123918""
","
","","","","","","null","<div style=""font-size:60px;"">+</div>","null","","fixation","","",""
"memory-trial","137","618194","0.0-18.0-1.46","7146","approach_avoid_sv1","""event"",""trial"",""time""
""fullscreenenter"",""1"",""123918""
""blur"",""38"",""309084""
""focus"",""38"",""424451""
","""event"",""trial"",""time""
""blur"",""38"",""309084""
","""event"",""trial"",""time""
""focus"",""38"",""424451""
","""event"",""trial"",""time""
""fullscreenenter"",""1"",""123918""
","
","","","","","","2415.4000000001397","images/plane8.png","","","memory_trial","4","definitely_new",""
"html-keyboard-response","138","618697","0.0-18.0-0.47","7146","approach_avoid_sv1","""event"",""trial"",""time""
""fullscreenenter"",""1"",""123918""
""blur"",""38"",""309084""
""focus"",""38"",""424451""
","""event"",""trial"",""time""
""blur"",""38"",""309084""
","""event"",""trial"",""time""
""focus"",""38"",""424451""
","""event"",""trial"",""time""
""fullscreenenter"",""1"",""123918""
","
","","","","","","null","<div style=""font-size:60px;"">+</div>","null","","fixation","","",""
"memory-trial","139","621058","0.0-18.0-1.47","7146","approach_avoid_sv1","""event"",""trial"",""time""
""fullscreenenter"",""1"",""123918""
""blur"",""38"",""309084""
""focus"",""38"",""424451""
","""event"",""trial"",""time""
""blur"",""38"",""309084""
","""event"",""trial"",""time""
""focus"",""38"",""424451""
","""event"",""trial"",""time""
""fullscreenenter"",""1"",""123918""
","
","","","","","","1355.1999999999534","images/plane1.png","","","memory_trial","1","definitely_old",""
"html-keyboard-response","140","621561","0.0-18.0-0.48","7146","approach_avoid_sv1","""event"",""trial"",""time""
""fullscreenenter"",""1"",""123918""
""blur"",""38"",""309084""
""focus"",""38"",""424451""
","""event"",""trial"",""time""
""blur"",""38"",""309084""
","""event"",""trial"",""time""
""focus"",""38"",""424451""
","""event"",""trial"",""time""
""fullscreenenter"",""1"",""123918""
","
","","","","","","null","<div style=""font-size:60px;"">+</div>","null","","fixation","","",""
"memory-trial","141","623763","0.0-18.0-1.48","7146","approach_avoid_sv1","""event"",""trial"",""time""
""fullscreenenter"",""1"",""123918""
""blur"",""38"",""309084""
""focus"",""38"",""424451""
","""event"",""trial"",""time""
""blur"",""38"",""309084""
","""event"",""trial"",""time""
""focus"",""38"",""424451""
","""event"",""trial"",""time""
""fullscreenenter"",""1"",""123918""
","
","","","","","","1198.1999999999534","images/bush5.png","","","memory_trial","4","definitely_new",""
"html-keyboard-response","142","624266","0.0-18.0-0.49","7146","approach_avoid_sv1","""event"",""trial"",""time""
""fullscreenenter"",""1"",""123918""
""blur"",""38"",""309084""
""focus"",""38"",""424451""
","""event"",""trial"",""time""
""blur"",""38"",""309084""
","""event"",""trial"",""time""
""focus"",""38"",""424451""
","""event"",""trial"",""time""
""fullscreenenter"",""1"",""123918""
","
","","","","","","null","<div style=""font-size:60px;"">+</div>","null","","fixation","","",""
"memory-trial","143","627679","0.0-18.0-1.49","7146","approach_avoid_sv1","""event"",""trial"",""time""
""fullscreenenter"",""1"",""123918""
""blur"",""38"",""309084""
""focus"",""38"",""424451""
","""event"",""trial"",""time""
""blur"",""38"",""309084""
","""event"",""trial"",""time""
""focus"",""38"",""424451""
","""event"",""trial"",""time""
""fullscreenenter"",""1"",""123918""
","
","","","","","","2408.6999999999534","images/horse2.png","","","memory_trial","1","definitely_old",""
"html-keyboard-response","144","628181","0.0-18.0-0.50","7146","approach_avoid_sv1","""event"",""trial"",""time""
""fullscreenenter"",""1"",""123918""
""blur"",""38"",""309084""
""focus"",""38"",""424451""
","""event"",""trial"",""time""
""blur"",""38"",""309084""
","""event"",""trial"",""time""
""focus"",""38"",""424451""
","""event"",""trial"",""time""
""fullscreenenter"",""1"",""123918""
","
","","","","","","null","<div style=""font-size:60px;"">+</div>","null","","fixation","","",""
"memory-trial","145","630920","0.0-18.0-1.50","7146","approach_avoid_sv1","""event"",""trial"",""time""
""fullscreenenter"",""1"",""123918""
""blur"",""38"",""309084""
""focus"",""38"",""424451""
","""event"",""trial"",""time""
""blur"",""38"",""309084""
","""event"",""trial"",""time""
""focus"",""38"",""424451""
","""event"",""trial"",""time""
""fullscreenenter"",""1"",""123918""
","
","","","","","","1732.1000000000931","images/cow8.png","","","memory_trial","4","definitely_new",""
"html-keyboard-response","146","631423","0.0-18.0-0.51","7146","approach_avoid_sv1","""event"",""trial"",""time""
""fullscreenenter"",""1"",""123918""
""blur"",""38"",""309084""
""focus"",""38"",""424451""
","""event"",""trial"",""time""
""blur"",""38"",""309084""
","""event"",""trial"",""time""
""focus"",""38"",""424451""
","""event"",""trial"",""time""
""fullscreenenter"",""1"",""123918""
","
","","","","","","null","<div style=""font-size:60px;"">+</div>","null","","fixation","","",""
"memory-trial","147","634634","0.0-18.0-1.51","7146","approach_avoid_sv1","""event"",""trial"",""time""
""fullscreenenter"",""1"",""123918""
""blur"",""38"",""309084""
""focus"",""38"",""424451""
","""event"",""trial"",""time""
""blur"",""38"",""309084""
","""event"",""trial"",""time""
""focus"",""38"",""424451""
","""event"",""trial"",""time""
""fullscreenenter"",""1"",""123918""
","
","","","","","","2205.4000000001397","images/cactus2.png","","","memory_trial","1","definitely_old",""
"html-keyboard-response","148","635136","0.0-18.0-0.52","7146","approach_avoid_sv1","""event"",""trial"",""time""
""fullscreenenter"",""1"",""123918""
""blur"",""38"",""309084""
""focus"",""38"",""424451""
","""event"",""trial"",""time""
""blur"",""38"",""309084""
","""event"",""trial"",""time""
""focus"",""38"",""424451""
","""event"",""trial"",""time""
""fullscreenenter"",""1"",""123918""
","
","","","","","","null","<div style=""font-size:60px;"">+</div>","null","","fixation","","",""
"memory-trial","149","637424","0.0-18.0-1.52","7146","approach_avoid_sv1","""event"",""trial"",""time""
""fullscreenenter"",""1"",""123918""
""blur"",""38"",""309084""
""focus"",""38"",""424451""
","""event"",""trial"",""time""
""blur"",""38"",""309084""
","""event"",""trial"",""time""
""focus"",""38"",""424451""
","""event"",""trial"",""time""
""fullscreenenter"",""1"",""123918""
","
","","","","","","1282.2000000001863","images/tree2.png","","","memory_trial","4","definitely_new",""
"html-keyboard-response","150","637926","0.0-18.0-0.53","7146","approach_avoid_sv1","""event"",""trial"",""time""
""fullscreenenter"",""1"",""123918""
""blur"",""38"",""309084""
""focus"",""38"",""424451""
","""event"",""trial"",""time""
""blur"",""38"",""309084""
","""event"",""trial"",""time""
""focus"",""38"",""424451""
","""event"",""trial"",""time""
""fullscreenenter"",""1"",""123918""
","
","","","","","","null","<div style=""font-size:60px;"">+</div>","null","","fixation","","",""
"memory-trial","151","639871","0.0-18.0-1.53","7146","approach_avoid_sv1","""event"",""trial"",""time""
""fullscreenenter"",""1"",""123918""
""blur"",""38"",""309084""
""focus"",""38"",""424451""
","""event"",""trial"",""time""
""blur"",""38"",""309084""
","""event"",""trial"",""time""
""focus"",""38"",""424451""
","""event"",""trial"",""time""
""fullscreenenter"",""1"",""123918""
","
","","","","","","940.6999999999534","images/tree7.png","","","memory_trial","4","definitely_new",""
"html-keyboard-response","152","640375","0.0-18.0-0.54","7146","approach_avoid_sv1","""event"",""trial"",""time""
""fullscreenenter"",""1"",""123918""
""blur"",""38"",""309084""
""focus"",""38"",""424451""
","""event"",""trial"",""time""
""blur"",""38"",""309084""
","""event"",""trial"",""time""
""focus"",""38"",""424451""
","""event"",""trial"",""time""
""fullscreenenter"",""1"",""123918""
","
","","","","","","null","<div style=""font-size:60px;"">+</div>","null","","fixation","","",""
"memory-trial","153","642350","0.0-18.0-1.54","7146","approach_avoid_sv1","""event"",""trial"",""time""
""fullscreenenter"",""1"",""123918""
""blur"",""38"",""309084""
""focus"",""38"",""424451""
","""event"",""trial"",""time""
""blur"",""38"",""309084""
","""event"",""trial"",""time""
""focus"",""38"",""424451""
","""event"",""trial"",""time""
""fullscreenenter"",""1"",""123918""
","
","","","","","","969.3000000000466","images/dog3.png","","","memory_trial","4","definitely_new",""
"html-keyboard-response","154","642852","0.0-18.0-0.55","7146","approach_avoid_sv1","""event"",""trial"",""time""
""fullscreenenter"",""1"",""123918""
""blur"",""38"",""309084""
""focus"",""38"",""424451""
","""event"",""trial"",""time""
""blur"",""38"",""309084""
","""event"",""trial"",""time""
""focus"",""38"",""424451""
","""event"",""trial"",""time""
""fullscreenenter"",""1"",""123918""
","
","","","","","","null","<div style=""font-size:60px;"">+</div>","null","","fixation","","",""
"memory-trial","155","644765","0.0-18.0-1.55","7146","approach_avoid_sv1","""event"",""trial"",""time""
""fullscreenenter"",""1"",""123918""
""blur"",""38"",""309084""
""focus"",""38"",""424451""
","""event"",""trial"",""time""
""blur"",""38"",""309084""
","""event"",""trial"",""time""
""focus"",""38"",""424451""
","""event"",""trial"",""time""
""fullscreenenter"",""1"",""123918""
","
","","","","","","906.4000000001397","images/sheep7.png","","","memory_trial","4","definitely_new",""
"html-keyboard-response","156","645267","0.0-18.0-0.56","7146","approach_avoid_sv1","""event"",""trial"",""time""
""fullscreenenter"",""1"",""123918""
""blur"",""38"",""309084""
""focus"",""38"",""424451""
","""event"",""trial"",""time""
""blur"",""38"",""309084""
","""event"",""trial"",""time""
""focus"",""38"",""424451""
","""event"",""trial"",""time""
""fullscreenenter"",""1"",""123918""
","
","","","","","","null","<div style=""font-size:60px;"">+</div>","null","","fixation","","",""
"memory-trial","157","648144","0.0-18.0-1.56","7146","approach_avoid_sv1","""event"",""trial"",""time""
""fullscreenenter"",""1"",""123918""
""blur"",""38"",""309084""
""focus"",""38"",""424451""
","""event"",""trial"",""time""
""blur"",""38"",""309084""
","""event"",""trial"",""time""
""focus"",""38"",""424451""
","""event"",""trial"",""time""
""fullscreenenter"",""1"",""123918""
","
","","","","","","1874.1000000000931","images/banana3.png","","","memory_trial","1","definitely_old",""
"html-keyboard-response","158","648645","0.0-18.0-0.57","7146","approach_avoid_sv1","""event"",""trial"",""time""
""fullscreenenter"",""1"",""123918""
""blur"",""38"",""309084""
""focus"",""38"",""424451""
","""event"",""trial"",""time""
""blur"",""38"",""309084""
","""event"",""trial"",""time""
""focus"",""38"",""424451""
","""event"",""trial"",""time""
""fullscreenenter"",""1"",""123918""
","
","","","","","","null","<div style=""font-size:60px;"">+</div>","null","","fixation","","",""
"memory-trial","159","652046","0.0-18.0-1.57","7146","approach_avoid_sv1","""event"",""trial"",""time""
""fullscreenenter"",""1"",""123918""
""blur"",""38"",""309084""
""focus"",""38"",""424451""
","""event"",""trial"",""time""
""blur"",""38"",""309084""
","""event"",""trial"",""time""
""focus"",""38"",""424451""
","""event"",""trial"",""time""
""fullscreenenter"",""1"",""123918""
","
","","","","","","2395","images/rodent1.png","","","memory_trial","4","definitely_new",""
"html-keyboard-response","160","652551","0.0-18.0-0.58","7146","approach_avoid_sv1","""event"",""trial"",""time""
""fullscreenenter"",""1"",""123918""
""blur"",""38"",""309084""
""focus"",""38"",""424451""
","""event"",""trial"",""time""
""blur"",""38"",""309084""
","""event"",""trial"",""time""
""focus"",""38"",""424451""
","""event"",""trial"",""time""
""fullscreenenter"",""1"",""123918""
","
","","","","","","null","<div style=""font-size:60px;"">+</div>","null","","fixation","","",""
"memory-trial","161","655522","0.0-18.0-1.58","7146","approach_avoid_sv1","""event"",""trial"",""time""
""fullscreenenter"",""1"",""123918""
""blur"",""38"",""309084""
""focus"",""38"",""424451""
","""event"",""trial"",""time""
""blur"",""38"",""309084""
","""event"",""trial"",""time""
""focus"",""38"",""424451""
","""event"",""trial"",""time""
""fullscreenenter"",""1"",""123918""
","
","","","","","","1964.9000000001397","images/tree4.png","","","memory_trial","4","definitely_new",""
"html-keyboard-response","162","656024","0.0-18.0-0.59","7146","approach_avoid_sv1","""event"",""trial"",""time""
""fullscreenenter"",""1"",""123918""
""blur"",""38"",""309084""
""focus"",""38"",""424451""
","""event"",""trial"",""time""
""blur"",""38"",""309084""
","""event"",""trial"",""time""
""focus"",""38"",""424451""
","""event"",""trial"",""time""
""fullscreenenter"",""1"",""123918""
","
","","","","","","null","<div style=""font-size:60px;"">+</div>","null","","fixation","","",""
"memory-trial","163","658220","0.0-18.0-1.59","7146","approach_avoid_sv1","""event"",""trial"",""time""
""fullscreenenter"",""1"",""123918""
""blur"",""38"",""309084""
""focus"",""38"",""424451""
","""event"",""trial"",""time""
""blur"",""38"",""309084""
","""event"",""trial"",""time""
""focus"",""38"",""424451""
","""event"",""trial"",""time""
""fullscreenenter"",""1"",""123918""
","
","","","","","","1191.6999999999534","images/train8.png","","","memory_trial","4","definitely_new",""
"html-keyboard-response","164","658723","0.0-18.0-0.60","7146","approach_avoid_sv1","""event"",""trial"",""time""
""fullscreenenter"",""1"",""123918""
""blur"",""38"",""309084""
""focus"",""38"",""424451""
","""event"",""trial"",""time""
""blur"",""38"",""309084""
","""event"",""trial"",""time""
""focus"",""38"",""424451""
","""event"",""trial"",""time""
""fullscreenenter"",""1"",""123918""
","
","","","","","","null","<div style=""font-size:60px;"">+</div>","null","","fixation","","",""
"memory-trial","165","661188","0.0-18.0-1.60","7146","approach_avoid_sv1","""event"",""trial"",""time""
""fullscreenenter"",""1"",""123918""
""blur"",""38"",""309084""
""focus"",""38"",""424451""
","""event"",""trial"",""time""
""blur"",""38"",""309084""
","""event"",""trial"",""time""
""focus"",""38"",""424451""
","""event"",""trial"",""time""
""fullscreenenter"",""1"",""123918""
","
","","","","","","1458.7000000001863","images/truck1.png","","","memory_trial","1","definitely_old",""
"html-keyboard-response","166","661690","0.0-18.0-0.61","7146","approach_avoid_sv1","""event"",""trial"",""time""
""fullscreenenter"",""1"",""123918""
""blur"",""38"",""309084""
""focus"",""38"",""424451""
","""event"",""trial"",""time""
""blur"",""38"",""309084""
","""event"",""trial"",""time""
""focus"",""38"",""424451""
","""event"",""trial"",""time""
""fullscreenenter"",""1"",""123918""
","
","","","","","","null","<div style=""font-size:60px;"">+</div>","null","","fixation","","",""
"memory-trial","167","663686","0.0-18.0-1.61","7146","approach_avoid_sv1","""event"",""trial"",""time""
""fullscreenenter"",""1"",""123918""
""blur"",""38"",""309084""
""focus"",""38"",""424451""
","""event"",""trial"",""time""
""blur"",""38"",""309084""
","""event"",""trial"",""time""
""focus"",""38"",""424451""
","""event"",""trial"",""time""
""fullscreenenter"",""1"",""123918""
","
","","","","","","991.1000000000931","images/apple1.png","","","memory_trial","4","definitely_new",""
"html-keyboard-response","168","664188","0.0-18.0-0.62","7146","approach_avoid_sv1","""event"",""trial"",""time""
""fullscreenenter"",""1"",""123918""
""blur"",""38"",""309084""
""focus"",""38"",""424451""
","""event"",""trial"",""time""
""blur"",""38"",""309084""
","""event"",""trial"",""time""
""focus"",""38"",""424451""
","""event"",""trial"",""time""
""fullscreenenter"",""1"",""123918""
","
","","","","","","null","<div style=""font-size:60px;"">+</div>","null","","fixation","","",""
"memory-trial","169","666202","0.0-18.0-1.62","7146","approach_avoid_sv1","""event"",""trial"",""time""
""fullscreenenter"",""1"",""123918""
""blur"",""38"",""309084""
""focus"",""38"",""424451""
","""event"",""trial"",""time""
""blur"",""38"",""309084""
","""event"",""trial"",""time""
""focus"",""38"",""424451""
","""event"",""trial"",""time""
""fullscreenenter"",""1"",""123918""
","
","","","","","","1008.6999999999534","images/apple5.png","","","memory_trial","4","definitely_new",""
"html-keyboard-response","170","666705","0.0-18.0-0.63","7146","approach_avoid_sv1","""event"",""trial"",""time""
""fullscreenenter"",""1"",""123918""
""blur"",""38"",""309084""
""focus"",""38"",""424451""
","""event"",""trial"",""time""
""blur"",""38"",""309084""
","""event"",""trial"",""time""
""focus"",""38"",""424451""
","""event"",""trial"",""time""
""fullscreenenter"",""1"",""123918""
","
","","","","","","null","<div style=""font-size:60px;"">+</div>","null","","fixation","","",""
"memory-trial","171","669602","0.0-18.0-1.63","7146","approach_avoid_sv1","""event"",""trial"",""time""
""fullscreenenter"",""1"",""123918""
""blur"",""38"",""309084""
""focus"",""38"",""424451""
","""event"",""trial"",""time""
""blur"",""38"",""309084""
","""event"",""trial"",""time""
""focus"",""38"",""424451""
","""event"",""trial"",""time""
""fullscreenenter"",""1"",""123918""
","
","","","","","","1891.3999999999069","images/table5.png","","","memory_trial","1","definitely_old",""
"html-keyboard-response","172","670105","0.0-18.0-0.64","7146","approach_avoid_sv1","""event"",""trial"",""time""
""fullscreenenter"",""1"",""123918""
""blur"",""38"",""309084""
""focus"",""38"",""424451""
","""event"",""trial"",""time""
""blur"",""38"",""309084""
","""event"",""trial"",""time""
""focus"",""38"",""424451""
","""event"",""trial"",""time""
""fullscreenenter"",""1"",""123918""
","
","","","","","","null","<div style=""font-size:60px;"">+</div>","null","","fixation","","",""
"memory-trial","173","672072","0.0-18.0-1.64","7146","approach_avoid_sv1","""event"",""trial"",""time""
""fullscreenenter"",""1"",""123918""
""blur"",""38"",""309084""
""focus"",""38"",""424451""
","""event"",""trial"",""time""
""blur"",""38"",""309084""
","""event"",""trial"",""time""
""focus"",""38"",""424451""
","""event"",""trial"",""time""
""fullscreenenter"",""1"",""123918""
","
","","","","","","962.1999999999534","images/horse1.png","","","memory_trial","1","definitely_old",""
"html-keyboard-response","174","672575","0.0-18.0-0.65","7146","approach_avoid_sv1","""event"",""trial"",""time""
""fullscreenenter"",""1"",""123918""
""blur"",""38"",""309084""
""focus"",""38"",""424451""
","""event"",""trial"",""time""
""blur"",""38"",""309084""
","""event"",""trial"",""time""
""focus"",""38"",""424451""
","""event"",""trial"",""time""
""fullscreenenter"",""1"",""123918""
","
","","","","","","null","<div style=""font-size:60px;"">+</div>","null","","fixation","","",""
"memory-trial","175","674848","0.0-18.0-1.65","7146","approach_avoid_sv1","""event"",""trial"",""time""
""fullscreenenter"",""1"",""123918""
""blur"",""38"",""309084""
""focus"",""38"",""424451""
","""event"",""trial"",""time""
""blur"",""38"",""309084""
","""event"",""trial"",""time""
""focus"",""38"",""424451""
","""event"",""trial"",""time""
""fullscreenenter"",""1"",""123918""
","
","","","","","","1267.6999999999534","images/bed7.png","","","memory_trial","1","definitely_old",""
"html-keyboard-response","176","675350","0.0-18.0-0.66","7146","approach_avoid_sv1","""event"",""trial"",""time""
""fullscreenenter"",""1"",""123918""
""blur"",""38"",""309084""
""focus"",""38"",""424451""
","""event"",""trial"",""time""
""blur"",""38"",""309084""
","""event"",""trial"",""time""
""focus"",""38"",""424451""
","""event"",""trial"",""time""
""fullscreenenter"",""1"",""123918""
","
","","","","","","null","<div style=""font-size:60px;"">+</div>","null","","fixation","","",""
"memory-trial","177","677575","0.0-18.0-1.66","7146","approach_avoid_sv1","""event"",""trial"",""time""
""fullscreenenter"",""1"",""123918""
""blur"",""38"",""309084""
""focus"",""38"",""424451""
","""event"",""trial"",""time""
""blur"",""38"",""309084""
","""event"",""trial"",""time""
""focus"",""38"",""424451""
","""event"",""trial"",""time""
""fullscreenenter"",""1"",""123918""
","
","","","","","","1218.8000000000466","images/plane7.png","","","memory_trial","1","definitely_old",""
"html-keyboard-response","178","678078","0.0-18.0-0.67","7146","approach_avoid_sv1","""event"",""trial"",""time""
""fullscreenenter"",""1"",""123918""
""blur"",""38"",""309084""
""focus"",""38"",""424451""
","""event"",""trial"",""time""
""blur"",""38"",""309084""
","""event"",""trial"",""time""
""focus"",""38"",""424451""
","""event"",""trial"",""time""
""fullscreenenter"",""1"",""123918""
","
","","","","","","null","<div style=""font-size:60px;"">+</div>","null","","fixation","","",""
"memory-trial","179","679922","0.0-18.0-1.67","7146","approach_avoid_sv1","""event"",""trial"",""time""
""fullscreenenter"",""1"",""123918""
""blur"",""38"",""309084""
""focus"",""38"",""424451""
","""event"",""trial"",""time""
""blur"",""38"",""309084""
","""event"",""trial"",""time""
""focus"",""38"",""424451""
","""event"",""trial"",""time""
""fullscreenenter"",""1"",""123918""
","
","","","","","","838.6000000000931","images/cat1.png","","","memory_trial","4","definitely_new",""
"html-keyboard-response","180","680425","0.0-18.0-0.68","7146","approach_avoid_sv1","""event"",""trial"",""time""
""fullscreenenter"",""1"",""123918""
""blur"",""38"",""309084""
""focus"",""38"",""424451""
","""event"",""trial"",""time""
""blur"",""38"",""309084""
","""event"",""trial"",""time""
""focus"",""38"",""424451""
","""event"",""trial"",""time""
""fullscreenenter"",""1"",""123918""
","
","","","","","","null","<div style=""font-size:60px;"">+</div>","null","","fixation","","",""
"memory-trial","181","683868","0.0-18.0-1.68","7146","approach_avoid_sv1","""event"",""trial"",""time""
""fullscreenenter"",""1"",""123918""
""blur"",""38"",""309084""
""focus"",""38"",""424451""
","""event"",""trial"",""time""
""blur"",""38"",""309084""
","""event"",""trial"",""time""
""focus"",""38"",""424451""
","""event"",""trial"",""time""
""fullscreenenter"",""1"",""123918""
","
","","","","","","2428.600000000093","images/chair5.png","","","memory_trial","4","definitely_new",""
"html-keyboard-response","182","684370","0.0-18.0-0.69","7146","approach_avoid_sv1","""event"",""trial"",""time""
""fullscreenenter"",""1"",""123918""
""blur"",""38"",""309084""
""focus"",""38"",""424451""
","""event"",""trial"",""time""
""blur"",""38"",""309084""
","""event"",""trial"",""time""
""focus"",""38"",""424451""
","""event"",""trial"",""time""
""fullscreenenter"",""1"",""123918""
","
","","","","","","null","<div style=""font-size:60px;"">+</div>","null","","fixation","","",""
"memory-trial","183","686422","0.0-18.0-1.69","7146","approach_avoid_sv1","""event"",""trial"",""time""
""fullscreenenter"",""1"",""123918""
""blur"",""38"",""309084""
""focus"",""38"",""424451""
","""event"",""trial"",""time""
""blur"",""38"",""309084""
","""event"",""trial"",""time""
""focus"",""38"",""424451""
","""event"",""trial"",""time""
""fullscreenenter"",""1"",""123918""
","
","","","","","","1044.4000000001397","images/cow2.png","","","memory_trial","4","definitely_new",""
"html-keyboard-response","184","686924","0.0-18.0-0.70","7146","approach_avoid_sv1","""event"",""trial"",""time""
""fullscreenenter"",""1"",""123918""
""blur"",""38"",""309084""
""focus"",""38"",""424451""
","""event"",""trial"",""time""
""blur"",""38"",""309084""
","""event"",""trial"",""time""
""focus"",""38"",""424451""
","""event"",""trial"",""time""
""fullscreenenter"",""1"",""123918""
","
","","","","","","null","<div style=""font-size:60px;"">+</div>","null","","fixation","","",""
"memory-trial","185","688768","0.0-18.0-1.70","7146","approach_avoid_sv1","""event"",""trial"",""time""
""fullscreenenter"",""1"",""123918""
""blur"",""38"",""309084""
""focus"",""38"",""424451""
","""event"",""trial"",""time""
""blur"",""38"",""309084""
","""event"",""trial"",""time""
""focus"",""38"",""424451""
","""event"",""trial"",""time""
""fullscreenenter"",""1"",""123918""
","
","","","","","","836.3999999999069","images/sofa3.png","","","memory_trial","4","definitely_new",""
"html-keyboard-response","186","689270","0.0-18.0-0.71","7146","approach_avoid_sv1","""event"",""trial"",""time""
""fullscreenenter"",""1"",""123918""
""blur"",""38"",""309084""
""focus"",""38"",""424451""
","""event"",""trial"",""time""
""blur"",""38"",""309084""
","""event"",""trial"",""time""
""focus"",""38"",""424451""
","""event"",""trial"",""time""
""fullscreenenter"",""1"",""123918""
","
","","","","","","null","<div style=""font-size:60px;"">+</div>","null","","fixation","","",""
"memory-trial","187","691659","0.0-18.0-1.71","7146","approach_avoid_sv1","""event"",""trial"",""time""
""fullscreenenter"",""1"",""123918""
""blur"",""38"",""309084""
""focus"",""38"",""424451""
","""event"",""trial"",""time""
""blur"",""38"",""309084""
","""event"",""trial"",""time""
""focus"",""38"",""424451""
","""event"",""trial"",""time""
""fullscreenenter"",""1"",""123918""
","
","","","","","","1384.4000000001397","images/cactus7.png","","","memory_trial","4","definitely_new",""
"html-keyboard-response","188","692162","0.0-18.0-0.72","7146","approach_avoid_sv1","""event"",""trial"",""time""
""fullscreenenter"",""1"",""123918""
""blur"",""38"",""309084""
""focus"",""38"",""424451""
","""event"",""trial"",""time""
""blur"",""38"",""309084""
","""event"",""trial"",""time""
""focus"",""38"",""424451""
","""event"",""trial"",""time""
""fullscreenenter"",""1"",""123918""
","
","","","","","","null","<div style=""font-size:60px;"">+</div>","null","","fixation","","",""
"memory-trial","189","695583","0.0-18.0-1.72","7146","approach_avoid_sv1","""event"",""trial"",""time""
""fullscreenenter"",""1"",""123918""
""blur"",""38"",""309084""
""focus"",""38"",""424451""
","""event"",""trial"",""time""
""blur"",""38"",""309084""
","""event"",""trial"",""time""
""focus"",""38"",""424451""
","""event"",""trial"",""time""
""fullscreenenter"",""1"",""123918""
","
","","","","","","2416.8000000000466","images/goat1.png","","","memory_trial","4","definitely_new",""
"html-keyboard-response","190","696085","0.0-18.0-0.73","7146","approach_avoid_sv1","""event"",""trial"",""time""
""fullscreenenter"",""1"",""123918""
""blur"",""38"",""309084""
""focus"",""38"",""424451""
","""event"",""trial"",""time""
""blur"",""38"",""309084""
","""event"",""trial"",""time""
""focus"",""38"",""424451""
","""event"",""trial"",""time""
""fullscreenenter"",""1"",""123918""
","
","","","","","","null","<div style=""font-size:60px;"">+</div>","null","","fixation","","",""
"memory-trial","191","698066","0.0-18.0-1.73","7146","approach_avoid_sv1","""event"",""trial"",""time""
""fullscreenenter"",""1"",""123918""
""blur"",""38"",""309084""
""focus"",""38"",""424451""
","""event"",""trial"",""time""
""blur"",""38"",""309084""
","""event"",""trial"",""time""
""focus"",""38"",""424451""
","""event"",""trial"",""time""
""fullscreenenter"",""1"",""123918""
","
","","","","","","975.5999999998603","images/chair3.png","","","memory_trial","4","definitely_new",""
"html-keyboard-response","192","698568","0.0-18.0-0.74","7146","approach_avoid_sv1","""event"",""trial"",""time""
""fullscreenenter"",""1"",""123918""
""blur"",""38"",""309084""
""focus"",""38"",""424451""
","""event"",""trial"",""time""
""blur"",""38"",""309084""
","""event"",""trial"",""time""
""focus"",""38"",""424451""
","""event"",""trial"",""time""
""fullscreenenter"",""1"",""123918""
","
","","","","","","null","<div style=""font-size:60px;"">+</div>","null","","fixation","","",""
"memory-trial","193","700857","0.0-18.0-1.74","7146","approach_avoid_sv1","""event"",""trial"",""time""
""fullscreenenter"",""1"",""123918""
""blur"",""38"",""309084""
""focus"",""38"",""424451""
","""event"",""trial"",""time""
""blur"",""38"",""309084""
","""event"",""trial"",""time""
""focus"",""38"",""424451""
","""event"",""trial"",""time""
""fullscreenenter"",""1"",""123918""
","
","","","","","","1283","images/sofa5.png","","","memory_trial","4","definitely_new",""
"html-keyboard-response","194","701359","0.0-18.0-0.75","7146","approach_avoid_sv1","""event"",""trial"",""time""
""fullscreenenter"",""1"",""123918""
""blur"",""38"",""309084""
""focus"",""38"",""424451""
","""event"",""trial"",""time""
""blur"",""38"",""309084""
","""event"",""trial"",""time""
""focus"",""38"",""424451""
","""event"",""trial"",""time""
""fullscreenenter"",""1"",""123918""
","
","","","","","","null","<div style=""font-size:60px;"">+</div>","null","","fixation","","",""
"memory-trial","195","703599","0.0-18.0-1.75","7146","approach_avoid_sv1","""event"",""trial"",""time""
""fullscreenenter"",""1"",""123918""
""blur"",""38"",""309084""
""focus"",""38"",""424451""
","""event"",""trial"",""time""
""blur"",""38"",""309084""
","""event"",""trial"",""time""
""focus"",""38"",""424451""
","""event"",""trial"",""time""
""fullscreenenter"",""1"",""123918""
","
","","","","","","1224.8000000000466","images/boat1.png","","","memory_trial","4","definitely_new",""
"html-keyboard-response","196","704101","0.0-18.0-0.76","7146","approach_avoid_sv1","""event"",""trial"",""time""
""fullscreenenter"",""1"",""123918""
""blur"",""38"",""309084""
""focus"",""38"",""424451""
","""event"",""trial"",""time""
""blur"",""38"",""309084""
","""event"",""trial"",""time""
""focus"",""38"",""424451""
","""event"",""trial"",""time""
""fullscreenenter"",""1"",""123918""
","
","","","","","","null","<div style=""font-size:60px;"">+</div>","null","","fixation","","",""
"memory-trial","197","706412","0.0-18.0-1.76","7146","approach_avoid_sv1","""event"",""trial"",""time""
""fullscreenenter"",""1"",""123918""
""blur"",""38"",""309084""
""focus"",""38"",""424451""
","""event"",""trial"",""time""
""blur"",""38"",""309084""
","""event"",""trial"",""time""
""focus"",""38"",""424451""
","""event"",""trial"",""time""
""fullscreenenter"",""1"",""123918""
","
","","","","","","1306.1000000000931","images/plane3.png","","","memory_trial","1","definitely_old",""
"html-keyboard-response","198","706916","0.0-18.0-0.77","7146","approach_avoid_sv1","""event"",""trial"",""time""
""fullscreenenter"",""1"",""123918""
""blur"",""38"",""309084""
""focus"",""38"",""424451""
","""event"",""trial"",""time""
""blur"",""38"",""309084""
","""event"",""trial"",""time""
""focus"",""38"",""424451""
","""event"",""trial"",""time""
""fullscreenenter"",""1"",""123918""
","
","","","","","","null","<div style=""font-size:60px;"">+</div>","null","","fixation","","",""
"memory-trial","199","708981","0.0-18.0-1.77","7146","approach_avoid_sv1","""event"",""trial"",""time""
""fullscreenenter"",""1"",""123918""
""blur"",""38"",""309084""
""focus"",""38"",""424451""
","""event"",""trial"",""time""
""blur"",""38"",""309084""
","""event"",""trial"",""time""
""focus"",""38"",""424451""
","""event"",""trial"",""time""
""fullscreenenter"",""1"",""123918""
","
","","","","","","1057.8999999999069","images/straw8.png","","","memory_trial","4","definitely_new",""
"html-keyboard-response","200","709482","0.0-18.0-0.78","7146","approach_avoid_sv1","""event"",""trial"",""time""
""fullscreenenter"",""1"",""123918""
""blur"",""38"",""309084""
""focus"",""38"",""424451""
","""event"",""trial"",""time""
""blur"",""38"",""309084""
","""event"",""trial"",""time""
""focus"",""38"",""424451""
","""event"",""trial"",""time""
""fullscreenenter"",""1"",""123918""
","
","","","","","","null","<div style=""font-size:60px;"">+</div>","null","","fixation","","",""
"memory-trial","201","711752","0.0-18.0-1.78","7146","approach_avoid_sv1","""event"",""trial"",""time""
""fullscreenenter"",""1"",""123918""
""blur"",""38"",""309084""
""focus"",""38"",""424451""
","""event"",""trial"",""time""
""blur"",""38"",""309084""
","""event"",""trial"",""time""
""focus"",""38"",""424451""
","""event"",""trial"",""time""
""fullscreenenter"",""1"",""123918""
","
","","","","","","1265.3999999999069","images/plane2.png","","","memory_trial","1","definitely_old",""
"html-keyboard-response","202","712255","0.0-18.0-0.79","7146","approach_avoid_sv1","""event"",""trial"",""time""
""fullscreenenter"",""1"",""123918""
""blur"",""38"",""309084""
""focus"",""38"",""424451""
","""event"",""trial"",""time""
""blur"",""38"",""309084""
","""event"",""trial"",""time""
""focus"",""38"",""424451""
","""event"",""trial"",""time""
""fullscreenenter"",""1"",""123918""
","
","","","","","","null","<div style=""font-size:60px;"">+</div>","null","","fixation","","",""
"memory-trial","203","714475","0.0-18.0-1.79","7146","approach_avoid_sv1","""event"",""trial"",""time""
""fullscreenenter"",""1"",""123918""
""blur"",""38"",""309084""
""focus"",""38"",""424451""
","""event"",""trial"",""time""
""blur"",""38"",""309084""
","""event"",""trial"",""time""
""focus"",""38"",""424451""
","""event"",""trial"",""time""
""fullscreenenter"",""1"",""123918""
","
","","","","","","1217.1999999999534","images/rodent8.png","","","memory_trial","1","definitely_old",""
"html-keyboard-response","204","714977","0.0-18.0-0.80","7146","approach_avoid_sv1","""event"",""trial"",""time""
""fullscreenenter"",""1"",""123918""
""blur"",""38"",""309084""
""focus"",""38"",""424451""
","""event"",""trial"",""time""
""blur"",""38"",""309084""
","""event"",""trial"",""time""
""focus"",""38"",""424451""
","""event"",""trial"",""time""
""fullscreenenter"",""1"",""123918""
","
","","","","","","null","<div style=""font-size:60px;"">+</div>","null","","fixation","","",""
"memory-trial","205","717299","0.0-18.0-1.80","7146","approach_avoid_sv1","""event"",""trial"",""time""
""fullscreenenter"",""1"",""123918""
""blur"",""38"",""309084""
""focus"",""38"",""424451""
","""event"",""trial"",""time""
""blur"",""38"",""309084""
","""event"",""trial"",""time""
""focus"",""38"",""424451""
","""event"",""trial"",""time""
""fullscreenenter"",""1"",""123918""
","
","","","","","","1317.1999999999534","images/dog4.png","","","memory_trial","4","definitely_new",""
"html-keyboard-response","206","717802","0.0-18.0-0.81","7146","approach_avoid_sv1","""event"",""trial"",""time""
""fullscreenenter"",""1"",""123918""
""blur"",""38"",""309084""
""focus"",""38"",""424451""
","""event"",""trial"",""time""
""blur"",""38"",""309084""
