"trial_type","trial_index","time_elapsed","internal_node_id","subject_id","task_version","interactions","blur_events","focus_events","fullscreenenter_events","fullscreenexit_events","success","timeout","failed_images","failed_audio","failed_video","rt","stimulus","response","button_pressed","task_part","key_press","answer","correct"
"pavlovia","0","5","0.0-0.0","7587","approach_avoid_sv1","""event"",""trial"",""time""
""fullscreenenter"",""1"",""1517""
","
","
","""event"",""trial"",""time""
""fullscreenenter"",""1"",""1517""
","
","","","","","","","","","","","","",""
"fullscreen","1","2470","0.0-1.0","7587","approach_avoid_sv1","""event"",""trial"",""time""
""fullscreenenter"",""1"",""1517""
","
","
","""event"",""trial"",""time""
""fullscreenenter"",""1"",""1517""
","
","true","","","","","","","","","","","",""
"preload","2","7283","0.0-2.0","7587","approach_avoid_sv1","""event"",""trial"",""time""
""fullscreenenter"",""1"",""1517""
","
","
","""event"",""trial"",""time""
""fullscreenenter"",""1"",""1517""
","
","true","false","[]","[]","[]","","","","","","","",""
"preload","3","8654","0.0-3.0","7587","approach_avoid_sv1","""event"",""trial"",""time""
""fullscreenenter"",""1"",""1517""
","
","
","""event"",""trial"",""time""
""fullscreenenter"",""1"",""1517""
","
","true","false","[]","[]","[]","","","","","","","",""
"preload","4","9018","0.0-4.0","7587","approach_avoid_sv1","""event"",""trial"",""time""
""fullscreenenter"",""1"",""1517""
","
","
","""event"",""trial"",""time""
""fullscreenenter"",""1"",""1517""
","
","true","false","[]","[]","[]","","","","","","","",""
"audio-keyboard-response","5","11890","0.0-5.0","7587","approach_avoid_sv1","""event"",""trial"",""time""
""fullscreenenter"",""1"",""1517""
","
","
","""event"",""trial"",""time""
""fullscreenenter"",""1"",""1517""
","
","","","","","","2869.333333333333","audio/beep_loop.wav"," ","","","","",""
"audio-button-response","6","13281","0.0-6.0","7587","approach_avoid_sv1","""event"",""trial"",""time""
""fullscreenenter"",""1"",""1517""
","
","
","""event"",""trial"",""time""
""fullscreenenter"",""1"",""1517""
","
","","","","","","1389","audio/turtle.wav","3","","","","",""
"audio-button-response","7","16282","0.0-7.0","7587","approach_avoid_sv1","""event"",""trial"",""time""
""fullscreenenter"",""1"",""1517""
","
","
","""event"",""trial"",""time""
""fullscreenenter"",""1"",""1517""
","
","","","","","","2000","audio/shark.wav","2","","","","",""
"preload","8","19614","0.0-8.0","7587","approach_avoid_sv1","""event"",""trial"",""time""
""fullscreenenter"",""1"",""1517""
","
","
","""event"",""trial"",""time""
""fullscreenenter"",""1"",""1517""
","
","true","false","[]","[]","[]","","","","","","","",""
"learning-instructions","9","27068","0.0-9.0-0.0","7587","approach_avoid_sv1","""event"",""trial"",""time""
""fullscreenenter"",""1"",""1517""
","
","
","""event"",""trial"",""time""
""fullscreenenter"",""1"",""1517""
","
","","","","","","2980.7000000476837","<p> Welcome back! </p><p> Last week, you had to make choices about lots of different items.  </p>","","0","instructions","","",""
"learning-instructions","10","32423","0.0-9.0-0.1","7587","approach_avoid_sv1","""event"",""trial"",""time""
""fullscreenenter"",""1"",""1517""
","
","
","""event"",""trial"",""time""
""fullscreenenter"",""1"",""1517""
","
","","","","","","1236.2000000476837","<p> Today, we are going to ask you to try to remember all the items. </p>","","0","instructions","","",""
"learning-instructions","11","43010","0.0-9.0-0.2","7587","approach_avoid_sv1","""event"",""trial"",""time""
""fullscreenenter"",""1"",""1517""
","
","
","""event"",""trial"",""time""
""fullscreenenter"",""1"",""1517""
","
","","","","","","443.60000002384186","<p> On every trial, you will see an image. </p><p> The image may be an OLD image you saw during the games last week or it may be a NEW image that was not presented. </p>","","0","instructions","","",""
"learning-instructions","12","51875","0.0-9.0-0.3","7587","approach_avoid_sv1","""event"",""trial"",""time""
""fullscreenenter"",""1"",""1517""
","
","
","""event"",""trial"",""time""
""fullscreenenter"",""1"",""1517""
","
","","","","","","366.10000002384186","<p> You need to select whether the image is:  </p><p>  'Definitely old', 'Maybe old', 'Maybe new', or 'Definitely new.'  </p><div class=""mem-choice-instructions-grid""><div class=""choice-option"" id=""choice-option-1"" ><img src=""images/definitely_old_1.png"" id=""choice-option-img-1"" class=""choice-option-img"" stage=""1""></div><div class=""choice-option"" id=""choice-option-2"" ><img src=""images/maybe_old_1.png"" id=""choice-option-img-2"" class=""choice-option-img"" stage=""1""></div><div class=""choice-option"" id=""choice-option-3"" ><img src=""images/maybe_new_1.png"" id=""choice-option-img-3"" class=""choice-option-img"" stage=""1""></div><div class=""choice-option"" id=""choice-option-4"" > <img src=""images/definitely_new_1.png"" id=""choice-option-img-4"" class=""choice-option-img"" stage=""1""></div></div>","","0","instructions","","",""
"learning-instructions","13","58760","0.0-9.0-0.4","7587","approach_avoid_sv1","""event"",""trial"",""time""
""fullscreenenter"",""1"",""1517""
","
","
","""event"",""trial"",""time""
""fullscreenenter"",""1"",""1517""
","
","","","","","","362.2000000476837","<p> You should use the 1, 2, 3, and 4 keys to make your responses.  </p><div class=""mem-choice-instructions-grid""><div class=""choice-option"" id=""choice-option-1"" ><img src=""images/definitely_old.png"" id=""choice-option-img-1"" class=""choice-option-img"" stage=""1""></div><div class=""choice-option"" id=""choice-option-2"" ><img src=""images/maybe_old.png"" id=""choice-option-img-2"" class=""choice-option-img"" stage=""1""></div><div class=""choice-option"" id=""choice-option-3"" ><img src=""images/maybe_new.png"" id=""choice-option-img-3"" class=""choice-option-img"" stage=""1""></div><div class=""choice-option"" id=""choice-option-4"" > <img src=""images/definitely_new.png"" id=""choice-option-img-4"" class=""choice-option-img"" stage=""1""></div></div>","","0","instructions","","",""
"learning-instructions","14","65982","0.0-9.0-0.5","7587","approach_avoid_sv1","""event"",""trial"",""time""
""fullscreenenter"",""1"",""1517""
","
","
","""event"",""trial"",""time""
""fullscreenenter"",""1"",""1517""
","
","","","","","","894.6000000238419","<p> You will have 10 seconds to make each response.  </p><p>  Make sure to respond before time runs out! </p>","","0","instructions","","",""
"learning-instructions","15","73627","0.0-9.0-0.6","7587","approach_avoid_sv1","""event"",""trial"",""time""
""fullscreenenter"",""1"",""1517""
","
","
","""event"",""trial"",""time""
""fullscreenenter"",""1"",""1517""
","
","","","","","","569.1000000238419","<p> Today, you will see each image ONCE only.  </p><p>  That means none of the images will repeat. </p>","","0","instructions","","",""
"learning-instructions","16","86903","0.0-9.0-0.7","7587","approach_avoid_sv1","""event"",""trial"",""time""
""fullscreenenter"",""1"",""1517""
","
","
","""event"",""trial"",""time""
""fullscreenenter"",""1"",""1517""
","
","","","","","","605.6000000238419","<p> Before you play the real game, it is time to practice. </p><p>  Just like in the real game, some of the images in the practice will be ones you have seen before. </p><p>  Others will be entirely new. </p>","","0","instructions","","",""
"html-button-response","17","88830","0.0-10.0","7587","approach_avoid_sv1","""event"",""trial"",""time""
""fullscreenenter"",""1"",""1517""
","
","
","""event"",""trial"",""time""
""fullscreenenter"",""1"",""1517""
","
","","","","","","1812.3000000715256","<p> Ready to practice? </p><p> Remember, use the 1, 2, 3, and 4 keys to make your responses. </p>","0","","instructions","","",""
"html-keyboard-response","18","89445","0.0-11.0-0.0","7587","approach_avoid_sv1","""event"",""trial"",""time""
""fullscreenenter"",""1"",""1517""
","
","
","""event"",""trial"",""time""
""fullscreenenter"",""1"",""1517""
","
","","","","","","null","<div style=""font-size:60px;"">+</div>","null","","fixation","","",""
"memory-trial","19","91725","0.0-11.0-1.0","7587","approach_avoid_sv1","""event"",""trial"",""time""
""fullscreenenter"",""1"",""1517""
","
","
","""event"",""trial"",""time""
""fullscreenenter"",""1"",""1517""
","
","","","","","","1260.7999999523163","images/racket2.png","","","practice","1","definitely_old",""
"html-keyboard-response","20","92235","0.0-11.0-0.1","7587","approach_avoid_sv1","""event"",""trial"",""time""
""fullscreenenter"",""1"",""1517""
","
","
","""event"",""trial"",""time""
""fullscreenenter"",""1"",""1517""
","
","","","","","","null","<div style=""font-size:60px;"">+</div>","null","","fixation","","",""
"memory-trial","21","94666","0.0-11.0-1.1","7587","approach_avoid_sv1","""event"",""trial"",""time""
""fullscreenenter"",""1"",""1517""
","
","
","""event"",""trial"",""time""
""fullscreenenter"",""1"",""1517""
","
","","","","","","1418.1000000238419","images/ball2.png","","","practice","3","maybe_new",""
"html-keyboard-response","22","95181","0.0-11.0-0.2","7587","approach_avoid_sv1","""event"",""trial"",""time""
""fullscreenenter"",""1"",""1517""
","
","
","""event"",""trial"",""time""
""fullscreenenter"",""1"",""1517""
","
","","","","","","null","<div style=""font-size:60px;"">+</div>","null","","fixation","","",""
"memory-trial","23","96967","0.0-11.0-1.2","7587","approach_avoid_sv1","""event"",""trial"",""time""
""fullscreenenter"",""1"",""1517""
","
","
","""event"",""trial"",""time""
""fullscreenenter"",""1"",""1517""
","
","","","","","","775.2000000476837","images/ball1.png","","","practice","1","definitely_old",""
"html-keyboard-response","24","97475","0.0-11.0-0.3","7587","approach_avoid_sv1","""event"",""trial"",""time""
""fullscreenenter"",""1"",""1517""
","
","
","""event"",""trial"",""time""
""fullscreenenter"",""1"",""1517""
","
","","","","","","null","<div style=""font-size:60px;"">+</div>","null","","fixation","","",""
"memory-trial","25","99511","0.0-11.0-1.3","7587","approach_avoid_sv1","""event"",""trial"",""time""
""fullscreenenter"",""1"",""1517""
","
","
","""event"",""trial"",""time""
""fullscreenenter"",""1"",""1517""
","
","","","","","","1022.1000000238419","images/ball3.png","","","practice","1","definitely_old",""
"html-keyboard-response","26","100025","0.0-11.0-0.4","7587","approach_avoid_sv1","""event"",""trial"",""time""
""fullscreenenter"",""1"",""1517""
","
","
","""event"",""trial"",""time""
""fullscreenenter"",""1"",""1517""
","
","","","","","","null","<div style=""font-size:60px;"">+</div>","null","","fixation","","",""
"memory-trial","27","102015","0.0-11.0-1.4","7587","approach_avoid_sv1","""event"",""trial"",""time""
""fullscreenenter"",""1"",""1517""
","
","
","""event"",""trial"",""time""
""fullscreenenter"",""1"",""1517""
","
","","","","","","979","images/racket3.png","","","practice","1","definitely_old",""
"html-keyboard-response","28","102518","0.0-11.0-0.5","7587","approach_avoid_sv1","""event"",""trial"",""time""
""fullscreenenter"",""1"",""1517""
","
","
","""event"",""trial"",""time""
""fullscreenenter"",""1"",""1517""
","
","","","","","","null","<div style=""font-size:60px;"">+</div>","null","","fixation","","",""
"memory-trial","29","104491","0.0-11.0-1.5","7587","approach_avoid_sv1","""event"",""trial"",""time""
""fullscreenenter"",""1"",""1517""
","
","
","""event"",""trial"",""time""
""fullscreenenter"",""1"",""1517""
","
","","","","","","957.6000000238419","images/racket1.png","","","practice","2","maybe_old",""
"html-keyboard-response","30","105007","0.0-11.0-0.6","7587","approach_avoid_sv1","""event"",""trial"",""time""
""fullscreenenter"",""1"",""1517""
","
","
","""event"",""trial"",""time""
""fullscreenenter"",""1"",""1517""
","
","","","","","","null","<div style=""font-size:60px;"">+</div>","null","","fixation","","",""
"memory-trial","31","107362","0.0-11.0-1.6","7587","approach_avoid_sv1","""event"",""trial"",""time""
""fullscreenenter"",""1"",""1517""
","
","
","""event"",""trial"",""time""
""fullscreenenter"",""1"",""1517""
","
","","","","","","1339.2999999523163","images/ball5.png","","","practice","3","maybe_new",""
"html-keyboard-response","32","107871","0.0-11.0-0.7","7587","approach_avoid_sv1","""event"",""trial"",""time""
""fullscreenenter"",""1"",""1517""
","
","
","""event"",""trial"",""time""
""fullscreenenter"",""1"",""1517""
","
","","","","","","null","<div style=""font-size:60px;"">+</div>","null","","fixation","","",""
"memory-trial","33","110642","0.0-11.0-1.7","7587","approach_avoid_sv1","""event"",""trial"",""time""
""fullscreenenter"",""1"",""1517""
","
","
","""event"",""trial"",""time""
""fullscreenenter"",""1"",""1517""
","
","","","","","","1763.8999999761581","images/racket5.png","","","practice","4","definitely_new",""
"learning-instructions","34","124551","0.0-12.0-0.0","7587","approach_avoid_sv1","""event"",""trial"",""time""
""fullscreenenter"",""1"",""1517""
","
","
","""event"",""trial"",""time""
""fullscreenenter"",""1"",""1517""
","
","","","","","","6603.900000095367","<p> Great! You have completed the practice. </p><p> Before you start, we're going to ask you a few questions about how the game works.  </p>","","0","instructions","","",""
"preload","35","127490","0.0-13.0","7587","approach_avoid_sv1","""event"",""trial"",""time""
""fullscreenenter"",""1"",""1517""
","
","
","""event"",""trial"",""time""
""fullscreenenter"",""1"",""1517""
","
","true","false","[]","[]","[]","","","","","","","",""
"comp-q","36","133947","0.0-14.0-0.0","7587","approach_avoid_sv1","""event"",""trial"",""time""
""fullscreenenter"",""1"",""1517""
","
","
","""event"",""trial"",""time""
""fullscreenenter"",""1"",""1517""
","
","","","","","","630.4000000953674","<p> <b> True or False? </b> </p><p> In this game, you will only see each image once. </p>","","0","comp_question","","","true"
"comp-q","37","143126","0.0-14.0-1.0","7587","approach_avoid_sv1","""event"",""trial"",""time""
""fullscreenenter"",""1"",""1517""
","
","
","""event"",""trial"",""time""
""fullscreenenter"",""1"",""1517""
","
","","","","","","2829.1999999284744","<p> <b> That's right! </b> You will see many different images <i> one time each </i> in this game. </p>","","0","comp_answer","","",""
"comp-q","38","153098","0.0-15.0-0.0","7587","approach_avoid_sv1","""event"",""trial"",""time""
""fullscreenenter"",""1"",""1517""
","
","
","""event"",""trial"",""time""
""fullscreenenter"",""1"",""1517""
","
","","","","","","4961.599999904633","<p> <b> True or False? </b> </p><p> You should use the mouse and click to make your response. </p>","","1","comp_question","","","true"
"comp-q","39","161626","0.0-15.0-1.0","7587","approach_avoid_sv1","""event"",""trial"",""time""
""fullscreenenter"",""1"",""1517""
","
","
","""event"",""trial"",""time""
""fullscreenenter"",""1"",""1517""
","
","","","","","","2019.7999999523163","<p><b> That's right! </b> You should use the '1', '2', '3', and '4' keys to make your response. </p>","","0","comp_answer","","",""
"comp-q","40","171894","0.0-16.0-0.0","7587","approach_avoid_sv1","""event"",""trial"",""time""
""fullscreenenter"",""1"",""1517""
","
","
","""event"",""trial"",""time""
""fullscreenenter"",""1"",""1517""
","
","","","","","","4587.800000071526","<p> <b> True or False? </b> </p><p> You will have as much time as you want to make each choice. </p>","","1","comp_question","","","true"
"comp-q","41","181467","0.0-16.0-1.0","7587","approach_avoid_sv1","""event"",""trial"",""time""
""fullscreenenter"",""1"",""1517""
","
","
","""event"",""trial"",""time""
""fullscreenenter"",""1"",""1517""
","
","","","","","","4879.100000023842","<p> <b> That's right! </b> You will only have 10 seconds to make each choice. </p>","","0","comp_answer","","",""
"learning-instructions","42","191930","0.0-17.0","7587","approach_avoid_sv1","""event"",""trial"",""time""
""fullscreenenter"",""1"",""1517""
","
","
","""event"",""trial"",""time""
""fullscreenenter"",""1"",""1517""
","
","","","","","","1792.1999999284744","<p> Great! You are now ready to begin the game. </p><p> Remember, use the 1, 2, 3, and 4 keys to make your responses. </p>","","0","instructions","","",""
"html-keyboard-response","43","192563","0.0-18.0-0.0","7587","approach_avoid_sv1","""event"",""trial"",""time""
""fullscreenenter"",""1"",""1517""
","
","
","""event"",""trial"",""time""
""fullscreenenter"",""1"",""1517""
","
","","","","","","null","<div style=""font-size:60px;"">+</div>","null","","fixation","","",""
"memory-trial","44","195242","0.0-18.0-1.0","7587","approach_avoid_sv1","""event"",""trial"",""time""
""fullscreenenter"",""1"",""1517""
","
","
","""event"",""trial"",""time""
""fullscreenenter"",""1"",""1517""
","
","","","","","","1667.1999999284744","images/goat6.png","","","memory_trial","1","definitely_old",""
"html-keyboard-response","45","195751","0.0-18.0-0.1","7587","approach_avoid_sv1","""event"",""trial"",""time""
""fullscreenenter"",""1"",""1517""
","
","
","""event"",""trial"",""time""
""fullscreenenter"",""1"",""1517""
","
","","","","","","null","<div style=""font-size:60px;"">+</div>","null","","fixation","","",""
"memory-trial","46","197866","0.0-18.0-1.1","7587","approach_avoid_sv1","""event"",""trial"",""time""
""fullscreenenter"",""1"",""1517""
","
","
","""event"",""trial"",""time""
""fullscreenenter"",""1"",""1517""
","
","","","","","","1099.2999999523163","images/sheep2.png","","","memory_trial","4","definitely_new",""
"html-keyboard-response","47","198374","0.0-18.0-0.2","7587","approach_avoid_sv1","""event"",""trial"",""time""
""fullscreenenter"",""1"",""1517""
","
","
","""event"",""trial"",""time""
""fullscreenenter"",""1"",""1517""
","
","","","","","","null","<div style=""font-size:60px;"">+</div>","null","","fixation","","",""
"memory-trial","48","200447","0.0-18.0-1.2","7587","approach_avoid_sv1","""event"",""trial"",""time""
""fullscreenenter"",""1"",""1517""
","
","
","""event"",""trial"",""time""
""fullscreenenter"",""1"",""1517""
","
","","","","","","1064","images/straw6.png","","","memory_trial","1","definitely_old",""
"html-keyboard-response","49","200956","0.0-18.0-0.3","7587","approach_avoid_sv1","""event"",""trial"",""time""
""fullscreenenter"",""1"",""1517""
","
","
","""event"",""trial"",""time""
""fullscreenenter"",""1"",""1517""
","
","","","","","","null","<div style=""font-size:60px;"">+</div>","null","","fixation","","",""
"memory-trial","50","203424","0.0-18.0-1.3","7587","approach_avoid_sv1","""event"",""trial"",""time""
""fullscreenenter"",""1"",""1517""
","
","
","""event"",""trial"",""time""
""fullscreenenter"",""1"",""1517""
","
","","","","","","1457.1999999284744","images/bush5.png","","","memory_trial","4","definitely_new",""
"html-keyboard-response","51","203937","0.0-18.0-0.4","7587","approach_avoid_sv1","""event"",""trial"",""time""
""fullscreenenter"",""1"",""1517""
","
","
","""event"",""trial"",""time""
""fullscreenenter"",""1"",""1517""
","
","","","","","","null","<div style=""font-size:60px;"">+</div>","null","","fixation","","",""
"memory-trial","52","206113","0.0-18.0-1.4","7587","approach_avoid_sv1","""event"",""trial"",""time""
""fullscreenenter"",""1"",""1517""
","
","
","""event"",""trial"",""time""
""fullscreenenter"",""1"",""1517""
","
","","","","","","1163.1000000238419","images/sheep7.png","","","memory_trial","4","definitely_new",""
"html-keyboard-response","53","206625","0.0-18.0-0.5","7587","approach_avoid_sv1","""event"",""trial"",""time""
""fullscreenenter"",""1"",""1517""
","
","
","""event"",""trial"",""time""
""fullscreenenter"",""1"",""1517""
","
","","","","","","null","<div style=""font-size:60px;"">+</div>","null","","fixation","","",""
"memory-trial","54","208818","0.0-18.0-1.5","7587","approach_avoid_sv1","""event"",""trial"",""time""
""fullscreenenter"",""1"",""1517""
","
","
","""event"",""trial"",""time""
""fullscreenenter"",""1"",""1517""
","
","","","","","","1183.1000000238419","images/orange4.png","","","memory_trial","1","definitely_old",""
"html-keyboard-response","55","209334","0.0-18.0-0.6","7587","approach_avoid_sv1","""event"",""trial"",""time""
""fullscreenenter"",""1"",""1517""
","
","
","""event"",""trial"",""time""
""fullscreenenter"",""1"",""1517""
","
","","","","","","null","<div style=""font-size:60px;"">+</div>","null","","fixation","","",""
"memory-trial","56","212094","0.0-18.0-1.6","7587","approach_avoid_sv1","""event"",""trial"",""time""
""fullscreenenter"",""1"",""1517""
","
","
","""event"",""trial"",""time""
""fullscreenenter"",""1"",""1517""
","
","","","","","","1743.0999999046326","images/sofa4.png","","","memory_trial","1","definitely_old",""
"html-keyboard-response","57","212601","0.0-18.0-0.7","7587","approach_avoid_sv1","""event"",""trial"",""time""
""fullscreenenter"",""1"",""1517""
","
","
","""event"",""trial"",""time""
""fullscreenenter"",""1"",""1517""
","
","","","","","","null","<div style=""font-size:60px;"">+</div>","null","","fixation","","",""
"memory-trial","58","214273","0.0-18.0-1.7","7587","approach_avoid_sv1","""event"",""trial"",""time""
""fullscreenenter"",""1"",""1517""
","
","
","""event"",""trial"",""time""
""fullscreenenter"",""1"",""1517""
","
","","","","","","655","images/rodent4.png","","","memory_trial","1","definitely_old",""
"html-keyboard-response","59","214790","0.0-18.0-0.8","7587","approach_avoid_sv1","""event"",""trial"",""time""
""fullscreenenter"",""1"",""1517""
","
","
","""event"",""trial"",""time""
""fullscreenenter"",""1"",""1517""
","
","","","","","","null","<div style=""font-size:60px;"">+</div>","null","","fixation","","",""
"memory-trial","60","216929","0.0-18.0-1.8","7587","approach_avoid_sv1","""event"",""trial"",""time""
""fullscreenenter"",""1"",""1517""
","
","
","""event"",""trial"",""time""
""fullscreenenter"",""1"",""1517""
","
","","","","","","1128.3000000715256","images/sofa8.png","","","memory_trial","2","maybe_old",""
"html-keyboard-response","61","217444","0.0-18.0-0.9","7587","approach_avoid_sv1","""event"",""trial"",""time""
""fullscreenenter"",""1"",""1517""
","
","
","""event"",""trial"",""time""
""fullscreenenter"",""1"",""1517""
","
","","","","","","null","<div style=""font-size:60px;"">+</div>","null","","fixation","","",""
"memory-trial","62","220295","0.0-18.0-1.9","7587","approach_avoid_sv1","""event"",""trial"",""time""
""fullscreenenter"",""1"",""1517""
","
","
","""event"",""trial"",""time""
""fullscreenenter"",""1"",""1517""
","
","","","","","","1842.8000000715256","images/rabbit3.png","","","memory_trial","3","maybe_new",""
"html-keyboard-response","63","220800","0.0-18.0-0.10","7587","approach_avoid_sv1","""event"",""trial"",""time""
""fullscreenenter"",""1"",""1517""
","
","
","""event"",""trial"",""time""
""fullscreenenter"",""1"",""1517""
","
","","","","","","null","<div style=""font-size:60px;"">+</div>","null","","fixation","","",""
"memory-trial","64","223279","0.0-18.0-1.10","7587","approach_avoid_sv1","""event"",""trial"",""time""
""fullscreenenter"",""1"",""1517""
","
","
","""event"",""trial"",""time""
""fullscreenenter"",""1"",""1517""
","
","","","","","","1472.5","images/chair4.png","","","memory_trial","2","maybe_old",""
"html-keyboard-response","65","223787","0.0-18.0-0.11","7587","approach_avoid_sv1","""event"",""trial"",""time""
""fullscreenenter"",""1"",""1517""
","
","
","""event"",""trial"",""time""
""fullscreenenter"",""1"",""1517""
","
","","","","","","null","<div style=""font-size:60px;"">+</div>","null","","fixation","","",""
"memory-trial","66","227316","0.0-18.0-1.11","7587","approach_avoid_sv1","""event"",""trial"",""time""
""fullscreenenter"",""1"",""1517""
","
","
","""event"",""trial"",""time""
""fullscreenenter"",""1"",""1517""
","
","","","","","","2523.7000000476837","images/train5.png","","","memory_trial","2","maybe_old",""
"html-keyboard-response","67","227832","0.0-18.0-0.12","7587","approach_avoid_sv1","""event"",""trial"",""time""
""fullscreenenter"",""1"",""1517""
","
","
","""event"",""trial"",""time""
""fullscreenenter"",""1"",""1517""
","
","","","","","","null","<div style=""font-size:60px;"">+</div>","null","","fixation","","",""
"memory-trial","68","229654","0.0-18.0-1.12","7587","approach_avoid_sv1","""event"",""trial"",""time""
""fullscreenenter"",""1"",""1517""
","
","
","""event"",""trial"",""time""
""fullscreenenter"",""1"",""1517""
","
","","","","","","812.3999999761581","images/sofa5.png","","","memory_trial","1","definitely_old",""
"html-keyboard-response","69","230157","0.0-18.0-0.13","7587","approach_avoid_sv1","""event"",""trial"",""time""
""fullscreenenter"",""1"",""1517""
","
","
","""event"",""trial"",""time""
""fullscreenenter"",""1"",""1517""
","
","","","","","","null","<div style=""font-size:60px;"">+</div>","null","","fixation","","",""
"memory-trial","70","232069","0.0-18.0-1.13","7587","approach_avoid_sv1","""event"",""trial"",""time""
""fullscreenenter"",""1"",""1517""
","
","
","""event"",""trial"",""time""
""fullscreenenter"",""1"",""1517""
","
","","","","","","901.8000000715256","images/boat6.png","","","memory_trial","1","definitely_old",""
"html-keyboard-response","71","232580","0.0-18.0-0.14","7587","approach_avoid_sv1","""event"",""trial"",""time""
""fullscreenenter"",""1"",""1517""
","
","
","""event"",""trial"",""time""
""fullscreenenter"",""1"",""1517""
","
","","","","","","null","<div style=""font-size:60px;"">+</div>","null","","fixation","","",""
"memory-trial","72","234276","0.0-18.0-1.14","7587","approach_avoid_sv1","""event"",""trial"",""time""
""fullscreenenter"",""1"",""1517""
","
","
","""event"",""trial"",""time""
""fullscreenenter"",""1"",""1517""
","
","","","","","","679.5","images/cat2.png","","","memory_trial","1","definitely_old",""
"html-keyboard-response","73","234783","0.0-18.0-0.15","7587","approach_avoid_sv1","""event"",""trial"",""time""
""fullscreenenter"",""1"",""1517""
","
","
","""event"",""trial"",""time""
""fullscreenenter"",""1"",""1517""
","
","","","","","","null","<div style=""font-size:60px;"">+</div>","null","","fixation","","",""
"memory-trial","74","236685","0.0-18.0-1.15","7587","approach_avoid_sv1","""event"",""trial"",""time""
""fullscreenenter"",""1"",""1517""
","
","
","""event"",""trial"",""time""
""fullscreenenter"",""1"",""1517""
","
","","","","","","891","images/plane3.png","","","memory_trial","1","definitely_old",""
"html-keyboard-response","75","237190","0.0-18.0-0.16","7587","approach_avoid_sv1","""event"",""trial"",""time""
""fullscreenenter"",""1"",""1517""
","
","
","""event"",""trial"",""time""
""fullscreenenter"",""1"",""1517""
","
","","","","","","null","<div style=""font-size:60px;"">+</div>","null","","fixation","","",""
"memory-trial","76","239344","0.0-18.0-1.16","7587","approach_avoid_sv1","""event"",""trial"",""time""
""fullscreenenter"",""1"",""1517""
","
","
","""event"",""trial"",""time""
""fullscreenenter"",""1"",""1517""
","
","","","","","","1151.9000000953674","images/tree3.png","","","memory_trial","4","definitely_new",""
"html-keyboard-response","77","239853","0.0-18.0-0.17","7587","approach_avoid_sv1","""event"",""trial"",""time""
""fullscreenenter"",""1"",""1517""
","
","
","""event"",""trial"",""time""
""fullscreenenter"",""1"",""1517""
","
","","","","","","null","<div style=""font-size:60px;"">+</div>","null","","fixation","","",""
"memory-trial","78","242056","0.0-18.0-1.17","7587","approach_avoid_sv1","""event"",""trial"",""time""
""fullscreenenter"",""1"",""1517""
","
","
","""event"",""trial"",""time""
""fullscreenenter"",""1"",""1517""
","
","","","","","","1201.2000000476837","images/sofa2.png","","","memory_trial","4","definitely_new",""
"html-keyboard-response","79","242559","0.0-18.0-0.18","7587","approach_avoid_sv1","""event"",""trial"",""time""
""fullscreenenter"",""1"",""1517""
","
","
","""event"",""trial"",""time""
""fullscreenenter"",""1"",""1517""
","
","","","","","","null","<div style=""font-size:60px;"">+</div>","null","","fixation","","",""
"memory-trial","80","244630","0.0-18.0-1.18","7587","approach_avoid_sv1","""event"",""trial"",""time""
""fullscreenenter"",""1"",""1517""
","
","
","""event"",""trial"",""time""
""fullscreenenter"",""1"",""1517""
","
","","","","","","1063.0999999046326","images/cat8.png","","","memory_trial","2","maybe_old",""
"html-keyboard-response","81","245148","0.0-18.0-0.19","7587","approach_avoid_sv1","""event"",""trial"",""time""
""fullscreenenter"",""1"",""1517""
","
","
","""event"",""trial"",""time""
""fullscreenenter"",""1"",""1517""
","
","","","","","","null","<div style=""font-size:60px;"">+</div>","null","","fixation","","",""
"memory-trial","82","247498","0.0-18.0-1.19","7587","approach_avoid_sv1","""event"",""trial"",""time""
""fullscreenenter"",""1"",""1517""
","
","
","""event"",""trial"",""time""
""fullscreenenter"",""1"",""1517""
","
","","","","","","1341.8999999761581","images/goat7.png","","","memory_trial","1","definitely_old",""
"html-keyboard-response","83","248003","0.0-18.0-0.20","7587","approach_avoid_sv1","""event"",""trial"",""time""
""fullscreenenter"",""1"",""1517""
","
","
","""event"",""trial"",""time""
""fullscreenenter"",""1"",""1517""
","
","","","","","","null","<div style=""font-size:60px;"">+</div>","null","","fixation","","",""
"memory-trial","84","250491","0.0-18.0-1.20","7587","approach_avoid_sv1","""event"",""trial"",""time""
""fullscreenenter"",""1"",""1517""
","
","
","""event"",""trial"",""time""
""fullscreenenter"",""1"",""1517""
","
","","","","","","1469.5","images/truck7.png","","","memory_trial","3","maybe_new",""
"html-keyboard-response","85","250996","0.0-18.0-0.21","7587","approach_avoid_sv1","""event"",""trial"",""time""
""fullscreenenter"",""1"",""1517""
","
","
","""event"",""trial"",""time""
""fullscreenenter"",""1"",""1517""
","
","","","","","","null","<div style=""font-size:60px;"">+</div>","null","","fixation","","",""
"memory-trial","86","253037","0.0-18.0-1.21","7587","approach_avoid_sv1","""event"",""trial"",""time""
""fullscreenenter"",""1"",""1517""
","
","
","""event"",""trial"",""time""
""fullscreenenter"",""1"",""1517""
","
","","","","","","1037","images/rodent5.png","","","memory_trial","1","definitely_old",""
"html-keyboard-response","87","253543","0.0-18.0-0.22","7587","approach_avoid_sv1","""event"",""trial"",""time""
""fullscreenenter"",""1"",""1517""
","
","
","""event"",""trial"",""time""
""fullscreenenter"",""1"",""1517""
","
","","","","","","null","<div style=""font-size:60px;"">+</div>","null","","fixation","","",""
"memory-trial","88","257210","0.0-18.0-1.22","7587","approach_avoid_sv1","""event"",""trial"",""time""
""fullscreenenter"",""1"",""1517""
","
","
","""event"",""trial"",""time""
""fullscreenenter"",""1"",""1517""
","
","","","","","","2659.2000000476837","images/dog4.png","","","memory_trial","1","definitely_old",""
"html-keyboard-response","89","257716","0.0-18.0-0.23","7587","approach_avoid_sv1","""event"",""trial"",""time""
""fullscreenenter"",""1"",""1517""
","
","
","""event"",""trial"",""time""
""fullscreenenter"",""1"",""1517""
","
","","","","","","null","<div style=""font-size:60px;"">+</div>","null","","fixation","","",""
"memory-trial","90","259546","0.0-18.0-1.23","7587","approach_avoid_sv1","""event"",""trial"",""time""
""fullscreenenter"",""1"",""1517""
","
","
","""event"",""trial"",""time""
""fullscreenenter"",""1"",""1517""
","
","","","","","","820.6000000238419","images/boat5.png","","","memory_trial","1","definitely_old",""
"html-keyboard-response","91","260048","0.0-18.0-0.24","7587","approach_avoid_sv1","""event"",""trial"",""time""
""fullscreenenter"",""1"",""1517""
","
","
","""event"",""trial"",""time""
""fullscreenenter"",""1"",""1517""
","
","","","","","","null","<div style=""font-size:60px;"">+</div>","null","","fixation","","",""
"memory-trial","92","263422","0.0-18.0-1.24","7587","approach_avoid_sv1","""event"",""trial"",""time""
""fullscreenenter"",""1"",""1517""
","
","
","""event"",""trial"",""time""
""fullscreenenter"",""1"",""1517""
","
","","","","","","2367.2000000476837","images/table8.png","","","memory_trial","2","maybe_old",""
"html-keyboard-response","93","263931","0.0-18.0-0.25","7587","approach_avoid_sv1","""event"",""trial"",""time""
""fullscreenenter"",""1"",""1517""
","
","
","""event"",""trial"",""time""
""fullscreenenter"",""1"",""1517""
","
","","","","","","null","<div style=""font-size:60px;"">+</div>","null","","fixation","","",""
"memory-trial","94","266471","0.0-18.0-1.25","7587","approach_avoid_sv1","""event"",""trial"",""time""
""fullscreenenter"",""1"",""1517""
","
","
","""event"",""trial"",""time""
""fullscreenenter"",""1"",""1517""
","
","","","","","","1531.6999999284744","images/bed6.png","","","memory_trial","1","definitely_old",""
"html-keyboard-response","95","266980","0.0-18.0-0.26","7587","approach_avoid_sv1","""event"",""trial"",""time""
""fullscreenenter"",""1"",""1517""
","
","
","""event"",""trial"",""time""
""fullscreenenter"",""1"",""1517""
","
","","","","","","null","<div style=""font-size:60px;"">+</div>","null","","fixation","","",""
"memory-trial","96","270282","0.0-18.0-1.26","7587","approach_avoid_sv1","""event"",""trial"",""time""
""fullscreenenter"",""1"",""1517""
","
","
","""event"",""trial"",""time""
""fullscreenenter"",""1"",""1517""
","
","","","","","","2294","images/bed5.png","","","memory_trial","1","definitely_old",""
"html-keyboard-response","97","270785","0.0-18.0-0.27","7587","approach_avoid_sv1","""event"",""trial"",""time""
""fullscreenenter"",""1"",""1517""
","
","
","""event"",""trial"",""time""
""fullscreenenter"",""1"",""1517""
","
","","","","","","null","<div style=""font-size:60px;"">+</div>","null","","fixation","","",""
"memory-trial","98","272746","0.0-18.0-1.27","7587","approach_avoid_sv1","""event"",""trial"",""time""
""fullscreenenter"",""1"",""1517""
","
","
","""event"",""trial"",""time""
""fullscreenenter"",""1"",""1517""
","
","","","","","","956.1000000238419","images/chair1.png","","","memory_trial","3","maybe_new",""
"html-keyboard-response","99","273257","0.0-18.0-0.28","7587","approach_avoid_sv1","""event"",""trial"",""time""
""fullscreenenter"",""1"",""1517""
","
","
","""event"",""trial"",""time""
""fullscreenenter"",""1"",""1517""
","
","","","","","","null","<div style=""font-size:60px;"">+</div>","null","","fixation","","",""
"memory-trial","100","275481","0.0-18.0-1.28","7587","approach_avoid_sv1","""event"",""trial"",""time""
""fullscreenenter"",""1"",""1517""
","
","
","""event"",""trial"",""time""
""fullscreenenter"",""1"",""1517""
","
","","","","","","1216","images/rabbit5.png","","","memory_trial","4","definitely_new",""
"html-keyboard-response","101","275984","0.0-18.0-0.29","7587","approach_avoid_sv1","""event"",""trial"",""time""
""fullscreenenter"",""1"",""1517""
","
","
","""event"",""trial"",""time""
""fullscreenenter"",""1"",""1517""
","
","","","","","","null","<div style=""font-size:60px;"">+</div>","null","","fixation","","",""
"memory-trial","102","278831","0.0-18.0-1.29","7587","approach_avoid_sv1","""event"",""trial"",""time""
""fullscreenenter"",""1"",""1517""
","
","
","""event"",""trial"",""time""
""fullscreenenter"",""1"",""1517""
","
","","","","","","1830.1999999284744","images/goat2.png","","","memory_trial","4","definitely_new",""
"html-keyboard-response","103","279334","0.0-18.0-0.30","7587","approach_avoid_sv1","""event"",""trial"",""time""
""fullscreenenter"",""1"",""1517""
","
","
","""event"",""trial"",""time""
""fullscreenenter"",""1"",""1517""
","
","","","","","","null","<div style=""font-size:60px;"">+</div>","null","","fixation","","",""
"memory-trial","104","282366","0.0-18.0-1.30","7587","approach_avoid_sv1","""event"",""trial"",""time""
""fullscreenenter"",""1"",""1517""
","
","
","""event"",""trial"",""time""
""fullscreenenter"",""1"",""1517""
","
","","","","","","2026.8999999761581","images/apple5.png","","","memory_trial","1","definitely_old",""
"html-keyboard-response","105","282870","0.0-18.0-0.31","7587","approach_avoid_sv1","""event"",""trial"",""time""
""fullscreenenter"",""1"",""1517""
","
","
","""event"",""trial"",""time""
""fullscreenenter"",""1"",""1517""
","
","","","","","","null","<div style=""font-size:60px;"">+</div>","null","","fixation","","",""
"memory-trial","106","285902","0.0-18.0-1.31","7587","approach_avoid_sv1","""event"",""trial"",""time""
""fullscreenenter"",""1"",""1517""
","
","
","""event"",""trial"",""time""
""fullscreenenter"",""1"",""1517""
","
","","","","","","2023.5","images/sheep6.png","","","memory_trial","3","maybe_new",""
"html-keyboard-response","107","286408","0.0-18.0-0.32","7587","approach_avoid_sv1","""event"",""trial"",""time""
""fullscreenenter"",""1"",""1517""
","
","
","""event"",""trial"",""time""
""fullscreenenter"",""1"",""1517""
","
","","","","","","null","<div style=""font-size:60px;"">+</div>","null","","fixation","","",""
"memory-trial","108","289466","0.0-18.0-1.32","7587","approach_avoid_sv1","""event"",""trial"",""time""
""fullscreenenter"",""1"",""1517""
","
","
","""event"",""trial"",""time""
""fullscreenenter"",""1"",""1517""
","
","","","","","","2054.7999999523163","images/truck8.png","","","memory_trial","2","maybe_old",""
"html-keyboard-response","109","289973","0.0-18.0-0.33","7587","approach_avoid_sv1","""event"",""trial"",""time""
""fullscreenenter"",""1"",""1517""
","
","
","""event"",""trial"",""time""
""fullscreenenter"",""1"",""1517""
","
","","","","","","null","<div style=""font-size:60px;"">+</div>","null","","fixation","","",""
"memory-trial","110","292384","0.0-18.0-1.33","7587","approach_avoid_sv1","""event"",""trial"",""time""
""fullscreenenter"",""1"",""1517""
","
","
","""event"",""trial"",""time""
""fullscreenenter"",""1"",""1517""
","
","","","","","","1404.2999999523163","images/horse2.png","","","memory_trial","1","definitely_old",""
"html-keyboard-response","111","292888","0.0-18.0-0.34","7587","approach_avoid_sv1","""event"",""trial"",""time""
""fullscreenenter"",""1"",""1517""
","
","
","""event"",""trial"",""time""
""fullscreenenter"",""1"",""1517""
","
","","","","","","null","<div style=""font-size:60px;"">+</div>","null","","fixation","","",""
"memory-trial","112","296161","0.0-18.0-1.34","7587","approach_avoid_sv1","""event"",""trial"",""time""
""fullscreenenter"",""1"",""1517""
","
","
","""event"",""trial"",""time""
""fullscreenenter"",""1"",""1517""
","
","","","","","","2269.0999999046326","images/cactus5.png","","","memory_trial","1","definitely_old",""
"html-keyboard-response","113","296666","0.0-18.0-0.35","7587","approach_avoid_sv1","""event"",""trial"",""time""
""fullscreenenter"",""1"",""1517""
","
","
","""event"",""trial"",""time""
""fullscreenenter"",""1"",""1517""
","
","","","","","","null","<div style=""font-size:60px;"">+</div>","null","","fixation","","",""
"memory-trial","114","299100","0.0-18.0-1.35","7587","approach_avoid_sv1","""event"",""trial"",""time""
""fullscreenenter"",""1"",""1517""
","
","
","""event"",""trial"",""time""
""fullscreenenter"",""1"",""1517""
","
","","","","","","1429.7000000476837","images/cow1.png","","","memory_trial","4","definitely_new",""
"html-keyboard-response","115","299607","0.0-18.0-0.36","7587","approach_avoid_sv1","""event"",""trial"",""time""
""fullscreenenter"",""1"",""1517""
","
","
","""event"",""trial"",""time""
""fullscreenenter"",""1"",""1517""
","
","","","","","","null","<div style=""font-size:60px;"">+</div>","null","","fixation","","",""
"memory-trial","116","301814","0.0-18.0-1.36","7587","approach_avoid_sv1","""event"",""trial"",""time""
""fullscreenenter"",""1"",""1517""
","
","
","""event"",""trial"",""time""
""fullscreenenter"",""1"",""1517""
","
","","","","","","1199.6000000238419","images/flower6.png","","","memory_trial","4","definitely_new",""
"html-keyboard-response","117","302331","0.0-18.0-0.37","7587","approach_avoid_sv1","""event"",""trial"",""time""
""fullscreenenter"",""1"",""1517""
","
","
","""event"",""trial"",""time""
""fullscreenenter"",""1"",""1517""
","
","","","","","","null","<div style=""font-size:60px;"">+</div>","null","","fixation","","",""
"memory-trial","118","306102","0.0-18.0-1.37","7587","approach_avoid_sv1","""event"",""trial"",""time""
""fullscreenenter"",""1"",""1517""
","
","
","""event"",""trial"",""time""
""fullscreenenter"",""1"",""1517""
","
","","","","","","2760.399999976158","images/chair2.png","","","memory_trial","1","definitely_old",""
"html-keyboard-response","119","306604","0.0-18.0-0.38","7587","approach_avoid_sv1","""event"",""trial"",""time""
""fullscreenenter"",""1"",""1517""
","
","
","""event"",""trial"",""time""
""fullscreenenter"",""1"",""1517""
","
","","","","","","null","<div style=""font-size:60px;"">+</div>","null","","fixation","","",""
"memory-trial","120","308426","0.0-18.0-1.38","7587","approach_avoid_sv1","""event"",""trial"",""time""
""fullscreenenter"",""1"",""1517""
","
","
","""event"",""trial"",""time""
""fullscreenenter"",""1"",""1517""
","
","","","","","","819.3000000715256","images/train4.png","","","memory_trial","1","definitely_old",""
"html-keyboard-response","121","308932","0.0-18.0-0.39","7587","approach_avoid_sv1","""event"",""trial"",""time""
""fullscreenenter"",""1"",""1517""
","
","
","""event"",""trial"",""time""
""fullscreenenter"",""1"",""1517""
","
","","","","","","null","<div style=""font-size:60px;"">+</div>","null","","fixation","","",""
"memory-trial","122","310716","0.0-18.0-1.39","7587","approach_avoid_sv1","""event"",""trial"",""time""
""fullscreenenter"",""1"",""1517""
","
","
","""event"",""trial"",""time""
""fullscreenenter"",""1"",""1517""
","
","","","","","","772","images/truck5.png","","","memory_trial","1","definitely_old",""
"html-keyboard-response","123","311231","0.0-18.0-0.40","7587","approach_avoid_sv1","""event"",""trial"",""time""
""fullscreenenter"",""1"",""1517""
","
","
","""event"",""trial"",""time""
""fullscreenenter"",""1"",""1517""
","
","","","","","","null","<div style=""font-size:60px;"">+</div>","null","","fixation","","",""
"memory-trial","124","314787","0.0-18.0-1.40","7587","approach_avoid_sv1","""event"",""trial"",""time""
""fullscreenenter"",""1"",""1517""
","
","
","""event"",""trial"",""time""
""fullscreenenter"",""1"",""1517""
","
","","","","","","2545","images/banana7.png","","","memory_trial","1","definitely_old",""
"html-keyboard-response","125","315292","0.0-18.0-0.41","7587","approach_avoid_sv1","""event"",""trial"",""time""
""fullscreenenter"",""1"",""1517""
","
","
","""event"",""trial"",""time""
""fullscreenenter"",""1"",""1517""
","
","","","","","","null","<div style=""font-size:60px;"">+</div>","null","","fixation","","",""
"memory-trial","126","317104","0.0-18.0-1.41","7587","approach_avoid_sv1","""event"",""trial"",""time""
""fullscreenenter"",""1"",""1517""
","
","
","""event"",""trial"",""time""
""fullscreenenter"",""1"",""1517""
","
","","","","","","803.8999999761581","images/boat1.png","","","memory_trial","1","definitely_old",""
"html-button-response","127","320404","0.0-18.0-2.41-0.41","7587","approach_avoid_sv1","""event"",""trial"",""time""
""fullscreenenter"",""1"",""1517""
","
","
","""event"",""trial"",""time""
""fullscreenenter"",""1"",""1517""
","
","","","","","","3299.2000000476837","<p> Take a break! </p><p> Click the button to continue. </p>","0","","break","","",""
"html-keyboard-response","128","320907","0.0-18.0-0.42","7587","approach_avoid_sv1","""event"",""trial"",""time""
""fullscreenenter"",""1"",""1517""
","
","
","""event"",""trial"",""time""
""fullscreenenter"",""1"",""1517""
","
","","","","","","null","<div style=""font-size:60px;"">+</div>","null","","fixation","","",""
"memory-trial","129","322581","0.0-18.0-1.42","7587","approach_avoid_sv1","""event"",""trial"",""time""
""fullscreenenter"",""1"",""1517""
","
","
","""event"",""trial"",""time""
""fullscreenenter"",""1"",""1517""
","
","","","","","","663.5","images/rabbit1.png","","","memory_trial","1","definitely_old",""
"html-keyboard-response","130","323099","0.0-18.0-0.43","7587","approach_avoid_sv1","""event"",""trial"",""time""
""fullscreenenter"",""1"",""1517""
","
","
","""event"",""trial"",""time""
""fullscreenenter"",""1"",""1517""
","
","","","","","","null","<div style=""font-size:60px;"">+</div>","null","","fixation","","",""
"memory-trial","131","325137","0.0-18.0-1.43","7587","approach_avoid_sv1","""event"",""trial"",""time""
""fullscreenenter"",""1"",""1517""
","
","
","""event"",""trial"",""time""
""fullscreenenter"",""1"",""1517""
","
","","","","","","1028.6000000238419","images/table7.png","","","memory_trial","3","maybe_new",""
"html-keyboard-response","132","325646","0.0-18.0-0.44","7587","approach_avoid_sv1","""event"",""trial"",""time""
""fullscreenenter"",""1"",""1517""
","
","
","""event"",""trial"",""time""
""fullscreenenter"",""1"",""1517""
","
","","","","","","null","<div style=""font-size:60px;"">+</div>","null","","fixation","","",""
"memory-trial","133","327257","0.0-18.0-1.44","7587","approach_avoid_sv1","""event"",""trial"",""time""
""fullscreenenter"",""1"",""1517""
","
","
","""event"",""trial"",""time""
""fullscreenenter"",""1"",""1517""
","
","","","","","","604.7000000476837","images/cactus4.png","","","memory_trial","1","definitely_old",""
"html-keyboard-response","134","327760","0.0-18.0-0.45","7587","approach_avoid_sv1","""event"",""trial"",""time""
""fullscreenenter"",""1"",""1517""
","
","
","""event"",""trial"",""time""
""fullscreenenter"",""1"",""1517""
","
","","","","","","null","<div style=""font-size:60px;"">+</div>","null","","fixation","","",""
"memory-trial","135","329488","0.0-18.0-1.45","7587","approach_avoid_sv1","""event"",""trial"",""time""
""fullscreenenter"",""1"",""1517""
","
","
","""event"",""trial"",""time""
""fullscreenenter"",""1"",""1517""
","
","","","","","","725.0999999046326","images/cat3.png","","","memory_trial","1","definitely_old",""
"html-keyboard-response","136","329989","0.0-18.0-0.46","7587","approach_avoid_sv1","""event"",""trial"",""time""
""fullscreenenter"",""1"",""1517""
","
","
","""event"",""trial"",""time""
""fullscreenenter"",""1"",""1517""
","
","","","","","","null","<div style=""font-size:60px;"">+</div>","null","","fixation","","",""
"memory-trial","137","333392","0.0-18.0-1.46","7587","approach_avoid_sv1","""event"",""trial"",""time""
""fullscreenenter"",""1"",""1517""
","
","
","""event"",""trial"",""time""
""fullscreenenter"",""1"",""1517""
","
","","","","","","2399.1999999284744","images/goat8.png","","","memory_trial","3","maybe_new",""
"html-keyboard-response","138","333893","0.0-18.0-0.47","7587","approach_avoid_sv1","""event"",""trial"",""time""
""fullscreenenter"",""1"",""1517""
","
","
","""event"",""trial"",""time""
""fullscreenenter"",""1"",""1517""
","
","","","","","","null","<div style=""font-size:60px;"">+</div>","null","","fixation","","",""
"memory-trial","139","337728","0.0-18.0-1.47","7587","approach_avoid_sv1","""event"",""trial"",""time""
""fullscreenenter"",""1"",""1517""
","
","
","""event"",""trial"",""time""
""fullscreenenter"",""1"",""1517""
","
","","","","","","2833.0999999046326","images/tree5.png","","","memory_trial","1","definitely_old",""
"html-keyboard-response","140","338231","0.0-18.0-0.48","7587","approach_avoid_sv1","""event"",""trial"",""time""
""fullscreenenter"",""1"",""1517""
","
","
","""event"",""trial"",""time""
""fullscreenenter"",""1"",""1517""
","
","","","","","","null","<div style=""font-size:60px;"">+</div>","null","","fixation","","",""
"memory-trial","141","341150","0.0-18.0-1.48","7587","approach_avoid_sv1","""event"",""trial"",""time""
""fullscreenenter"",""1"",""1517""
","
","
","""event"",""trial"",""time""
""fullscreenenter"",""1"",""1517""
","
","","","","","","1912.1000000238419","images/tree2.png","","","memory_trial","1","definitely_old",""
"html-keyboard-response","142","341652","0.0-18.0-0.49","7587","approach_avoid_sv1","""event"",""trial"",""time""
""fullscreenenter"",""1"",""1517""
","
","
","""event"",""trial"",""time""
""fullscreenenter"",""1"",""1517""
","
","","","","","","null","<div style=""font-size:60px;"">+</div>","null","","fixation","","",""
"memory-trial","143","344732","0.0-18.0-1.49","7587","approach_avoid_sv1","""event"",""trial"",""time""
""fullscreenenter"",""1"",""1517""
","
","
","""event"",""trial"",""time""
""fullscreenenter"",""1"",""1517""
","
","","","","","","2070.100000023842","images/table4.png","","","memory_trial","2","maybe_old",""
"html-keyboard-response","144","345234","0.0-18.0-0.50","7587","approach_avoid_sv1","""event"",""trial"",""time""
""fullscreenenter"",""1"",""1517""
","
","
","""event"",""trial"",""time""
""fullscreenenter"",""1"",""1517""
","
","","","","","","null","<div style=""font-size:60px;"">+</div>","null","","fixation","","",""
"memory-trial","145","348569","0.0-18.0-1.50","7587","approach_avoid_sv1","""event"",""trial"",""time""
""fullscreenenter"",""1"",""1517""
","
","
","""event"",""trial"",""time""
""fullscreenenter"",""1"",""1517""
","
","","","","","","2331.7000000476837","images/sofa1.png","","","memory_trial","2","maybe_old",""
"html-keyboard-response","146","349078","0.0-18.0-0.51","7587","approach_avoid_sv1","""event"",""trial"",""time""
""fullscreenenter"",""1"",""1517""
","
","
","""event"",""trial"",""time""
""fullscreenenter"",""1"",""1517""
","
","","","","","","null","<div style=""font-size:60px;"">+</div>","null","","fixation","","",""
"memory-trial","147","352742","0.0-18.0-1.51","7587","approach_avoid_sv1","""event"",""trial"",""time""
""fullscreenenter"",""1"",""1517""
","
","
","""event"",""trial"",""time""
""fullscreenenter"",""1"",""1517""
","
","","","","","","2647.100000023842","images/truck2.png","","","memory_trial","1","definitely_old",""
"html-keyboard-response","148","353250","0.0-18.0-0.52","7587","approach_avoid_sv1","""event"",""trial"",""time""
""fullscreenenter"",""1"",""1517""
","
","
","""event"",""trial"",""time""
""fullscreenenter"",""1"",""1517""
","
","","","","","","null","<div style=""font-size:60px;"">+</div>","null","","fixation","","",""
"memory-trial","149","354989","0.0-18.0-1.52","7587","approach_avoid_sv1","""event"",""trial"",""time""
""fullscreenenter"",""1"",""1517""
","
","
","""event"",""trial"",""time""
""fullscreenenter"",""1"",""1517""
","
","","","","","","730.7000000476837","images/dog5.png","","","memory_trial","1","definitely_old",""
"html-keyboard-response","150","355496","0.0-18.0-0.53","7587","approach_avoid_sv1","""event"",""trial"",""time""
""fullscreenenter"",""1"",""1517""
","
","
","""event"",""trial"",""time""
""fullscreenenter"",""1"",""1517""
","
","","","","","","null","<div style=""font-size:60px;"">+</div>","null","","fixation","","",""
"memory-trial","151","357164","0.0-18.0-1.53","7587","approach_avoid_sv1","""event"",""trial"",""time""
""fullscreenenter"",""1"",""1517""
","
","
","""event"",""trial"",""time""
""fullscreenenter"",""1"",""1517""
","
","","","","","","661.2999999523163","images/cactus7.png","","","memory_trial","1","definitely_old",""
"html-keyboard-response","152","357666","0.0-18.0-0.54","7587","approach_avoid_sv1","""event"",""trial"",""time""
""fullscreenenter"",""1"",""1517""
","
","
","""event"",""trial"",""time""
""fullscreenenter"",""1"",""1517""
","
","","","","","","null","<div style=""font-size:60px;"">+</div>","null","","fixation","","",""
"memory-trial","153","359487","0.0-18.0-1.54","7587","approach_avoid_sv1","""event"",""trial"",""time""
""fullscreenenter"",""1"",""1517""
","
","
","""event"",""trial"",""time""
""fullscreenenter"",""1"",""1517""
","
","","","","","","809.2000000476837","images/rabbit7.png","","","memory_trial","1","definitely_old",""
"html-keyboard-response","154","359992","0.0-18.0-0.55","7587","approach_avoid_sv1","""event"",""trial"",""time""
""fullscreenenter"",""1"",""1517""
","
","
","""event"",""trial"",""time""
""fullscreenenter"",""1"",""1517""
","
","","","","","","null","<div style=""font-size:60px;"">+</div>","null","","fixation","","",""
"memory-trial","155","362477","0.0-18.0-1.55","7587","approach_avoid_sv1","""event"",""trial"",""time""
""fullscreenenter"",""1"",""1517""
","
","
","""event"",""trial"",""time""
""fullscreenenter"",""1"",""1517""
","
","","","","","","1481.2000000476837","images/horse7.png","","","memory_trial","1","definitely_old",""
"html-keyboard-response","156","362985","0.0-18.0-0.56","7587","approach_avoid_sv1","""event"",""trial"",""time""
""fullscreenenter"",""1"",""1517""
","
","
","""event"",""trial"",""time""
""fullscreenenter"",""1"",""1517""
","
","","","","","","null","<div style=""font-size:60px;"">+</div>","null","","fixation","","",""
"memory-trial","157","364558","0.0-18.0-1.56","7587","approach_avoid_sv1","""event"",""trial"",""time""
""fullscreenenter"",""1"",""1517""
","
","
","""event"",""trial"",""time""
""fullscreenenter"",""1"",""1517""
","
","","","","","","565.6999999284744","images/horse3.png","","","memory_trial","1","definitely_old",""
"html-keyboard-response","158","365068","0.0-18.0-0.57","7587","approach_avoid_sv1","""event"",""trial"",""time""
""fullscreenenter"",""1"",""1517""
","
","
","""event"",""trial"",""time""
""fullscreenenter"",""1"",""1517""
","
","","","","","","null","<div style=""font-size:60px;"">+</div>","null","","fixation","","",""
"memory-trial","159","366621","0.0-18.0-1.57","7587","approach_avoid_sv1","""event"",""trial"",""time""
""fullscreenenter"",""1"",""1517""
","
","
","""event"",""trial"",""time""
""fullscreenenter"",""1"",""1517""
","
","","","","","","546.4000000953674","images/cactus3.png","","","memory_trial","1","definitely_old",""
"html-keyboard-response","160","367127","0.0-18.0-0.58","7587","approach_avoid_sv1","""event"",""trial"",""time""
""fullscreenenter"",""1"",""1517""
","
","
","""event"",""trial"",""time""
""fullscreenenter"",""1"",""1517""
","
","","","","","","null","<div style=""font-size:60px;"">+</div>","null","","fixation","","",""
"memory-trial","161","369266","0.0-18.0-1.58","7587","approach_avoid_sv1","""event"",""trial"",""time""
""fullscreenenter"",""1"",""1517""
","
","
","""event"",""trial"",""time""
""fullscreenenter"",""1"",""1517""
","
","","","","","","1129.8000000715256","images/cow2.png","","","memory_trial","2","maybe_old",""
"html-keyboard-response","162","369771","0.0-18.0-0.59","7587","approach_avoid_sv1","""event"",""trial"",""time""
""fullscreenenter"",""1"",""1517""
","
","
","""event"",""trial"",""time""
""fullscreenenter"",""1"",""1517""
","
","","","","","","null","<div style=""font-size:60px;"">+</div>","null","","fixation","","",""
"memory-trial","163","371629","0.0-18.0-1.59","7587","approach_avoid_sv1","""event"",""trial"",""time""
""fullscreenenter"",""1"",""1517""
","
","
","""event"",""trial"",""time""
""fullscreenenter"",""1"",""1517""
","
","","","","","","850","images/cow4.png","","","memory_trial","2","maybe_old",""
"html-keyboard-response","164","372138","0.0-18.0-0.60","7587","approach_avoid_sv1","""event"",""trial"",""time""
""fullscreenenter"",""1"",""1517""
","
","
","""event"",""trial"",""time""
""fullscreenenter"",""1"",""1517""
","
","","","","","","null","<div style=""font-size:60px;"">+</div>","null","","fixation","","",""
"memory-trial","165","374053","0.0-18.0-1.60","7587","approach_avoid_sv1","""event"",""trial"",""time""
""fullscreenenter"",""1"",""1517""
","
","
","""event"",""trial"",""time""
""fullscreenenter"",""1"",""1517""
","
","","","","","","911.3000000715256","images/bush8.png","","","memory_trial","1","definitely_old",""
"html-keyboard-response","166","374562","0.0-18.0-0.61","7587","approach_avoid_sv1","""event"",""trial"",""time""
""fullscreenenter"",""1"",""1517""
","
","
","""event"",""trial"",""time""
""fullscreenenter"",""1"",""1517""
","
","","","","","","null","<div style=""font-size:60px;"">+</div>","null","","fixation","","",""
"memory-trial","167","376668","0.0-18.0-1.61","7587","approach_avoid_sv1","""event"",""trial"",""time""
""fullscreenenter"",""1"",""1517""
","
","
","""event"",""trial"",""time""
""fullscreenenter"",""1"",""1517""
","
","","","","","","1102.8999999761581","images/table1.png","","","memory_trial","2","maybe_old",""
"html-keyboard-response","168","377173","0.0-18.0-0.62","7587","approach_avoid_sv1","""event"",""trial"",""time""
""fullscreenenter"",""1"",""1517""
","
","
","""event"",""trial"",""time""
""fullscreenenter"",""1"",""1517""
","
","","","","","","null","<div style=""font-size:60px;"">+</div>","null","","fixation","","",""
"memory-trial","169","379314","0.0-18.0-1.62","7587","approach_avoid_sv1","""event"",""trial"",""time""
""fullscreenenter"",""1"",""1517""
","
","
","""event"",""trial"",""time""
""fullscreenenter"",""1"",""1517""
","
","","","","","","1131.6999999284744","images/chair5.png","","","memory_trial","2","maybe_old",""
"html-keyboard-response","170","379819","0.0-18.0-0.63","7587","approach_avoid_sv1","""event"",""trial"",""time""
""fullscreenenter"",""1"",""1517""
","
","
","""event"",""trial"",""time""
""fullscreenenter"",""1"",""1517""
","
","","","","","","null","<div style=""font-size:60px;"">+</div>","null","","fixation","","",""
"memory-trial","171","382623","0.0-18.0-1.63","7587","approach_avoid_sv1","""event"",""trial"",""time""
""fullscreenenter"",""1"",""1517""
","
","
","""event"",""trial"",""time""
""fullscreenenter"",""1"",""1517""
","
","","","","","","1796.7000000476837","images/boat3.png","","","memory_trial","4","definitely_new",""
"html-keyboard-response","172","383124","0.0-18.0-0.64","7587","approach_avoid_sv1","""event"",""trial"",""time""
""fullscreenenter"",""1"",""1517""
","
","
","""event"",""trial"",""time""
""fullscreenenter"",""1"",""1517""
","
","","","","","","null","<div style=""font-size:60px;"">+</div>","null","","fixation","","",""
"memory-trial","173","384681","0.0-18.0-1.64","7587","approach_avoid_sv1","""event"",""trial"",""time""
""fullscreenenter"",""1"",""1517""
","
","
","""event"",""trial"",""time""
""fullscreenenter"",""1"",""1517""
","
","","","","","","546.8000000715256","images/straw8.png","","","memory_trial","1","definitely_old",""
"html-keyboard-response","174","385193","0.0-18.0-0.65","7587","approach_avoid_sv1","""event"",""trial"",""time""
""fullscreenenter"",""1"",""1517""
","
","
","""event"",""trial"",""time""
""fullscreenenter"",""1"",""1517""
","
","","","","","","null","<div style=""font-size:60px;"">+</div>","null","","fixation","","",""
"memory-trial","175","387168","0.0-18.0-1.65","7587","approach_avoid_sv1","""event"",""trial"",""time""
""fullscreenenter"",""1"",""1517""
","
","
","""event"",""trial"",""time""
""fullscreenenter"",""1"",""1517""
","
","","","","","","965.4000000953674","images/truck6.png","","","memory_trial","4","definitely_new",""
"html-keyboard-response","176","387670","0.0-18.0-0.66","7587","approach_avoid_sv1","""event"",""trial"",""time""
""fullscreenenter"",""1"",""1517""
","
","
","""event"",""trial"",""time""
""fullscreenenter"",""1"",""1517""
","
","","","","","","null","<div style=""font-size:60px;"">+</div>","null","","fixation","","",""
"memory-trial","177","389960","0.0-18.0-1.66","7587","approach_avoid_sv1","""event"",""trial"",""time""
""fullscreenenter"",""1"",""1517""
","
","
","""event"",""trial"",""time""
""fullscreenenter"",""1"",""1517""
","
","","","","","","1272","images/flower5.png","","","memory_trial","1","definitely_old",""
"html-keyboard-response","178","390461","0.0-18.0-0.67","7587","approach_avoid_sv1","""event"",""trial"",""time""
""fullscreenenter"",""1"",""1517""
","
","
","""event"",""trial"",""time""
""fullscreenenter"",""1"",""1517""
","
","","","","","","null","<div style=""font-size:60px;"">+</div>","null","","fixation","","",""
"memory-trial","179","392036","0.0-18.0-1.67","7587","approach_avoid_sv1","""event"",""trial"",""time""
""fullscreenenter"",""1"",""1517""
","
","
","""event"",""trial"",""time""
""fullscreenenter"",""1"",""1517""
","
","","","","","","569.3999999761581","images/orange1.png","","","memory_trial","1","definitely_old",""
"html-keyboard-response","180","392538","0.0-18.0-0.68","7587","approach_avoid_sv1","""event"",""trial"",""time""
""fullscreenenter"",""1"",""1517""
","
","
","""event"",""trial"",""time""
""fullscreenenter"",""1"",""1517""
","
","","","","","","null","<div style=""font-size:60px;"">+</div>","null","","fixation","","",""
"memory-trial","181","394557","0.0-18.0-1.68","7587","approach_avoid_sv1","""event"",""trial"",""time""
""fullscreenenter"",""1"",""1517""
","
","
","""event"",""trial"",""time""
""fullscreenenter"",""1"",""1517""
","
","","","","","","1016.5","images/bed3.png","","","memory_trial","3","maybe_new",""
"html-keyboard-response","182","395066","0.0-18.0-0.69","7587","approach_avoid_sv1","""event"",""trial"",""time""
""fullscreenenter"",""1"",""1517""
","
","
","""event"",""trial"",""time""
""fullscreenenter"",""1"",""1517""
","
","","","","","","null","<div style=""font-size:60px;"">+</div>","null","","fixation","","",""
"memory-trial","183","397452","0.0-18.0-1.69","7587","approach_avoid_sv1","""event"",""trial"",""time""
""fullscreenenter"",""1"",""1517""
","
","
","""event"",""trial"",""time""
""fullscreenenter"",""1"",""1517""
","
","","","","","","1381.7999999523163","images/orange8.png","","","memory_trial","4","definitely_new",""
"html-keyboard-response","184","397960","0.0-18.0-0.70","7587","approach_avoid_sv1","""event"",""trial"",""time""
""fullscreenenter"",""1"",""1517""
","
","
","""event"",""trial"",""time""
""fullscreenenter"",""1"",""1517""
","
","","","","","","null","<div style=""font-size:60px;"">+</div>","null","","fixation","","",""
"memory-trial","185","399914","0.0-18.0-1.70","7587","approach_avoid_sv1","""event"",""trial"",""time""
""fullscreenenter"",""1"",""1517""
","
","
","""event"",""trial"",""time""
""fullscreenenter"",""1"",""1517""
","
","","","","","","949.8999999761581","images/flower7.png","","","memory_trial","4","definitely_new",""
"html-keyboard-response","186","400417","0.0-18.0-0.71","7587","approach_avoid_sv1","""event"",""trial"",""time""
""fullscreenenter"",""1"",""1517""
","
","
","""event"",""trial"",""time""
""fullscreenenter"",""1"",""1517""
","
","","","","","","null","<div style=""font-size:60px;"">+</div>","null","","fixation","","",""
"memory-trial","187","402081","0.0-18.0-1.71","7587","approach_avoid_sv1","""event"",""trial"",""time""
""fullscreenenter"",""1"",""1517""
","
","
","""event"",""trial"",""time""
""fullscreenenter"",""1"",""1517""
","
","","","","","","656.3000000715256","images/banana4.png","","","memory_trial","1","definitely_old",""
"html-keyboard-response","188","402584","0.0-18.0-0.72","7587","approach_avoid_sv1","""event"",""trial"",""time""
""fullscreenenter"",""1"",""1517""
","
","
","""event"",""trial"",""time""
""fullscreenenter"",""1"",""1517""
","
","","","","","","null","<div style=""font-size:60px;"">+</div>","null","","fixation","","",""
"memory-trial","189","405353","0.0-18.0-1.72","7587","approach_avoid_sv1","""event"",""trial"",""time""
""fullscreenenter"",""1"",""1517""
","
","
","""event"",""trial"",""time""
""fullscreenenter"",""1"",""1517""
","
","","","","","","1765.6999999284744","images/train8.png","","","memory_trial","2","maybe_old",""
"html-keyboard-response","190","405861","0.0-18.0-0.73","7587","approach_avoid_sv1","""event"",""trial"",""time""
""fullscreenenter"",""1"",""1517""
","
","
","""event"",""trial"",""time""
""fullscreenenter"",""1"",""1517""
","
","","","","","","null","<div style=""font-size:60px;"">+</div>","null","","fixation","","",""
"memory-trial","191","407849","0.0-18.0-1.73","7587","approach_avoid_sv1","""event"",""trial"",""time""
""fullscreenenter"",""1"",""1517""
","
","
","""event"",""trial"",""time""
""fullscreenenter"",""1"",""1517""
","
","","","","","","979.7000000476837","images/sheep4.png","","","memory_trial","2","maybe_old",""
"html-keyboard-response","192","408351","0.0-18.0-0.74","7587","approach_avoid_sv1","""event"",""trial"",""time""
""fullscreenenter"",""1"",""1517""
","
","
","""event"",""trial"",""time""
""fullscreenenter"",""1"",""1517""
","
","","","","","","null","<div style=""font-size:60px;"">+</div>","null","","fixation","","",""
"memory-trial","193","410029","0.0-18.0-1.74","7587","approach_avoid_sv1","""event"",""trial"",""time""
""fullscreenenter"",""1"",""1517""
","
","
","""event"",""trial"",""time""
""fullscreenenter"",""1"",""1517""
","
","","","","","","669.2000000476837","images/rodent7.png","","","memory_trial","1","definitely_old",""
"html-keyboard-response","194","410538","0.0-18.0-0.75","7587","approach_avoid_sv1","""event"",""trial"",""time""
""fullscreenenter"",""1"",""1517""
","
","
","""event"",""trial"",""time""
""fullscreenenter"",""1"",""1517""
","
","","","","","","null","<div style=""font-size:60px;"">+</div>","null","","fixation","","",""
"memory-trial","195","412199","0.0-18.0-1.75","7587","approach_avoid_sv1","""event"",""trial"",""time""
""fullscreenenter"",""1"",""1517""
","
","
","""event"",""trial"",""time""
""fullscreenenter"",""1"",""1517""
","
","","","","","","651.7000000476837","images/train3.png","","","memory_trial","1","definitely_old",""
"html-keyboard-response","196","412702","0.0-18.0-0.76","7587","approach_avoid_sv1","""event"",""trial"",""time""
""fullscreenenter"",""1"",""1517""
","
","
","""event"",""trial"",""time""
""fullscreenenter"",""1"",""1517""
","
","","","","","","null","<div style=""font-size:60px;"">+</div>","null","","fixation","","",""
"memory-trial","197","414660","0.0-18.0-1.76","7587","approach_avoid_sv1","""event"",""trial"",""time""
""fullscreenenter"",""1"",""1517""
","
","
","""event"",""trial"",""time""
""fullscreenenter"",""1"",""1517""
","
","","","","","","953.7999999523163","images/cat6.png","","","memory_trial","2","maybe_old",""
"html-keyboard-response","198","415164","0.0-18.0-0.77","7587","approach_avoid_sv1","""event"",""trial"",""time""
""fullscreenenter"",""1"",""1517""
","
","
","""event"",""trial"",""time""
""fullscreenenter"",""1"",""1517""
","
","","","","","","null","<div style=""font-size:60px;"">+</div>","null","","fixation","","",""
"memory-trial","199","417592","0.0-18.0-1.77","7587","approach_avoid_sv1","""event"",""trial"",""time""
""fullscreenenter"",""1"",""1517""
","
","
","""event"",""trial"",""time""
""fullscreenenter"",""1"",""1517""
","
","","","","","","1425.1000000238419","images/orange5.png","","","memory_trial","3","maybe_new",""
"html-keyboard-response","200","418100","0.0-18.0-0.78","7587","approach_avoid_sv1","""event"",""trial"",""time""
""fullscreenenter"",""1"",""1517""
","
","
","""event"",""trial"",""time""
""fullscreenenter"",""1"",""1517""
","
","","","","","","null","<div style=""font-size:60px;"">+</div>","null","","fixation","","",""
"memory-trial","201","420012","0.0-18.0-1.78","7587","approach_avoid_sv1","""event"",""trial"",""time""
""fullscreenenter"",""1"",""1517""
","
","
","""event"",""trial"",""time""
""fullscreenenter"",""1"",""1517""
","
","","","","","","905.1999999284744","images/cat7.png","","","memory_trial","1","definitely_old",""
"html-keyboard-response","202","420521","0.0-18.0-0.79","7587","approach_avoid_sv1","""event"",""trial"",""time""
""fullscreenenter"",""1"",""1517""
","
","
","""event"",""trial"",""time""
""fullscreenenter"",""1"",""1517""
","
","","","","","","null","<div style=""font-size:60px;"">+</div>","null","","fixation","","",""
"memory-trial","203","422361","0.0-18.0-1.79","7587","approach_avoid_sv1","""event"",""trial"",""time""
""fullscreenenter"",""1"",""1517""
","
","
","""event"",""trial"",""time""
""fullscreenenter"",""1"",""1517""
","
","","","","","","827.8000000715256","images/bush4.png","","","memory_trial","1","definitely_old",""
"html-keyboard-response","204","422866","0.0-18.0-0.80","7587","approach_avoid_sv1","""event"",""trial"",""time""
""fullscreenenter"",""1"",""1517""
","
","
","""event"",""trial"",""time""
""fullscreenenter"",""1"",""1517""
","
","","","","","","null","<div style=""font-size:60px;"">+</div>","null","","fixation","","",""
"memory-trial","205","425052","0.0-18.0-1.80","7587","approach_avoid_sv1","""event"",""trial"",""time""
""fullscreenenter"",""1"",""1517""
","
","
","""event"",""trial"",""time""
""fullscreenenter"",""1"",""1517""
","
","","","","","","1176.5","images/cow6.png","","","memory_trial","3","maybe_new",""
"html-keyboard-response","206","425555","0.0-18.0-0.81","7587","approach_avoid_sv1","""event"",""trial"",""time""
""fullscreenenter"",""1"",""1517""
","
","
","""event"",""trial"",""time""
""fullscreenenter"",""1"",""1517""
","
","","","","","","null","<div style=""font-size:60px;"">+</div>","null","","fixation","","",""
"memory-trial","207","427775","0.0-18.0-1.81","7587","approach_avoid_sv1","""event"",""trial"",""time""
""fullscreenenter"",""1"",""1517""
","
","
","""event"",""trial"",""time""
""fullscreenenter"",""1"",""1517""
","
","","","","","","1216.6999999284744","images/bed7.png","","","memory_trial","2","maybe_old",""
"html-keyboard-response","208","428276","0.0-18.0-0.82","7587","approach_avoid_sv1","""event"",""trial"",""time""
""fullscreenenter"",""1"",""1517""
","
","
","""event"",""trial"",""time""
""fullscreenenter"",""1"",""1517""
","
","","","","","","null","<div style=""font-size:60px;"">+</div>","null","","fixation","","",""
"memory-trial","209","430315","0.0-18.0-1.82","7587","approach_avoid_sv1","""event"",""trial"",""time""
""fullscreenenter"",""1"",""1517""
","
","
","""event"",""trial"",""time""
""fullscreenenter"",""1"",""1517""
","
","","","","","","1037.1000000238419","images/sheep8.png","","","memory_trial","2","maybe_old",""
"html-keyboard-response","210","430823","0.0-18.0-0.83","7587","approach_avoid_sv1","""event"",""trial"",""time""
""fullscreenenter"",""1"",""1517""
","
","
","""event"",""trial"",""time""
""fullscreenenter"",""1"",""1517""
","
","","","","","","null","<div style=""font-size:60px;"">+</div>","null","","fixation","","",""
"memory-trial","211","433094","0.0-18.0-1.83","7587","approach_avoid_sv1","""event"",""trial"",""time""
""fullscreenenter"",""1"",""1517""
","
","
","""event"",""trial"",""time""
""fullscreenenter"",""1"",""1517""
","
","","","","","","1261.6000000238419","images/boat2.png","","","memory_trial","1","definitely_old",""
"html-keyboard-response","212","433601","0.0-18.0-0.84","7587","approach_avoid_sv1","""event"",""trial"",""time""
""fullscreenenter"",""1"",""1517""
","
","
","""event"",""trial"",""time""
""fullscreenenter"",""1"",""1517""
","
","","","","","","null","<div style=""font-size:60px;"">+</div>","null","","fixation","","",""
"memory-trial","213","435947","0.0-18.0-1.84","7587","approach_avoid_sv1","""event"",""trial"",""time""
""fullscreenenter"",""1"",""1517""
","
","
","""event"",""trial"",""time""
""fullscreenenter"",""1"",""1517""
","
","","","","","","1336.5999999046326","images/truck1.png","","","memory_trial","2","maybe_old",""
"html-keyboard-response","214","436449","0.0-18.0-0.85","7587","approach_avoid_sv1","""event"",""trial"",""time""
""fullscreenenter"",""1"",""1517""
","
","
","""event"",""trial"",""time""
""fullscreenenter"",""1"",""1517""
","
","","","","","","null","<div style=""font-size:60px;"">+</div>","null","","fixation","","",""
"memory-trial","215","438537","0.0-18.0-1.85","7587","approach_avoid_sv1","""event"",""trial"",""time""
""fullscreenenter"",""1"",""1517""
","
","
","""event"",""trial"",""time""
""fullscreenenter"",""1"",""1517""
","
","","","","","","1073.4000000953674","images/orange3.png","","","memory_trial","4","definitely_new",""
"html-keyboard-response","216","439045","0.0-18.0-0.86","7587","approach_avoid_sv1","""event"",""trial"",""time""
""fullscreenenter"",""1"",""1517""
","
","
","""event"",""trial"",""time""
""fullscreenenter"",""1"",""1517""
","
","","","","","","null","<div style=""font-size:60px;"">+</div>","null","","fixation","","",""
"memory-trial","217","441980","0.0-18.0-1.86","7587","approach_avoid_sv1","""event"",""trial"",""time""
""fullscreenenter"",""1"",""1517""
","
","
","""event"",""trial"",""time""
""fullscreenenter"",""1"",""1517""
","
","","","","","","1932.3999999761581","images/horse5.png","","","memory_trial","4","definitely_new",""
"html-keyboard-response","218","442488","0.0-18.0-0.87","7587","approach_avoid_sv1","""event"",""trial"",""time""
""fullscreenenter"",""1"",""1517""
","
","
","""event"",""trial"",""time""
""fullscreenenter"",""1"",""1517""
","
","","","","","","null","<div style=""font-size:60px;"">+</div>","null","","fixation","","",""
"memory-trial","219","445188","0.0-18.0-1.87","7587","approach_avoid_sv1","""event"",""trial"",""time""
""fullscreenenter"",""1"",""1517""
","
","
","""event"",""trial"",""time""
""fullscreenenter"",""1"",""1517""
","
","","","","","","1697.7000000476837","images/dog1.png","","","memory_trial","1","definitely_old",""
"html-keyboard-response","220","445701","0.0-18.0-0.88","7587","approach_avoid_sv1","""event"",""trial"",""time""
""fullscreenenter"",""1"",""1517""
","
","
","""event"",""trial"",""time""
""fullscreenenter"",""1"",""1517""
","
","","","","","","null","<div style=""font-size:60px;"">+</div>","null","","fixation","","",""
"memory-trial","221","447695","0.0-18.0-1.88","7587","approach_avoid_sv1","""event"",""trial"",""time""
""fullscreenenter"",""1"",""1517""
","
","
","""event"",""trial"",""time""
""fullscreenenter"",""1"",""1517""
","
","","","","","","983.1000000238419","images/cactus8.png","","","memory_trial","1","definitely_old",""
"html-keyboard-response","222","448202","0.0-18.0-0.89","7587","approach_avoid_sv1","""event"",""trial"",""time""
""fullscreenenter"",""1"",""1517""
","
","
","""event"",""trial"",""time""
""fullscreenenter"",""1"",""1517""
","
","","","","","","null","<div style=""font-size:60px;"">+</div>","null","","fixation","","",""
"memory-trial","223","449963","0.0-18.0-1.89","7587","approach_avoid_sv1","""event"",""trial"",""time""
""fullscreenenter"",""1"",""1517""
","
","
","""event"",""trial"",""time""
""fullscreenenter"",""1"",""1517""
","
","","","","","","743.5","images/dog6.png","","","memory_trial","1","definitely_old",""
"html-keyboard-response","224","450472","0.0-18.0-0.90","7587","approach_avoid_sv1","""event"",""trial"",""time""
""fullscreenenter"",""1"",""1517""
","
","
","""event"",""trial"",""time""
""fullscreenenter"",""1"",""1517""
","
","","","","","","null","<div style=""font-size:60px;"">+</div>","null","","fixation","","",""
"memory-trial","225","452318","0.0-18.0-1.90","7587","approach_avoid_sv1","""event"",""trial"",""time""
""fullscreenenter"",""1"",""1517""
","
","
","""event"",""trial"",""time""
""fullscreenenter"",""1"",""1517""
","
","","","","","","837.1000000238419","images/apple7.png","","","memory_trial","1","definitely_old",""
"html-keyboard-response","226","452824","0.0-18.0-0.91","7587","approach_avoid_sv1","""event"",""trial"",""time""
""fullscreenenter"",""1"",""1517""
","
","
","""event"",""trial"",""time""
""fullscreenenter"",""1"",""1517""
","
","","","","","","null","<div style=""font-size:60px;"">+</div>","null","","fixation","","",""
"memory-trial","227","455101","0.0-18.0-1.91","7587","approach_avoid_sv1","""event"",""trial"",""time""
""fullscreenenter"",""1"",""1517""
","
","
","""event"",""trial"",""time""
""fullscreenenter"",""1"",""1517""
","
","","","","","","1271.8999999761581","images/orange7.png","","","memory_trial","4","definitely_new",""
"html-button-response","228","499339","0.0-18.0-2.91-0.91","7587","approach_avoid_sv1","""event"",""trial"",""time""
""fullscreenenter"",""1"",""1517""
","
","
","""event"",""trial"",""time""
""fullscreenenter"",""1"",""1517""
","
","","","","","","44236.89999997616","<p> Take a break! </p><p> Click the button to continue. </p>","0","","break","","",""
"html-keyboard-response","229","499843","0.0-18.0-0.92","7587","approach_avoid_sv1","""event"",""trial"",""time""
""fullscreenenter"",""1"",""1517""
","
","
","""event"",""trial"",""time""
""fullscreenenter"",""1"",""1517""
","
","","","","","","null","<div style=""font-size:60px;"">+</div>","null","","fixation","","",""
"memory-trial","230","501577","0.0-18.0-1.92","7587","approach_avoid_sv1","""event"",""trial"",""time""
""fullscreenenter"",""1"",""1517""
","
","
","""event"",""trial"",""time""
""fullscreenenter"",""1"",""1517""
","
","","","","","","728.1000000238419","images/train1.png","","","memory_trial","1","definitely_old",""
"html-keyboard-response","231","502086","0.0-18.0-0.93","7587","approach_avoid_sv1","""event"",""trial"",""time""
""fullscreenenter"",""1"",""1517""
","
","
","""event"",""trial"",""time""
""fullscreenenter"",""1"",""1517""
","
","","","","","","null","<div style=""font-size:60px;"">+</div>","null","","fixation","","",""
"memory-trial","232","503853","0.0-18.0-1.93","7587","approach_avoid_sv1","""event"",""trial"",""time""
""fullscreenenter"",""1"",""1517""
","
","
","""event"",""trial"",""time""
""fullscreenenter"",""1"",""1517""
","
","","","","","","764","images/apple1.png","","","memory_trial","1","definitely_old",""
"html-keyboard-response","233","504357","0.0-18.0-0.94","7587","approach_avoid_sv1","""event"",""trial"",""time""
""fullscreenenter"",""1"",""1517""
","
","
","""event"",""trial"",""time""
""fullscreenenter"",""1"",""1517""
","
","","","","","","null","<div style=""font-size:60px;"">+</div>","null","","fixation","","",""
"memory-trial","234","506770","0.0-18.0-1.94","7587","approach_avoid_sv1","""event"",""trial"",""time""
""fullscreenenter"",""1"",""1517""
","
","
","""event"",""trial"",""time""
""fullscreenenter"",""1"",""1517""
","
","","","","","","1406.1999999284744","images/table2.png","","","memory_trial","4","definitely_new",""
"html-keyboard-response","235","507276","0.0-18.0-0.95","7587","approach_avoid_sv1","""event"",""trial"",""time""
""fullscreenenter"",""1"",""1517""
","
","
","""event"",""trial"",""time""
""fullscreenenter"",""1"",""1517""
","
","","","","","","null","<div style=""font-size:60px;"">+</div>","null","","fixation","","",""
"memory-trial","236","509454","0.0-18.0-1.95","7587","approach_avoid_sv1","""event"",""trial"",""time""
""fullscreenenter"",""1"",""1517""
","
","
","""event"",""trial"",""time""
""fullscreenenter"",""1"",""1517""
","
","","","","","","1167.6000000238419","images/bed4.png","","","memory_trial","3","maybe_new",""
"html-keyboard-response","237","509962","0.0-18.0-0.96","7587","approach_avoid_sv1","""event"",""trial"",""time""
""fullscreenenter"",""1"",""1517""
","
","
","""event"",""trial"",""time""
""fullscreenenter"",""1"",""1517""
","
","","","","","","null","<div style=""font-size:60px;"">+</div>","null","","fixation","","",""
"memory-trial","238","511725","0.0-18.0-1.96","7587","approach_avoid_sv1","""event"",""trial"",""time""
""fullscreenenter"",""1"",""1517""
","
","
","""event"",""trial"",""time""
""fullscreenenter"",""1"",""1517""
","
","","","","","","753.7999999523163","images/banana1.png","","","memory_trial","1","definitely_old",""
"html-keyboard-response","239","512228","0.0-18.0-0.97","7587","approach_avoid_sv1","""event"",""trial"",""time""
""fullscreenenter"",""1"",""1517""
","
","
","""event"",""trial"",""time""
""fullscreenenter"",""1"",""1517""
","
","","","","","","null","<div style=""font-size:60px;"">+</div>","null","","fixation","","",""
"memory-trial","240","515359","0.0-18.0-1.97","7587","approach_avoid_sv1","""event"",""trial"",""time""
""fullscreenenter"",""1"",""1517""
","
","
","""event"",""trial"",""time""
""fullscreenenter"",""1"",""1517""
","
","","","","","","2124.600000023842","images/cat4.png","","","memory_trial","2","maybe_old",""
"html-keyboard-response","241","515866","0.0-18.0-0.98","7587","approach_avoid_sv1","""event"",""trial"",""time""
""fullscreenenter"",""1"",""1517""
","
","
","""event"",""trial"",""time""
""fullscreenenter"",""1"",""1517""
","
","","","","","","null","<div style=""font-size:60px;"">+</div>","null","","fixation","","",""
"memory-trial","242","518797","0.0-18.0-1.98","7587","approach_avoid_sv1","""event"",""trial"",""time""
""fullscreenenter"",""1"",""1517""
","
","
","""event"",""trial"",""time""
""fullscreenenter"",""1"",""1517""
","
","","","","","","1925","images/rodent1.png","","","memory_trial","1","definitely_old",""
"html-keyboard-response","243","519306","0.0-18.0-0.99","7587","approach_avoid_sv1","""event"",""trial"",""time""
""fullscreenenter"",""1"",""1517""
","
","
","""event"",""trial"",""time""
""fullscreenenter"",""1"",""1517""
","
","","","","","","null","<div style=""font-size:60px;"">+</div>","null","","fixation","","",""
"memory-trial","244","522939","0.0-18.0-1.99","7587","approach_avoid_sv1","""event"",""trial"",""time""
""fullscreenenter"",""1"",""1517""
","
","
","""event"",""trial"",""time""
""fullscreenenter"",""1"",""1517""
","
","","","","","","2625.5","images/plane6.png","","","memory_trial","1","definitely_old",""
"html-keyboard-response","245","523446","0.0-18.0-0.100","7587","approach_avoid_sv1","""event"",""trial"",""time""
""fullscreenenter"",""1"",""1517""
","
","
","""event"",""trial"",""time""
""fullscreenenter"",""1"",""1517""
","
","","","","","","null","<div style=""font-size:60px;"">+</div>","null","","fixation","","",""
"memory-trial","246","527323","0.0-18.0-1.100","7587","approach_avoid_sv1","""event"",""trial"",""time""
""fullscreenenter"",""1"",""1517""
","
","
","""event"",""trial"",""time""
""fullscreenenter"",""1"",""1517""
","
","","","","","","2868.8000000715256","images/apple8.png","","","memory_trial","4","definitely_new",""
"html-keyboard-response","247","527824","0.0-18.0-0.101","7587","approach_avoid_sv1","""event"",""trial"",""time""
""fullscreenenter"",""1"",""1517""
","
","
","""event"",""trial"",""time""
""fullscreenenter"",""1"",""1517""
","
","","","","","","null","<div style=""font-size:60px;"">+</div>","null","","fixation","","",""
"memory-trial","248","529659","0.0-18.0-1.101","7587","approach_avoid_sv1","""event"",""trial"",""time""
""fullscreenenter"",""1"",""1517""
","
","
","""event"",""trial"",""time""
""fullscreenenter"",""1"",""1517""
","
","","","","","","831.5","images/banana6.png","","","memory_trial","4","definitely_new",""
"html-keyboard-response","249","530168","0.0-18.0-0.102","7587","approach_avoid_sv1","""event"",""trial"",""time""
""fullscreenenter"",""1"",""1517""
","
","
","""event"",""trial"",""time""
""fullscreenenter"",""1"",""1517""
","
","","","","","","null","<div style=""font-size:60px;"">+</div>","null","","fixation","","",""
"memory-trial","250","531998","0.0-18.0-1.102","7587","approach_avoid_sv1","""event"",""trial"",""time""
""fullscreenenter"",""1"",""1517""
","
","
","""event"",""trial"",""time""
""fullscreenenter"",""1"",""1517""
","
","","","","","","824.8999999761581","images/banana5.png","","","memory_trial","1","definitely_old",""
"html-keyboard-response","251","532501","0.0-18.0-0.103","7587","approach_avoid_sv1","""event"",""trial"",""time""
""fullscreenenter"",""1"",""1517""
","
","
","""event"",""trial"",""time""
""fullscreenenter"",""1"",""1517""
","
","","","","","","null","<div style=""font-size:60px;"">+</div>","null","","fixation","","",""
"memory-trial","252","536103","0.0-18.0-1.103","7587","approach_avoid_sv1","""event"",""trial"",""time""
""fullscreenenter"",""1"",""1517""
","
","
","""event"",""trial"",""time""
""fullscreenenter"",""1"",""1517""
","
","","","","","","2593.2999999523163","images/chair8.png","","","memory_trial","3","maybe_new",""
"html-keyboard-response","253","536606","0.0-18.0-0.104","7587","approach_avoid_sv1","""event"",""trial"",""time""
""fullscreenenter"",""1"",""1517""
","
","
","""event"",""trial"",""time""
""fullscreenenter"",""1"",""1517""
","
","","","","","","null","<div style=""font-size:60px;"">+</div>","null","","fixation","","",""
"memory-trial","254","539920","0.0-18.0-1.104","7587","approach_avoid_sv1","""event"",""trial"",""time""
""fullscreenenter"",""1"",""1517""
","
","
","""event"",""trial"",""time""
""fullscreenenter"",""1"",""1517""
","
","","","","","","2308.8000000715256","images/apple2.png","","","memory_trial","4","definitely_new",""
"html-keyboard-response","255","540428","0.0-18.0-0.105","7587","approach_avoid_sv1","""event"",""trial"",""time""
""fullscreenenter"",""1"",""1517""
","
","
","""event"",""trial"",""time""
""fullscreenenter"",""1"",""1517""
","
","","","","","","null","<div style=""font-size:60px;"">+</div>","null","","fixation","","",""
"memory-trial","256","545006","0.0-18.0-1.105","7587","approach_avoid_sv1","""event"",""trial"",""time""
""fullscreenenter"",""1"",""1517""
","
","
","""event"",""trial"",""time""
""fullscreenenter"",""1"",""1517""
","
","","","","","","3567.600000023842","images/table3.png","","","memory_trial","4","definitely_new",""
"html-keyboard-response","257","545513","0.0-18.0-0.106","7587","approach_avoid_sv1","""event"",""trial"",""time""
""fullscreenenter"",""1"",""1517""
","
","
","""event"",""trial"",""time""
""fullscreenenter"",""1"",""1517""
","
","","","","","","null","<div style=""font-size:60px;"">+</div>","null","","fixation","","",""
"memory-trial","258","549566","0.0-18.0-1.106","7587","approach_avoid_sv1","""event"",""trial"",""time""
""fullscreenenter"",""1"",""1517""
","
","
","""event"",""trial"",""time""
""fullscreenenter"",""1"",""1517""
","
","","","","","","3044.600000023842","images/plane1.png","","","memory_trial","1","definitely_old",""
"html-keyboard-response","259","550075","0.0-18.0-0.107","7587","approach_avoid_sv1","""event"",""trial"",""time""
""fullscreenenter"",""1"",""1517""
","
","
","""event"",""trial"",""time""
""fullscreenenter"",""1"",""1517""
","
","","","","","","null","<div style=""font-size:60px;"">+</div>","null","","fixation","","",""
"memory-trial","260","552445","0.0-18.0-1.107","7587","approach_avoid_sv1","""event"",""trial"",""time""
""fullscreenenter"",""1"",""1517""
","
","
","""event"",""trial"",""time""
""fullscreenenter"",""1"",""1517""
","
","","","","","","1365.8000000715256","images/bush6.png","","","memory_trial","1","definitely_old",""
"html-keyboard-response","261","552952","0.0-18.0-0.108","7587","approach_avoid_sv1","""event"",""trial"",""time""
""fullscreenenter"",""1"",""1517""
","
","
","""event"",""trial"",""time""
""fullscreenenter"",""1"",""1517""
","
","","","","","","null","<div style=""font-size:60px;"">+</div>","null","","fixation","","",""
"memory-trial","262","554860","0.0-18.0-1.108","7587","approach_avoid_sv1","""event"",""trial"",""time""
""fullscreenenter"",""1"",""1517""
","
","
","""event"",""trial"",""time""
""fullscreenenter"",""1"",""1517""
","
","","","","","","892.7000000476837","images/dog3.png","","","memory_trial","1","definitely_old",""
"html-keyboard-response","263","555364","0.0-18.0-0.109","7587","approach_avoid_sv1","""event"",""trial"",""time""
""fullscreenenter"",""1"",""1517""
","
","
","""event"",""trial"",""time""
""fullscreenenter"",""1"",""1517""
","
","","","","","","null","<div style=""font-size:60px;"">+</div>","null","","fixation","","",""
"memory-trial","264","557643","0.0-18.0-1.109","7587","approach_avoid_sv1","""event"",""trial"",""time""
""fullscreenenter"",""1"",""1517""
","
","
","""event"",""trial"",""time""
""fullscreenenter"",""1"",""1517""
","
","","","","","","1275.2999999523163","images/sofa7.png","","","memory_trial","3","maybe_new",""
"html-keyboard-response","265","558150","0.0-18.0-0.110","7587","approach_avoid_sv1","""event"",""trial"",""time""
""fullscreenenter"",""1"",""1517""
","
","
","""event"",""trial"",""time""
""fullscreenenter"",""1"",""1517""
","
","","","","","","null","<div style=""font-size:60px;"">+</div>","null","","fixation","","",""
"memory-trial","266","560304","0.0-18.0-1.110","7587","approach_avoid_sv1","""event"",""trial"",""time""
""fullscreenenter"",""1"",""1517""
","
","
","""event"",""trial"",""time""
""fullscreenenter"",""1"",""1517""
","
","","","","","","1151.2999999523163","images/goat1.png","","","memory_trial","3","maybe_new",""
"html-keyboard-response","267","560809","0.0-18.0-0.111","7587","approach_avoid_sv1","""event"",""trial"",""time""
""fullscreenenter"",""1"",""1517""
","
","
","""event"",""trial"",""time""
""fullscreenenter"",""1"",""1517""
","
","","","","","","null","<div style=""font-size:60px;"">+</div>","null","","fixation","","",""
"memory-trial","268","563149","0.0-18.0-1.111","7587","approach_avoid_sv1","""event"",""trial"",""time""
""fullscreenenter"",""1"",""1517""
","
","
","""event"",""trial"",""time""
""fullscreenenter"",""1"",""1517""
","
","","","","","","1333","images/flower2.png","","","memory_trial","4","definitely_new",""
"html-keyboard-response","269","563652","0.0-18.0-0.112","7587","approach_avoid_sv1","""event"",""trial"",""time""
""fullscreenenter"",""1"",""1517""
","
","
","""event"",""trial"",""time""
""fullscreenenter"",""1"",""1517""
","
","","","","","","null","<div style=""font-size:60px;"">+</div>","null","","fixation","","",""
"memory-trial","270","566984","0.0-18.0-1.112","7587","approach_avoid_sv1","""event"",""trial"",""time""
""fullscreenenter"",""1"",""1517""
","
","
","""event"",""trial"",""time""
""fullscreenenter"",""1"",""1517""
","
","","","","","","2322.5","images/cat1.png","","","memory_trial","4","definitely_new",""
"html-keyboard-response","271","567488","0.0-18.0-0.113","7587","approach_avoid_sv1","""event"",""trial"",""time""
""fullscreenenter"",""1"",""1517""
","
","
","""event"",""trial"",""time""
""fullscreenenter"",""1"",""1517""
","
","","","","","","null","<div style=""font-size:60px;"">+</div>","null","","fixation","","",""
"memory-trial","272","570674","0.0-18.0-1.113","7587","approach_avoid_sv1","""event"",""trial"",""time""
""fullscreenenter"",""1"",""1517""
","
","
","""event"",""trial"",""time""
""fullscreenenter"",""1"",""1517""
","
","","","","","","2169.5999999046326","images/cow8.png","","","memory_trial","3","maybe_new",""
"html-keyboard-response","273","571176","0.0-18.0-0.114","7587","approach_avoid_sv1","""event"",""trial"",""time""
""fullscreenenter"",""1"",""1517""
","
","
","""event"",""trial"",""time""
""fullscreenenter"",""1"",""1517""
","
","","","","","","null","<div style=""font-size:60px;"">+</div>","null","","fixation","","",""
"memory-trial","274","574962","0.0-18.0-1.114","7587","approach_avoid_sv1","""event"",""trial"",""time""
""fullscreenenter"",""1"",""1517""
","
","
","""event"",""trial"",""time""
""fullscreenenter"",""1"",""1517""
","
","","","","","","2779.600000023842","images/tree6.png","","","memory_trial","1","definitely_old",""
"html-keyboard-response","275","575470","0.0-18.0-0.115","7587","approach_avoid_sv1","""event"",""trial"",""time""
""fullscreenenter"",""1"",""1517""
","
","
","""event"",""trial"",""time""
""fullscreenenter"",""1"",""1517""
","
","","","","","","null","<div style=""font-size:60px;"">+</div>","null","","fixation","","",""
"memory-trial","276","577279","0.0-18.0-1.115","7587","approach_avoid_sv1","""event"",""trial"",""time""
""fullscreenenter"",""1"",""1517""
","
","
","""event"",""trial"",""time""
""fullscreenenter"",""1"",""1517""
","
","","","","","","799.6000000238419","images/cactus6.png","","","memory_trial","1","definitely_old",""
"html-keyboard-response","277","577781","0.0-18.0-0.116","7587","approach_avoid_sv1","""event"",""trial"",""time""
""fullscreenenter"",""1"",""1517""
","
","
","""event"",""trial"",""time""
""fullscreenenter"",""1"",""1517""
","
","","","","","","null","<div style=""font-size:60px;"">+</div>","null","","fixation","","",""
"memory-trial","278","579843","0.0-18.0-1.116","7587","approach_avoid_sv1","""event"",""trial"",""time""
""fullscreenenter"",""1"",""1517""
","
","
","""event"",""trial"",""time""
""fullscreenenter"",""1"",""1517""
","
","","","","","","1049","images/table5.png","","","memory_trial","3","maybe_new",""
"html-keyboard-response","279","580351","0.0-18.0-0.117","7587","approach_avoid_sv1","""event"",""trial"",""time""
""fullscreenenter"",""1"",""1517""
","
","
","""event"",""trial"",""time""
""fullscreenenter"",""1"",""1517""
","
","","","","","","null","<div style=""font-size:60px;"">+</div>","null","","fixation","","",""
"memory-trial","280","582711","0.0-18.0-1.117","7587","approach_avoid_sv1","""event"",""trial"",""time""
""fullscreenenter"",""1"",""1517""
","
","
","""event"",""trial"",""time""
""fullscreenenter"",""1"",""1517""
","
","","","","","","1355.1000000238419","images/bed1.png","","","memory_trial","2","maybe_old",""
"html-keyboard-response","281","583215","0.0-18.0-0.118","7587","approach_avoid_sv1","""event"",""trial"",""time""
""fullscreenenter"",""1"",""1517""
","
","
","""event"",""trial"",""time""
""fullscreenenter"",""1"",""1517""
","
","","","","","","null","<div style=""font-size:60px;"">+</div>","null","","fixation","","",""
"memory-trial","282","586987","0.0-18.0-1.118","7587","approach_avoid_sv1","""event"",""trial"",""time""
""fullscreenenter"",""1"",""1517""
","
","
","""event"",""trial"",""time""
""fullscreenenter"",""1"",""1517""
","
","","","","","","2766.7999999523163","images/sofa3.png","","","memory_trial","4","definitely_new",""
"html-keyboard-response","283","587489","0.0-18.0-0.119","7587","approach_avoid_sv1","""event"",""trial"",""time""
""fullscreenenter"",""1"",""1517""
","
","
","""event"",""trial"",""time""
""fullscreenenter"",""1"",""1517""
","
","","","","","","null","<div style=""font-size:60px;"">+</div>","null","","fixation","","",""
"memory-trial","284","589827","0.0-18.0-1.119","7587","approach_avoid_sv1","""event"",""trial"",""time""
""fullscreenenter"",""1"",""1517""
","
","
","""event"",""trial"",""time""
""fullscreenenter"",""1"",""1517""
","
","","","","","","1333.1999999284744","images/train7.png","","","memory_trial","3","maybe_new",""
"html-keyboard-response","285","590333","0.0-18.0-0.120","7587","approach_avoid_sv1","""event"",""trial"",""time""
""fullscreenenter"",""1"",""1517""
","
","
","""event"",""trial"",""time""
""fullscreenenter"",""1"",""1517""
","
","","","","","","null","<div style=""font-size:60px;"">+</div>","null","","fixation","","",""
"memory-trial","286","592606","0.0-18.0-1.120","7587","approach_avoid_sv1","""event"",""trial"",""time""
""fullscreenenter"",""1"",""1517""
","
","
","""event"",""trial"",""time""
""fullscreenenter"",""1"",""1517""
","
","","","","","","1268.1000000238419","images/horse1.png","","","memory_trial","2","maybe_old",""
"html-keyboard-response","287","593108","0.0-18.0-0.121","7587","approach_avoid_sv1","""event"",""trial"",""time""
""fullscreenenter"",""1"",""1517""
","
","
","""event"",""trial"",""time""
""fullscreenenter"",""1"",""1517""
","
","","","","","","null","<div style=""font-size:60px;"">+</div>","null","","fixation","","",""
"memory-trial","288","594993","0.0-18.0-1.121","7587","approach_avoid_sv1","""event"",""trial"",""time""
""fullscreenenter"",""1"",""1517""
","
","
","""event"",""trial"",""time""
""fullscreenenter"",""1"",""1517""
","
","","","","","","879.4000000953674","images/horse8.png","","","memory_trial","2","maybe_old",""
"html-keyboard-response","289","595497","0.0-18.0-0.122","7587","approach_avoid_sv1","""event"",""trial"",""time""
""fullscreenenter"",""1"",""1517""
","
","
","""event"",""trial"",""time""
""fullscreenenter"",""1"",""1517""
","
","","","","","","null","<div style=""font-size:60px;"">+</div>","null","","fixation","","",""
"memory-trial","290","597330","0.0-18.0-1.122","7587","approach_avoid_sv1","""event"",""trial"",""time""
""fullscreenenter"",""1"",""1517""
","
","
","""event"",""trial"",""time""
""fullscreenenter"",""1"",""1517""
","
","","","","","","820.3999999761581","images/chair7.png","","","memory_trial","3","maybe_new",""
"html-keyboard-response","291","597836","0.0-18.0-0.123","7587","approach_avoid_sv1","""event"",""trial"",""time""
""fullscreenenter"",""1"",""1517""
","
","
","""event"",""trial"",""time""
""fullscreenenter"",""1"",""1517""
","
","","","","","","null","<div style=""font-size:60px;"">+</div>","null","","fixation","","",""
"memory-trial","292","599971","0.0-18.0-1.123","7587","approach_avoid_sv1","""event"",""trial"",""time""
""fullscreenenter"",""1"",""1517""
","
","
","""event"",""trial"",""time""
""fullscreenenter"",""1"",""1517""
","
","","","","","","1130.8000000715256","images/goat3.png","","","memory_trial","1","definitely_old",""
"html-keyboard-response","293","600479","0.0-18.0-0.124","7587","approach_avoid_sv1","""event"",""trial"",""time""
""fullscreenenter"",""1"",""1517""
","
","
","""event"",""trial"",""time""
""fullscreenenter"",""1"",""1517""
","
","","","","","","null","<div style=""font-size:60px;"">+</div>","null","","fixation","","",""
"memory-trial","294","602917","0.0-18.0-1.124","7587","approach_avoid_sv1","""event"",""trial"",""time""
""fullscreenenter"",""1"",""1517""
","
","
","""event"",""trial"",""time""
""fullscreenenter"",""1"",""1517""
","
","","","","","","1429.1000000238419","images/rodent3.png","","","memory_trial","3","maybe_new",""
"html-keyboard-response","295","603420","0.0-18.0-0.125","7587","approach_avoid_sv1","""event"",""trial"",""time""
""fullscreenenter"",""1"",""1517""
","
","
","""event"",""trial"",""time""
""fullscreenenter"",""1"",""1517""
","
","","","","","","null","<div style=""font-size:60px;"">+</div>","null","","fixation","","",""
"memory-trial","296","605121","0.0-18.0-1.125","7587","approach_avoid_sv1","""event"",""trial"",""time""
""fullscreenenter"",""1"",""1517""
","
","
","""event"",""trial"",""time""
""fullscreenenter"",""1"",""1517""
","
","","","","","","691.8999999761581","images/straw4.png","","","memory_trial","1","definitely_old",""
"html-keyboard-response","297","605626","0.0-18.0-0.126","7587","approach_avoid_sv1","""event"",""trial"",""time""
