"trial_type","trial_index","time_elapsed","internal_node_id","subject_id","task_version","interactions","blur_events","focus_events","fullscreenenter_events","fullscreenexit_events","success","timeout","failed_images","failed_audio","failed_video","rt","stimulus","response","button_pressed","task_part","key_press","answer","correct"
"pavlovia","0","4","0.0-0.0","8072","approach_avoid_sv1","""event"",""trial"",""time""
""fullscreenenter"",""1"",""3150""
","
","
","""event"",""trial"",""time""
""fullscreenenter"",""1"",""3150""
","
","","","","","","","","","","","","",""
"fullscreen","1","4126","0.0-1.0","8072","approach_avoid_sv1","""event"",""trial"",""time""
""fullscreenenter"",""1"",""3150""
","
","
","""event"",""trial"",""time""
""fullscreenenter"",""1"",""3150""
","
","true","","","","","","","","","","","",""
"preload","2","6073","0.0-2.0","8072","approach_avoid_sv1","""event"",""trial"",""time""
""fullscreenenter"",""1"",""3150""
","
","
","""event"",""trial"",""time""
""fullscreenenter"",""1"",""3150""
","
","true","false","[]","[]","[]","","","","","","","",""
"preload","3","7393","0.0-3.0","8072","approach_avoid_sv1","""event"",""trial"",""time""
""fullscreenenter"",""1"",""3150""
","
","
","""event"",""trial"",""time""
""fullscreenenter"",""1"",""3150""
","
","true","false","[]","[]","[]","","","","","","","",""
"preload","4","7765","0.0-4.0","8072","approach_avoid_sv1","""event"",""trial"",""time""
""fullscreenenter"",""1"",""3150""
","
","
","""event"",""trial"",""time""
""fullscreenenter"",""1"",""3150""
","
","true","false","[]","[]","[]","","","","","","","",""
"audio-keyboard-response","5","8911","0.0-5.0","8072","approach_avoid_sv1","""event"",""trial"",""time""
""fullscreenenter"",""1"",""3150""
","
","
","""event"",""trial"",""time""
""fullscreenenter"",""1"",""3150""
","
","","","","","","1138.6666666666667","audio/beep_loop.wav","audiovolumedown","","","","",""
"audio-button-response","6","11922","0.0-6.0","8072","approach_avoid_sv1","""event"",""trial"",""time""
""fullscreenenter"",""1"",""3150""
","
","
","""event"",""trial"",""time""
""fullscreenenter"",""1"",""3150""
","
","","","","","","3011","audio/turtle.wav","3","","","","",""
"audio-button-response","7","16957","0.0-7.0","8072","approach_avoid_sv1","""event"",""trial"",""time""
""fullscreenenter"",""1"",""3150""
","
","
","""event"",""trial"",""time""
""fullscreenenter"",""1"",""3150""
","
","","","","","","4019","audio/shark.wav","2","","","","",""
"preload","8","19636","0.0-8.0","8072","approach_avoid_sv1","""event"",""trial"",""time""
""fullscreenenter"",""1"",""3150""
","
","
","""event"",""trial"",""time""
""fullscreenenter"",""1"",""3150""
","
","true","false","[]","[]","[]","","","","","","","",""
"learning-instructions","9","26860","0.0-9.0-0.0","8072","approach_avoid_sv1","""event"",""trial"",""time""
""fullscreenenter"",""1"",""3150""
","
","
","""event"",""trial"",""time""
""fullscreenenter"",""1"",""3150""
","
","","","","","","2744.3999996185303","<p> Welcome back! </p><p> Last week, you had to make choices about lots of different items.  </p>","","0","instructions","","",""
"learning-instructions","10","34150","0.0-9.0-0.1","8072","approach_avoid_sv1","""event"",""trial"",""time""
""fullscreenenter"",""1"",""3150""
","
","
","""event"",""trial"",""time""
""fullscreenenter"",""1"",""3150""
","
","","","","","","3154.5","<p> Today, we are going to ask you to try to remember all the items. </p>","","0","instructions","","",""
"learning-instructions","11","45745","0.0-9.0-0.2","8072","approach_avoid_sv1","""event"",""trial"",""time""
""fullscreenenter"",""1"",""3150""
","
","
","""event"",""trial"",""time""
""fullscreenenter"",""1"",""3150""
","
","","","","","","1439.1000003814697","<p> On every trial, you will see an image. </p><p> The image may be an OLD image you saw during the games last week or it may be a NEW image that was not presented. </p>","","0","instructions","","",""
"learning-instructions","12","56277","0.0-9.0-0.3","8072","approach_avoid_sv1","""event"",""trial"",""time""
""fullscreenenter"",""1"",""3150""
","
","
","""event"",""trial"",""time""
""fullscreenenter"",""1"",""3150""
","
","","","","","","2020.5","<p> You need to select whether the image is:  </p><p>  'Definitely old', 'Maybe old', 'Maybe new', or 'Definitely new.'  </p><div class=""mem-choice-instructions-grid""><div class=""choice-option"" id=""choice-option-1"" ><img src=""images/definitely_old_1.png"" id=""choice-option-img-1"" class=""choice-option-img"" stage=""1""></div><div class=""choice-option"" id=""choice-option-2"" ><img src=""images/maybe_old_1.png"" id=""choice-option-img-2"" class=""choice-option-img"" stage=""1""></div><div class=""choice-option"" id=""choice-option-3"" ><img src=""images/maybe_new_1.png"" id=""choice-option-img-3"" class=""choice-option-img"" stage=""1""></div><div class=""choice-option"" id=""choice-option-4"" > <img src=""images/definitely_new_1.png"" id=""choice-option-img-4"" class=""choice-option-img"" stage=""1""></div></div>","","0","instructions","","",""
"learning-instructions","13","66686","0.0-9.0-0.4","8072","approach_avoid_sv1","""event"",""trial"",""time""
""fullscreenenter"",""1"",""3150""
","
","
","""event"",""trial"",""time""
""fullscreenenter"",""1"",""3150""
","
","","","","","","3889.7999992370605","<p> You should use the 1, 2, 3, and 4 keys to make your responses.  </p><div class=""mem-choice-instructions-grid""><div class=""choice-option"" id=""choice-option-1"" ><img src=""images/definitely_old.png"" id=""choice-option-img-1"" class=""choice-option-img"" stage=""1""></div><div class=""choice-option"" id=""choice-option-2"" ><img src=""images/maybe_old.png"" id=""choice-option-img-2"" class=""choice-option-img"" stage=""1""></div><div class=""choice-option"" id=""choice-option-3"" ><img src=""images/maybe_new.png"" id=""choice-option-img-3"" class=""choice-option-img"" stage=""1""></div><div class=""choice-option"" id=""choice-option-4"" > <img src=""images/definitely_new.png"" id=""choice-option-img-4"" class=""choice-option-img"" stage=""1""></div></div>","","0","instructions","","",""
"learning-instructions","14","77080","0.0-9.0-0.5","8072","approach_avoid_sv1","""event"",""trial"",""time""
""fullscreenenter"",""1"",""3150""
","
","
","""event"",""trial"",""time""
""fullscreenenter"",""1"",""3150""
","
","","","","","","4054.5","<p> You will have 10 seconds to make each response.  </p><p>  Make sure to respond before time runs out! </p>","","0","instructions","","",""
"learning-instructions","15","87905","0.0-9.0-0.6","8072","approach_avoid_sv1","""event"",""trial"",""time""
""fullscreenenter"",""1"",""3150""
","
","
","""event"",""trial"",""time""
""fullscreenenter"",""1"",""3150""
","
","","","","","","3748.7999992370605","<p> Today, you will see each image ONCE only.  </p><p>  That means none of the images will repeat. </p>","","0","instructions","","",""
"learning-instructions","16","104381","0.0-9.0-0.7","8072","approach_avoid_sv1","""event"",""trial"",""time""
""fullscreenenter"",""1"",""3150""
","
","
","""event"",""trial"",""time""
""fullscreenenter"",""1"",""3150""
","
","","","","","","3805.800001144409","<p> Before you play the real game, it is time to practice. </p><p>  Just like in the real game, some of the images in the practice will be ones you have seen before. </p><p>  Others will be entirely new. </p>","","0","instructions","","",""
"html-button-response","17","112602","0.0-10.0","8072","approach_avoid_sv1","""event"",""trial"",""time""
""fullscreenenter"",""1"",""3150""
","
","
","""event"",""trial"",""time""
""fullscreenenter"",""1"",""3150""
","
","","","","","","8097","<p> Ready to practice? </p><p> Remember, use the 1, 2, 3, and 4 keys to make your responses. </p>","0","","instructions","","",""
"html-keyboard-response","18","113234","0.0-11.0-0.0","8072","approach_avoid_sv1","""event"",""trial"",""time""
""fullscreenenter"",""1"",""3150""
","
","
","""event"",""trial"",""time""
""fullscreenenter"",""1"",""3150""
","
","","","","","","null","<div style=""font-size:60px;"">+</div>","null","","fixation","","",""
"memory-trial","19","118704","0.0-11.0-1.0","8072","approach_avoid_sv1","""event"",""trial"",""time""
""fullscreenenter"",""1"",""3150""
","
","
","""event"",""trial"",""time""
""fullscreenenter"",""1"",""3150""
","
","","","","","","4447.900001525879","images/racket2.png","","","practice","4","definitely_new",""
"html-keyboard-response","20","119219","0.0-11.0-0.1","8072","approach_avoid_sv1","""event"",""trial"",""time""
""fullscreenenter"",""1"",""3150""
","
","
","""event"",""trial"",""time""
""fullscreenenter"",""1"",""3150""
","
","","","","","","null","<div style=""font-size:60px;"">+</div>","null","","fixation","","",""
"memory-trial","21","125693","0.0-11.0-1.1","8072","approach_avoid_sv1","""event"",""trial"",""time""
""fullscreenenter"",""1"",""3150""
","
","
","""event"",""trial"",""time""
""fullscreenenter"",""1"",""3150""
","
","","","","","","5460.799999237061","images/ball2.png","","","practice","1","definitely_old",""
"html-keyboard-response","22","126213","0.0-11.0-0.2","8072","approach_avoid_sv1","""event"",""trial"",""time""
""fullscreenenter"",""1"",""3150""
","
","
","""event"",""trial"",""time""
""fullscreenenter"",""1"",""3150""
","
","","","","","","null","<div style=""font-size:60px;"">+</div>","null","","fixation","","",""
"memory-trial","23","129883","0.0-11.0-1.2","8072","approach_avoid_sv1","""event"",""trial"",""time""
""fullscreenenter"",""1"",""3150""
","
","
","""event"",""trial"",""time""
""fullscreenenter"",""1"",""3150""
","
","","","","","","2642.3999996185303","images/ball5.png","","","practice","1","definitely_old",""
"html-keyboard-response","24","130403","0.0-11.0-0.3","8072","approach_avoid_sv1","""event"",""trial"",""time""
""fullscreenenter"",""1"",""3150""
","
","
","""event"",""trial"",""time""
""fullscreenenter"",""1"",""3150""
","
","","","","","","null","<div style=""font-size:60px;"">+</div>","null","","fixation","","",""
"memory-trial","25","134160","0.0-11.0-1.3","8072","approach_avoid_sv1","""event"",""trial"",""time""
""fullscreenenter"",""1"",""3150""
","
","
","""event"",""trial"",""time""
""fullscreenenter"",""1"",""3150""
","
","","","","","","2749.2999992370605","images/racket3.png","","","practice","4","definitely_new",""
"html-keyboard-response","26","134671","0.0-11.0-0.4","8072","approach_avoid_sv1","""event"",""trial"",""time""
""fullscreenenter"",""1"",""3150""
","
","
","""event"",""trial"",""time""
""fullscreenenter"",""1"",""3150""
","
","","","","","","null","<div style=""font-size:60px;"">+</div>","null","","fixation","","",""
"memory-trial","27","140532","0.0-11.0-1.4","8072","approach_avoid_sv1","""event"",""trial"",""time""
""fullscreenenter"",""1"",""3150""
","
","
","""event"",""trial"",""time""
""fullscreenenter"",""1"",""3150""
","
","","","","","","4843.89999961853","images/ball3.png","","","practice","2","maybe_old",""
"html-keyboard-response","28","141049","0.0-11.0-0.5","8072","approach_avoid_sv1","""event"",""trial"",""time""
""fullscreenenter"",""1"",""3150""
","
","
","""event"",""trial"",""time""
""fullscreenenter"",""1"",""3150""
","
","","","","","","null","<div style=""font-size:60px;"">+</div>","null","","fixation","","",""
"memory-trial","29","147272","0.0-11.0-1.5","8072","approach_avoid_sv1","""event"",""trial"",""time""
""fullscreenenter"",""1"",""3150""
","
","
","""event"",""trial"",""time""
""fullscreenenter"",""1"",""3150""
","
","","","","","","5218.900001525879","images/racket5.png","","","practice","3","maybe_new",""
"html-keyboard-response","30","147775","0.0-11.0-0.6","8072","approach_avoid_sv1","""event"",""trial"",""time""
""fullscreenenter"",""1"",""3150""
","
","
","""event"",""trial"",""time""
""fullscreenenter"",""1"",""3150""
","
","","","","","","null","<div style=""font-size:60px;"">+</div>","null","","fixation","","",""
"memory-trial","31","150784","0.0-11.0-1.6","8072","approach_avoid_sv1","""event"",""trial"",""time""
""fullscreenenter"",""1"",""3150""
","
","
","""event"",""trial"",""time""
""fullscreenenter"",""1"",""3150""
","
","","","","","","2000.7999992370605","images/ball1.png","","","practice","1","definitely_old",""
"html-keyboard-response","32","151300","0.0-11.0-0.7","8072","approach_avoid_sv1","""event"",""trial"",""time""
""fullscreenenter"",""1"",""3150""
","
","
","""event"",""trial"",""time""
""fullscreenenter"",""1"",""3150""
","
","","","","","","null","<div style=""font-size:60px;"">+</div>","null","","fixation","","",""
"memory-trial","33","154311","0.0-11.0-1.7","8072","approach_avoid_sv1","""event"",""trial"",""time""
""fullscreenenter"",""1"",""3150""
","
","
","""event"",""trial"",""time""
""fullscreenenter"",""1"",""3150""
","
","","","","","","2006.8000011444092","images/racket1.png","","","practice","2","maybe_old",""
"learning-instructions","34","166484","0.0-12.0-0.0","8072","approach_avoid_sv1","""event"",""trial"",""time""
""fullscreenenter"",""1"",""3150""
","
","
","""event"",""trial"",""time""
""fullscreenenter"",""1"",""3150""
","
","","","","","","4303.89999961853","<p> Great! You have completed the practice. </p><p> Before you start, we're going to ask you a few questions about how the game works.  </p>","","0","instructions","","",""
"preload","35","168043","0.0-13.0","8072","approach_avoid_sv1","""event"",""trial"",""time""
""fullscreenenter"",""1"",""3150""
","
","
","""event"",""trial"",""time""
""fullscreenenter"",""1"",""3150""
","
","true","false","[]","[]","[]","","","","","","","",""
"comp-q","36","176153","0.0-14.0-0.0","8072","approach_avoid_sv1","""event"",""trial"",""time""
""fullscreenenter"",""1"",""3150""
","
","
","""event"",""trial"",""time""
""fullscreenenter"",""1"",""3150""
","
","","","","","","2282.5","<p> <b> True or False? </b> </p><p> In this game, you will only see each image once. </p>","","0","comp_question","","","true"
"comp-q","37","188369","0.0-14.0-1.0","8072","approach_avoid_sv1","""event"",""trial"",""time""
""fullscreenenter"",""1"",""3150""
","
","
","""event"",""trial"",""time""
""fullscreenenter"",""1"",""3150""
","
","","","","","","5869.300001144409","<p> <b> That's right! </b> You will see many different images <i> one time each </i> in this game. </p>","","0","comp_answer","","",""
"comp-q","38","194408","0.0-15.0-0.0","8072","approach_avoid_sv1","""event"",""trial"",""time""
""fullscreenenter"",""1"",""3150""
","
","
","""event"",""trial"",""time""
""fullscreenenter"",""1"",""3150""
","
","","","","","","1018.5","<p> <b> True or False? </b> </p><p> You should use the mouse and click to make your response. </p>","","1","comp_question","","","true"
"comp-q","39","201948","0.0-15.0-1.0","8072","approach_avoid_sv1","""event"",""trial"",""time""
""fullscreenenter"",""1"",""3150""
","
","
","""event"",""trial"",""time""
""fullscreenenter"",""1"",""3150""
","
","","","","","","1037.6999988555908","<p><b> That's right! </b> You should use the '1', '2', '3', and '4' keys to make your response. </p>","","0","comp_answer","","",""
"comp-q","40","213639","0.0-16.0-0.0","8072","approach_avoid_sv1","""event"",""trial"",""time""
""fullscreenenter"",""1"",""3150""
","
","
","""event"",""trial"",""time""
""fullscreenenter"",""1"",""3150""
","
","","","","","","6009.200000762939","<p> <b> True or False? </b> </p><p> You will have as much time as you want to make each choice. </p>","","1","comp_question","","","true"
"comp-q","41","226602","0.0-16.0-1.0","8072","approach_avoid_sv1","""event"",""trial"",""time""
""fullscreenenter"",""1"",""3150""
","
","
","""event"",""trial"",""time""
""fullscreenenter"",""1"",""3150""
","
","","","","","","8252.5","<p> <b> That's right! </b> You will only have 10 seconds to make each choice. </p>","","0","comp_answer","","",""
"learning-instructions","42","240573","0.0-17.0","8072","approach_avoid_sv1","""event"",""trial"",""time""
""fullscreenenter"",""1"",""3150""
","
","
","""event"",""trial"",""time""
""fullscreenenter"",""1"",""3150""
","
","","","","","","5302.900001525879","<p> Great! You are now ready to begin the game. </p><p> Remember, use the 1, 2, 3, and 4 keys to make your responses. </p>","","0","instructions","","",""
"html-keyboard-response","43","241205","0.0-18.0-0.0","8072","approach_avoid_sv1","""event"",""trial"",""time""
""fullscreenenter"",""1"",""3150""
","
","
","""event"",""trial"",""time""
""fullscreenenter"",""1"",""3150""
","
","","","","","","null","<div style=""font-size:60px;"">+</div>","null","","fixation","","",""
"memory-trial","44","248518","0.0-18.0-1.0","8072","approach_avoid_sv1","""event"",""trial"",""time""
""fullscreenenter"",""1"",""3150""
","
","
","""event"",""trial"",""time""
""fullscreenenter"",""1"",""3150""
","
","","","","","","6294.699998855591","images/cat2.png","","","memory_trial","4","definitely_new",""
"html-keyboard-response","45","249038","0.0-18.0-0.1","8072","approach_avoid_sv1","""event"",""trial"",""time""
""fullscreenenter"",""1"",""3150""
","
","
","""event"",""trial"",""time""
""fullscreenenter"",""1"",""3150""
","
","","","","","","null","<div style=""font-size:60px;"">+</div>","null","","fixation","","",""
"memory-trial","46","254048","0.0-18.0-1.1","8072","approach_avoid_sv1","""event"",""trial"",""time""
""fullscreenenter"",""1"",""3150""
","
","
","""event"",""trial"",""time""
""fullscreenenter"",""1"",""3150""
","
","","","","","","4002.8999996185303","images/boat2.png","","","memory_trial","4","definitely_new",""
"html-keyboard-response","47","254568","0.0-18.0-0.2","8072","approach_avoid_sv1","""event"",""trial"",""time""
""fullscreenenter"",""1"",""3150""
","
","
","""event"",""trial"",""time""
""fullscreenenter"",""1"",""3150""
","
","","","","","","null","<div style=""font-size:60px;"">+</div>","null","","fixation","","",""
"memory-trial","48","258998","0.0-18.0-1.2","8072","approach_avoid_sv1","""event"",""trial"",""time""
""fullscreenenter"",""1"",""3150""
","
","
","""event"",""trial"",""time""
""fullscreenenter"",""1"",""3150""
","
","","","","","","3412.300001144409","images/plane8.png","","","memory_trial","1","definitely_old",""
"html-keyboard-response","49","259518","0.0-18.0-0.3","8072","approach_avoid_sv1","""event"",""trial"",""time""
""fullscreenenter"",""1"",""3150""
","
","
","""event"",""trial"",""time""
""fullscreenenter"",""1"",""3150""
","
","","","","","","null","<div style=""font-size:60px;"">+</div>","null","","fixation","","",""
"memory-trial","50","263748","0.0-18.0-1.3","8072","approach_avoid_sv1","""event"",""trial"",""time""
""fullscreenenter"",""1"",""3150""
","
","
","""event"",""trial"",""time""
""fullscreenenter"",""1"",""3150""
","
","","","","","","3213.6000003814697","images/plane4.png","","","memory_trial","1","definitely_old",""
"html-keyboard-response","51","264268","0.0-18.0-0.4","8072","approach_avoid_sv1","""event"",""trial"",""time""
""fullscreenenter"",""1"",""3150""
","
","
","""event"",""trial"",""time""
""fullscreenenter"",""1"",""3150""
","
","","","","","","null","<div style=""font-size:60px;"">+</div>","null","","fixation","","",""
"memory-trial","52","271479","0.0-18.0-1.4","8072","approach_avoid_sv1","""event"",""trial"",""time""
""fullscreenenter"",""1"",""3150""
","
","
","""event"",""trial"",""time""
""fullscreenenter"",""1"",""3150""
","
","","","","","","6204.699998855591","images/bush3.png","","","memory_trial","4","definitely_new",""
"html-keyboard-response","53","271984","0.0-18.0-0.5","8072","approach_avoid_sv1","""event"",""trial"",""time""
""fullscreenenter"",""1"",""3150""
","
","
","""event"",""trial"",""time""
""fullscreenenter"",""1"",""3150""
","
","","","","","","null","<div style=""font-size:60px;"">+</div>","null","","fixation","","",""
"memory-trial","54","276575","0.0-18.0-1.5","8072","approach_avoid_sv1","""event"",""trial"",""time""
""fullscreenenter"",""1"",""3150""
","
","
","""event"",""trial"",""time""
""fullscreenenter"",""1"",""3150""
","
","","","","","","3588","images/apple2.png","","","memory_trial","1","definitely_old",""
"html-keyboard-response","55","277079","0.0-18.0-0.6","8072","approach_avoid_sv1","""event"",""trial"",""time""
""fullscreenenter"",""1"",""3150""
","
","
","""event"",""trial"",""time""
""fullscreenenter"",""1"",""3150""
","
","","","","","","null","<div style=""font-size:60px;"">+</div>","null","","fixation","","",""
"memory-trial","56","280119","0.0-18.0-1.6","8072","approach_avoid_sv1","""event"",""trial"",""time""
""fullscreenenter"",""1"",""3150""
","
","
","""event"",""trial"",""time""
""fullscreenenter"",""1"",""3150""
","
","","","","","","2034.8999996185303","images/rodent1.png","","","memory_trial","1","definitely_old",""
"html-keyboard-response","57","280630","0.0-18.0-0.7","8072","approach_avoid_sv1","""event"",""trial"",""time""
""fullscreenenter"",""1"",""3150""
","
","
","""event"",""trial"",""time""
""fullscreenenter"",""1"",""3150""
","
","","","","","","null","<div style=""font-size:60px;"">+</div>","null","","fixation","","",""
"memory-trial","58","283386","0.0-18.0-1.7","8072","approach_avoid_sv1","""event"",""trial"",""time""
""fullscreenenter"",""1"",""3150""
","
","
","""event"",""trial"",""time""
""fullscreenenter"",""1"",""3150""
","
","","","","","","1738.2999992370605","images/table4.png","","","memory_trial","1","definitely_old",""
"html-keyboard-response","59","283887","0.0-18.0-0.8","8072","approach_avoid_sv1","""event"",""trial"",""time""
""fullscreenenter"",""1"",""3150""
","
","
","""event"",""trial"",""time""
""fullscreenenter"",""1"",""3150""
","
","","","","","","null","<div style=""font-size:60px;"">+</div>","null","","fixation","","",""
"memory-trial","60","288968","0.0-18.0-1.8","8072","approach_avoid_sv1","""event"",""trial"",""time""
""fullscreenenter"",""1"",""3150""
","
","
","""event"",""trial"",""time""
""fullscreenenter"",""1"",""3150""
","
","","","","","","4068.8999996185303","images/straw7.png","","","memory_trial","1","definitely_old",""
"html-keyboard-response","61","289471","0.0-18.0-0.9","8072","approach_avoid_sv1","""event"",""trial"",""time""
""fullscreenenter"",""1"",""3150""
","
","
","""event"",""trial"",""time""
""fullscreenenter"",""1"",""3150""
","
","","","","","","null","<div style=""font-size:60px;"">+</div>","null","","fixation","","",""
"memory-trial","62","292639","0.0-18.0-1.9","8072","approach_avoid_sv1","""event"",""trial"",""time""
""fullscreenenter"",""1"",""3150""
","
","
","""event"",""trial"",""time""
""fullscreenenter"",""1"",""3150""
","
","","","","","","2163.599998474121","images/flower3.png","","","memory_trial","1","definitely_old",""
"html-keyboard-response","63","293150","0.0-18.0-0.10","8072","approach_avoid_sv1","""event"",""trial"",""time""
""fullscreenenter"",""1"",""3150""
","
","
","""event"",""trial"",""time""
""fullscreenenter"",""1"",""3150""
","
","","","","","","null","<div style=""font-size:60px;"">+</div>","null","","fixation","","",""
"memory-trial","64","295743","0.0-18.0-1.10","8072","approach_avoid_sv1","""event"",""trial"",""time""
""fullscreenenter"",""1"",""3150""
","
","
","""event"",""trial"",""time""
""fullscreenenter"",""1"",""3150""
","
","","","","","","1586.2999992370605","images/cow2.png","","","memory_trial","1","definitely_old",""
"html-keyboard-response","65","296261","0.0-18.0-0.11","8072","approach_avoid_sv1","""event"",""trial"",""time""
""fullscreenenter"",""1"",""3150""
","
","
","""event"",""trial"",""time""
""fullscreenenter"",""1"",""3150""
","
","","","","","","null","<div style=""font-size:60px;"">+</div>","null","","fixation","","",""
"memory-trial","66","298511","0.0-18.0-1.11","8072","approach_avoid_sv1","""event"",""trial"",""time""
""fullscreenenter"",""1"",""3150""
","
","
","""event"",""trial"",""time""
""fullscreenenter"",""1"",""3150""
","
","","","","","","1236.7999992370605","images/rabbit8.png","","","memory_trial","1","definitely_old",""
"html-keyboard-response","67","299015","0.0-18.0-0.12","8072","approach_avoid_sv1","""event"",""trial"",""time""
""fullscreenenter"",""1"",""3150""
","
","
","""event"",""trial"",""time""
""fullscreenenter"",""1"",""3150""
","
","","","","","","null","<div style=""font-size:60px;"">+</div>","null","","fixation","","",""
"memory-trial","68","302711","0.0-18.0-1.12","8072","approach_avoid_sv1","""event"",""trial"",""time""
""fullscreenenter"",""1"",""3150""
","
","
","""event"",""trial"",""time""
""fullscreenenter"",""1"",""3150""
","
","","","","","","2689.1000003814697","images/orange6.png","","","memory_trial","4","definitely_new",""
"html-keyboard-response","69","303217","0.0-18.0-0.13","8072","approach_avoid_sv1","""event"",""trial"",""time""
""fullscreenenter"",""1"",""3150""
","
","
","""event"",""trial"",""time""
""fullscreenenter"",""1"",""3150""
","
","","","","","","null","<div style=""font-size:60px;"">+</div>","null","","fixation","","",""
"memory-trial","70","307446","0.0-18.0-1.13","8072","approach_avoid_sv1","""event"",""trial"",""time""
""fullscreenenter"",""1"",""3150""
","
","
","""event"",""trial"",""time""
""fullscreenenter"",""1"",""3150""
","
","","","","","","3208.3999996185303","images/train6.png","","","memory_trial","1","definitely_old",""
"html-keyboard-response","71","307954","0.0-18.0-0.14","8072","approach_avoid_sv1","""event"",""trial"",""time""
""fullscreenenter"",""1"",""3150""
","
","
","""event"",""trial"",""time""
""fullscreenenter"",""1"",""3150""
","
","","","","","","null","<div style=""font-size:60px;"">+</div>","null","","fixation","","",""
"memory-trial","72","310615","0.0-18.0-1.14","8072","approach_avoid_sv1","""event"",""trial"",""time""
""fullscreenenter"",""1"",""3150""
","
","
","""event"",""trial"",""time""
""fullscreenenter"",""1"",""3150""
","
","","","","","","1655.3999996185303","images/straw2.png","","","memory_trial","1","definitely_old",""
"html-keyboard-response","73","311120","0.0-18.0-0.15","8072","approach_avoid_sv1","""event"",""trial"",""time""
""fullscreenenter"",""1"",""3150""
","
","
","""event"",""trial"",""time""
""fullscreenenter"",""1"",""3150""
","
","","","","","","null","<div style=""font-size:60px;"">+</div>","null","","fixation","","",""
"memory-trial","74","313616","0.0-18.0-1.15","8072","approach_avoid_sv1","""event"",""trial"",""time""
""fullscreenenter"",""1"",""3150""
","
","
","""event"",""trial"",""time""
""fullscreenenter"",""1"",""3150""
","
","","","","","","1487.5","images/rodent2.png","","","memory_trial","1","definitely_old",""
"html-keyboard-response","75","314120","0.0-18.0-0.16","8072","approach_avoid_sv1","""event"",""trial"",""time""
""fullscreenenter"",""1"",""3150""
","
","
","""event"",""trial"",""time""
""fullscreenenter"",""1"",""3150""
","
","","","","","","null","<div style=""font-size:60px;"">+</div>","null","","fixation","","",""
"memory-trial","76","316286","0.0-18.0-1.16","8072","approach_avoid_sv1","""event"",""trial"",""time""
""fullscreenenter"",""1"",""3150""
","
","
","""event"",""trial"",""time""
""fullscreenenter"",""1"",""3150""
","
","","","","","","1141.1000003814697","images/straw3.png","","","memory_trial","1","definitely_old",""
"html-keyboard-response","77","316792","0.0-18.0-0.17","8072","approach_avoid_sv1","""event"",""trial"",""time""
""fullscreenenter"",""1"",""3150""
","
","
","""event"",""trial"",""time""
""fullscreenenter"",""1"",""3150""
","
","","","","","","null","<div style=""font-size:60px;"">+</div>","null","","fixation","","",""
"memory-trial","78","319385","0.0-18.0-1.17","8072","approach_avoid_sv1","""event"",""trial"",""time""
""fullscreenenter"",""1"",""3150""
","
","
","""event"",""trial"",""time""
""fullscreenenter"",""1"",""3150""
","
","","","","","","1585.2000007629395","images/cow7.png","","","memory_trial","1","definitely_old",""
"html-keyboard-response","79","319889","0.0-18.0-0.18","8072","approach_avoid_sv1","""event"",""trial"",""time""
""fullscreenenter"",""1"",""3150""
","
","
","""event"",""trial"",""time""
""fullscreenenter"",""1"",""3150""
","
","","","","","","null","<div style=""font-size:60px;"">+</div>","null","","fixation","","",""
"memory-trial","80","322199","0.0-18.0-1.18","8072","approach_avoid_sv1","""event"",""trial"",""time""
""fullscreenenter"",""1"",""3150""
","
","
","""event"",""trial"",""time""
""fullscreenenter"",""1"",""3150""
","
","","","","","","1303","images/goat1.png","","","memory_trial","1","definitely_old",""
"html-keyboard-response","81","322710","0.0-18.0-0.19","8072","approach_avoid_sv1","""event"",""trial"",""time""
""fullscreenenter"",""1"",""3150""
","
","
","""event"",""trial"",""time""
""fullscreenenter"",""1"",""3150""
","
","","","","","","null","<div style=""font-size:60px;"">+</div>","null","","fixation","","",""
"memory-trial","82","325392","0.0-18.0-1.19","8072","approach_avoid_sv1","""event"",""trial"",""time""
""fullscreenenter"",""1"",""3150""
","
","
","""event"",""trial"",""time""
""fullscreenenter"",""1"",""3150""
","
","","","","","","1674.1000003814697","images/flower4.png","","","memory_trial","1","definitely_old",""
"html-keyboard-response","83","325895","0.0-18.0-0.20","8072","approach_avoid_sv1","""event"",""trial"",""time""
""fullscreenenter"",""1"",""3150""
","
","
","""event"",""trial"",""time""
""fullscreenenter"",""1"",""3150""
","
","","","","","","null","<div style=""font-size:60px;"">+</div>","null","","fixation","","",""
"memory-trial","84","328482","0.0-18.0-1.20","8072","approach_avoid_sv1","""event"",""trial"",""time""
""fullscreenenter"",""1"",""3150""
","
","
","""event"",""trial"",""time""
""fullscreenenter"",""1"",""3150""
","
","","","","","","1575.2999992370605","images/goat4.png","","","memory_trial","1","definitely_old",""
"html-keyboard-response","85","328984","0.0-18.0-0.21","8072","approach_avoid_sv1","""event"",""trial"",""time""
""fullscreenenter"",""1"",""3150""
","
","
","""event"",""trial"",""time""
""fullscreenenter"",""1"",""3150""
","
","","","","","","null","<div style=""font-size:60px;"">+</div>","null","","fixation","","",""
"memory-trial","86","332440","0.0-18.0-1.21","8072","approach_avoid_sv1","""event"",""trial"",""time""
""fullscreenenter"",""1"",""3150""
","
","
","""event"",""trial"",""time""
""fullscreenenter"",""1"",""3150""
","
","","","","","","2447.2999992370605","images/straw6.png","","","memory_trial","1","definitely_old",""
"html-keyboard-response","87","332944","0.0-18.0-0.22","8072","approach_avoid_sv1","""event"",""trial"",""time""
""fullscreenenter"",""1"",""3150""
","
","
","""event"",""trial"",""time""
""fullscreenenter"",""1"",""3150""
","
","","","","","","null","<div style=""font-size:60px;"">+</div>","null","","fixation","","",""
"memory-trial","88","336216","0.0-18.0-1.22","8072","approach_avoid_sv1","""event"",""trial"",""time""
""fullscreenenter"",""1"",""3150""
","
","
","""event"",""trial"",""time""
""fullscreenenter"",""1"",""3150""
","
","","","","","","2263","images/sofa3.png","","","memory_trial","4","definitely_new",""
"html-keyboard-response","89","336719","0.0-18.0-0.23","8072","approach_avoid_sv1","""event"",""trial"",""time""
""fullscreenenter"",""1"",""3150""
","
","
","""event"",""trial"",""time""
""fullscreenenter"",""1"",""3150""
","
","","","","","","null","<div style=""font-size:60px;"">+</div>","null","","fixation","","",""
"memory-trial","90","338864","0.0-18.0-1.23","8072","approach_avoid_sv1","""event"",""trial"",""time""
""fullscreenenter"",""1"",""3150""
","
","
","""event"",""trial"",""time""
""fullscreenenter"",""1"",""3150""
","
","","","","","","1139","images/sofa7.png","","","memory_trial","4","definitely_new",""
"html-keyboard-response","91","339369","0.0-18.0-0.24","8072","approach_avoid_sv1","""event"",""trial"",""time""
""fullscreenenter"",""1"",""3150""
","
","
","""event"",""trial"",""time""
""fullscreenenter"",""1"",""3150""
","
","","","","","","null","<div style=""font-size:60px;"">+</div>","null","","fixation","","",""
"memory-trial","92","342344","0.0-18.0-1.24","8072","approach_avoid_sv1","""event"",""trial"",""time""
""fullscreenenter"",""1"",""3150""
","
","
","""event"",""trial"",""time""
""fullscreenenter"",""1"",""3150""
","
","","","","","","1968","images/sheep4.png","","","memory_trial","1","definitely_old",""
"html-keyboard-response","93","342853","0.0-18.0-0.25","8072","approach_avoid_sv1","""event"",""trial"",""time""
""fullscreenenter"",""1"",""3150""
","
","
","""event"",""trial"",""time""
""fullscreenenter"",""1"",""3150""
","
","","","","","","null","<div style=""font-size:60px;"">+</div>","null","","fixation","","",""
"memory-trial","94","348424","0.0-18.0-1.25","8072","approach_avoid_sv1","""event"",""trial"",""time""
""fullscreenenter"",""1"",""3150""
","
","
","""event"",""trial"",""time""
""fullscreenenter"",""1"",""3150""
","
","","","","","","4565.400001525879","images/train4.png","","","memory_trial","4","definitely_new",""
"html-keyboard-response","95","348927","0.0-18.0-0.26","8072","approach_avoid_sv1","""event"",""trial"",""time""
""fullscreenenter"",""1"",""3150""
","
","
","""event"",""trial"",""time""
""fullscreenenter"",""1"",""3150""
","
","","","","","","null","<div style=""font-size:60px;"">+</div>","null","","fixation","","",""
"memory-trial","96","351905","0.0-18.0-1.26","8072","approach_avoid_sv1","""event"",""trial"",""time""
""fullscreenenter"",""1"",""3150""
","
","
","""event"",""trial"",""time""
""fullscreenenter"",""1"",""3150""
","
","","","","","","1963.7000007629395","images/chair8.png","","","memory_trial","4","definitely_new",""
"html-keyboard-response","97","352407","0.0-18.0-0.27","8072","approach_avoid_sv1","""event"",""trial"",""time""
""fullscreenenter"",""1"",""3150""
","
","
","""event"",""trial"",""time""
""fullscreenenter"",""1"",""3150""
","
","","","","","","null","<div style=""font-size:60px;"">+</div>","null","","fixation","","",""
"memory-trial","98","355857","0.0-18.0-1.27","8072","approach_avoid_sv1","""event"",""trial"",""time""
""fullscreenenter"",""1"",""3150""
","
","
","""event"",""trial"",""time""
""fullscreenenter"",""1"",""3150""
","
","","","","","","2440.3999996185303","images/rabbit5.png","","","memory_trial","1","definitely_old",""
"html-keyboard-response","99","356360","0.0-18.0-0.28","8072","approach_avoid_sv1","""event"",""trial"",""time""
""fullscreenenter"",""1"",""3150""
","
","
","""event"",""trial"",""time""
""fullscreenenter"",""1"",""3150""
","
","","","","","","null","<div style=""font-size:60px;"">+</div>","null","","fixation","","",""
"memory-trial","100","358737","0.0-18.0-1.28","8072","approach_avoid_sv1","""event"",""trial"",""time""
""fullscreenenter"",""1"",""3150""
","
","
","""event"",""trial"",""time""
""fullscreenenter"",""1"",""3150""
","
","","","","","","1368.2000007629395","images/rodent3.png","","","memory_trial","1","definitely_old",""
"html-keyboard-response","101","359239","0.0-18.0-0.29","8072","approach_avoid_sv1","""event"",""trial"",""time""
""fullscreenenter"",""1"",""3150""
","
","
","""event"",""trial"",""time""
""fullscreenenter"",""1"",""3150""
","
","","","","","","null","<div style=""font-size:60px;"">+</div>","null","","fixation","","",""
"memory-trial","102","362200","0.0-18.0-1.29","8072","approach_avoid_sv1","""event"",""trial"",""time""
""fullscreenenter"",""1"",""3150""
","
","
","""event"",""trial"",""time""
""fullscreenenter"",""1"",""3150""
","
","","","","","","1958.1999988555908","images/cactus7.png","","","memory_trial","1","definitely_old",""
"html-keyboard-response","103","362711","0.0-18.0-0.30","8072","approach_avoid_sv1","""event"",""trial"",""time""
""fullscreenenter"",""1"",""3150""
","
","
","""event"",""trial"",""time""
""fullscreenenter"",""1"",""3150""
","
","","","","","","null","<div style=""font-size:60px;"">+</div>","null","","fixation","","",""
"memory-trial","104","365408","0.0-18.0-1.30","8072","approach_avoid_sv1","""event"",""trial"",""time""
""fullscreenenter"",""1"",""3150""
","
","
","""event"",""trial"",""time""
""fullscreenenter"",""1"",""3150""
","
","","","","","","1691.599998474121","images/train5.png","","","memory_trial","4","definitely_new",""
"html-keyboard-response","105","365912","0.0-18.0-0.31","8072","approach_avoid_sv1","""event"",""trial"",""time""
""fullscreenenter"",""1"",""3150""
","
","
","""event"",""trial"",""time""
""fullscreenenter"",""1"",""3150""
","
","","","","","","null","<div style=""font-size:60px;"">+</div>","null","","fixation","","",""
"memory-trial","106","367689","0.0-18.0-1.31","8072","approach_avoid_sv1","""event"",""trial"",""time""
""fullscreenenter"",""1"",""3150""
","
","
","""event"",""trial"",""time""
""fullscreenenter"",""1"",""3150""
","
","","","","","","772.7000007629395","images/train7.png","","","memory_trial","4","definitely_new",""
"html-keyboard-response","107","368192","0.0-18.0-0.32","8072","approach_avoid_sv1","""event"",""trial"",""time""
""fullscreenenter"",""1"",""3150""
","
","
","""event"",""trial"",""time""
""fullscreenenter"",""1"",""3150""
","
","","","","","","null","<div style=""font-size:60px;"">+</div>","null","","fixation","","",""
"memory-trial","108","370777","0.0-18.0-1.32","8072","approach_avoid_sv1","""event"",""trial"",""time""
""fullscreenenter"",""1"",""3150""
","
","
","""event"",""trial"",""time""
""fullscreenenter"",""1"",""3150""
","
","","","","","","1579.1000003814697","images/tree4.png","","","memory_trial","4","definitely_new",""
"html-keyboard-response","109","371280","0.0-18.0-0.33","8072","approach_avoid_sv1","""event"",""trial"",""time""
""fullscreenenter"",""1"",""3150""
","
","
","""event"",""trial"",""time""
""fullscreenenter"",""1"",""3150""
","
","","","","","","null","<div style=""font-size:60px;"">+</div>","null","","fixation","","",""
"memory-trial","110","373969","0.0-18.0-1.33","8072","approach_avoid_sv1","""event"",""trial"",""time""
""fullscreenenter"",""1"",""3150""
","
","
","""event"",""trial"",""time""
""fullscreenenter"",""1"",""3150""
","
","","","","","","1679.8999996185303","images/boat3.png","","","memory_trial","4","definitely_new",""
"html-keyboard-response","111","374471","0.0-18.0-0.34","8072","approach_avoid_sv1","""event"",""trial"",""time""
""fullscreenenter"",""1"",""3150""
","
","
","""event"",""trial"",""time""
""fullscreenenter"",""1"",""3150""
","
","","","","","","null","<div style=""font-size:60px;"">+</div>","null","","fixation","","",""
"memory-trial","112","376551","0.0-18.0-1.34","8072","approach_avoid_sv1","""event"",""trial"",""time""
""fullscreenenter"",""1"",""3150""
","
","
","""event"",""trial"",""time""
""fullscreenenter"",""1"",""3150""
","
","","","","","","1073.1999988555908","images/boat7.png","","","memory_trial","4","definitely_new",""
"html-keyboard-response","113","377055","0.0-18.0-0.35","8072","approach_avoid_sv1","""event"",""trial"",""time""
""fullscreenenter"",""1"",""3150""
","
","
","""event"",""trial"",""time""
""fullscreenenter"",""1"",""3150""
","
","","","","","","null","<div style=""font-size:60px;"">+</div>","null","","fixation","","",""
"memory-trial","114","379295","0.0-18.0-1.35","8072","approach_avoid_sv1","""event"",""trial"",""time""
""fullscreenenter"",""1"",""3150""
","
","
","""event"",""trial"",""time""
""fullscreenenter"",""1"",""3150""
","
","","","","","","1214.7999992370605","images/sheep7.png","","","memory_trial","1","definitely_old",""
"html-keyboard-response","115","379800","0.0-18.0-0.36","8072","approach_avoid_sv1","""event"",""trial"",""time""
""fullscreenenter"",""1"",""3150""
","
","
","""event"",""trial"",""time""
""fullscreenenter"",""1"",""3150""
","
","","","","","","null","<div style=""font-size:60px;"">+</div>","null","","fixation","","",""
"memory-trial","116","383632","0.0-18.0-1.36","8072","approach_avoid_sv1","""event"",""trial"",""time""
""fullscreenenter"",""1"",""3150""
","
","
","""event"",""trial"",""time""
""fullscreenenter"",""1"",""3150""
","
","","","","","","2826.5","images/bush7.png","","","memory_trial","4","definitely_new",""
"html-keyboard-response","117","384136","0.0-18.0-0.37","8072","approach_avoid_sv1","""event"",""trial"",""time""
""fullscreenenter"",""1"",""3150""
","
","
","""event"",""trial"",""time""
""fullscreenenter"",""1"",""3150""
","
","","","","","","null","<div style=""font-size:60px;"">+</div>","null","","fixation","","",""
"memory-trial","118","386479","0.0-18.0-1.37","8072","approach_avoid_sv1","""event"",""trial"",""time""
""fullscreenenter"",""1"",""3150""
","
","
","""event"",""trial"",""time""
""fullscreenenter"",""1"",""3150""
","
","","","","","","1337.2000007629395","images/goat7.png","","","memory_trial","1","definitely_old",""
"html-keyboard-response","119","386983","0.0-18.0-0.38","8072","approach_avoid_sv1","""event"",""trial"",""time""
""fullscreenenter"",""1"",""3150""
","
","
","""event"",""trial"",""time""
""fullscreenenter"",""1"",""3150""
","
","","","","","","null","<div style=""font-size:60px;"">+</div>","null","","fixation","","",""
"memory-trial","120","389134","0.0-18.0-1.38","8072","approach_avoid_sv1","""event"",""trial"",""time""
""fullscreenenter"",""1"",""3150""
","
","
","""event"",""trial"",""time""
""fullscreenenter"",""1"",""3150""
","
","","","","","","1127.7999992370605","images/truck4.png","","","memory_trial","4","definitely_new",""
"html-keyboard-response","121","389640","0.0-18.0-0.39","8072","approach_avoid_sv1","""event"",""trial"",""time""
""fullscreenenter"",""1"",""3150""
","
","
","""event"",""trial"",""time""
""fullscreenenter"",""1"",""3150""
","
","","","","","","null","<div style=""font-size:60px;"">+</div>","null","","fixation","","",""
"memory-trial","122","393576","0.0-18.0-1.39","8072","approach_avoid_sv1","""event"",""trial"",""time""
""fullscreenenter"",""1"",""3150""
","
","
","""event"",""trial"",""time""
""fullscreenenter"",""1"",""3150""
","
","","","","","","2927.1000003814697","images/flower5.png","","","memory_trial","4","definitely_new",""
"html-keyboard-response","123","394083","0.0-18.0-0.40","8072","approach_avoid_sv1","""event"",""trial"",""time""
""fullscreenenter"",""1"",""3150""
","
","
","""event"",""trial"",""time""
""fullscreenenter"",""1"",""3150""
","
","","","","","","null","<div style=""font-size:60px;"">+</div>","null","","fixation","","",""
"memory-trial","124","397448","0.0-18.0-1.40","8072","approach_avoid_sv1","""event"",""trial"",""time""
""fullscreenenter"",""1"",""3150""
","
","
","""event"",""trial"",""time""
""fullscreenenter"",""1"",""3150""
","
","","","","","","2356.3999996185303","images/rabbit7.png","","","memory_trial","1","definitely_old",""
"html-keyboard-response","125","397952","0.0-18.0-0.41","8072","approach_avoid_sv1","""event"",""trial"",""time""
""fullscreenenter"",""1"",""3150""
","
","
","""event"",""trial"",""time""
""fullscreenenter"",""1"",""3150""
","
","","","","","","null","<div style=""font-size:60px;"">+</div>","null","","fixation","","",""
"memory-trial","126","400933","0.0-18.0-1.41","8072","approach_avoid_sv1","""event"",""trial"",""time""
""fullscreenenter"",""1"",""3150""
","
","
","""event"",""trial"",""time""
""fullscreenenter"",""1"",""3150""
","
","","","","","","1965.6999988555908","images/sofa4.png","","","memory_trial","4","definitely_new",""
"html-button-response","127","403910","0.0-18.0-2.41-0.41","8072","approach_avoid_sv1","""event"",""trial"",""time""
""fullscreenenter"",""1"",""3150""
","
","
","""event"",""trial"",""time""
""fullscreenenter"",""1"",""3150""
","
","","","","","","2975.2999992370605","<p> Take a break! </p><p> Click the button to continue. </p>","0","","break","","",""
"html-keyboard-response","128","404416","0.0-18.0-0.42","8072","approach_avoid_sv1","""event"",""trial"",""time""
""fullscreenenter"",""1"",""3150""
","
","
","""event"",""trial"",""time""
""fullscreenenter"",""1"",""3150""
","
","","","","","","null","<div style=""font-size:60px;"">+</div>","null","","fixation","","",""
"memory-trial","129","408928","0.0-18.0-1.42","8072","approach_avoid_sv1","""event"",""trial"",""time""
""fullscreenenter"",""1"",""3150""
","
","
","""event"",""trial"",""time""
""fullscreenenter"",""1"",""3150""
","
","","","","","","3506.5","images/bed5.png","","","memory_trial","4","definitely_new",""
"html-keyboard-response","130","409436","0.0-18.0-0.43","8072","approach_avoid_sv1","""event"",""trial"",""time""
""fullscreenenter"",""1"",""3150""
","
","
","""event"",""trial"",""time""
""fullscreenenter"",""1"",""3150""
","
","","","","","","null","<div style=""font-size:60px;"">+</div>","null","","fixation","","",""
"memory-trial","131","412417","0.0-18.0-1.43","8072","approach_avoid_sv1","""event"",""trial"",""time""
""fullscreenenter"",""1"",""3150""
","
","
","""event"",""trial"",""time""
""fullscreenenter"",""1"",""3150""
","
","","","","","","1972.7000007629395","images/flower6.png","","","memory_trial","1","definitely_old",""
"html-keyboard-response","132","412920","0.0-18.0-0.44","8072","approach_avoid_sv1","""event"",""trial"",""time""
""fullscreenenter"",""1"",""3150""
","
","
","""event"",""trial"",""time""
""fullscreenenter"",""1"",""3150""
","
","","","","","","null","<div style=""font-size:60px;"">+</div>","null","","fixation","","",""
"memory-trial","133","415839","0.0-18.0-1.44","8072","approach_avoid_sv1","""event"",""trial"",""time""
""fullscreenenter"",""1"",""3150""
","
","
","""event"",""trial"",""time""
""fullscreenenter"",""1"",""3150""
","
","","","","","","1907.3999996185303","images/cat7.png","","","memory_trial","4","definitely_new",""
"html-keyboard-response","134","416343","0.0-18.0-0.45","8072","approach_avoid_sv1","""event"",""trial"",""time""
""fullscreenenter"",""1"",""3150""
","
","
","""event"",""trial"",""time""
""fullscreenenter"",""1"",""3150""
","
","","","","","","null","<div style=""font-size:60px;"">+</div>","null","","fixation","","",""
"memory-trial","135","419280","0.0-18.0-1.45","8072","approach_avoid_sv1","""event"",""trial"",""time""
""fullscreenenter"",""1"",""3150""
","
","
","""event"",""trial"",""time""
""fullscreenenter"",""1"",""3150""
","
","","","","","","1927.6000003814697","images/bed1.png","","","memory_trial","1","definitely_old",""
"html-keyboard-response","136","419784","0.0-18.0-0.46","8072","approach_avoid_sv1","""event"",""trial"",""time""
""fullscreenenter"",""1"",""3150""
","
","
","""event"",""trial"",""time""
""fullscreenenter"",""1"",""3150""
","
","","","","","","null","<div style=""font-size:60px;"">+</div>","null","","fixation","","",""
"memory-trial","137","423192","0.0-18.0-1.46","8072","approach_avoid_sv1","""event"",""trial"",""time""
""fullscreenenter"",""1"",""3150""
","
","
","""event"",""trial"",""time""
""fullscreenenter"",""1"",""3150""
","
","","","","","","2404.199998855591","images/goat8.png","","","memory_trial","4","definitely_new",""
"html-keyboard-response","138","423697","0.0-18.0-0.47","8072","approach_avoid_sv1","""event"",""trial"",""time""
""fullscreenenter"",""1"",""3150""
","
","
","""event"",""trial"",""time""
""fullscreenenter"",""1"",""3150""
","
","","","","","","null","<div style=""font-size:60px;"">+</div>","null","","fixation","","",""
"memory-trial","139","426632","0.0-18.0-1.47","8072","approach_avoid_sv1","""event"",""trial"",""time""
""fullscreenenter"",""1"",""3150""
","
","
","""event"",""trial"",""time""
""fullscreenenter"",""1"",""3150""
","
","","","","","","1927","images/banana3.png","","","memory_trial","1","definitely_old",""
"html-keyboard-response","140","427136","0.0-18.0-0.48","8072","approach_avoid_sv1","""event"",""trial"",""time""
""fullscreenenter"",""1"",""3150""
","
","
","""event"",""trial"",""time""
""fullscreenenter"",""1"",""3150""
","
","","","","","","null","<div style=""font-size:60px;"">+</div>","null","","fixation","","",""
"memory-trial","141","429704","0.0-18.0-1.48","8072","approach_avoid_sv1","""event"",""trial"",""time""
""fullscreenenter"",""1"",""3150""
","
","
","""event"",""trial"",""time""
""fullscreenenter"",""1"",""3150""
","
","","","","","","1561.3999996185303","images/truck2.png","","","memory_trial","4","definitely_new",""
"html-keyboard-response","142","430208","0.0-18.0-0.49","8072","approach_avoid_sv1","""event"",""trial"",""time""
""fullscreenenter"",""1"",""3150""
","
","
","""event"",""trial"",""time""
""fullscreenenter"",""1"",""3150""
","
","","","","","","null","<div style=""font-size:60px;"">+</div>","null","","fixation","","",""
"memory-trial","143","433073","0.0-18.0-1.49","8072","approach_avoid_sv1","""event"",""trial"",""time""
""fullscreenenter"",""1"",""3150""
","
","
","""event"",""trial"",""time""
""fullscreenenter"",""1"",""3150""
","
","","","","","","1856","images/horse6.png","","","memory_trial","4","definitely_new",""
"html-keyboard-response","144","433589","0.0-18.0-0.50","8072","approach_avoid_sv1","""event"",""trial"",""time""
""fullscreenenter"",""1"",""3150""
","
","
","""event"",""trial"",""time""
""fullscreenenter"",""1"",""3150""
","
","","","","","","null","<div style=""font-size:60px;"">+</div>","null","","fixation","","",""
"memory-trial","145","436680","0.0-18.0-1.50","8072","approach_avoid_sv1","""event"",""trial"",""time""
""fullscreenenter"",""1"",""3150""
","
","
","""event"",""trial"",""time""
""fullscreenenter"",""1"",""3150""
","
","","","","","","2085.7999992370605","images/banana7.png","","","memory_trial","4","definitely_new",""
"html-keyboard-response","146","437184","0.0-18.0-0.51","8072","approach_avoid_sv1","""event"",""trial"",""time""
""fullscreenenter"",""1"",""3150""
","
","
","""event"",""trial"",""time""
""fullscreenenter"",""1"",""3150""
","
","","","","","","null","<div style=""font-size:60px;"">+</div>","null","","fixation","","",""
"memory-trial","147","439423","0.0-18.0-1.51","8072","approach_avoid_sv1","""event"",""trial"",""time""
""fullscreenenter"",""1"",""3150""
","
","
","""event"",""trial"",""time""
""fullscreenenter"",""1"",""3150""
","
","","","","","","1229.7999992370605","images/cat6.png","","","memory_trial","4","definitely_new",""
"html-keyboard-response","148","439927","0.0-18.0-0.52","8072","approach_avoid_sv1","""event"",""trial"",""time""
""fullscreenenter"",""1"",""3150""
","
","
","""event"",""trial"",""time""
""fullscreenenter"",""1"",""3150""
","
","","","","","","null","<div style=""font-size:60px;"">+</div>","null","","fixation","","",""
"memory-trial","149","441608","0.0-18.0-1.52","8072","approach_avoid_sv1","""event"",""trial"",""time""
""fullscreenenter"",""1"",""3150""
","
","
","""event"",""trial"",""time""
""fullscreenenter"",""1"",""3150""
","
","","","","","","669.8999996185303","images/truck6.png","","","memory_trial","4","definitely_new",""
"html-keyboard-response","150","442112","0.0-18.0-0.53","8072","approach_avoid_sv1","""event"",""trial"",""time""
""fullscreenenter"",""1"",""3150""
","
","
","""event"",""trial"",""time""
""fullscreenenter"",""1"",""3150""
","
","","","","","","null","<div style=""font-size:60px;"">+</div>","null","","fixation","","",""
"memory-trial","151","443727","0.0-18.0-1.53","8072","approach_avoid_sv1","""event"",""trial"",""time""
""fullscreenenter"",""1"",""3150""
","
","
","""event"",""trial"",""time""
""fullscreenenter"",""1"",""3150""
","
","","","","","","605.4000015258789","images/boat6.png","","","memory_trial","4","definitely_new",""
"html-keyboard-response","152","444233","0.0-18.0-0.54","8072","approach_avoid_sv1","""event"",""trial"",""time""
""fullscreenenter"",""1"",""3150""
","
","
","""event"",""trial"",""time""
""fullscreenenter"",""1"",""3150""
","
","","","","","","null","<div style=""font-size:60px;"">+</div>","null","","fixation","","",""
"memory-trial","153","446279","0.0-18.0-1.54","8072","approach_avoid_sv1","""event"",""trial"",""time""
""fullscreenenter"",""1"",""3150""
","
","
","""event"",""trial"",""time""
""fullscreenenter"",""1"",""3150""
","
","","","","","","1041.5","images/horse7.png","","","memory_trial","4","definitely_new",""
"html-keyboard-response","154","446784","0.0-18.0-0.55","8072","approach_avoid_sv1","""event"",""trial"",""time""
""fullscreenenter"",""1"",""3150""
","
","
","""event"",""trial"",""time""
""fullscreenenter"",""1"",""3150""
","
","","","","","","null","<div style=""font-size:60px;"">+</div>","null","","fixation","","",""
"memory-trial","155","448503","0.0-18.0-1.55","8072","approach_avoid_sv1","""event"",""trial"",""time""
""fullscreenenter"",""1"",""3150""
","
","
","""event"",""trial"",""time""
""fullscreenenter"",""1"",""3150""
","
","","","","","","718.2000007629395","images/horse2.png","","","memory_trial","4","definitely_new",""
"html-keyboard-response","156","449007","0.0-18.0-0.56","8072","approach_avoid_sv1","""event"",""trial"",""time""
""fullscreenenter"",""1"",""3150""
","
","
","""event"",""trial"",""time""
""fullscreenenter"",""1"",""3150""
","
","","","","","","null","<div style=""font-size:60px;"">+</div>","null","","fixation","","",""
"memory-trial","157","451256","0.0-18.0-1.56","8072","approach_avoid_sv1","""event"",""trial"",""time""
""fullscreenenter"",""1"",""3150""
","
","
","""event"",""trial"",""time""
""fullscreenenter"",""1"",""3150""
","
","","","","","","1243.1000003814697","images/cat5.png","","","memory_trial","4","definitely_new",""
"html-keyboard-response","158","451760","0.0-18.0-0.57","8072","approach_avoid_sv1","""event"",""trial"",""time""
""fullscreenenter"",""1"",""3150""
","
","
","""event"",""trial"",""time""
""fullscreenenter"",""1"",""3150""
","
","","","","","","null","<div style=""font-size:60px;"">+</div>","null","","fixation","","",""
"memory-trial","159","453672","0.0-18.0-1.57","8072","approach_avoid_sv1","""event"",""trial"",""time""
""fullscreenenter"",""1"",""3150""
","
","
","""event"",""trial"",""time""
""fullscreenenter"",""1"",""3150""
","
","","","","","","908.8999996185303","images/plane6.png","","","memory_trial","4","definitely_new",""
"html-keyboard-response","160","454176","0.0-18.0-0.58","8072","approach_avoid_sv1","""event"",""trial"",""time""
""fullscreenenter"",""1"",""3150""
","
","
","""event"",""trial"",""time""
""fullscreenenter"",""1"",""3150""
","
","","","","","","null","<div style=""font-size:60px;"">+</div>","null","","fixation","","",""
"memory-trial","161","456205","0.0-18.0-1.58","8072","approach_avoid_sv1","""event"",""trial"",""time""
""fullscreenenter"",""1"",""3150""
","
","
","""event"",""trial"",""time""
""fullscreenenter"",""1"",""3150""
","
","","","","","","1007.1000003814697","images/orange2.png","","","memory_trial","4","definitely_new",""
"html-keyboard-response","162","456718","0.0-18.0-0.59","8072","approach_avoid_sv1","""event"",""trial"",""time""
""fullscreenenter"",""1"",""3150""
","
","
","""event"",""trial"",""time""
""fullscreenenter"",""1"",""3150""
","
","","","","","","null","<div style=""font-size:60px;"">+</div>","null","","fixation","","",""
"memory-trial","163","459368","0.0-18.0-1.59","8072","approach_avoid_sv1","""event"",""trial"",""time""
""fullscreenenter"",""1"",""3150""
","
","
","""event"",""trial"",""time""
""fullscreenenter"",""1"",""3150""
","
","","","","","","1646.2999992370605","images/rodent6.png","","","memory_trial","1","definitely_old",""
"html-keyboard-response","164","459872","0.0-18.0-0.60","8072","approach_avoid_sv1","""event"",""trial"",""time""
""fullscreenenter"",""1"",""3150""
","
","
","""event"",""trial"",""time""
""fullscreenenter"",""1"",""3150""
","
","","","","","","null","<div style=""font-size:60px;"">+</div>","null","","fixation","","",""
"memory-trial","165","462103","0.0-18.0-1.60","8072","approach_avoid_sv1","""event"",""trial"",""time""
""fullscreenenter"",""1"",""3150""
","
","
","""event"",""trial"",""time""
""fullscreenenter"",""1"",""3150""
","
","","","","","","1221.6999988555908","images/plane5.png","","","memory_trial","4","definitely_new",""
"html-keyboard-response","166","462608","0.0-18.0-0.61","8072","approach_avoid_sv1","""event"",""trial"",""time""
""fullscreenenter"",""1"",""3150""
","
","
","""event"",""trial"",""time""
""fullscreenenter"",""1"",""3150""
","
","","","","","","null","<div style=""font-size:60px;"">+</div>","null","","fixation","","",""
"memory-trial","167","465199","0.0-18.0-1.61","8072","approach_avoid_sv1","""event"",""trial"",""time""
""fullscreenenter"",""1"",""3150""
","
","
","""event"",""trial"",""time""
""fullscreenenter"",""1"",""3150""
","
","","","","","","1585.2999992370605","images/goat3.png","","","memory_trial","1","definitely_old",""
"html-keyboard-response","168","465705","0.0-18.0-0.62","8072","approach_avoid_sv1","""event"",""trial"",""time""
""fullscreenenter"",""1"",""3150""
","
","
","""event"",""trial"",""time""
""fullscreenenter"",""1"",""3150""
","
","","","","","","null","<div style=""font-size:60px;"">+</div>","null","","fixation","","",""
"memory-trial","169","468233","0.0-18.0-1.62","8072","approach_avoid_sv1","""event"",""trial"",""time""
""fullscreenenter"",""1"",""3150""
","
","
","""event"",""trial"",""time""
""fullscreenenter"",""1"",""3150""
","
","","","","","","1521.2000007629395","images/cat3.png","","","memory_trial","4","definitely_new",""
"html-keyboard-response","170","468735","0.0-18.0-0.63","8072","approach_avoid_sv1","""event"",""trial"",""time""
""fullscreenenter"",""1"",""3150""
","
","
","""event"",""trial"",""time""
""fullscreenenter"",""1"",""3150""
","
","","","","","","null","<div style=""font-size:60px;"">+</div>","null","","fixation","","",""
"memory-trial","171","471337","0.0-18.0-1.63","8072","approach_avoid_sv1","""event"",""trial"",""time""
""fullscreenenter"",""1"",""3150""
","
","
","""event"",""trial"",""time""
""fullscreenenter"",""1"",""3150""
","
","","","","","","1593","images/rabbit3.png","","","memory_trial","1","definitely_old",""
"html-keyboard-response","172","471840","0.0-18.0-0.64","8072","approach_avoid_sv1","""event"",""trial"",""time""
""fullscreenenter"",""1"",""3150""
","
","
","""event"",""trial"",""time""
""fullscreenenter"",""1"",""3150""
","
","","","","","","null","<div style=""font-size:60px;"">+</div>","null","","fixation","","",""
"memory-trial","173","474240","0.0-18.0-1.64","8072","approach_avoid_sv1","""event"",""trial"",""time""
""fullscreenenter"",""1"",""3150""
","
","
","""event"",""trial"",""time""
""fullscreenenter"",""1"",""3150""
","
","","","","","","1390.8999996185303","images/chair6.png","","","memory_trial","1","definitely_old",""
"html-keyboard-response","174","474743","0.0-18.0-0.65","8072","approach_avoid_sv1","""event"",""trial"",""time""
""fullscreenenter"",""1"",""3150""
","
","
","""event"",""trial"",""time""
""fullscreenenter"",""1"",""3150""
","
","","","","","","null","<div style=""font-size:60px;"">+</div>","null","","fixation","","",""
"memory-trial","175","476816","0.0-18.0-1.65","8072","approach_avoid_sv1","""event"",""trial"",""time""
""fullscreenenter"",""1"",""3150""
","
","
","""event"",""trial"",""time""
""fullscreenenter"",""1"",""3150""
","
","","","","","","1068.6999988555908","images/sheep6.png","","","memory_trial","1","definitely_old",""
"html-keyboard-response","176","477320","0.0-18.0-0.66","8072","approach_avoid_sv1","""event"",""trial"",""time""
""fullscreenenter"",""1"",""3150""
","
","
","""event"",""trial"",""time""
""fullscreenenter"",""1"",""3150""
","
","","","","","","null","<div style=""font-size:60px;"">+</div>","null","","fixation","","",""
"memory-trial","177","480087","0.0-18.0-1.66","8072","approach_avoid_sv1","""event"",""trial"",""time""
""fullscreenenter"",""1"",""3150""
","
","
","""event"",""trial"",""time""
""fullscreenenter"",""1"",""3150""
","
","","","","","","1751.599998474121","images/cat1.png","","","memory_trial","4","definitely_new",""
"html-keyboard-response","178","480603","0.0-18.0-0.67","8072","approach_avoid_sv1","""event"",""trial"",""time""
""fullscreenenter"",""1"",""3150""
","
","
","""event"",""trial"",""time""
""fullscreenenter"",""1"",""3150""
","
","","","","","","null","<div style=""font-size:60px;"">+</div>","null","","fixation","","",""
"memory-trial","179","482792","0.0-18.0-1.67","8072","approach_avoid_sv1","""event"",""trial"",""time""
""fullscreenenter"",""1"",""3150""
","
","
","""event"",""trial"",""time""
""fullscreenenter"",""1"",""3150""
","
","","","","","","1179.2999992370605","images/chair4.png","","","memory_trial","1","definitely_old",""
"html-keyboard-response","180","483296","0.0-18.0-0.68","8072","approach_avoid_sv1","""event"",""trial"",""time""
""fullscreenenter"",""1"",""3150""
","
","
","""event"",""trial"",""time""
""fullscreenenter"",""1"",""3150""
","
","","","","","","null","<div style=""font-size:60px;"">+</div>","null","","fixation","","",""
"memory-trial","181","487752","0.0-18.0-1.68","8072","approach_avoid_sv1","""event"",""trial"",""time""
""fullscreenenter"",""1"",""3150""
","
","
","""event"",""trial"",""time""
""fullscreenenter"",""1"",""3150""
","
","","","","","","3451.099998474121","images/dog4.png","","","memory_trial","1","definitely_old",""
"html-keyboard-response","182","488255","0.0-18.0-0.69","8072","approach_avoid_sv1","""event"",""trial"",""time""
""fullscreenenter"",""1"",""3150""
","
","
","""event"",""trial"",""time""
""fullscreenenter"",""1"",""3150""
","
","","","","","","null","<div style=""font-size:60px;"">+</div>","null","","fixation","","",""
"memory-trial","183","490264","0.0-18.0-1.69","8072","approach_avoid_sv1","""event"",""trial"",""time""
""fullscreenenter"",""1"",""3150""
","
","
","""event"",""trial"",""time""
""fullscreenenter"",""1"",""3150""
","
","","","","","","1003.2999992370605","images/cactus4.png","","","memory_trial","1","definitely_old",""
"html-keyboard-response","184","490768","0.0-18.0-0.70","8072","approach_avoid_sv1","""event"",""trial"",""time""
""fullscreenenter"",""1"",""3150""
","
","
","""event"",""trial"",""time""
""fullscreenenter"",""1"",""3150""
","
","","","","","","null","<div style=""font-size:60px;"">+</div>","null","","fixation","","",""
"memory-trial","185","493128","0.0-18.0-1.70","8072","approach_avoid_sv1","""event"",""trial"",""time""
""fullscreenenter"",""1"",""3150""
","
","
","""event"",""trial"",""time""
""fullscreenenter"",""1"",""3150""
","
","","","","","","1352.1000003814697","images/banana1.png","","","memory_trial","4","definitely_new",""
"html-keyboard-response","186","493633","0.0-18.0-0.71","8072","approach_avoid_sv1","""event"",""trial"",""time""
""fullscreenenter"",""1"",""3150""
","
","
","""event"",""trial"",""time""
""fullscreenenter"",""1"",""3150""
","
","","","","","","null","<div style=""font-size:60px;"">+</div>","null","","fixation","","",""
"memory-trial","187","495312","0.0-18.0-1.71","8072","approach_avoid_sv1","""event"",""trial"",""time""
""fullscreenenter"",""1"",""3150""
","
","
","""event"",""trial"",""time""
""fullscreenenter"",""1"",""3150""
","
","","","","","","672.8999996185303","images/truck8.png","","","memory_trial","4","definitely_new",""
"html-keyboard-response","188","495815","0.0-18.0-0.72","8072","approach_avoid_sv1","""event"",""trial"",""time""
""fullscreenenter"",""1"",""3150""
","
","
","""event"",""trial"",""time""
""fullscreenenter"",""1"",""3150""
","
","","","","","","null","<div style=""font-size:60px;"">+</div>","null","","fixation","","",""
"memory-trial","189","498120","0.0-18.0-1.72","8072","approach_avoid_sv1","""event"",""trial"",""time""
""fullscreenenter"",""1"",""3150""
","
","
","""event"",""trial"",""time""
""fullscreenenter"",""1"",""3150""
","
","","","","","","1297.3999996185303","images/bush2.png","","","memory_trial","4","definitely_new",""
"html-keyboard-response","190","498624","0.0-18.0-0.73","8072","approach_avoid_sv1","""event"",""trial"",""time""
""fullscreenenter"",""1"",""3150""
","
","
","""event"",""trial"",""time""
""fullscreenenter"",""1"",""3150""
","
","","","","","","null","<div style=""font-size:60px;"">+</div>","null","","fixation","","",""
"memory-trial","191","500513","0.0-18.0-1.73","8072","approach_avoid_sv1","""event"",""trial"",""time""
""fullscreenenter"",""1"",""3150""
","
","
","""event"",""trial"",""time""
""fullscreenenter"",""1"",""3150""
","
","","","","","","883.8999996185303","images/rabbit2.png","","","memory_trial","1","definitely_old",""
"html-keyboard-response","192","501027","0.0-18.0-0.74","8072","approach_avoid_sv1","""event"",""trial"",""time""
""fullscreenenter"",""1"",""3150""
","
","
","""event"",""trial"",""time""
""fullscreenenter"",""1"",""3150""
","
","","","","","","null","<div style=""font-size:60px;"">+</div>","null","","fixation","","",""
"memory-trial","193","502699","0.0-18.0-1.74","8072","approach_avoid_sv1","""event"",""trial"",""time""
""fullscreenenter"",""1"",""3150""
","
","
","""event"",""trial"",""time""
""fullscreenenter"",""1"",""3150""
","
","","","","","","659.5999984741211","images/plane1.png","","","memory_trial","4","definitely_new",""
"html-keyboard-response","194","503208","0.0-18.0-0.75","8072","approach_avoid_sv1","""event"",""trial"",""time""
""fullscreenenter"",""1"",""3150""
","
","
","""event"",""trial"",""time""
""fullscreenenter"",""1"",""3150""
","
","","","","","","null","<div style=""font-size:60px;"">+</div>","null","","fixation","","",""
"memory-trial","195","505104","0.0-18.0-1.75","8072","approach_avoid_sv1","""event"",""trial"",""time""
""fullscreenenter"",""1"",""3150""
","
","
","""event"",""trial"",""time""
""fullscreenenter"",""1"",""3150""
","
","","","","","","891.7999992370605","images/goat6.png","","","memory_trial","1","definitely_old",""
"html-keyboard-response","196","505616","0.0-18.0-0.76","8072","approach_avoid_sv1","""event"",""trial"",""time""
""fullscreenenter"",""1"",""3150""
","
","
","""event"",""trial"",""time""
""fullscreenenter"",""1"",""3150""
","
","","","","","","null","<div style=""font-size:60px;"">+</div>","null","","fixation","","",""
"memory-trial","197","507720","0.0-18.0-1.76","8072","approach_avoid_sv1","""event"",""trial"",""time""
""fullscreenenter"",""1"",""3150""
","
","
","""event"",""trial"",""time""
""fullscreenenter"",""1"",""3150""
","
","","","","","","1098.7999992370605","images/table1.png","","","memory_trial","1","definitely_old",""
"html-keyboard-response","198","508223","0.0-18.0-0.77","8072","approach_avoid_sv1","""event"",""trial"",""time""
""fullscreenenter"",""1"",""3150""
","
","
","""event"",""trial"",""time""
""fullscreenenter"",""1"",""3150""
","
","","","","","","null","<div style=""font-size:60px;"">+</div>","null","","fixation","","",""
"memory-trial","199","509857","0.0-18.0-1.77","8072","approach_avoid_sv1","""event"",""trial"",""time""
""fullscreenenter"",""1"",""3150""
","
","
","""event"",""trial"",""time""
""fullscreenenter"",""1"",""3150""
","
","","","","","","629.7000007629395","images/boat5.png","","","memory_trial","4","definitely_new",""
"html-keyboard-response","200","510368","0.0-18.0-0.78","8072","approach_avoid_sv1","""event"",""trial"",""time""
""fullscreenenter"",""1"",""3150""
","
","
","""event"",""trial"",""time""
""fullscreenenter"",""1"",""3150""
","
","","","","","","null","<div style=""font-size:60px;"">+</div>","null","","fixation","","",""
"memory-trial","201","512264","0.0-18.0-1.78","8072","approach_avoid_sv1","""event"",""trial"",""time""
""fullscreenenter"",""1"",""3150""
","
","
","""event"",""trial"",""time""
""fullscreenenter"",""1"",""3150""
","
","","","","","","886.8999996185303","images/straw5.png","","","memory_trial","1","definitely_old",""
"html-keyboard-response","202","512768","0.0-18.0-0.79","8072","approach_avoid_sv1","""event"",""trial"",""time""
""fullscreenenter"",""1"",""3150""
","
","
","""event"",""trial"",""time""
""fullscreenenter"",""1"",""3150""
","
","","","","","","null","<div style=""font-size:60px;"">+</div>","null","","fixation","","",""
"memory-trial","203","514823","0.0-18.0-1.79","8072","approach_avoid_sv1","""event"",""trial"",""time""
""fullscreenenter"",""1"",""3150""
","
","
","""event"",""trial"",""time""
""fullscreenenter"",""1"",""3150""
","
","","","","","","1052.1000003814697","images/bush4.png","","","memory_trial","4","definitely_new",""
"html-keyboard-response","204","515327","0.0-18.0-0.80","8072","approach_avoid_sv1","""event"",""trial"",""time""
""fullscreenenter"",""1"",""3150""
","
","
","""event"",""trial"",""time""
""fullscreenenter"",""1"",""3150""
","
","","","","","","null","<div style=""font-size:60px;"">+</div>","null","","fixation","","",""
"memory-trial","205","519408","0.0-18.0-1.80","8072","approach_avoid_sv1","""event"",""trial"",""time""
""fullscreenenter"",""1"",""3150""
","
","
","""event"",""trial"",""time""
""fullscreenenter"",""1"",""3150""
","
","","","","","","3074.099998474121","images/chair5.png","","","memory_trial","1","definitely_old",""
"html-keyboard-response","206","519912","0.0-18.0-0.81","8072","approach_avoid_sv1","""event"",""trial"",""time""
""fullscreenenter"",""1"",""3150""
","
","
","""event"",""trial"",""time""
""fullscreenenter"",""1"",""3150""
","
","","","","","","null","<div style=""font-size:60px;"">+</div>","null","","fixation","","",""
"memory-trial","207","527462","0.0-18.0-1.81","8072","approach_avoid_sv1","""event"",""trial"",""time""
""fullscreenenter"",""1"",""3150""
","
","
","""event"",""trial"",""time""
""fullscreenenter"",""1"",""3150""
","
","","","","","","6532.699998855591","images/cat8.png","","","memory_trial","4","definitely_new",""
"html-keyboard-response","208","527967","0.0-18.0-0.82","8072","approach_avoid_sv1","""event"",""trial"",""time""
""fullscreenenter"",""1"",""3150""
","
","
","""event"",""trial"",""time""
""fullscreenenter"",""1"",""3150""
","
","","","","","","null","<div style=""font-size:60px;"">+</div>","null","","fixation","","",""
"memory-trial","209","529880","0.0-18.0-1.82","8072","approach_avoid_sv1","""event"",""trial"",""time""
""fullscreenenter"",""1"",""3150""
","
","
","""event"",""trial"",""time""
""fullscreenenter"",""1"",""3150""
","
","","","","","","901.2000007629395","images/sheep3.png","","","memory_trial","1","definitely_old",""
"html-keyboard-response","210","530383","0.0-18.0-0.83","8072","approach_avoid_sv1","""event"",""trial"",""time""
""fullscreenenter"",""1"",""3150""
","
","
","""event"",""trial"",""time""
""fullscreenenter"",""1"",""3150""
","
","","","","","","null","<div style=""font-size:60px;"">+</div>","null","","fixation","","",""
"memory-trial","211","533456","0.0-18.0-1.83","8072","approach_avoid_sv1","""event"",""trial"",""time""
""fullscreenenter"",""1"",""3150""
","
","
","""event"",""trial"",""time""
""fullscreenenter"",""1"",""3150""
","
","","","","","","2064.2999992370605","images/sofa2.png","","","memory_trial","1","definitely_old",""
"html-keyboard-response","212","533960","0.0-18.0-0.84","8072","approach_avoid_sv1","""event"",""trial"",""time""
""fullscreenenter"",""1"",""3150""
","
","
","""event"",""trial"",""time""
""fullscreenenter"",""1"",""3150""
","
","","","","","","null","<div style=""font-size:60px;"">+</div>","null","","fixation","","",""
"memory-trial","213","535968","0.0-18.0-1.84","8072","approach_avoid_sv1","""event"",""trial"",""time""
""fullscreenenter"",""1"",""3150""
","
","
","""event"",""trial"",""time""
""fullscreenenter"",""1"",""3150""
","
","","","","","","1004.1000003814697","images/truck3.png","","","memory_trial","4","definitely_new",""
"html-keyboard-response","214","536473","0.0-18.0-0.85","8072","approach_avoid_sv1","""event"",""trial"",""time""
""fullscreenenter"",""1"",""3150""
","
","
","""event"",""trial"",""time""
""fullscreenenter"",""1"",""3150""
","
","","","","","","null","<div style=""font-size:60px;"">+</div>","null","","fixation","","",""
"memory-trial","215","538603","0.0-18.0-1.85","8072","approach_avoid_sv1","""event"",""trial"",""time""
""fullscreenenter"",""1"",""3150""
","
","
","""event"",""trial"",""time""
""fullscreenenter"",""1"",""3150""
","
","","","","","","1123.8999996185303","images/sofa5.png","","","memory_trial","1","definitely_old",""
"html-keyboard-response","216","539112","0.0-18.0-0.86","8072","approach_avoid_sv1","""event"",""trial"",""time""
""fullscreenenter"",""1"",""3150""
","
","
","""event"",""trial"",""time""
""fullscreenenter"",""1"",""3150""
","
","","","","","","null","<div style=""font-size:60px;"">+</div>","null","","fixation","","",""
"memory-trial","217","540450","0.0-18.0-1.86","8072","approach_avoid_sv1","""event"",""trial"",""time""
""fullscreenenter"",""1"",""3150""
","
","
","""event"",""trial"",""time""
""fullscreenenter"",""1"",""3150""
","
","","","","","","329.5","images/dog5.png","","","memory_trial","4","definitely_new",""
"html-keyboard-response","218","540952","0.0-18.0-0.87","8072","approach_avoid_sv1","""event"",""trial"",""time""
""fullscreenenter"",""1"",""3150""
","
","
","""event"",""trial"",""time""
""fullscreenenter"",""1"",""3150""
","
","","","","","","null","<div style=""font-size:60px;"">+</div>","null","","fixation","","",""
"memory-trial","219","544706","0.0-18.0-1.87","8072","approach_avoid_sv1","""event"",""trial"",""time""
""fullscreenenter"",""1"",""3150""
","
","
","""event"",""trial"",""time""
""fullscreenenter"",""1"",""3150""
","
","","","","","","2750.1000003814697","images/bed7.png","","","memory_trial","4","definitely_new",""
"html-keyboard-response","220","545215","0.0-18.0-0.88","8072","approach_avoid_sv1","""event"",""trial"",""time""
""fullscreenenter"",""1"",""3150""
","
","
","""event"",""trial"",""time""
""fullscreenenter"",""1"",""3150""
","
","","","","","","null","<div style=""font-size:60px;"">+</div>","null","","fixation","","",""
"memory-trial","221","548080","0.0-18.0-1.88","8072","approach_avoid_sv1","""event"",""trial"",""time""
""fullscreenenter"",""1"",""3150""
","
","
","""event"",""trial"",""time""
""fullscreenenter"",""1"",""3150""
","
","","","","","","1858","images/cow1.png","","","memory_trial","4","definitely_new",""
"html-keyboard-response","222","548584","0.0-18.0-0.89","8072","approach_avoid_sv1","""event"",""trial"",""time""
""fullscreenenter"",""1"",""3150""
","
","
","""event"",""trial"",""time""
""fullscreenenter"",""1"",""3150""
","
","","","","","","null","<div style=""font-size:60px;"">+</div>","null","","fixation","","",""
"memory-trial","223","551033","0.0-18.0-1.89","8072","approach_avoid_sv1","""event"",""trial"",""time""
""fullscreenenter"",""1"",""3150""
","
","
","""event"",""trial"",""time""
""fullscreenenter"",""1"",""3150""
","
","","","","","","1436.8999996185303","images/chair7.png","","","memory_trial","4","definitely_new",""
"html-keyboard-response","224","551535","0.0-18.0-0.90","8072","approach_avoid_sv1","""event"",""trial"",""time""
""fullscreenenter"",""1"",""3150""
","
","
","""event"",""trial"",""time""
""fullscreenenter"",""1"",""3150""
","
","","","","","","null","<div style=""font-size:60px;"">+</div>","null","","fixation","","",""
"memory-trial","225","553297","0.0-18.0-1.90","8072","approach_avoid_sv1","""event"",""trial"",""time""
""fullscreenenter"",""1"",""3150""
","
","
","""event"",""trial"",""time""
""fullscreenenter"",""1"",""3150""
","
","","","","","","752.2000007629395","images/horse5.png","","","memory_trial","4","definitely_new",""
"html-keyboard-response","226","553801","0.0-18.0-0.91","8072","approach_avoid_sv1","""event"",""trial"",""time""
""fullscreenenter"",""1"",""3150""
","
","
","""event"",""trial"",""time""
""fullscreenenter"",""1"",""3150""
","
","","","","","","null","<div style=""font-size:60px;"">+</div>","null","","fixation","","",""
"memory-trial","227","555448","0.0-18.0-1.91","8072","approach_avoid_sv1","""event"",""trial"",""time""
""fullscreenenter"",""1"",""3150""
","
","
","""event"",""trial"",""time""
""fullscreenenter"",""1"",""3150""
","
","","","","","","639.0999984741211","images/horse3.png","","","memory_trial","4","definitely_new",""
"html-button-response","228","556953","0.0-18.0-2.91-0.91","8072","approach_avoid_sv1","""event"",""trial"",""time""
""fullscreenenter"",""1"",""3150""
","
","
","""event"",""trial"",""time""
""fullscreenenter"",""1"",""3150""
","
","","","","","","1504.3999996185303","<p> Take a break! </p><p> Click the button to continue. </p>","0","","break","","",""
"html-keyboard-response","229","557456","0.0-18.0-0.92","8072","approach_avoid_sv1","""event"",""trial"",""time""
""fullscreenenter"",""1"",""3150""
","
","
","""event"",""trial"",""time""
""fullscreenenter"",""1"",""3150""
","
","","","","","","null","<div style=""font-size:60px;"">+</div>","null","","fixation","","",""
"memory-trial","230","561319","0.0-18.0-1.92","8072","approach_avoid_sv1","""event"",""trial"",""time""
""fullscreenenter"",""1"",""3150""
","
","
","""event"",""trial"",""time""
""fullscreenenter"",""1"",""3150""
","
","","","","","","2845.3999996185303","images/apple1.png","","","memory_trial","1","definitely_old",""
"html-keyboard-response","231","561824","0.0-18.0-0.93","8072","approach_avoid_sv1","""event"",""trial"",""time""
""fullscreenenter"",""1"",""3150""
","
","
","""event"",""trial"",""time""
""fullscreenenter"",""1"",""3150""
","
","","","","","","null","<div style=""font-size:60px;"">+</div>","null","","fixation","","",""
"memory-trial","232","564175","0.0-18.0-1.93","8072","approach_avoid_sv1","""event"",""trial"",""time""
""fullscreenenter"",""1"",""3150""
","
","
","""event"",""trial"",""time""
""fullscreenenter"",""1"",""3150""
","
","","","","","","1342.3999996185303","images/cow4.png","","","memory_trial","1","definitely_old",""
"html-keyboard-response","233","564679","0.0-18.0-0.94","8072","approach_avoid_sv1","""event"",""trial"",""time""
""fullscreenenter"",""1"",""3150""
","
","
","""event"",""trial"",""time""
""fullscreenenter"",""1"",""3150""
","
","","","","","","null","<div style=""font-size:60px;"">+</div>","null","","fixation","","",""
"memory-trial","234","568584","0.0-18.0-1.94","8072","approach_avoid_sv1","""event"",""trial"",""time""
""fullscreenenter"",""1"",""3150""
","
","
","""event"",""trial"",""time""
""fullscreenenter"",""1"",""3150""
","
","","","","","","2894.599998474121","images/cow6.png","","","memory_trial","1","definitely_old",""
"html-keyboard-response","235","569087","0.0-18.0-0.95","8072","approach_avoid_sv1","""event"",""trial"",""time""
""fullscreenenter"",""1"",""3150""
","
","
","""event"",""trial"",""time""
""fullscreenenter"",""1"",""3150""
","
","","","","","","null","<div style=""font-size:60px;"">+</div>","null","","fixation","","",""
"memory-trial","236","571408","0.0-18.0-1.95","8072","approach_avoid_sv1","""event"",""trial"",""time""
""fullscreenenter"",""1"",""3150""
","
","
","""event"",""trial"",""time""
""fullscreenenter"",""1"",""3150""
","
","","","","","","1312.5","images/dog6.png","","","memory_trial","1","definitely_old",""
"html-keyboard-response","237","571911","0.0-18.0-0.96","8072","approach_avoid_sv1","""event"",""trial"",""time""
""fullscreenenter"",""1"",""3150""
","
","
","""event"",""trial"",""time""
""fullscreenenter"",""1"",""3150""
","
","","","","","","null","<div style=""font-size:60px;"">+</div>","null","","fixation","","",""
"memory-trial","238","573752","0.0-18.0-1.96","8072","approach_avoid_sv1","""event"",""trial"",""time""
""fullscreenenter"",""1"",""3150""
","
","
","""event"",""trial"",""time""
""fullscreenenter"",""1"",""3150""
","
","","","","","","834","images/horse4.png","","","memory_trial","4","definitely_new",""
"html-keyboard-response","239","574256","0.0-18.0-0.97","8072","approach_avoid_sv1","""event"",""trial"",""time""
""fullscreenenter"",""1"",""3150""
","
","
","""event"",""trial"",""time""
""fullscreenenter"",""1"",""3150""
","
","","","","","","null","<div style=""font-size:60px;"">+</div>","null","","fixation","","",""
"memory-trial","240","576728","0.0-18.0-1.97","8072","approach_avoid_sv1","""event"",""trial"",""time""
""fullscreenenter"",""1"",""3150""
","
","
","""event"",""trial"",""time""
""fullscreenenter"",""1"",""3150""
","
","","","","","","1468.5","images/sheep1.png","","","memory_trial","4","definitely_new",""
"html-keyboard-response","241","577231","0.0-18.0-0.98","8072","approach_avoid_sv1","""event"",""trial"",""time""
""fullscreenenter"",""1"",""3150""
","
","
","""event"",""trial"",""time""
""fullscreenenter"",""1"",""3150""
","
","","","","","","null","<div style=""font-size:60px;"">+</div>","null","","fixation","","",""
"memory-trial","242","580860","0.0-18.0-1.98","8072","approach_avoid_sv1","""event"",""trial"",""time""
""fullscreenenter"",""1"",""3150""
","
","
","""event"",""trial"",""time""
""fullscreenenter"",""1"",""3150""
","
","","","","","","2611.8999996185303","images/banana2.png","","","memory_trial","4","definitely_new",""
"html-keyboard-response","243","581369","0.0-18.0-0.99","8072","approach_avoid_sv1","""event"",""trial"",""time""
""fullscreenenter"",""1"",""3150""
","
","
","""event"",""trial"",""time""
""fullscreenenter"",""1"",""3150""
","
","","","","","","null","<div style=""font-size:60px;"">+</div>","null","","fixation","","",""
"memory-trial","244","583209","0.0-18.0-1.99","8072","approach_avoid_sv1","""event"",""trial"",""time""
""fullscreenenter"",""1"",""3150""
","
","
","""event"",""trial"",""time""
""fullscreenenter"",""1"",""3150""
","
","","","","","","829.3999996185303","images/table5.png","","","memory_trial","4","definitely_new",""
"html-keyboard-response","245","583713","0.0-18.0-0.100","8072","approach_avoid_sv1","""event"",""trial"",""time""
""fullscreenenter"",""1"",""3150""
","
","
","""event"",""trial"",""time""
""fullscreenenter"",""1"",""3150""
","
","","","","","","null","<div style=""font-size:60px;"">+</div>","null","","fixation","","",""
"memory-trial","246","585440","0.0-18.0-1.100","8072","approach_avoid_sv1","""event"",""trial"",""time""
""fullscreenenter"",""1"",""3150""
","
","
","""event"",""trial"",""time""
""fullscreenenter"",""1"",""3150""
","
","","","","","","717.7999992370605","images/bush6.png","","","memory_trial","4","definitely_new",""
"html-keyboard-response","247","585947","0.0-18.0-0.101","8072","approach_avoid_sv1","""event"",""trial"",""time""
""fullscreenenter"",""1"",""3150""
","
","
","""event"",""trial"",""time""
""fullscreenenter"",""1"",""3150""
","
","","","","","","null","<div style=""font-size:60px;"">+</div>","null","","fixation","","",""
"memory-trial","248","587999","0.0-18.0-1.101","8072","approach_avoid_sv1","""event"",""trial"",""time""
""fullscreenenter"",""1"",""3150""
","
","
","""event"",""trial"",""time""
""fullscreenenter"",""1"",""3150""
","
","","","","","","1046.099998474121","images/orange1.png","","","memory_trial","4","definitely_new",""
"html-keyboard-response","249","588504","0.0-18.0-0.102","8072","approach_avoid_sv1","""event"",""trial"",""time""
""fullscreenenter"",""1"",""3150""
","
","
","""event"",""trial"",""time""
""fullscreenenter"",""1"",""3150""
","
","","","","","","null","<div style=""font-size:60px;"">+</div>","null","","fixation","","",""
"memory-trial","250","591022","0.0-18.0-1.102","8072","approach_avoid_sv1","""event"",""trial"",""time""
""fullscreenenter"",""1"",""3150""
","
","
","""event"",""trial"",""time""
""fullscreenenter"",""1"",""3150""
","
","","","","","","1505.8000011444092","images/flower1.png","","","memory_trial","1","definitely_old",""
"html-keyboard-response","251","591527","0.0-18.0-0.103","8072","approach_avoid_sv1","""event"",""trial"",""time""
""fullscreenenter"",""1"",""3150""
","
","
","""event"",""trial"",""time""
""fullscreenenter"",""1"",""3150""
","
","","","","","","null","<div style=""font-size:60px;"">+</div>","null","","fixation","","",""
"memory-trial","252","593784","0.0-18.0-1.103","8072","approach_avoid_sv1","""event"",""trial"",""time""
""fullscreenenter"",""1"",""3150""
","
","
","""event"",""trial"",""time""
""fullscreenenter"",""1"",""3150""
","
","","","","","","1249.5","images/rodent4.png","","","memory_trial","1","definitely_old",""
"html-keyboard-response","253","594288","0.0-18.0-0.104","8072","approach_avoid_sv1","""event"",""trial"",""time""
""fullscreenenter"",""1"",""3150""
","
","
","""event"",""trial"",""time""
""fullscreenenter"",""1"",""3150""
","
","","","","","","null","<div style=""font-size:60px;"">+</div>","null","","fixation","","",""
"memory-trial","254","596960","0.0-18.0-1.104","8072","approach_avoid_sv1","""event"",""trial"",""time""
""fullscreenenter"",""1"",""3150""
","
","
","""event"",""trial"",""time""
""fullscreenenter"",""1"",""3150""
","
","","","","","","1669.1000003814697","images/table8.png","","","memory_trial","1","definitely_old",""
"html-keyboard-response","255","597478","0.0-18.0-0.105","8072","approach_avoid_sv1","""event"",""trial"",""time""
""fullscreenenter"",""1"",""3150""
","
","
","""event"",""trial"",""time""
""fullscreenenter"",""1"",""3150""
","
","","","","","","null","<div style=""font-size:60px;"">+</div>","null","","fixation","","",""
"memory-trial","256","599607","0.0-18.0-1.105","8072","approach_avoid_sv1","""event"",""trial"",""time""
""fullscreenenter"",""1"",""3150""
","
","
","""event"",""trial"",""time""
""fullscreenenter"",""1"",""3150""
","
","","","","","","1121.3000011444092","images/apple3.png","","","memory_trial","1","definitely_old",""
"html-keyboard-response","257","600111","0.0-18.0-0.106","8072","approach_avoid_sv1","""event"",""trial"",""time""
""fullscreenenter"",""1"",""3150""
","
","
","""event"",""trial"",""time""
""fullscreenenter"",""1"",""3150""
","
","","","","","","null","<div style=""font-size:60px;"">+</div>","null","","fixation","","",""
"memory-trial","258","602199","0.0-18.0-1.106","8072","approach_avoid_sv1","""event"",""trial"",""time""
""fullscreenenter"",""1"",""3150""
","
","
","""event"",""trial"",""time""
""fullscreenenter"",""1"",""3150""
","
","","","","","","1082.7000007629395","images/bed2.png","","","memory_trial","1","definitely_old",""
"html-keyboard-response","259","602704","0.0-18.0-0.107","8072","approach_avoid_sv1","""event"",""trial"",""time""
""fullscreenenter"",""1"",""3150""
","
","
","""event"",""trial"",""time""
""fullscreenenter"",""1"",""3150""
","
","","","","","","null","<div style=""font-size:60px;"">+</div>","null","","fixation","","",""
"memory-trial","260","604768","0.0-18.0-1.107","8072","approach_avoid_sv1","""event"",""trial"",""time""
""fullscreenenter"",""1"",""3150""
","
","
","""event"",""trial"",""time""
""fullscreenenter"",""1"",""3150""
","
","","","","","","1054.1999988555908","images/rodent8.png","","","memory_trial","1","definitely_old",""
"html-keyboard-response","261","605271","0.0-18.0-0.108","8072","approach_avoid_sv1","""event"",""trial"",""time""
""fullscreenenter"",""1"",""3150""
","
","
","""event"",""trial"",""time""
""fullscreenenter"",""1"",""3150""
","
","","","","","","null","<div style=""font-size:60px;"">+</div>","null","","fixation","","",""
"memory-trial","262","607616","0.0-18.0-1.108","8072","approach_avoid_sv1","""event"",""trial"",""time""
""fullscreenenter"",""1"",""3150""
","
","
","""event"",""trial"",""time""
""fullscreenenter"",""1"",""3150""
","
","","","","","","1334.1000003814697","images/banana4.png","","","memory_trial","1","definitely_old",""
"html-keyboard-response","263","608120","0.0-18.0-0.109","8072","approach_avoid_sv1","""event"",""trial"",""time""
""fullscreenenter"",""1"",""3150""
","
","
","""event"",""trial"",""time""
""fullscreenenter"",""1"",""3150""
","
","","","","","","null","<div style=""font-size:60px;"">+</div>","null","","fixation","","",""
"memory-trial","264","610263","0.0-18.0-1.109","8072","approach_avoid_sv1","""event"",""trial"",""time""
""fullscreenenter"",""1"",""3150""
","
","
","""event"",""trial"",""time""
""fullscreenenter"",""1"",""3150""
","
","","","","","","1137","images/dog1.png","","","memory_trial","1","definitely_old",""
"html-keyboard-response","265","610768","0.0-18.0-0.110","8072","approach_avoid_sv1","""event"",""trial"",""time""
""fullscreenenter"",""1"",""3150""
","
","
","""event"",""trial"",""time""
""fullscreenenter"",""1"",""3150""
","
","","","","","","null","<div style=""font-size:60px;"">+</div>","null","","fixation","","",""
"memory-trial","266","612489","0.0-18.0-1.110","8072","approach_avoid_sv1","""event"",""trial"",""time""
""fullscreenenter"",""1"",""3150""
","
","
","""event"",""trial"",""time""
""fullscreenenter"",""1"",""3150""
","
","","","","","","715.7000007629395","images/dog7.png","","","memory_trial","1","definitely_old",""
"html-keyboard-response","267","612992","0.0-18.0-0.111","8072","approach_avoid_sv1","""event"",""trial"",""time""
""fullscreenenter"",""1"",""3150""
","
","
","""event"",""trial"",""time""
""fullscreenenter"",""1"",""3150""
","
","","","","","","null","<div style=""font-size:60px;"">+</div>","null","","fixation","","",""
"memory-trial","268","615008","0.0-18.0-1.111","8072","approach_avoid_sv1","""event"",""trial"",""time""
""fullscreenenter"",""1"",""3150""
","
","
","""event"",""trial"",""time""
""fullscreenenter"",""1"",""3150""
","
","","","","","","1011.1000003814697","images/boat4.png","","","memory_trial","4","definitely_new",""
"html-keyboard-response","269","615511","0.0-18.0-0.112","8072","approach_avoid_sv1","""event"",""trial"",""time""
""fullscreenenter"",""1"",""3150""
","
","
","""event"",""trial"",""time""
""fullscreenenter"",""1"",""3150""
","
","","","","","","null","<div style=""font-size:60px;"">+</div>","null","","fixation","","",""
"memory-trial","270","618799","0.0-18.0-1.112","8072","approach_avoid_sv1","""event"",""trial"",""time""
""fullscreenenter"",""1"",""3150""
","
","
","""event"",""trial"",""time""
""fullscreenenter"",""1"",""3150""
","
","","","","","","2282","images/tree6.png","","","memory_trial","1","definitely_old",""
"html-keyboard-response","271","619304","0.0-18.0-0.113","8072","approach_avoid_sv1","""event"",""trial"",""time""
""fullscreenenter"",""1"",""3150""
","
","
","""event"",""trial"",""time""
""fullscreenenter"",""1"",""3150""
","
","","","","","","null","<div style=""font-size:60px;"">+</div>","null","","fixation","","",""
"memory-trial","272","622368","0.0-18.0-1.113","8072","approach_avoid_sv1","""event"",""trial"",""time""
""fullscreenenter"",""1"",""3150""
","
","
","""event"",""trial"",""time""
""fullscreenenter"",""1"",""3150""
","
","","","","","","2056.1000003814697","images/bed8.png","","","memory_trial","1","definitely_old",""
"html-keyboard-response","273","622872","0.0-18.0-0.114","8072","approach_avoid_sv1","""event"",""trial"",""time""
""fullscreenenter"",""1"",""3150""
","
","
","""event"",""trial"",""time""
""fullscreenenter"",""1"",""3150""
","
","","","","","","null","<div style=""font-size:60px;"">+</div>","null","","fixation","","",""
"memory-trial","274","624657","0.0-18.0-1.114","8072","approach_avoid_sv1","""event"",""trial"",""time""
""fullscreenenter"",""1"",""3150""
","
","
","""event"",""trial"",""time""
""fullscreenenter"",""1"",""3150""
","
","","","","","","772.5","images/train2.png","","","memory_trial","4","definitely_new",""
"html-keyboard-response","275","625172","0.0-18.0-0.115","8072","approach_avoid_sv1","""event"",""trial"",""time""
""fullscreenenter"",""1"",""3150""
","
","
","""event"",""trial"",""time""
""fullscreenenter"",""1"",""3150""
","
","","","","","","null","<div style=""font-size:60px;"">+</div>","null","","fixation","","",""
"memory-trial","276","628576","0.0-18.0-1.115","8072","approach_avoid_sv1","""event"",""trial"",""time""
""fullscreenenter"",""1"",""3150""
","
","
","""event"",""trial"",""time""
""fullscreenenter"",""1"",""3150""
","
","","","","","","2399.1000003814697","images/tree2.png","","","memory_trial","4","definitely_new",""
"html-keyboard-response","277","629079","0.0-18.0-0.116","8072","approach_avoid_sv1","""event"",""trial"",""time""
""fullscreenenter"",""1"",""3150""
","
","
","""event"",""trial"",""time""
""fullscreenenter"",""1"",""3150""
","
","","","","","","null","<div style=""font-size:60px;"">+</div>","null","","fixation","","",""
"memory-trial","278","631412","0.0-18.0-1.116","8072","approach_avoid_sv1","""event"",""trial"",""time""
""fullscreenenter"",""1"",""3150""
","
","
","""event"",""trial"",""time""
""fullscreenenter"",""1"",""3150""
","
","","","","","","1314.7999992370605","images/apple7.png","","","memory_trial","4","definitely_new",""
"html-keyboard-response","279","631919","0.0-18.0-0.117","8072","approach_avoid_sv1","""event"",""trial"",""time""
""fullscreenenter"",""1"",""3150""
","
","
","""event"",""trial"",""time""
""fullscreenenter"",""1"",""3150""
","
","","","","","","null","<div style=""font-size:60px;"">+</div>","null","","fixation","","",""
"memory-trial","280","633560","0.0-18.0-1.117","8072","approach_avoid_sv1","""event"",""trial"",""time""
""fullscreenenter"",""1"",""3150""
","
","
","""event"",""trial"",""time""
""fullscreenenter"",""1"",""3150""
","
","","","","","","633.5","images/train1.png","","","memory_trial","4","definitely_new",""
"html-keyboard-response","281","634065","0.0-18.0-0.118","8072","approach_avoid_sv1","""event"",""trial"",""time""
""fullscreenenter"",""1"",""3150""
","
","
","""event"",""trial"",""time""
""fullscreenenter"",""1"",""3150""
","
","","","","","","null","<div style=""font-size:60px;"">+</div>","null","","fixation","","",""
"memory-trial","282","635552","0.0-18.0-1.118","8072","approach_avoid_sv1","""event"",""trial"",""time""
""fullscreenenter"",""1"",""3150""
","
","
","""event"",""trial"",""time""
""fullscreenenter"",""1"",""3150""
","
","","","","","","479.6000003814697","images/train3.png","","","memory_trial","4","definitely_new",""
"html-keyboard-response","283","636058","0.0-18.0-0.119","8072","approach_avoid_sv1","""event"",""trial"",""time""
""fullscreenenter"",""1"",""3150""
","
","
","""event"",""trial"",""time""
""fullscreenenter"",""1"",""3150""
","
","","","","","","null","<div style=""font-size:60px;"">+</div>","null","","fixation","","",""
"memory-trial","284","637895","0.0-18.0-1.119","8072","approach_avoid_sv1","""event"",""trial"",""time""
""fullscreenenter"",""1"",""3150""
","
","
","""event"",""trial"",""time""
""fullscreenenter"",""1"",""3150""
","
","","","","","","834.3999996185303","images/rabbit6.png","","","memory_trial","1","definitely_old",""
"html-keyboard-response","285","638399","0.0-18.0-0.120","8072","approach_avoid_sv1","""event"",""trial"",""time""
""fullscreenenter"",""1"",""3150""
","
","
","""event"",""trial"",""time""
""fullscreenenter"",""1"",""3150""
","
","","","","","","null","<div style=""font-size:60px;"">+</div>","null","","fixation","","",""
"memory-trial","286","641673","0.0-18.0-1.120","8072","approach_avoid_sv1","""event"",""trial"",""time""
""fullscreenenter"",""1"",""3150""
","
","
","""event"",""trial"",""time""
""fullscreenenter"",""1"",""3150""
","
","","","","","","2267.2000007629395","images/cactus8.png","","","memory_trial","1","definitely_old",""
"html-keyboard-response","287","642176","0.0-18.0-0.121","8072","approach_avoid_sv1","""event"",""trial"",""time""
""fullscreenenter"",""1"",""3150""
","
","
","""event"",""trial"",""time""
""fullscreenenter"",""1"",""3150""
","
","","","","","","null","<div style=""font-size:60px;"">+</div>","null","","fixation","","",""
"memory-trial","288","644958","0.0-18.0-1.121","8072","approach_avoid_sv1","""event"",""trial"",""time""
""fullscreenenter"",""1"",""3150""
","
","
","""event"",""trial"",""time""
""fullscreenenter"",""1"",""3150""
","
","","","","","","1770.3999996185303","images/dog2.png","","","memory_trial","1","definitely_old",""
"html-keyboard-response","289","645473","0.0-18.0-0.122","8072","approach_avoid_sv1","""event"",""trial"",""time""
""fullscreenenter"",""1"",""3150""
","
","
","""event"",""trial"",""time""
""fullscreenenter"",""1"",""3150""
","
","","","","","","null","<div style=""font-size:60px;"">+</div>","null","","fixation","","",""
"memory-trial","290","647984","0.0-18.0-1.122","8072","approach_avoid_sv1","""event"",""trial"",""time""
""fullscreenenter"",""1"",""3150""
","
","
","""event"",""trial"",""time""
""fullscreenenter"",""1"",""3150""
","
","","","","","","1506.8999996185303","images/flower2.png","","","memory_trial","1","definitely_old",""
"html-keyboard-response","291","648497","0.0-18.0-0.123","8072","approach_avoid_sv1","""event"",""trial"",""time""
""fullscreenenter"",""1"",""3150""
","
","
","""event"",""trial"",""time""
""fullscreenenter"",""1"",""3150""
","
","","","","","","null","<div style=""font-size:60px;"">+</div>","null","","fixation","","",""
"memory-trial","292","650215","0.0-18.0-1.123","8072","approach_avoid_sv1","""event"",""trial"",""time""
""fullscreenenter"",""1"",""3150""
","
","
","""event"",""trial"",""time""
""fullscreenenter"",""1"",""3150""
","
","","","","","","715","images/cat4.png","","","memory_trial","1","definitely_old",""
"html-keyboard-response","293","650719","0.0-18.0-0.124","8072","approach_avoid_sv1","""event"",""trial"",""time""
""fullscreenenter"",""1"",""3150""
","
","
","""event"",""trial"",""time""
""fullscreenenter"",""1"",""3150""
","
","","","","","","null","<div style=""font-size:60px;"">+</div>","null","","fixation","","",""
"memory-trial","294","653071","0.0-18.0-1.124","8072","approach_avoid_sv1","""event"",""trial"",""time""
""fullscreenenter"",""1"",""3150""
","
","
","""event"",""trial"",""time""
""fullscreenenter"",""1"",""3150""
","
","","","","","","1347.2000007629395","images/sofa1.png","","","memory_trial","4","definitely_new",""
"html-keyboard-response","295","653576","0.0-18.0-0.125","8072","approach_avoid_sv1","""event"",""trial"",""time""
""fullscreenenter"",""1"",""3150""
","
","
","""event"",""trial"",""time""
""fullscreenenter"",""1"",""3150""
","
","","","","","","null","<div style=""font-size:60px;"">+</div>","null","","fixation","","",""
"memory-trial","296","655502","0.0-18.0-1.125","8072","approach_avoid_sv1","""event"",""trial"",""time""
""fullscreenenter"",""1"",""3150""
","
","
","""event"",""trial"",""time""
""fullscreenenter"",""1"",""3150""
","
