"trial_type","trial_index","time_elapsed","internal_node_id","subject_id","task_version","interactions","blur_events","focus_events","fullscreenenter_events","fullscreenexit_events","success","timeout","failed_images","failed_audio","failed_video","rt","stimulus","response","button_pressed","task_part","key_press","answer","correct"
"pavlovia","0","2","0.0-0.0","8855","approach_avoid_sv1","""event"",""trial"",""time""
""fullscreenenter"",""1"",""1985""
","
","
","""event"",""trial"",""time""
""fullscreenenter"",""1"",""1985""
","
","","","","","","","","","","","","",""
"fullscreen","1","2968","0.0-1.0","8855","approach_avoid_sv1","""event"",""trial"",""time""
""fullscreenenter"",""1"",""1985""
","
","
","""event"",""trial"",""time""
""fullscreenenter"",""1"",""1985""
","
","true","","","","","","","","","","","",""
"preload","2","5314","0.0-2.0","8855","approach_avoid_sv1","""event"",""trial"",""time""
""fullscreenenter"",""1"",""1985""
","
","
","""event"",""trial"",""time""
""fullscreenenter"",""1"",""1985""
","
","true","false","[]","[]","[]","","","","","","","",""
"preload","3","8852","0.0-3.0","8855","approach_avoid_sv1","""event"",""trial"",""time""
""fullscreenenter"",""1"",""1985""
","
","
","""event"",""trial"",""time""
""fullscreenenter"",""1"",""1985""
","
","true","false","[]","[]","[]","","","","","","","",""
"preload","4","9912","0.0-4.0","8855","approach_avoid_sv1","""event"",""trial"",""time""
""fullscreenenter"",""1"",""1985""
","
","
","""event"",""trial"",""time""
""fullscreenenter"",""1"",""1985""
","
","true","false","[]","[]","[]","","","","","","","",""
"audio-keyboard-response","5","12631","0.0-5.0","8855","approach_avoid_sv1","""event"",""trial"",""time""
""fullscreenenter"",""1"",""1985""
","
","
","""event"",""trial"",""time""
""fullscreenenter"",""1"",""1985""
","
","","","","","","2719.9999999999995","audio/beep_loop.wav"," ","","","","",""
"audio-button-response","6","14582","0.0-6.0","8855","approach_avoid_sv1","""event"",""trial"",""time""
""fullscreenenter"",""1"",""1985""
","
","
","""event"",""trial"",""time""
""fullscreenenter"",""1"",""1985""
","
","","","","","","1949","audio/turtle.wav","3","","","","",""
"audio-button-response","7","16456","0.0-7.0","8855","approach_avoid_sv1","""event"",""trial"",""time""
""fullscreenenter"",""1"",""1985""
","
","
","""event"",""trial"",""time""
""fullscreenenter"",""1"",""1985""
","
","","","","","","869","audio/shark.wav","2","","","","",""
"preload","8","20793","0.0-8.0","8855","approach_avoid_sv1","""event"",""trial"",""time""
""fullscreenenter"",""1"",""1985""
","
","
","""event"",""trial"",""time""
""fullscreenenter"",""1"",""1985""
","
","true","false","[]","[]","[]","","","","","","","",""
"learning-instructions","9","27053","0.0-9.0-0.0","8855","approach_avoid_sv1","""event"",""trial"",""time""
""fullscreenenter"",""1"",""1985""
","
","
","""event"",""trial"",""time""
""fullscreenenter"",""1"",""1985""
","
","","","","","","1782.7000000000116","<p> Welcome back! </p><p> Last week, you had to make choices about lots of different items.  </p>","","0","instructions","","",""
"learning-instructions","10","32137","0.0-9.0-0.1","8855","approach_avoid_sv1","""event"",""trial"",""time""
""fullscreenenter"",""1"",""1985""
","
","
","""event"",""trial"",""time""
""fullscreenenter"",""1"",""1985""
","
","","","","","","956.7000000000116","<p> Today, we are going to ask you to try to remember all the items. </p>","","0","instructions","","",""
"learning-instructions","11","43206","0.0-9.0-0.2","8855","approach_avoid_sv1","""event"",""trial"",""time""
""fullscreenenter"",""1"",""1985""
","
","
","""event"",""trial"",""time""
""fullscreenenter"",""1"",""1985""
","
","","","","","","945.6000000000058","<p> On every trial, you will see an image. </p><p> The image may be an OLD image you saw during the games last week or it may be a NEW image that was not presented. </p>","","0","instructions","","",""
"learning-instructions","12","52351","0.0-9.0-0.3","8855","approach_avoid_sv1","""event"",""trial"",""time""
""fullscreenenter"",""1"",""1985""
","
","
","""event"",""trial"",""time""
""fullscreenenter"",""1"",""1985""
","
","","","","","","640.3999999999942","<p> You need to select whether the image is:  </p><p>  'Definitely old', 'Maybe old', 'Maybe new', or 'Definitely new.'  </p><div class=""mem-choice-instructions-grid""><div class=""choice-option"" id=""choice-option-1"" ><img src=""images/definitely_old_1.png"" id=""choice-option-img-1"" class=""choice-option-img"" stage=""1""></div><div class=""choice-option"" id=""choice-option-2"" ><img src=""images/maybe_old_1.png"" id=""choice-option-img-2"" class=""choice-option-img"" stage=""1""></div><div class=""choice-option"" id=""choice-option-3"" ><img src=""images/maybe_new_1.png"" id=""choice-option-img-3"" class=""choice-option-img"" stage=""1""></div><div class=""choice-option"" id=""choice-option-4"" > <img src=""images/definitely_new_1.png"" id=""choice-option-img-4"" class=""choice-option-img"" stage=""1""></div></div>","","0","instructions","","",""
"learning-instructions","13","59526","0.0-9.0-0.4","8855","approach_avoid_sv1","""event"",""trial"",""time""
""fullscreenenter"",""1"",""1985""
","
","
","""event"",""trial"",""time""
""fullscreenenter"",""1"",""1985""
","
","","","","","","665.1999999999825","<p> You should use the 1, 2, 3, and 4 keys to make your responses.  </p><div class=""mem-choice-instructions-grid""><div class=""choice-option"" id=""choice-option-1"" ><img src=""images/definitely_old.png"" id=""choice-option-img-1"" class=""choice-option-img"" stage=""1""></div><div class=""choice-option"" id=""choice-option-2"" ><img src=""images/maybe_old.png"" id=""choice-option-img-2"" class=""choice-option-img"" stage=""1""></div><div class=""choice-option"" id=""choice-option-3"" ><img src=""images/maybe_new.png"" id=""choice-option-img-3"" class=""choice-option-img"" stage=""1""></div><div class=""choice-option"" id=""choice-option-4"" > <img src=""images/definitely_new.png"" id=""choice-option-img-4"" class=""choice-option-img"" stage=""1""></div></div>","","0","instructions","","",""
"learning-instructions","14","72639","0.0-9.0-0.5","8855","approach_avoid_sv1","""event"",""trial"",""time""
""fullscreenenter"",""1"",""1985""
","
","
","""event"",""trial"",""time""
""fullscreenenter"",""1"",""1985""
","
","","","","","","6788.8000000000175","<p> You will have 10 seconds to make each response.  </p><p>  Make sure to respond before time runs out! </p>","","0","instructions","","",""
"learning-instructions","15","80576","0.0-9.0-0.6","8855","approach_avoid_sv1","""event"",""trial"",""time""
""fullscreenenter"",""1"",""1985""
","
","
","""event"",""trial"",""time""
""fullscreenenter"",""1"",""1985""
","
","","","","","","865.9000000000233","<p> Today, you will see each image ONCE only.  </p><p>  That means none of the images will repeat. </p>","","0","instructions","","",""
"learning-instructions","16","93764","0.0-9.0-0.7","8855","approach_avoid_sv1","""event"",""trial"",""time""
""fullscreenenter"",""1"",""1985""
","
","
","""event"",""trial"",""time""
""fullscreenenter"",""1"",""1985""
","
","","","","","","503.80000000001746","<p> Before you play the real game, it is time to practice. </p><p>  Just like in the real game, some of the images in the practice will be ones you have seen before. </p><p>  Others will be entirely new. </p>","","0","instructions","","",""
"html-button-response","17","95290","0.0-10.0","8855","approach_avoid_sv1","""event"",""trial"",""time""
""fullscreenenter"",""1"",""1985""
","
","
","""event"",""trial"",""time""
""fullscreenenter"",""1"",""1985""
","
","","","","","","1420.5","<p> Ready to practice? </p><p> Remember, use the 1, 2, 3, and 4 keys to make your responses. </p>","0","","instructions","","",""
"html-keyboard-response","18","95899","0.0-11.0-0.0","8855","approach_avoid_sv1","""event"",""trial"",""time""
""fullscreenenter"",""1"",""1985""
","
","
","""event"",""trial"",""time""
""fullscreenenter"",""1"",""1985""
","
","","","","","","null","<div style=""font-size:60px;"">+</div>","null","","fixation","","",""
"memory-trial","19","99165","0.0-11.0-1.0","8855","approach_avoid_sv1","""event"",""trial"",""time""
""fullscreenenter"",""1"",""1985""
","
","
","""event"",""trial"",""time""
""fullscreenenter"",""1"",""1985""
","
","","","","","","2259.2000000000116","images/ball2.png","","","practice","1","definitely_old",""
"html-keyboard-response","20","99666","0.0-11.0-0.1","8855","approach_avoid_sv1","""event"",""trial"",""time""
""fullscreenenter"",""1"",""1985""
","
","
","""event"",""trial"",""time""
""fullscreenenter"",""1"",""1985""
","
","","","","","","null","<div style=""font-size:60px;"">+</div>","null","","fixation","","",""
"memory-trial","21","103074","0.0-11.0-1.1","8855","approach_avoid_sv1","""event"",""trial"",""time""
""fullscreenenter"",""1"",""1985""
","
","
","""event"",""trial"",""time""
""fullscreenenter"",""1"",""1985""
","
","","","","","","2404.7999999999884","images/ball5.png","","","practice","3","maybe_new",""
"html-keyboard-response","22","103575","0.0-11.0-0.2","8855","approach_avoid_sv1","""event"",""trial"",""time""
""fullscreenenter"",""1"",""1985""
","
","
","""event"",""trial"",""time""
""fullscreenenter"",""1"",""1985""
","
","","","","","","null","<div style=""font-size:60px;"">+</div>","null","","fixation","","",""
"memory-trial","23","106203","0.0-11.0-1.2","8855","approach_avoid_sv1","""event"",""trial"",""time""
""fullscreenenter"",""1"",""1985""
","
","
","""event"",""trial"",""time""
""fullscreenenter"",""1"",""1985""
","
","","","","","","1622.5","images/racket2.png","","","practice","2","maybe_old",""
"html-keyboard-response","24","106712","0.0-11.0-0.3","8855","approach_avoid_sv1","""event"",""trial"",""time""
""fullscreenenter"",""1"",""1985""
","
","
","""event"",""trial"",""time""
""fullscreenenter"",""1"",""1985""
","
","","","","","","null","<div style=""font-size:60px;"">+</div>","null","","fixation","","",""
"memory-trial","25","109563","0.0-11.0-1.3","8855","approach_avoid_sv1","""event"",""trial"",""time""
""fullscreenenter"",""1"",""1985""
","
","
","""event"",""trial"",""time""
""fullscreenenter"",""1"",""1985""
","
","","","","","","1837.8999999999942","images/ball3.png","","","practice","4","definitely_new",""
"html-keyboard-response","26","110071","0.0-11.0-0.4","8855","approach_avoid_sv1","""event"",""trial"",""time""
""fullscreenenter"",""1"",""1985""
","
","
","""event"",""trial"",""time""
""fullscreenenter"",""1"",""1985""
","
","","","","","","null","<div style=""font-size:60px;"">+</div>","null","","fixation","","",""
"memory-trial","27","112506","0.0-11.0-1.4","8855","approach_avoid_sv1","""event"",""trial"",""time""
""fullscreenenter"",""1"",""1985""
","
","
","""event"",""trial"",""time""
""fullscreenenter"",""1"",""1985""
","
","","","","","","1431","images/racket5.png","","","practice","3","maybe_new",""
"html-keyboard-response","28","113007","0.0-11.0-0.5","8855","approach_avoid_sv1","""event"",""trial"",""time""
""fullscreenenter"",""1"",""1985""
","
","
","""event"",""trial"",""time""
""fullscreenenter"",""1"",""1985""
","
","","","","","","null","<div style=""font-size:60px;"">+</div>","null","","fixation","","",""
"memory-trial","29","115537","0.0-11.0-1.5","8855","approach_avoid_sv1","""event"",""trial"",""time""
""fullscreenenter"",""1"",""1985""
","
","
","""event"",""trial"",""time""
""fullscreenenter"",""1"",""1985""
","
","","","","","","1526.6999999999825","images/ball1.png","","","practice","3","maybe_new",""
"html-keyboard-response","30","116051","0.0-11.0-0.6","8855","approach_avoid_sv1","""event"",""trial"",""time""
""fullscreenenter"",""1"",""1985""
","
","
","""event"",""trial"",""time""
""fullscreenenter"",""1"",""1985""
","
","","","","","","null","<div style=""font-size:60px;"">+</div>","null","","fixation","","",""
"memory-trial","31","118859","0.0-11.0-1.6","8855","approach_avoid_sv1","""event"",""trial"",""time""
""fullscreenenter"",""1"",""1985""
","
","
","""event"",""trial"",""time""
""fullscreenenter"",""1"",""1985""
","
","","","","","","1802.3999999999942","images/racket1.png","","","practice","2","maybe_old",""
"html-keyboard-response","32","119360","0.0-11.0-0.7","8855","approach_avoid_sv1","""event"",""trial"",""time""
""fullscreenenter"",""1"",""1985""
","
","
","""event"",""trial"",""time""
""fullscreenenter"",""1"",""1985""
","
","","","","","","null","<div style=""font-size:60px;"">+</div>","null","","fixation","","",""
"memory-trial","33","122154","0.0-11.0-1.7","8855","approach_avoid_sv1","""event"",""trial"",""time""
""fullscreenenter"",""1"",""1985""
","
","
","""event"",""trial"",""time""
""fullscreenenter"",""1"",""1985""
","
","","","","","","1790.1000000000058","images/racket3.png","","","practice","3","maybe_new",""
"learning-instructions","34","130543","0.0-12.0-0.0","8855","approach_avoid_sv1","""event"",""trial"",""time""
""fullscreenenter"",""1"",""1985""
","
","
","""event"",""trial"",""time""
""fullscreenenter"",""1"",""1985""
","
","","","","","","1082.6000000000058","<p> Great! You have completed the practice. </p><p> Before you start, we're going to ask you a few questions about how the game works.  </p>","","0","instructions","","",""
"preload","35","133895","0.0-13.0","8855","approach_avoid_sv1","""event"",""trial"",""time""
""fullscreenenter"",""1"",""1985""
","
","
","""event"",""trial"",""time""
""fullscreenenter"",""1"",""1985""
","
","true","false","[]","[]","[]","","","","","","","",""
"comp-q","36","141099","0.0-14.0-0.0","8855","approach_avoid_sv1","""event"",""trial"",""time""
""fullscreenenter"",""1"",""1985""
","
","
","""event"",""trial"",""time""
""fullscreenenter"",""1"",""1985""
","
","","","","","","1379","<p> <b> True or False? </b> </p><p> In this game, you will only see each image once. </p>","","0","comp_question","","","true"
"comp-q","37","148405","0.0-14.0-1.0","8855","approach_avoid_sv1","""event"",""trial"",""time""
""fullscreenenter"",""1"",""1985""
","
","
","""event"",""trial"",""time""
""fullscreenenter"",""1"",""1985""
","
","","","","","","964.6999999999534","<p> <b> That's right! </b> You will see many different images <i> one time each </i> in this game. </p>","","0","comp_answer","","",""
"comp-q","38","154261","0.0-15.0-0.0","8855","approach_avoid_sv1","""event"",""trial"",""time""
""fullscreenenter"",""1"",""1985""
","
","
","""event"",""trial"",""time""
""fullscreenenter"",""1"",""1985""
","
","","","","","","830.9000000000233","<p> <b> True or False? </b> </p><p> You should use the mouse and click to make your response. </p>","","1","comp_question","","","true"
"comp-q","39","162059","0.0-15.0-1.0","8855","approach_avoid_sv1","""event"",""trial"",""time""
""fullscreenenter"",""1"",""1985""
","
","
","""event"",""trial"",""time""
""fullscreenenter"",""1"",""1985""
","
","","","","","","1288.6999999999534","<p><b> That's right! </b> You should use the '1', '2', '3', and '4' keys to make your response. </p>","","0","comp_answer","","",""
"comp-q","40","168284","0.0-16.0-0.0","8855","approach_avoid_sv1","""event"",""trial"",""time""
""fullscreenenter"",""1"",""1985""
","
","
","""event"",""trial"",""time""
""fullscreenenter"",""1"",""1985""
","
","","","","","","543.7999999999884","<p> <b> True or False? </b> </p><p> You will have as much time as you want to make each choice. </p>","","1","comp_question","","","true"
"comp-q","41","173963","0.0-16.0-1.0","8855","approach_avoid_sv1","""event"",""trial"",""time""
""fullscreenenter"",""1"",""1985""
","
","
","""event"",""trial"",""time""
""fullscreenenter"",""1"",""1985""
","
","","","","","","982.7999999999884","<p> <b> That's right! </b> You will only have 10 seconds to make each choice. </p>","","0","comp_answer","","",""
"learning-instructions","42","183547","0.0-17.0","8855","approach_avoid_sv1","""event"",""trial"",""time""
""fullscreenenter"",""1"",""1985""
","
","
","""event"",""trial"",""time""
""fullscreenenter"",""1"",""1985""
","
","","","","","","906.9000000000233","<p> Great! You are now ready to begin the game. </p><p> Remember, use the 1, 2, 3, and 4 keys to make your responses. </p>","","0","instructions","","",""
"html-keyboard-response","43","184155","0.0-18.0-0.0","8855","approach_avoid_sv1","""event"",""trial"",""time""
""fullscreenenter"",""1"",""1985""
","
","
","""event"",""trial"",""time""
""fullscreenenter"",""1"",""1985""
","
","","","","","","null","<div style=""font-size:60px;"">+</div>","null","","fixation","","",""
"memory-trial","44","186833","0.0-18.0-1.0","8855","approach_avoid_sv1","""event"",""trial"",""time""
""fullscreenenter"",""1"",""1985""
","
","
","""event"",""trial"",""time""
""fullscreenenter"",""1"",""1985""
","
","","","","","","1666.2000000000116","images/table6.png","","","memory_trial","2","maybe_old",""
"html-keyboard-response","45","187346","0.0-18.0-0.1","8855","approach_avoid_sv1","""event"",""trial"",""time""
""fullscreenenter"",""1"",""1985""
","
","
","""event"",""trial"",""time""
""fullscreenenter"",""1"",""1985""
","
","","","","","","null","<div style=""font-size:60px;"">+</div>","null","","fixation","","",""
"memory-trial","46","189542","0.0-18.0-1.1","8855","approach_avoid_sv1","""event"",""trial"",""time""
""fullscreenenter"",""1"",""1985""
","
","
","""event"",""trial"",""time""
""fullscreenenter"",""1"",""1985""
","
","","","","","","1180.0999999999767","images/truck4.png","","","memory_trial","3","maybe_new",""
"html-keyboard-response","47","190045","0.0-18.0-0.2","8855","approach_avoid_sv1","""event"",""trial"",""time""
""fullscreenenter"",""1"",""1985""
","
","
","""event"",""trial"",""time""
""fullscreenenter"",""1"",""1985""
","
","","","","","","null","<div style=""font-size:60px;"">+</div>","null","","fixation","","",""
"memory-trial","48","192486","0.0-18.0-1.2","8855","approach_avoid_sv1","""event"",""trial"",""time""
""fullscreenenter"",""1"",""1985""
","
","
","""event"",""trial"",""time""
""fullscreenenter"",""1"",""1985""
","
","","","","","","1433.2000000000116","images/cactus2.png","","","memory_trial","2","maybe_old",""
"html-keyboard-response","49","193002","0.0-18.0-0.3","8855","approach_avoid_sv1","""event"",""trial"",""time""
""fullscreenenter"",""1"",""1985""
","
","
","""event"",""trial"",""time""
""fullscreenenter"",""1"",""1985""
","
","","","","","","null","<div style=""font-size:60px;"">+</div>","null","","fixation","","",""
"memory-trial","50","195639","0.0-18.0-1.3","8855","approach_avoid_sv1","""event"",""trial"",""time""
""fullscreenenter"",""1"",""1985""
","
","
","""event"",""trial"",""time""
""fullscreenenter"",""1"",""1985""
","
","","","","","","1628.399999999965","images/cow1.png","","","memory_trial","4","definitely_new",""
"html-keyboard-response","51","196145","0.0-18.0-0.4","8855","approach_avoid_sv1","""event"",""trial"",""time""
""fullscreenenter"",""1"",""1985""
","
","
","""event"",""trial"",""time""
""fullscreenenter"",""1"",""1985""
","
","","","","","","null","<div style=""font-size:60px;"">+</div>","null","","fixation","","",""
"memory-trial","52","198005","0.0-18.0-1.4","8855","approach_avoid_sv1","""event"",""trial"",""time""
""fullscreenenter"",""1"",""1985""
","
","
","""event"",""trial"",""time""
""fullscreenenter"",""1"",""1985""
","
","","","","","","853","images/chair2.png","","","memory_trial","1","definitely_old",""
"html-keyboard-response","53","198507","0.0-18.0-0.5","8855","approach_avoid_sv1","""event"",""trial"",""time""
""fullscreenenter"",""1"",""1985""
","
","
","""event"",""trial"",""time""
""fullscreenenter"",""1"",""1985""
","
","","","","","","null","<div style=""font-size:60px;"">+</div>","null","","fixation","","",""
"memory-trial","54","200647","0.0-18.0-1.5","8855","approach_avoid_sv1","""event"",""trial"",""time""
""fullscreenenter"",""1"",""1985""
","
","
","""event"",""trial"",""time""
""fullscreenenter"",""1"",""1985""
","
","","","","","","1131.2000000000116","images/boat8.png","","","memory_trial","4","definitely_new",""
"html-keyboard-response","55","201151","0.0-18.0-0.6","8855","approach_avoid_sv1","""event"",""trial"",""time""
""fullscreenenter"",""1"",""1985""
","
","
","""event"",""trial"",""time""
""fullscreenenter"",""1"",""1985""
","
","","","","","","null","<div style=""font-size:60px;"">+</div>","null","","fixation","","",""
"memory-trial","56","203398","0.0-18.0-1.6","8855","approach_avoid_sv1","""event"",""trial"",""time""
""fullscreenenter"",""1"",""1985""
","
","
","""event"",""trial"",""time""
""fullscreenenter"",""1"",""1985""
","
","","","","","","1239.7000000000116","images/plane1.png","","","memory_trial","1","definitely_old",""
"html-keyboard-response","57","203909","0.0-18.0-0.7","8855","approach_avoid_sv1","""event"",""trial"",""time""
""fullscreenenter"",""1"",""1985""
","
","
","""event"",""trial"",""time""
""fullscreenenter"",""1"",""1985""
","
","","","","","","null","<div style=""font-size:60px;"">+</div>","null","","fixation","","",""
"memory-trial","58","206625","0.0-18.0-1.7","8855","approach_avoid_sv1","""event"",""trial"",""time""
""fullscreenenter"",""1"",""1985""
","
","
","""event"",""trial"",""time""
""fullscreenenter"",""1"",""1985""
","
","","","","","","1712.9000000000233","images/plane7.png","","","memory_trial","2","maybe_old",""
"html-keyboard-response","59","207127","0.0-18.0-0.8","8855","approach_avoid_sv1","""event"",""trial"",""time""
""fullscreenenter"",""1"",""1985""
","
","
","""event"",""trial"",""time""
""fullscreenenter"",""1"",""1985""
","
","","","","","","null","<div style=""font-size:60px;"">+</div>","null","","fixation","","",""
"memory-trial","60","210392","0.0-18.0-1.8","8855","approach_avoid_sv1","""event"",""trial"",""time""
""fullscreenenter"",""1"",""1985""
","
","
","""event"",""trial"",""time""
""fullscreenenter"",""1"",""1985""
","
","","","","","","2262.7999999999884","images/cactus3.png","","","memory_trial","3","maybe_new",""
"html-keyboard-response","61","210907","0.0-18.0-0.9","8855","approach_avoid_sv1","""event"",""trial"",""time""
""fullscreenenter"",""1"",""1985""
","
","
","""event"",""trial"",""time""
""fullscreenenter"",""1"",""1985""
","
","","","","","","null","<div style=""font-size:60px;"">+</div>","null","","fixation","","",""
"memory-trial","62","213480","0.0-18.0-1.9","8855","approach_avoid_sv1","""event"",""trial"",""time""
""fullscreenenter"",""1"",""1985""
","
","
","""event"",""trial"",""time""
""fullscreenenter"",""1"",""1985""
","
","","","","","","1571.7999999999884","images/apple6.png","","","memory_trial","2","maybe_old",""
"html-keyboard-response","63","213981","0.0-18.0-0.10","8855","approach_avoid_sv1","""event"",""trial"",""time""
""fullscreenenter"",""1"",""1985""
","
","
","""event"",""trial"",""time""
""fullscreenenter"",""1"",""1985""
","
","","","","","","null","<div style=""font-size:60px;"">+</div>","null","","fixation","","",""
"memory-trial","64","215967","0.0-18.0-1.10","8855","approach_avoid_sv1","""event"",""trial"",""time""
""fullscreenenter"",""1"",""1985""
","
","
","""event"",""trial"",""time""
""fullscreenenter"",""1"",""1985""
","
","","","","","","985","images/rodent6.png","","","memory_trial","1","definitely_old",""
"html-keyboard-response","65","216468","0.0-18.0-0.11","8855","approach_avoid_sv1","""event"",""trial"",""time""
""fullscreenenter"",""1"",""1985""
","
","
","""event"",""trial"",""time""
""fullscreenenter"",""1"",""1985""
","
","","","","","","null","<div style=""font-size:60px;"">+</div>","null","","fixation","","",""
"memory-trial","66","218464","0.0-18.0-1.11","8855","approach_avoid_sv1","""event"",""trial"",""time""
""fullscreenenter"",""1"",""1985""
","
","
","""event"",""trial"",""time""
""fullscreenenter"",""1"",""1985""
","
","","","","","","994.4000000000233","images/rodent3.png","","","memory_trial","1","definitely_old",""
"html-keyboard-response","67","218965","0.0-18.0-0.12","8855","approach_avoid_sv1","""event"",""trial"",""time""
""fullscreenenter"",""1"",""1985""
","
","
","""event"",""trial"",""time""
""fullscreenenter"",""1"",""1985""
","
","","","","","","null","<div style=""font-size:60px;"">+</div>","null","","fixation","","",""
"memory-trial","68","220920","0.0-18.0-1.12","8855","approach_avoid_sv1","""event"",""trial"",""time""
""fullscreenenter"",""1"",""1985""
","
","
","""event"",""trial"",""time""
""fullscreenenter"",""1"",""1985""
","
","","","","","","953.6999999999534","images/goat2.png","","","memory_trial","1","definitely_old",""
"html-keyboard-response","69","221421","0.0-18.0-0.13","8855","approach_avoid_sv1","""event"",""trial"",""time""
""fullscreenenter"",""1"",""1985""
","
","
","""event"",""trial"",""time""
""fullscreenenter"",""1"",""1985""
","
","","","","","","null","<div style=""font-size:60px;"">+</div>","null","","fixation","","",""
"memory-trial","70","223824","0.0-18.0-1.13","8855","approach_avoid_sv1","""event"",""trial"",""time""
""fullscreenenter"",""1"",""1985""
","
","
","""event"",""trial"",""time""
""fullscreenenter"",""1"",""1985""
","
","","","","","","1401.7000000000116","images/truck3.png","","","memory_trial","2","maybe_old",""
"html-keyboard-response","71","224325","0.0-18.0-0.14","8855","approach_avoid_sv1","""event"",""trial"",""time""
""fullscreenenter"",""1"",""1985""
","
","
","""event"",""trial"",""time""
""fullscreenenter"",""1"",""1985""
","
","","","","","","null","<div style=""font-size:60px;"">+</div>","null","","fixation","","",""
"memory-trial","72","226648","0.0-18.0-1.14","8855","approach_avoid_sv1","""event"",""trial"",""time""
""fullscreenenter"",""1"",""1985""
","
","
","""event"",""trial"",""time""
""fullscreenenter"",""1"",""1985""
","
","","","","","","1320.9000000000233","images/sofa6.png","","","memory_trial","2","maybe_old",""
"html-keyboard-response","73","227148","0.0-18.0-0.15","8855","approach_avoid_sv1","""event"",""trial"",""time""
""fullscreenenter"",""1"",""1985""
","
","
","""event"",""trial"",""time""
""fullscreenenter"",""1"",""1985""
","
","","","","","","null","<div style=""font-size:60px;"">+</div>","null","","fixation","","",""
"memory-trial","74","229424","0.0-18.0-1.15","8855","approach_avoid_sv1","""event"",""trial"",""time""
""fullscreenenter"",""1"",""1985""
","
","
","""event"",""trial"",""time""
""fullscreenenter"",""1"",""1985""
","
","","","","","","1274.2000000000116","images/table5.png","","","memory_trial","3","maybe_new",""
"html-keyboard-response","75","229925","0.0-18.0-0.16","8855","approach_avoid_sv1","""event"",""trial"",""time""
""fullscreenenter"",""1"",""1985""
","
","
","""event"",""trial"",""time""
""fullscreenenter"",""1"",""1985""
","
","","","","","","null","<div style=""font-size:60px;"">+</div>","null","","fixation","","",""
"memory-trial","76","232512","0.0-18.0-1.16","8855","approach_avoid_sv1","""event"",""trial"",""time""
""fullscreenenter"",""1"",""1985""
","
","
","""event"",""trial"",""time""
""fullscreenenter"",""1"",""1985""
","
","","","","","","1584.7999999999884","images/banana3.png","","","memory_trial","2","maybe_old",""
"html-keyboard-response","77","233028","0.0-18.0-0.17","8855","approach_avoid_sv1","""event"",""trial"",""time""
""fullscreenenter"",""1"",""1985""
","
","
","""event"",""trial"",""time""
""fullscreenenter"",""1"",""1985""
","
","","","","","","null","<div style=""font-size:60px;"">+</div>","null","","fixation","","",""
"memory-trial","78","235416","0.0-18.0-1.17","8855","approach_avoid_sv1","""event"",""trial"",""time""
""fullscreenenter"",""1"",""1985""
","
","
","""event"",""trial"",""time""
""fullscreenenter"",""1"",""1985""
","
","","","","","","1386.5","images/cow8.png","","","memory_trial","2","maybe_old",""
"html-keyboard-response","79","235917","0.0-18.0-0.18","8855","approach_avoid_sv1","""event"",""trial"",""time""
""fullscreenenter"",""1"",""1985""
","
","
","""event"",""trial"",""time""
""fullscreenenter"",""1"",""1985""
","
","","","","","","null","<div style=""font-size:60px;"">+</div>","null","","fixation","","",""
"memory-trial","80","238040","0.0-18.0-1.18","8855","approach_avoid_sv1","""event"",""trial"",""time""
""fullscreenenter"",""1"",""1985""
","
","
","""event"",""trial"",""time""
""fullscreenenter"",""1"",""1985""
","
","","","","","","1121.7000000000116","images/truck7.png","","","memory_trial","3","maybe_new",""
"html-keyboard-response","81","238542","0.0-18.0-0.19","8855","approach_avoid_sv1","""event"",""trial"",""time""
""fullscreenenter"",""1"",""1985""
","
","
","""event"",""trial"",""time""
""fullscreenenter"",""1"",""1985""
","
","","","","","","null","<div style=""font-size:60px;"">+</div>","null","","fixation","","",""
"memory-trial","82","240844","0.0-18.0-1.19","8855","approach_avoid_sv1","""event"",""trial"",""time""
""fullscreenenter"",""1"",""1985""
","
","
","""event"",""trial"",""time""
""fullscreenenter"",""1"",""1985""
","
","","","","","","1296.7999999999884","images/sofa1.png","","","memory_trial","2","maybe_old",""
"html-keyboard-response","83","241345","0.0-18.0-0.20","8855","approach_avoid_sv1","""event"",""trial"",""time""
""fullscreenenter"",""1"",""1985""
","
","
","""event"",""trial"",""time""
""fullscreenenter"",""1"",""1985""
","
","","","","","","null","<div style=""font-size:60px;"">+</div>","null","","fixation","","",""
"memory-trial","84","243424","0.0-18.0-1.20","8855","approach_avoid_sv1","""event"",""trial"",""time""
""fullscreenenter"",""1"",""1985""
","
","
","""event"",""trial"",""time""
""fullscreenenter"",""1"",""1985""
","
","","","","","","1077.600000000035","images/sheep4.png","","","memory_trial","1","definitely_old",""
"html-keyboard-response","85","243925","0.0-18.0-0.21","8855","approach_avoid_sv1","""event"",""trial"",""time""
""fullscreenenter"",""1"",""1985""
","
","
","""event"",""trial"",""time""
""fullscreenenter"",""1"",""1985""
","
","","","","","","null","<div style=""font-size:60px;"">+</div>","null","","fixation","","",""
"memory-trial","86","246424","0.0-18.0-1.21","8855","approach_avoid_sv1","""event"",""trial"",""time""
""fullscreenenter"",""1"",""1985""
","
","
","""event"",""trial"",""time""
""fullscreenenter"",""1"",""1985""
","
","","","","","","1497.2000000000116","images/dog2.png","","","memory_trial","3","maybe_new",""
"html-keyboard-response","87","246925","0.0-18.0-0.22","8855","approach_avoid_sv1","""event"",""trial"",""time""
""fullscreenenter"",""1"",""1985""
","
","
","""event"",""trial"",""time""
""fullscreenenter"",""1"",""1985""
","
","","","","","","null","<div style=""font-size:60px;"">+</div>","null","","fixation","","",""
"memory-trial","88","249168","0.0-18.0-1.22","8855","approach_avoid_sv1","""event"",""trial"",""time""
""fullscreenenter"",""1"",""1985""
","
","
","""event"",""trial"",""time""
""fullscreenenter"",""1"",""1985""
","
","","","","","","1241.0999999999767","images/bed6.png","","","memory_trial","4","definitely_new",""
"html-keyboard-response","89","249669","0.0-18.0-0.23","8855","approach_avoid_sv1","""event"",""trial"",""time""
""fullscreenenter"",""1"",""1985""
","
","
","""event"",""trial"",""time""
""fullscreenenter"",""1"",""1985""
","
","","","","","","null","<div style=""font-size:60px;"">+</div>","null","","fixation","","",""
"memory-trial","90","251888","0.0-18.0-1.23","8855","approach_avoid_sv1","""event"",""trial"",""time""
""fullscreenenter"",""1"",""1985""
","
","
","""event"",""trial"",""time""
""fullscreenenter"",""1"",""1985""
","
","","","","","","1217.100000000035","images/chair1.png","","","memory_trial","1","definitely_old",""
"html-keyboard-response","91","252389","0.0-18.0-0.24","8855","approach_avoid_sv1","""event"",""trial"",""time""
""fullscreenenter"",""1"",""1985""
","
","
","""event"",""trial"",""time""
""fullscreenenter"",""1"",""1985""
","
","","","","","","null","<div style=""font-size:60px;"">+</div>","null","","fixation","","",""
"memory-trial","92","255264","0.0-18.0-1.24","8855","approach_avoid_sv1","""event"",""trial"",""time""
""fullscreenenter"",""1"",""1985""
","
","
","""event"",""trial"",""time""
""fullscreenenter"",""1"",""1985""
","
","","","","","","1872.9000000000233","images/dog7.png","","","memory_trial","3","maybe_new",""
"html-keyboard-response","93","255765","0.0-18.0-0.25","8855","approach_avoid_sv1","""event"",""trial"",""time""
""fullscreenenter"",""1"",""1985""
","
","
","""event"",""trial"",""time""
""fullscreenenter"",""1"",""1985""
","
","","","","","","null","<div style=""font-size:60px;"">+</div>","null","","fixation","","",""
"memory-trial","94","257976","0.0-18.0-1.25","8855","approach_avoid_sv1","""event"",""trial"",""time""
""fullscreenenter"",""1"",""1985""
","
","
","""event"",""trial"",""time""
""fullscreenenter"",""1"",""1985""
","
","","","","","","1210.2000000000116","images/rodent1.png","","","memory_trial","1","definitely_old",""
"html-keyboard-response","95","258478","0.0-18.0-0.26","8855","approach_avoid_sv1","""event"",""trial"",""time""
""fullscreenenter"",""1"",""1985""
","
","
","""event"",""trial"",""time""
""fullscreenenter"",""1"",""1985""
","
","","","","","","null","<div style=""font-size:60px;"">+</div>","null","","fixation","","",""
"memory-trial","96","260568","0.0-18.0-1.26","8855","approach_avoid_sv1","""event"",""trial"",""time""
""fullscreenenter"",""1"",""1985""
","
","
","""event"",""trial"",""time""
""fullscreenenter"",""1"",""1985""
","
","","","","","","1088.7999999999884","images/train4.png","","","memory_trial","1","definitely_old",""
"html-keyboard-response","97","261069","0.0-18.0-0.27","8855","approach_avoid_sv1","""event"",""trial"",""time""
""fullscreenenter"",""1"",""1985""
","
","
","""event"",""trial"",""time""
""fullscreenenter"",""1"",""1985""
","
","","","","","","null","<div style=""font-size:60px;"">+</div>","null","","fixation","","",""
"memory-trial","98","263441","0.0-18.0-1.27","8855","approach_avoid_sv1","""event"",""trial"",""time""
""fullscreenenter"",""1"",""1985""
","
","
","""event"",""trial"",""time""
""fullscreenenter"",""1"",""1985""
","
","","","","","","1369.2999999999884","images/orange4.png","","","memory_trial","1","definitely_old",""
"html-keyboard-response","99","263948","0.0-18.0-0.28","8855","approach_avoid_sv1","""event"",""trial"",""time""
""fullscreenenter"",""1"",""1985""
","
","
","""event"",""trial"",""time""
""fullscreenenter"",""1"",""1985""
","
","","","","","","null","<div style=""font-size:60px;"">+</div>","null","","fixation","","",""
"memory-trial","100","265841","0.0-18.0-1.28","8855","approach_avoid_sv1","""event"",""trial"",""time""
""fullscreenenter"",""1"",""1985""
","
","
","""event"",""trial"",""time""
""fullscreenenter"",""1"",""1985""
","
","","","","","","890.2999999999884","images/tree6.png","","","memory_trial","1","definitely_old",""
"html-keyboard-response","101","266342","0.0-18.0-0.29","8855","approach_avoid_sv1","""event"",""trial"",""time""
""fullscreenenter"",""1"",""1985""
","
","
","""event"",""trial"",""time""
""fullscreenenter"",""1"",""1985""
","
","","","","","","null","<div style=""font-size:60px;"">+</div>","null","","fixation","","",""
"memory-trial","102","268913","0.0-18.0-1.29","8855","approach_avoid_sv1","""event"",""trial"",""time""
""fullscreenenter"",""1"",""1985""
","
","
","""event"",""trial"",""time""
""fullscreenenter"",""1"",""1985""
","
","","","","","","1568","images/bush5.png","","","memory_trial","3","maybe_new",""
"html-keyboard-response","103","269414","0.0-18.0-0.30","8855","approach_avoid_sv1","""event"",""trial"",""time""
""fullscreenenter"",""1"",""1985""
","
","
","""event"",""trial"",""time""
""fullscreenenter"",""1"",""1985""
","
","","","","","","null","<div style=""font-size:60px;"">+</div>","null","","fixation","","",""
"memory-trial","104","271704","0.0-18.0-1.30","8855","approach_avoid_sv1","""event"",""trial"",""time""
""fullscreenenter"",""1"",""1985""
","
","
","""event"",""trial"",""time""
""fullscreenenter"",""1"",""1985""
","
","","","","","","1289","images/table3.png","","","memory_trial","1","definitely_old",""
"html-keyboard-response","105","272205","0.0-18.0-0.31","8855","approach_avoid_sv1","""event"",""trial"",""time""
""fullscreenenter"",""1"",""1985""
","
","
","""event"",""trial"",""time""
""fullscreenenter"",""1"",""1985""
","
","","","","","","null","<div style=""font-size:60px;"">+</div>","null","","fixation","","",""
"memory-trial","106","274073","0.0-18.0-1.31","8855","approach_avoid_sv1","""event"",""trial"",""time""
""fullscreenenter"",""1"",""1985""
","
","
","""event"",""trial"",""time""
""fullscreenenter"",""1"",""1985""
","
","","","","","","865.7999999999884","images/banana6.png","","","memory_trial","1","definitely_old",""
"html-keyboard-response","107","274573","0.0-18.0-0.32","8855","approach_avoid_sv1","""event"",""trial"",""time""
""fullscreenenter"",""1"",""1985""
","
","
","""event"",""trial"",""time""
""fullscreenenter"",""1"",""1985""
","
","","","","","","null","<div style=""font-size:60px;"">+</div>","null","","fixation","","",""
"memory-trial","108","277512","0.0-18.0-1.32","8855","approach_avoid_sv1","""event"",""trial"",""time""
""fullscreenenter"",""1"",""1985""
","
","
","""event"",""trial"",""time""
""fullscreenenter"",""1"",""1985""
","
","","","","","","1937","images/horse1.png","","","memory_trial","4","definitely_new",""
"html-keyboard-response","109","278014","0.0-18.0-0.33","8855","approach_avoid_sv1","""event"",""trial"",""time""
""fullscreenenter"",""1"",""1985""
","
","
","""event"",""trial"",""time""
""fullscreenenter"",""1"",""1985""
","
","","","","","","null","<div style=""font-size:60px;"">+</div>","null","","fixation","","",""
"memory-trial","110","280498","0.0-18.0-1.33","8855","approach_avoid_sv1","""event"",""trial"",""time""
""fullscreenenter"",""1"",""1985""
","
","
","""event"",""trial"",""time""
""fullscreenenter"",""1"",""1985""
","
","","","","","","1481","images/sofa3.png","","","memory_trial","3","maybe_new",""
"html-keyboard-response","111","281000","0.0-18.0-0.34","8855","approach_avoid_sv1","""event"",""trial"",""time""
""fullscreenenter"",""1"",""1985""
","
","
","""event"",""trial"",""time""
""fullscreenenter"",""1"",""1985""
","
","","","","","","null","<div style=""font-size:60px;"">+</div>","null","","fixation","","",""
"memory-trial","112","283169","0.0-18.0-1.34","8855","approach_avoid_sv1","""event"",""trial"",""time""
""fullscreenenter"",""1"",""1985""
","
","
","""event"",""trial"",""time""
""fullscreenenter"",""1"",""1985""
","
","","","","","","1167.2999999999884","images/cat1.png","","","memory_trial","1","definitely_old",""
"html-keyboard-response","113","283669","0.0-18.0-0.35","8855","approach_avoid_sv1","""event"",""trial"",""time""
""fullscreenenter"",""1"",""1985""
","
","
","""event"",""trial"",""time""
""fullscreenenter"",""1"",""1985""
","
","","","","","","null","<div style=""font-size:60px;"">+</div>","null","","fixation","","",""
"memory-trial","114","286448","0.0-18.0-1.35","8855","approach_avoid_sv1","""event"",""trial"",""time""
""fullscreenenter"",""1"",""1985""
","
","
","""event"",""trial"",""time""
""fullscreenenter"",""1"",""1985""
","
","","","","","","1777.5","images/dog3.png","","","memory_trial","3","maybe_new",""
"html-keyboard-response","115","286949","0.0-18.0-0.36","8855","approach_avoid_sv1","""event"",""trial"",""time""
""fullscreenenter"",""1"",""1985""
","
","
","""event"",""trial"",""time""
""fullscreenenter"",""1"",""1985""
","
","","","","","","null","<div style=""font-size:60px;"">+</div>","null","","fixation","","",""
"memory-trial","116","289481","0.0-18.0-1.36","8855","approach_avoid_sv1","""event"",""trial"",""time""
""fullscreenenter"",""1"",""1985""
","
","
","""event"",""trial"",""time""
""fullscreenenter"",""1"",""1985""
","
","","","","","","1529.600000000035","images/sheep7.png","","","memory_trial","3","maybe_new",""
"html-keyboard-response","117","289982","0.0-18.0-0.37","8855","approach_avoid_sv1","""event"",""trial"",""time""
""fullscreenenter"",""1"",""1985""
","
","
","""event"",""trial"",""time""
""fullscreenenter"",""1"",""1985""
","
","","","","","","null","<div style=""font-size:60px;"">+</div>","null","","fixation","","",""
"memory-trial","118","292561","0.0-18.0-1.37","8855","approach_avoid_sv1","""event"",""trial"",""time""
""fullscreenenter"",""1"",""1985""
","
","
","""event"",""trial"",""time""
""fullscreenenter"",""1"",""1985""
","
","","","","","","1576.2999999999884","images/flower8.png","","","memory_trial","2","maybe_old",""
"html-keyboard-response","119","293062","0.0-18.0-0.38","8855","approach_avoid_sv1","""event"",""trial"",""time""
""fullscreenenter"",""1"",""1985""
","
","
","""event"",""trial"",""time""
""fullscreenenter"",""1"",""1985""
","
","","","","","","null","<div style=""font-size:60px;"">+</div>","null","","fixation","","",""
"memory-trial","120","295736","0.0-18.0-1.38","8855","approach_avoid_sv1","""event"",""trial"",""time""
""fullscreenenter"",""1"",""1985""
","
","
","""event"",""trial"",""time""
""fullscreenenter"",""1"",""1985""
","
","","","","","","1672.5","images/goat8.png","","","memory_trial","3","maybe_new",""
"html-keyboard-response","121","296237","0.0-18.0-0.39","8855","approach_avoid_sv1","""event"",""trial"",""time""
""fullscreenenter"",""1"",""1985""
","
","
","""event"",""trial"",""time""
""fullscreenenter"",""1"",""1985""
","
","","","","","","null","<div style=""font-size:60px;"">+</div>","null","","fixation","","",""
"memory-trial","122","298848","0.0-18.0-1.39","8855","approach_avoid_sv1","""event"",""trial"",""time""
""fullscreenenter"",""1"",""1985""
","
","
","""event"",""trial"",""time""
""fullscreenenter"",""1"",""1985""
","
","","","","","","1610.0999999999767","images/flower1.png","","","memory_trial","3","maybe_new",""
"html-keyboard-response","123","299350","0.0-18.0-0.40","8855","approach_avoid_sv1","""event"",""trial"",""time""
""fullscreenenter"",""1"",""1985""
","
","
","""event"",""trial"",""time""
""fullscreenenter"",""1"",""1985""
","
","","","","","","null","<div style=""font-size:60px;"">+</div>","null","","fixation","","",""
"memory-trial","124","302272","0.0-18.0-1.40","8855","approach_avoid_sv1","""event"",""trial"",""time""
""fullscreenenter"",""1"",""1985""
","
","
","""event"",""trial"",""time""
""fullscreenenter"",""1"",""1985""
","
","","","","","","1920.7999999999884","images/goat5.png","","","memory_trial","4","definitely_new",""
"html-keyboard-response","125","302773","0.0-18.0-0.41","8855","approach_avoid_sv1","""event"",""trial"",""time""
""fullscreenenter"",""1"",""1985""
","
","
","""event"",""trial"",""time""
""fullscreenenter"",""1"",""1985""
","
","","","","","","null","<div style=""font-size:60px;"">+</div>","null","","fixation","","",""
"memory-trial","126","305545","0.0-18.0-1.41","8855","approach_avoid_sv1","""event"",""trial"",""time""
""fullscreenenter"",""1"",""1985""
","
","
","""event"",""trial"",""time""
""fullscreenenter"",""1"",""1985""
","
","","","","","","1769.2999999999884","images/banana2.png","","","memory_trial","3","maybe_new",""
"html-button-response","127","308219","0.0-18.0-2.41-0.41","8855","approach_avoid_sv1","""event"",""trial"",""time""
""fullscreenenter"",""1"",""1985""
","
","
","""event"",""trial"",""time""
""fullscreenenter"",""1"",""1985""
","
","","","","","","2673.5999999999767","<p> Take a break! </p><p> Click the button to continue. </p>","0","","break","","",""
"html-keyboard-response","128","308720","0.0-18.0-0.42","8855","approach_avoid_sv1","""event"",""trial"",""time""
""fullscreenenter"",""1"",""1985""
","
","
","""event"",""trial"",""time""
""fullscreenenter"",""1"",""1985""
","
","","","","","","null","<div style=""font-size:60px;"">+</div>","null","","fixation","","",""
"memory-trial","129","311865","0.0-18.0-1.42","8855","approach_avoid_sv1","""event"",""trial"",""time""
""fullscreenenter"",""1"",""1985""
","
","
","""event"",""trial"",""time""
""fullscreenenter"",""1"",""1985""
","
","","","","","","2142.7000000000116","images/apple8.png","","","memory_trial","2","maybe_old",""
"html-keyboard-response","130","312366","0.0-18.0-0.43","8855","approach_avoid_sv1","""event"",""trial"",""time""
""fullscreenenter"",""1"",""1985""
","
","
","""event"",""trial"",""time""
""fullscreenenter"",""1"",""1985""
","
","","","","","","null","<div style=""font-size:60px;"">+</div>","null","","fixation","","",""
"memory-trial","131","314849","0.0-18.0-1.43","8855","approach_avoid_sv1","""event"",""trial"",""time""
""fullscreenenter"",""1"",""1985""
","
","
","""event"",""trial"",""time""
""fullscreenenter"",""1"",""1985""
","
","","","","","","1480.6999999999534","images/boat1.png","","","memory_trial","3","maybe_new",""
"html-keyboard-response","132","315351","0.0-18.0-0.44","8855","approach_avoid_sv1","""event"",""trial"",""time""
""fullscreenenter"",""1"",""1985""
","
","
","""event"",""trial"",""time""
""fullscreenenter"",""1"",""1985""
","
","","","","","","null","<div style=""font-size:60px;"">+</div>","null","","fixation","","",""
"memory-trial","133","317992","0.0-18.0-1.44","8855","approach_avoid_sv1","""event"",""trial"",""time""
""fullscreenenter"",""1"",""1985""
","
","
","""event"",""trial"",""time""
""fullscreenenter"",""1"",""1985""
","
","","","","","","1640.5","images/bush6.png","","","memory_trial","3","maybe_new",""
"html-keyboard-response","134","318494","0.0-18.0-0.45","8855","approach_avoid_sv1","""event"",""trial"",""time""
""fullscreenenter"",""1"",""1985""
","
","
","""event"",""trial"",""time""
""fullscreenenter"",""1"",""1985""
","
","","","","","","null","<div style=""font-size:60px;"">+</div>","null","","fixation","","",""
"memory-trial","135","320712","0.0-18.0-1.45","8855","approach_avoid_sv1","""event"",""trial"",""time""
""fullscreenenter"",""1"",""1985""
","
","
","""event"",""trial"",""time""
""fullscreenenter"",""1"",""1985""
","
","","","","","","1217","images/flower6.png","","","memory_trial","4","definitely_new",""
"html-keyboard-response","136","321213","0.0-18.0-0.46","8855","approach_avoid_sv1","""event"",""trial"",""time""
""fullscreenenter"",""1"",""1985""
","
","
","""event"",""trial"",""time""
""fullscreenenter"",""1"",""1985""
","
","","","","","","null","<div style=""font-size:60px;"">+</div>","null","","fixation","","",""
"memory-trial","137","324473","0.0-18.0-1.46","8855","approach_avoid_sv1","""event"",""trial"",""time""
""fullscreenenter"",""1"",""1985""
","
","
","""event"",""trial"",""time""
""fullscreenenter"",""1"",""1985""
","
","","","","","","2257.5999999999767","images/dog4.png","","","memory_trial","3","maybe_new",""
"html-keyboard-response","138","324974","0.0-18.0-0.47","8855","approach_avoid_sv1","""event"",""trial"",""time""
""fullscreenenter"",""1"",""1985""
","
","
","""event"",""trial"",""time""
""fullscreenenter"",""1"",""1985""
","
","","","","","","null","<div style=""font-size:60px;"">+</div>","null","","fixation","","",""
"memory-trial","139","327576","0.0-18.0-1.47","8855","approach_avoid_sv1","""event"",""trial"",""time""
""fullscreenenter"",""1"",""1985""
","
","
","""event"",""trial"",""time""
""fullscreenenter"",""1"",""1985""
","
","","","","","","1600.2999999999884","images/cactus8.png","","","memory_trial","1","definitely_old",""
"html-keyboard-response","140","328078","0.0-18.0-0.48","8855","approach_avoid_sv1","""event"",""trial"",""time""
""fullscreenenter"",""1"",""1985""
","
","
","""event"",""trial"",""time""
""fullscreenenter"",""1"",""1985""
","
","","","","","","null","<div style=""font-size:60px;"">+</div>","null","","fixation","","",""
"memory-trial","141","330473","0.0-18.0-1.48","8855","approach_avoid_sv1","""event"",""trial"",""time""
""fullscreenenter"",""1"",""1985""
","
","
","""event"",""trial"",""time""
""fullscreenenter"",""1"",""1985""
","
","","","","","","1392.9000000000233","images/boat7.png","","","memory_trial","3","maybe_new",""
"html-keyboard-response","142","330975","0.0-18.0-0.49","8855","approach_avoid_sv1","""event"",""trial"",""time""
""fullscreenenter"",""1"",""1985""
","
","
","""event"",""trial"",""time""
""fullscreenenter"",""1"",""1985""
","
","","","","","","null","<div style=""font-size:60px;"">+</div>","null","","fixation","","",""
"memory-trial","143","334232","0.0-18.0-1.49","8855","approach_avoid_sv1","""event"",""trial"",""time""
""fullscreenenter"",""1"",""1985""
","
","
","""event"",""trial"",""time""
""fullscreenenter"",""1"",""1985""
","
","","","","","","2255.600000000035","images/apple2.png","","","memory_trial","2","maybe_old",""
"html-keyboard-response","144","334733","0.0-18.0-0.50","8855","approach_avoid_sv1","""event"",""trial"",""time""
""fullscreenenter"",""1"",""1985""
","
","
","""event"",""trial"",""time""
""fullscreenenter"",""1"",""1985""
","
","","","","","","null","<div style=""font-size:60px;"">+</div>","null","","fixation","","",""
"memory-trial","145","336664","0.0-18.0-1.50","8855","approach_avoid_sv1","""event"",""trial"",""time""
""fullscreenenter"",""1"",""1985""
","
","
","""event"",""trial"",""time""
""fullscreenenter"",""1"",""1985""
","
","","","","","","929.2999999999884","images/rabbit8.png","","","memory_trial","1","definitely_old",""
"html-keyboard-response","146","337164","0.0-18.0-0.51","8855","approach_avoid_sv1","""event"",""trial"",""time""
""fullscreenenter"",""1"",""1985""
","
","
","""event"",""trial"",""time""
""fullscreenenter"",""1"",""1985""
","
","","","","","","null","<div style=""font-size:60px;"">+</div>","null","","fixation","","",""
"memory-trial","147","339372","0.0-18.0-1.51","8855","approach_avoid_sv1","""event"",""trial"",""time""
""fullscreenenter"",""1"",""1985""
","
","
","""event"",""trial"",""time""
""fullscreenenter"",""1"",""1985""
","
","","","","","","1202.100000000035","images/bed5.png","","","memory_trial","4","definitely_new",""
"html-keyboard-response","148","339874","0.0-18.0-0.52","8855","approach_avoid_sv1","""event"",""trial"",""time""
""fullscreenenter"",""1"",""1985""
","
","
","""event"",""trial"",""time""
""fullscreenenter"",""1"",""1985""
","
","","","","","","null","<div style=""font-size:60px;"">+</div>","null","","fixation","","",""
"memory-trial","149","341985","0.0-18.0-1.52","8855","approach_avoid_sv1","""event"",""trial"",""time""
""fullscreenenter"",""1"",""1985""
","
","
","""event"",""trial"",""time""
""fullscreenenter"",""1"",""1985""
","
","","","","","","1109","images/bed8.png","","","memory_trial","3","maybe_new",""
"html-keyboard-response","150","342486","0.0-18.0-0.53","8855","approach_avoid_sv1","""event"",""trial"",""time""
""fullscreenenter"",""1"",""1985""
","
","
","""event"",""trial"",""time""
""fullscreenenter"",""1"",""1985""
","
","","","","","","null","<div style=""font-size:60px;"">+</div>","null","","fixation","","",""
"memory-trial","151","345007","0.0-18.0-1.53","8855","approach_avoid_sv1","""event"",""trial"",""time""
""fullscreenenter"",""1"",""1985""
","
","
","""event"",""trial"",""time""
""fullscreenenter"",""1"",""1985""
","
","","","","","","1512.7999999999884","images/sofa4.png","","","memory_trial","3","maybe_new",""
"html-keyboard-response","152","345509","0.0-18.0-0.54","8855","approach_avoid_sv1","""event"",""trial"",""time""
""fullscreenenter"",""1"",""1985""
","
","
","""event"",""trial"",""time""
""fullscreenenter"",""1"",""1985""
","
","","","","","","null","<div style=""font-size:60px;"">+</div>","null","","fixation","","",""
"memory-trial","153","348008","0.0-18.0-1.54","8855","approach_avoid_sv1","""event"",""trial"",""time""
""fullscreenenter"",""1"",""1985""
","
","
","""event"",""trial"",""time""
""fullscreenenter"",""1"",""1985""
","
","","","","","","1497.7999999999884","images/dog8.png","","","memory_trial","2","maybe_old",""
"html-keyboard-response","154","348509","0.0-18.0-0.55","8855","approach_avoid_sv1","""event"",""trial"",""time""
""fullscreenenter"",""1"",""1985""
","
","
","""event"",""trial"",""time""
""fullscreenenter"",""1"",""1985""
","
","","","","","","null","<div style=""font-size:60px;"">+</div>","null","","fixation","","",""
"memory-trial","155","350928","0.0-18.0-1.55","8855","approach_avoid_sv1","""event"",""trial"",""time""
""fullscreenenter"",""1"",""1985""
","
","
","""event"",""trial"",""time""
""fullscreenenter"",""1"",""1985""
","
","","","","","","1416.899999999965","images/banana1.png","","","memory_trial","3","maybe_new",""
"html-keyboard-response","156","351430","0.0-18.0-0.56","8855","approach_avoid_sv1","""event"",""trial"",""time""
""fullscreenenter"",""1"",""1985""
","
","
","""event"",""trial"",""time""
""fullscreenenter"",""1"",""1985""
","
","","","","","","null","<div style=""font-size:60px;"">+</div>","null","","fixation","","",""
"memory-trial","157","353320","0.0-18.0-1.56","8855","approach_avoid_sv1","""event"",""trial"",""time""
""fullscreenenter"",""1"",""1985""
","
","
","""event"",""trial"",""time""
""fullscreenenter"",""1"",""1985""
","
","","","","","","889.0999999999767","images/sofa8.png","","","memory_trial","3","maybe_new",""
"html-keyboard-response","158","353821","0.0-18.0-0.57","8855","approach_avoid_sv1","""event"",""trial"",""time""
""fullscreenenter"",""1"",""1985""
","
","
","""event"",""trial"",""time""
""fullscreenenter"",""1"",""1985""
","
","","","","","","null","<div style=""font-size:60px;"">+</div>","null","","fixation","","",""
"memory-trial","159","356856","0.0-18.0-1.57","8855","approach_avoid_sv1","""event"",""trial"",""time""
""fullscreenenter"",""1"",""1985""
","
","
","""event"",""trial"",""time""
""fullscreenenter"",""1"",""1985""
","
","","","","","","2034.399999999965","images/cow4.png","","","memory_trial","2","maybe_old",""
"html-keyboard-response","160","357357","0.0-18.0-0.58","8855","approach_avoid_sv1","""event"",""trial"",""time""
""fullscreenenter"",""1"",""1985""
","
","
","""event"",""trial"",""time""
""fullscreenenter"",""1"",""1985""
","
","","","","","","null","<div style=""font-size:60px;"">+</div>","null","","fixation","","",""
"memory-trial","161","359146","0.0-18.0-1.58","8855","approach_avoid_sv1","""event"",""trial"",""time""
""fullscreenenter"",""1"",""1985""
","
","
","""event"",""trial"",""time""
""fullscreenenter"",""1"",""1985""
","
","","","","","","786.5","images/bush2.png","","","memory_trial","3","maybe_new",""
"html-keyboard-response","162","359646","0.0-18.0-0.59","8855","approach_avoid_sv1","""event"",""trial"",""time""
""fullscreenenter"",""1"",""1985""
","
","
","""event"",""trial"",""time""
""fullscreenenter"",""1"",""1985""
","
","","","","","","null","<div style=""font-size:60px;"">+</div>","null","","fixation","","",""
"memory-trial","163","361441","0.0-18.0-1.59","8855","approach_avoid_sv1","""event"",""trial"",""time""
""fullscreenenter"",""1"",""1985""
","
","
","""event"",""trial"",""time""
""fullscreenenter"",""1"",""1985""
","
","","","","","","792.7999999999884","images/bed3.png","","","memory_trial","3","maybe_new",""
"html-keyboard-response","164","361942","0.0-18.0-0.60","8855","approach_avoid_sv1","""event"",""trial"",""time""
""fullscreenenter"",""1"",""1985""
","
","
","""event"",""trial"",""time""
""fullscreenenter"",""1"",""1985""
","
","","","","","","null","<div style=""font-size:60px;"">+</div>","null","","fixation","","",""
"memory-trial","165","364065","0.0-18.0-1.60","8855","approach_avoid_sv1","""event"",""trial"",""time""
""fullscreenenter"",""1"",""1985""
","
","
","""event"",""trial"",""time""
""fullscreenenter"",""1"",""1985""
","
","","","","","","1121.2999999999884","images/rabbit6.png","","","memory_trial","2","maybe_old",""
"html-keyboard-response","166","364568","0.0-18.0-0.61","8855","approach_avoid_sv1","""event"",""trial"",""time""
""fullscreenenter"",""1"",""1985""
","
","
","""event"",""trial"",""time""
""fullscreenenter"",""1"",""1985""
","
","","","","","","null","<div style=""font-size:60px;"">+</div>","null","","fixation","","",""
"memory-trial","167","367096","0.0-18.0-1.61","8855","approach_avoid_sv1","""event"",""trial"",""time""
""fullscreenenter"",""1"",""1985""
","
","
","""event"",""trial"",""time""
""fullscreenenter"",""1"",""1985""
","
","","","","","","1527","images/boat4.png","","","memory_trial","4","definitely_new",""
"html-keyboard-response","168","367597","0.0-18.0-0.62","8855","approach_avoid_sv1","""event"",""trial"",""time""
""fullscreenenter"",""1"",""1985""
","
","
","""event"",""trial"",""time""
""fullscreenenter"",""1"",""1985""
","
","","","","","","null","<div style=""font-size:60px;"">+</div>","null","","fixation","","",""
"memory-trial","169","370121","0.0-18.0-1.62","8855","approach_avoid_sv1","""event"",""trial"",""time""
""fullscreenenter"",""1"",""1985""
","
","
","""event"",""trial"",""time""
""fullscreenenter"",""1"",""1985""
","
","","","","","","1521.899999999965","images/flower7.png","","","memory_trial","4","definitely_new",""
"html-keyboard-response","170","370622","0.0-18.0-0.63","8855","approach_avoid_sv1","""event"",""trial"",""time""
""fullscreenenter"",""1"",""1985""
","
","
","""event"",""trial"",""time""
""fullscreenenter"",""1"",""1985""
","
","","","","","","null","<div style=""font-size:60px;"">+</div>","null","","fixation","","",""
"memory-trial","171","372544","0.0-18.0-1.63","8855","approach_avoid_sv1","""event"",""trial"",""time""
""fullscreenenter"",""1"",""1985""
","
","
","""event"",""trial"",""time""
""fullscreenenter"",""1"",""1985""
","
","","","","","","920.5","images/train7.png","","","memory_trial","1","definitely_old",""
"html-keyboard-response","172","373045","0.0-18.0-0.64","8855","approach_avoid_sv1","""event"",""trial"",""time""
""fullscreenenter"",""1"",""1985""
","
","
","""event"",""trial"",""time""
""fullscreenenter"",""1"",""1985""
","
","","","","","","null","<div style=""font-size:60px;"">+</div>","null","","fixation","","",""
"memory-trial","173","375159","0.0-18.0-1.64","8855","approach_avoid_sv1","""event"",""trial"",""time""
""fullscreenenter"",""1"",""1985""
","
","
","""event"",""trial"",""time""
""fullscreenenter"",""1"",""1985""
","
","","","","","","1098.2000000000116","images/straw5.png","","","memory_trial","3","maybe_new",""
"html-keyboard-response","174","375660","0.0-18.0-0.65","8855","approach_avoid_sv1","""event"",""trial"",""time""
""fullscreenenter"",""1"",""1985""
","
","
","""event"",""trial"",""time""
""fullscreenenter"",""1"",""1985""
","
","","","","","","null","<div style=""font-size:60px;"">+</div>","null","","fixation","","",""
"memory-trial","175","377801","0.0-18.0-1.65","8855","approach_avoid_sv1","""event"",""trial"",""time""
""fullscreenenter"",""1"",""1985""
","
","
","""event"",""trial"",""time""
""fullscreenenter"",""1"",""1985""
","
","","","","","","1139.5999999999767","images/truck8.png","","","memory_trial","1","definitely_old",""
"html-keyboard-response","176","378302","0.0-18.0-0.66","8855","approach_avoid_sv1","""event"",""trial"",""time""
""fullscreenenter"",""1"",""1985""
","
","
","""event"",""trial"",""time""
""fullscreenenter"",""1"",""1985""
","
","","","","","","null","<div style=""font-size:60px;"">+</div>","null","","fixation","","",""
"memory-trial","177","380193","0.0-18.0-1.66","8855","approach_avoid_sv1","""event"",""trial"",""time""
""fullscreenenter"",""1"",""1985""
","
","
","""event"",""trial"",""time""
""fullscreenenter"",""1"",""1985""
","
","","","","","","888.6000000000349","images/rabbit7.png","","","memory_trial","1","definitely_old",""
"html-keyboard-response","178","380694","0.0-18.0-0.67","8855","approach_avoid_sv1","""event"",""trial"",""time""
""fullscreenenter"",""1"",""1985""
","
","
","""event"",""trial"",""time""
""fullscreenenter"",""1"",""1985""
","
","","","","","","null","<div style=""font-size:60px;"">+</div>","null","","fixation","","",""
"memory-trial","179","382880","0.0-18.0-1.67","8855","approach_avoid_sv1","""event"",""trial"",""time""
""fullscreenenter"",""1"",""1985""
","
","
","""event"",""trial"",""time""
""fullscreenenter"",""1"",""1985""
","
","","","","","","1184.5","images/goat1.png","","","memory_trial","4","definitely_new",""
"html-keyboard-response","180","383381","0.0-18.0-0.68","8855","approach_avoid_sv1","""event"",""trial"",""time""
""fullscreenenter"",""1"",""1985""
","
","
","""event"",""trial"",""time""
""fullscreenenter"",""1"",""1985""
","
","","","","","","null","<div style=""font-size:60px;"">+</div>","null","","fixation","","",""
"memory-trial","181","385464","0.0-18.0-1.68","8855","approach_avoid_sv1","""event"",""trial"",""time""
""fullscreenenter"",""1"",""1985""
","
","
","""event"",""trial"",""time""
""fullscreenenter"",""1"",""1985""
","
","","","","","","1081.5999999999767","images/goat6.png","","","memory_trial","4","definitely_new",""
"html-keyboard-response","182","385965","0.0-18.0-0.69","8855","approach_avoid_sv1","""event"",""trial"",""time""
""fullscreenenter"",""1"",""1985""
","
","
","""event"",""trial"",""time""
""fullscreenenter"",""1"",""1985""
","
","","","","","","null","<div style=""font-size:60px;"">+</div>","null","","fixation","","",""
"memory-trial","183","388137","0.0-18.0-1.69","8855","approach_avoid_sv1","""event"",""trial"",""time""
""fullscreenenter"",""1"",""1985""
","
","
","""event"",""trial"",""time""
""fullscreenenter"",""1"",""1985""
","
","","","","","","1170","images/orange6.png","","","memory_trial","1","definitely_old",""
"html-keyboard-response","184","388639","0.0-18.0-0.70","8855","approach_avoid_sv1","""event"",""trial"",""time""
""fullscreenenter"",""1"",""1985""
","
","
","""event"",""trial"",""time""
""fullscreenenter"",""1"",""1985""
","
","","","","","","null","<div style=""font-size:60px;"">+</div>","null","","fixation","","",""
"memory-trial","185","391232","0.0-18.0-1.70","8855","approach_avoid_sv1","""event"",""trial"",""time""
""fullscreenenter"",""1"",""1985""
","
","
","""event"",""trial"",""time""
""fullscreenenter"",""1"",""1985""
","
","","","","","","1592","images/chair7.png","","","memory_trial","3","maybe_new",""
"html-keyboard-response","186","391734","0.0-18.0-0.71","8855","approach_avoid_sv1","""event"",""trial"",""time""
""fullscreenenter"",""1"",""1985""
","
","
","""event"",""trial"",""time""
""fullscreenenter"",""1"",""1985""
","
","","","","","","null","<div style=""font-size:60px;"">+</div>","null","","fixation","","",""
"memory-trial","187","393809","0.0-18.0-1.71","8855","approach_avoid_sv1","""event"",""trial"",""time""
""fullscreenenter"",""1"",""1985""
","
","
","""event"",""trial"",""time""
""fullscreenenter"",""1"",""1985""
","
","","","","","","1065","images/bed2.png","","","memory_trial","4","definitely_new",""
"html-keyboard-response","188","394309","0.0-18.0-0.72","8855","approach_avoid_sv1","""event"",""trial"",""time""
""fullscreenenter"",""1"",""1985""
","
","
","""event"",""trial"",""time""
""fullscreenenter"",""1"",""1985""
","
","","","","","","null","<div style=""font-size:60px;"">+</div>","null","","fixation","","",""
"memory-trial","189","396545","0.0-18.0-1.72","8855","approach_avoid_sv1","""event"",""trial"",""time""
""fullscreenenter"",""1"",""1985""
","
","
","""event"",""trial"",""time""
""fullscreenenter"",""1"",""1985""
","
","","","","","","1233.5999999999767","images/table2.png","","","memory_trial","4","definitely_new",""
"html-keyboard-response","190","397046","0.0-18.0-0.73","8855","approach_avoid_sv1","""event"",""trial"",""time""
""fullscreenenter"",""1"",""1985""
","
","
","""event"",""trial"",""time""
""fullscreenenter"",""1"",""1985""
","
","","","","","","null","<div style=""font-size:60px;"">+</div>","null","","fixation","","",""
"memory-trial","191","400056","0.0-18.0-1.73","8855","approach_avoid_sv1","""event"",""trial"",""time""
""fullscreenenter"",""1"",""1985""
","
","
","""event"",""trial"",""time""
""fullscreenenter"",""1"",""1985""
","
","","","","","","2008.399999999965","images/dog6.png","","","memory_trial","2","maybe_old",""
"html-keyboard-response","192","400557","0.0-18.0-0.74","8855","approach_avoid_sv1","""event"",""trial"",""time""
""fullscreenenter"",""1"",""1985""
","
","
","""event"",""trial"",""time""
""fullscreenenter"",""1"",""1985""
","
","","","","","","null","<div style=""font-size:60px;"">+</div>","null","","fixation","","",""
"memory-trial","193","402945","0.0-18.0-1.74","8855","approach_avoid_sv1","""event"",""trial"",""time""
""fullscreenenter"",""1"",""1985""
","
","
","""event"",""trial"",""time""
""fullscreenenter"",""1"",""1985""
","
","","","","","","1385.8000000000466","images/boat6.png","","","memory_trial","3","maybe_new",""
"html-keyboard-response","194","403446","0.0-18.0-0.75","8855","approach_avoid_sv1","""event"",""trial"",""time""
""fullscreenenter"",""1"",""1985""
","
","
","""event"",""trial"",""time""
""fullscreenenter"",""1"",""1985""
","
","","","","","","null","<div style=""font-size:60px;"">+</div>","null","","fixation","","",""
"memory-trial","195","406954","0.0-18.0-1.75","8855","approach_avoid_sv1","""event"",""trial"",""time""
""fullscreenenter"",""1"",""1985""
","
","
","""event"",""trial"",""time""
""fullscreenenter"",""1"",""1985""
","
","","","","","","2504.8000000000466","images/orange5.png","","","memory_trial","3","maybe_new",""
"html-keyboard-response","196","407455","0.0-18.0-0.76","8855","approach_avoid_sv1","""event"",""trial"",""time""
""fullscreenenter"",""1"",""1985""
","
","
","""event"",""trial"",""time""
""fullscreenenter"",""1"",""1985""
","
","","","","","","null","<div style=""font-size:60px;"">+</div>","null","","fixation","","",""
"memory-trial","197","409624","0.0-18.0-1.76","8855","approach_avoid_sv1","""event"",""trial"",""time""
""fullscreenenter"",""1"",""1985""
","
","
","""event"",""trial"",""time""
""fullscreenenter"",""1"",""1985""
","
","","","","","","1167.6999999999534","images/banana5.png","","","memory_trial","1","definitely_old",""
"html-keyboard-response","198","410126","0.0-18.0-0.77","8855","approach_avoid_sv1","""event"",""trial"",""time""
""fullscreenenter"",""1"",""1985""
","
","
","""event"",""trial"",""time""
""fullscreenenter"",""1"",""1985""
","
","","","","","","null","<div style=""font-size:60px;"">+</div>","null","","fixation","","",""
"memory-trial","199","413248","0.0-18.0-1.77","8855","approach_avoid_sv1","""event"",""trial"",""time""
""fullscreenenter"",""1"",""1985""
","
","
","""event"",""trial"",""time""
""fullscreenenter"",""1"",""1985""
","
","","","","","","2121.4000000000233","images/apple3.png","","","memory_trial","3","maybe_new",""
"html-keyboard-response","200","413750","0.0-18.0-0.78","8855","approach_avoid_sv1","""event"",""trial"",""time""
""fullscreenenter"",""1"",""1985""
","
","
","""event"",""trial"",""time""
""fullscreenenter"",""1"",""1985""
","
","","","","","","null","<div style=""font-size:60px;"">+</div>","null","","fixation","","",""
"memory-trial","201","416176","0.0-18.0-1.78","8855","approach_avoid_sv1","""event"",""trial"",""time""
""fullscreenenter"",""1"",""1985""
","
","
","""event"",""trial"",""time""
""fullscreenenter"",""1"",""1985""
","
","","","","","","1424.9000000000233","images/banana8.png","","","memory_trial","2","maybe_old",""
"html-keyboard-response","202","416677","0.0-18.0-0.79","8855","approach_avoid_sv1","""event"",""trial"",""time""
""fullscreenenter"",""1"",""1985""
","
","
","""event"",""trial"",""time""
""fullscreenenter"",""1"",""1985""
","
","","","","","","null","<div style=""font-size:60px;"">+</div>","null","","fixation","","",""
"memory-trial","203","418897","0.0-18.0-1.79","8855","approach_avoid_sv1","""event"",""trial"",""time""
""fullscreenenter"",""1"",""1985""
","
","
","""event"",""trial"",""time""
""fullscreenenter"",""1"",""1985""
","
","","","","","","1218","images/apple4.png","","","memory_trial","4","definitely_new",""
"html-keyboard-response","204","419397","0.0-18.0-0.80","8855","approach_avoid_sv1","""event"",""trial"",""time""
""fullscreenenter"",""1"",""1985""
","
","
","""event"",""trial"",""time""
""fullscreenenter"",""1"",""1985""
","
","","","","","","null","<div style=""font-size:60px;"">+</div>","null","","fixation","","",""
"memory-trial","205","421425","0.0-18.0-1.80","8855","approach_avoid_sv1","""event"",""trial"",""time""
""fullscreenenter"",""1"",""1985""
","
","
","""event"",""trial"",""time""
""fullscreenenter"",""1"",""1985""
","
","","","","","","1025.4000000000233","images/horse8.png","","","memory_trial","3","maybe_new",""
"html-keyboard-response","206","421927","0.0-18.0-0.81","8855","approach_avoid_sv1","""event"",""trial"",""time""
""fullscreenenter"",""1"",""1985""
","
","
","""event"",""trial"",""time""
""fullscreenenter"",""1"",""1985""
","
","","","","","","null","<div style=""font-size:60px;"">+</div>","null","","fixation","","",""
"memory-trial","207","424408","0.0-18.0-1.81","8855","approach_avoid_sv1","""event"",""trial"",""time""
""fullscreenenter"",""1"",""1985""
","
","
","""event"",""trial"",""time""
""fullscreenenter"",""1"",""1985""
","
","","","","","","1480.2000000000698","images/straw1.png","","","memory_trial","3","maybe_new",""
"html-keyboard-response","208","424909","0.0-18.0-0.82","8855","approach_avoid_sv1","""event"",""trial"",""time""
""fullscreenenter"",""1"",""1985""
","
","
","""event"",""trial"",""time""
""fullscreenenter"",""1"",""1985""
","
","","","","","","null","<div style=""font-size:60px;"">+</div>","null","","fixation","","",""
"memory-trial","209","427312","0.0-18.0-1.82","8855","approach_avoid_sv1","""event"",""trial"",""time""
""fullscreenenter"",""1"",""1985""
","
","
","""event"",""trial"",""time""
""fullscreenenter"",""1"",""1985""
","
","","","","","","1401.5999999999767","images/plane3.png","","","memory_trial","1","definitely_old",""
"html-keyboard-response","210","427813","0.0-18.0-0.83","8855","approach_avoid_sv1","""event"",""trial"",""time""
""fullscreenenter"",""1"",""1985""
","
","
","""event"",""trial"",""time""
""fullscreenenter"",""1"",""1985""
","
","","","","","","null","<div style=""font-size:60px;"">+</div>","null","","fixation","","",""
"memory-trial","211","430193","0.0-18.0-1.83","8855","approach_avoid_sv1","""event"",""trial"",""time""
""fullscreenenter"",""1"",""1985""
","
","
","""event"",""trial"",""time""
""fullscreenenter"",""1"",""1985""
","
","","","","","","1377.2000000000698","images/boat5.png","","","memory_trial","3","maybe_new",""
"html-keyboard-response","212","430694","0.0-18.0-0.84","8855","approach_avoid_sv1","""event"",""trial"",""time""
""fullscreenenter"",""1"",""1985""
","
","
","""event"",""trial"",""time""
""fullscreenenter"",""1"",""1985""
","
","","","","","","null","<div style=""font-size:60px;"">+</div>","null","","fixation","","",""
"memory-trial","213","433048","0.0-18.0-1.84","8855","approach_avoid_sv1","""event"",""trial"",""time""
""fullscreenenter"",""1"",""1985""
","
","
","""event"",""trial"",""time""
""fullscreenenter"",""1"",""1985""
","
","","","","","","1352.1000000000931","images/straw8.png","","","memory_trial","4","definitely_new",""
"html-keyboard-response","214","433550","0.0-18.0-0.85","8855","approach_avoid_sv1","""event"",""trial"",""time""
""fullscreenenter"",""1"",""1985""
","
","
","""event"",""trial"",""time""
""fullscreenenter"",""1"",""1985""
","
","","","","","","null","<div style=""font-size:60px;"">+</div>","null","","fixation","","",""
"memory-trial","215","435760","0.0-18.0-1.85","8855","approach_avoid_sv1","""event"",""trial"",""time""
""fullscreenenter"",""1"",""1985""
","
","
","""event"",""trial"",""time""
""fullscreenenter"",""1"",""1985""
","
","","","","","","1209.1000000000931","images/chair8.png","","","memory_trial","3","maybe_new",""
"html-keyboard-response","216","436261","0.0-18.0-0.86","8855","approach_avoid_sv1","""event"",""trial"",""time""
""fullscreenenter"",""1"",""1985""
","
","
","""event"",""trial"",""time""
""fullscreenenter"",""1"",""1985""
","
","","","","","","null","<div style=""font-size:60px;"">+</div>","null","","fixation","","",""
"memory-trial","217","438320","0.0-18.0-1.86","8855","approach_avoid_sv1","""event"",""trial"",""time""
""fullscreenenter"",""1"",""1985""
","
","
","""event"",""trial"",""time""
""fullscreenenter"",""1"",""1985""
","
","","","","","","1057.9000000000233","images/train3.png","","","memory_trial","1","definitely_old",""
"html-keyboard-response","218","438822","0.0-18.0-0.87","8855","approach_avoid_sv1","""event"",""trial"",""time""
""fullscreenenter"",""1"",""1985""
","
","
","""event"",""trial"",""time""
""fullscreenenter"",""1"",""1985""
","
","","","","","","null","<div style=""font-size:60px;"">+</div>","null","","fixation","","",""
"memory-trial","219","440593","0.0-18.0-1.87","8855","approach_avoid_sv1","""event"",""trial"",""time""
""fullscreenenter"",""1"",""1985""
","
","
","""event"",""trial"",""time""
""fullscreenenter"",""1"",""1985""
","
","","","","","","768.7000000000698","images/truck6.png","","","memory_trial","1","definitely_old",""
"html-keyboard-response","220","441095","0.0-18.0-0.88","8855","approach_avoid_sv1","""event"",""trial"",""time""
""fullscreenenter"",""1"",""1985""
","
","
","""event"",""trial"",""time""
""fullscreenenter"",""1"",""1985""
","
","","","","","","null","<div style=""font-size:60px;"">+</div>","null","","fixation","","",""
"memory-trial","221","442977","0.0-18.0-1.88","8855","approach_avoid_sv1","""event"",""trial"",""time""
""fullscreenenter"",""1"",""1985""
","
","
","""event"",""trial"",""time""
""fullscreenenter"",""1"",""1985""
","
","","","","","","880.4000000000233","images/plane4.png","","","memory_trial","3","maybe_new",""
"html-keyboard-response","222","443478","0.0-18.0-0.89","8855","approach_avoid_sv1","""event"",""trial"",""time""
""fullscreenenter"",""1"",""1985""
","
","
","""event"",""trial"",""time""
""fullscreenenter"",""1"",""1985""
","
","","","","","","null","<div style=""font-size:60px;"">+</div>","null","","fixation","","",""
"memory-trial","223","445352","0.0-18.0-1.89","8855","approach_avoid_sv1","""event"",""trial"",""time""
""fullscreenenter"",""1"",""1985""
","
","
","""event"",""trial"",""time""
""fullscreenenter"",""1"",""1985""
","
","","","","","","872.1999999999534","images/bush1.png","","","memory_trial","3","maybe_new",""
"html-keyboard-response","224","445853","0.0-18.0-0.90","8855","approach_avoid_sv1","""event"",""trial"",""time""
""fullscreenenter"",""1"",""1985""
","
","
","""event"",""trial"",""time""
""fullscreenenter"",""1"",""1985""
","
","","","","","","null","<div style=""font-size:60px;"">+</div>","null","","fixation","","",""
"memory-trial","225","448240","0.0-18.0-1.90","8855","approach_avoid_sv1","""event"",""trial"",""time""
""fullscreenenter"",""1"",""1985""
","
","
","""event"",""trial"",""time""
""fullscreenenter"",""1"",""1985""
","
","","","","","","1385.8000000000466","images/cactus4.png","","","memory_trial","4","definitely_new",""
"html-keyboard-response","226","448742","0.0-18.0-0.91","8855","approach_avoid_sv1","""event"",""trial"",""time""
""fullscreenenter"",""1"",""1985""
","
","
","""event"",""trial"",""time""
""fullscreenenter"",""1"",""1985""
","
","","","","","","null","<div style=""font-size:60px;"">+</div>","null","","fixation","","",""
"memory-trial","227","451492","0.0-18.0-1.91","8855","approach_avoid_sv1","""event"",""trial"",""time""
""fullscreenenter"",""1"",""1985""
","
","
","""event"",""trial"",""time""
""fullscreenenter"",""1"",""1985""
","
","","","","","","1736.8000000000466","images/cat8.png","","","memory_trial","3","maybe_new",""
"html-button-response","228","455149","0.0-18.0-2.91-0.91","8855","approach_avoid_sv1","""event"",""trial"",""time""
""fullscreenenter"",""1"",""1985""
","
","
","""event"",""trial"",""time""
""fullscreenenter"",""1"",""1985""
","
","","","","","","3656.1999999999534","<p> Take a break! </p><p> Click the button to continue. </p>","0","","break","","",""
"html-keyboard-response","229","455649","0.0-18.0-0.92","8855","approach_avoid_sv1","""event"",""trial"",""time""
""fullscreenenter"",""1"",""1985""
","
","
","""event"",""trial"",""time""
""fullscreenenter"",""1"",""1985""
","
","","","","","","null","<div style=""font-size:60px;"">+</div>","null","","fixation","","",""
"memory-trial","230","458040","0.0-18.0-1.92","8855","approach_avoid_sv1","""event"",""trial"",""time""
""fullscreenenter"",""1"",""1985""
","
","
","""event"",""trial"",""time""
""fullscreenenter"",""1"",""1985""
","
","","","","","","1389.2999999999302","images/plane2.png","","","memory_trial","1","definitely_old",""
"html-keyboard-response","231","458541","0.0-18.0-0.93","8855","approach_avoid_sv1","""event"",""trial"",""time""
""fullscreenenter"",""1"",""1985""
","
","
","""event"",""trial"",""time""
""fullscreenenter"",""1"",""1985""
","
","","","","","","null","<div style=""font-size:60px;"">+</div>","null","","fixation","","",""
"memory-trial","232","461264","0.0-18.0-1.93","8855","approach_avoid_sv1","""event"",""trial"",""time""
""fullscreenenter"",""1"",""1985""
","
","
","""event"",""trial"",""time""
""fullscreenenter"",""1"",""1985""
","
","","","","","","1721.8000000000466","images/orange7.png","","","memory_trial","3","maybe_new",""
"html-keyboard-response","233","461769","0.0-18.0-0.94","8855","approach_avoid_sv1","""event"",""trial"",""time""
""fullscreenenter"",""1"",""1985""
","
","
","""event"",""trial"",""time""
""fullscreenenter"",""1"",""1985""
","
","","","","","","null","<div style=""font-size:60px;"">+</div>","null","","fixation","","",""
"memory-trial","234","465121","0.0-18.0-1.94","8855","approach_avoid_sv1","""event"",""trial"",""time""
""fullscreenenter"",""1"",""1985""
","
","
","""event"",""trial"",""time""
""fullscreenenter"",""1"",""1985""
","
","","","","","","2350.0999999999767","images/truck2.png","","","memory_trial","2","maybe_old",""
"html-keyboard-response","235","465622","0.0-18.0-0.95","8855","approach_avoid_sv1","""event"",""trial"",""time""
""fullscreenenter"",""1"",""1985""
","
","
","""event"",""trial"",""time""
""fullscreenenter"",""1"",""1985""
","
","","","","","","null","<div style=""font-size:60px;"">+</div>","null","","fixation","","",""
"memory-trial","236","468273","0.0-18.0-1.95","8855","approach_avoid_sv1","""event"",""trial"",""time""
""fullscreenenter"",""1"",""1985""
","
","
","""event"",""trial"",""time""
""fullscreenenter"",""1"",""1985""
","
","","","","","","1648.7000000000698","images/horse2.png","","","memory_trial","4","definitely_new",""
"html-keyboard-response","237","468775","0.0-18.0-0.96","8855","approach_avoid_sv1","""event"",""trial"",""time""
""fullscreenenter"",""1"",""1985""
","
","
","""event"",""trial"",""time""
""fullscreenenter"",""1"",""1985""
","
","","","","","","null","<div style=""font-size:60px;"">+</div>","null","","fixation","","",""
"memory-trial","238","470712","0.0-18.0-1.96","8855","approach_avoid_sv1","""event"",""trial"",""time""
""fullscreenenter"",""1"",""1985""
","
","
","""event"",""trial"",""time""
""fullscreenenter"",""1"",""1985""
","
","","","","","","935.5","images/rabbit1.png","","","memory_trial","1","definitely_old",""
"html-keyboard-response","239","471212","0.0-18.0-0.97","8855","approach_avoid_sv1","""event"",""trial"",""time""
""fullscreenenter"",""1"",""1985""
","
","
","""event"",""trial"",""time""
""fullscreenenter"",""1"",""1985""
","
","","","","","","null","<div style=""font-size:60px;"">+</div>","null","","fixation","","",""
"memory-trial","240","473608","0.0-18.0-1.97","8855","approach_avoid_sv1","""event"",""trial"",""time""
""fullscreenenter"",""1"",""1985""
","
","
","""event"",""trial"",""time""
""fullscreenenter"",""1"",""1985""
","
","","","","","","1394.6999999999534","images/cow3.png","","","memory_trial","2","maybe_old",""
"html-keyboard-response","241","474110","0.0-18.0-0.98","8855","approach_avoid_sv1","""event"",""trial"",""time""
""fullscreenenter"",""1"",""1985""
","
","
","""event"",""trial"",""time""
""fullscreenenter"",""1"",""1985""
","
","","","","","","null","<div style=""font-size:60px;"">+</div>","null","","fixation","","",""
"memory-trial","242","476969","0.0-18.0-1.98","8855","approach_avoid_sv1","""event"",""trial"",""time""
""fullscreenenter"",""1"",""1985""
","
","
","""event"",""trial"",""time""
""fullscreenenter"",""1"",""1985""
","
","","","","","","1857","images/table8.png","","","memory_trial","3","maybe_new",""
"html-keyboard-response","243","477470","0.0-18.0-0.99","8855","approach_avoid_sv1","""event"",""trial"",""time""
""fullscreenenter"",""1"",""1985""
","
","
","""event"",""trial"",""time""
""fullscreenenter"",""1"",""1985""
","
","","","","","","null","<div style=""font-size:60px;"">+</div>","null","","fixation","","",""
"memory-trial","244","479297","0.0-18.0-1.99","8855","approach_avoid_sv1","""event"",""trial"",""time""
""fullscreenenter"",""1"",""1985""
","
","
","""event"",""trial"",""time""
""fullscreenenter"",""1"",""1985""
","
","","","","","","824.5","images/straw4.png","","","memory_trial","3","maybe_new",""
"html-keyboard-response","245","479798","0.0-18.0-0.100","8855","approach_avoid_sv1","""event"",""trial"",""time""
""fullscreenenter"",""1"",""1985""
","
","
","""event"",""trial"",""time""
""fullscreenenter"",""1"",""1985""
","
","","","","","","null","<div style=""font-size:60px;"">+</div>","null","","fixation","","",""
"memory-trial","246","482888","0.0-18.0-1.100","8855","approach_avoid_sv1","""event"",""trial"",""time""
""fullscreenenter"",""1"",""1985""
","
","
","""event"",""trial"",""time""
""fullscreenenter"",""1"",""1985""
","
","","","","","","2088.9000000000233","images/plane6.png","","","memory_trial","2","maybe_old",""
"html-keyboard-response","247","483389","0.0-18.0-0.101","8855","approach_avoid_sv1","""event"",""trial"",""time""
""fullscreenenter"",""1"",""1985""
","
","
","""event"",""trial"",""time""
""fullscreenenter"",""1"",""1985""
","
","","","","","","null","<div style=""font-size:60px;"">+</div>","null","","fixation","","",""
"memory-trial","248","486065","0.0-18.0-1.101","8855","approach_avoid_sv1","""event"",""trial"",""time""
""fullscreenenter"",""1"",""1985""
","
","
","""event"",""trial"",""time""
""fullscreenenter"",""1"",""1985""
","
","","","","","","1673.6000000000931","images/boat2.png","","","memory_trial","3","maybe_new",""
"html-keyboard-response","249","486566","0.0-18.0-0.102","8855","approach_avoid_sv1","""event"",""trial"",""time""
""fullscreenenter"",""1"",""1985""
","
","
","""event"",""trial"",""time""
""fullscreenenter"",""1"",""1985""
","
","","","","","","null","<div style=""font-size:60px;"">+</div>","null","","fixation","","",""
"memory-trial","250","489305","0.0-18.0-1.102","8855","approach_avoid_sv1","""event"",""trial"",""time""
""fullscreenenter"",""1"",""1985""
","
","
","""event"",""trial"",""time""
""fullscreenenter"",""1"",""1985""
","
","","","","","","1737.1000000000931","images/cow5.png","","","memory_trial","3","maybe_new",""
"html-keyboard-response","251","489805","0.0-18.0-0.103","8855","approach_avoid_sv1","""event"",""trial"",""time""
""fullscreenenter"",""1"",""1985""
","
","
","""event"",""trial"",""time""
""fullscreenenter"",""1"",""1985""
","
","","","","","","null","<div style=""font-size:60px;"">+</div>","null","","fixation","","",""
"memory-trial","252","492048","0.0-18.0-1.103","8855","approach_avoid_sv1","""event"",""trial"",""time""
""fullscreenenter"",""1"",""1985""
","
","
","""event"",""trial"",""time""
""fullscreenenter"",""1"",""1985""
","
","","","","","","1241.1999999999534","images/horse6.png","","","memory_trial","4","definitely_new",""
"html-keyboard-response","253","492561","0.0-18.0-0.104","8855","approach_avoid_sv1","""event"",""trial"",""time""
""fullscreenenter"",""1"",""1985""
","
","
","""event"",""trial"",""time""
""fullscreenenter"",""1"",""1985""
","
","","","","","","null","<div style=""font-size:60px;"">+</div>","null","","fixation","","",""
"memory-trial","254","495128","0.0-18.0-1.104","8855","approach_avoid_sv1","""event"",""trial"",""time""
""fullscreenenter"",""1"",""1985""
","
","
","""event"",""trial"",""time""
""fullscreenenter"",""1"",""1985""
","
","","","","","","1564.6999999999534","images/sheep6.png","","","memory_trial","1","definitely_old",""
"html-keyboard-response","255","495638","0.0-18.0-0.105","8855","approach_avoid_sv1","""event"",""trial"",""time""
""fullscreenenter"",""1"",""1985""
","
","
","""event"",""trial"",""time""
""fullscreenenter"",""1"",""1985""
","
","","","","","","null","<div style=""font-size:60px;"">+</div>","null","","fixation","","",""
"memory-trial","256","498344","0.0-18.0-1.105","8855","approach_avoid_sv1","""event"",""trial"",""time""
""fullscreenenter"",""1"",""1985""
","
","
","""event"",""trial"",""time""
""fullscreenenter"",""1"",""1985""
","
","","","","","","1704.5999999999767","images/truck5.png","","","memory_trial","3","maybe_new",""
"html-keyboard-response","257","498846","0.0-18.0-0.106","8855","approach_avoid_sv1","""event"",""trial"",""time""
""fullscreenenter"",""1"",""1985""
","
","
","""event"",""trial"",""time""
""fullscreenenter"",""1"",""1985""
","
","","","","","","null","<div style=""font-size:60px;"">+</div>","null","","fixation","","",""
"memory-trial","258","501856","0.0-18.0-1.106","8855","approach_avoid_sv1","""event"",""trial"",""time""
""fullscreenenter"",""1"",""1985""
","
","
","""event"",""trial"",""time""
""fullscreenenter"",""1"",""1985""
","
","","","","","","2008","images/train6.png","","","memory_trial","3","maybe_new",""
"html-keyboard-response","259","502358","0.0-18.0-0.107","8855","approach_avoid_sv1","""event"",""trial"",""time""
""fullscreenenter"",""1"",""1985""
","
","
","""event"",""trial"",""time""
""fullscreenenter"",""1"",""1985""
","
","","","","","","null","<div style=""font-size:60px;"">+</div>","null","","fixation","","",""
"memory-trial","260","504759","0.0-18.0-1.107","8855","approach_avoid_sv1","""event"",""trial"",""time""
""fullscreenenter"",""1"",""1985""
","
","
","""event"",""trial"",""time""
""fullscreenenter"",""1"",""1985""
","
","","","","","","1400.5","images/cow6.png","","","memory_trial","3","maybe_new",""
"html-keyboard-response","261","505261","0.0-18.0-0.108","8855","approach_avoid_sv1","""event"",""trial"",""time""
""fullscreenenter"",""1"",""1985""
","
","
","""event"",""trial"",""time""
""fullscreenenter"",""1"",""1985""
","
","","","","","","null","<div style=""font-size:60px;"">+</div>","null","","fixation","","",""
"memory-trial","262","507079","0.0-18.0-1.108","8855","approach_avoid_sv1","""event"",""trial"",""time""
""fullscreenenter"",""1"",""1985""
","
","
","""event"",""trial"",""time""
""fullscreenenter"",""1"",""1985""
","
","","","","","","817.0999999999767","images/bush7.png","","","memory_trial","3","maybe_new",""
"html-keyboard-response","263","507581","0.0-18.0-0.109","8855","approach_avoid_sv1","""event"",""trial"",""time""
""fullscreenenter"",""1"",""1985""
","
","
","""event"",""trial"",""time""
""fullscreenenter"",""1"",""1985""
","
","","","","","","null","<div style=""font-size:60px;"">+</div>","null","","fixation","","",""
"memory-trial","264","509328","0.0-18.0-1.109","8855","approach_avoid_sv1","""event"",""trial"",""time""
""fullscreenenter"",""1"",""1985""
","
","
","""event"",""trial"",""time""
""fullscreenenter"",""1"",""1985""
","
","","","","","","745.3000000000466","images/horse4.png","","","memory_trial","4","definitely_new",""
"html-keyboard-response","265","509829","0.0-18.0-0.110","8855","approach_avoid_sv1","""event"",""trial"",""time""
""fullscreenenter"",""1"",""1985""
","
","
","""event"",""trial"",""time""
""fullscreenenter"",""1"",""1985""
","
","","","","","","null","<div style=""font-size:60px;"">+</div>","null","","fixation","","",""
"memory-trial","266","513216","0.0-18.0-1.110","8855","approach_avoid_sv1","""event"",""trial"",""time""
""fullscreenenter"",""1"",""1985""
","
","
","""event"",""trial"",""time""
""fullscreenenter"",""1"",""1985""
","
","","","","","","2385.4000000000233","images/train5.png","","","memory_trial","4","definitely_new",""
"html-keyboard-response","267","513718","0.0-18.0-0.111","8855","approach_avoid_sv1","""event"",""trial"",""time""
""fullscreenenter"",""1"",""1985""
","
","
","""event"",""trial"",""time""
""fullscreenenter"",""1"",""1985""
","
","","","","","","null","<div style=""font-size:60px;"">+</div>","null","","fixation","","",""
"memory-trial","268","515863","0.0-18.0-1.111","8855","approach_avoid_sv1","""event"",""trial"",""time""
""fullscreenenter"",""1"",""1985""
","
","
","""event"",""trial"",""time""
""fullscreenenter"",""1"",""1985""
","
","","","","","","1144.2000000000698","images/cow2.png","","","memory_trial","4","definitely_new",""
"html-keyboard-response","269","516364","0.0-18.0-0.112","8855","approach_avoid_sv1","""event"",""trial"",""time""
""fullscreenenter"",""1"",""1985""
","
","
","""event"",""trial"",""time""
""fullscreenenter"",""1"",""1985""
","
","","","","","","null","<div style=""font-size:60px;"">+</div>","null","","fixation","","",""
"memory-trial","270","519248","0.0-18.0-1.112","8855","approach_avoid_sv1","""event"",""trial"",""time""
""fullscreenenter"",""1"",""1985""
","
","
","""event"",""trial"",""time""
""fullscreenenter"",""1"",""1985""
","
","","","","","","1882.1999999999534","images/rodent2.png","","","memory_trial","2","maybe_old",""
"html-keyboard-response","271","519750","0.0-18.0-0.113","8855","approach_avoid_sv1","""event"",""trial"",""time""
""fullscreenenter"",""1"",""1985""
","
","
","""event"",""trial"",""time""
""fullscreenenter"",""1"",""1985""
","
","","","","","","null","<div style=""font-size:60px;"">+</div>","null","","fixation","","",""
"memory-trial","272","522192","0.0-18.0-1.113","8855","approach_avoid_sv1","""event"",""trial"",""time""
""fullscreenenter"",""1"",""1985""
","
","
","""event"",""trial"",""time""
""fullscreenenter"",""1"",""1985""
","
","","","","","","1440.5999999999767","images/orange3.png","","","memory_trial","3","maybe_new",""
"html-keyboard-response","273","522694","0.0-18.0-0.114","8855","approach_avoid_sv1","""event"",""trial"",""time""
""fullscreenenter"",""1"",""1985""
","
","
","""event"",""trial"",""time""
""fullscreenenter"",""1"",""1985""
","
","","","","","","null","<div style=""font-size:60px;"">+</div>","null","","fixation","","",""
"memory-trial","274","524800","0.0-18.0-1.114","8855","approach_avoid_sv1","""event"",""trial"",""time""
""fullscreenenter"",""1"",""1985""
","
","
","""event"",""trial"",""time""
""fullscreenenter"",""1"",""1985""
","
","","","","","","1104.4000000000233","images/chair5.png","","","memory_trial","2","maybe_old",""
"html-keyboard-response","275","525302","0.0-18.0-0.115","8855","approach_avoid_sv1","""event"",""trial"",""time""
""fullscreenenter"",""1"",""1985""
","
","
","""event"",""trial"",""time""
""fullscreenenter"",""1"",""1985""
","
","","","","","","null","<div style=""font-size:60px;"">+</div>","null","","fixation","","",""
"memory-trial","276","527728","0.0-18.0-1.115","8855","approach_avoid_sv1","""event"",""trial"",""time""
""fullscreenenter"",""1"",""1985""
","
","
","""event"",""trial"",""time""
""fullscreenenter"",""1"",""1985""
","
","","","","","","1425","images/cactus5.png","","","memory_trial","3","maybe_new",""
"html-keyboard-response","277","528230","0.0-18.0-0.116","8855","approach_avoid_sv1","""event"",""trial"",""time""
""fullscreenenter"",""1"",""1985""
","
","
","""event"",""trial"",""time""
""fullscreenenter"",""1"",""1985""
","
","","","","","","null","<div style=""font-size:60px;"">+</div>","null","","fixation","","",""
"memory-trial","278","531352","0.0-18.0-1.116","8855","approach_avoid_sv1","""event"",""trial"",""time""
""fullscreenenter"",""1"",""1985""
","
","
","""event"",""trial"",""time""
""fullscreenenter"",""1"",""1985""
","
","","","","","","2120.0999999999767","images/chair6.png","","","memory_trial","2","maybe_old",""
"html-keyboard-response","279","531853","0.0-18.0-0.117","8855","approach_avoid_sv1","""event"",""trial"",""time""
""fullscreenenter"",""1"",""1985""
","
","
","""event"",""trial"",""time""
""fullscreenenter"",""1"",""1985""
","
","","","","","","null","<div style=""font-size:60px;"">+</div>","null","","fixation","","",""
"memory-trial","280","533985","0.0-18.0-1.117","8855","approach_avoid_sv1","""event"",""trial"",""time""
""fullscreenenter"",""1"",""1985""
","
","
","""event"",""trial"",""time""
""fullscreenenter"",""1"",""1985""
","
","","","","","","1129.4000000000233","images/rabbit5.png","","","memory_trial","1","definitely_old",""
"html-keyboard-response","281","534486","0.0-18.0-0.118","8855","approach_avoid_sv1","""event"",""trial"",""time""
""fullscreenenter"",""1"",""1985""
","
","
","""event"",""trial"",""time""
""fullscreenenter"",""1"",""1985""
","
","","","","","","null","<div style=""font-size:60px;"">+</div>","null","","fixation","","",""
"memory-trial","282","538944","0.0-18.0-1.118","8855","approach_avoid_sv1","""event"",""trial"",""time""
""fullscreenenter"",""1"",""1985""
","
","
","""event"",""trial"",""time""
""fullscreenenter"",""1"",""1985""
","
","","","","","","3456.29999999993","images/orange1.png","","","memory_trial","2","maybe_old",""
"html-keyboard-response","283","539446","0.0-18.0-0.119","8855","approach_avoid_sv1","""event"",""trial"",""time""
""fullscreenenter"",""1"",""1985""
","
","
","""event"",""trial"",""time""
""fullscreenenter"",""1"",""1985""
","
","","","","","","null","<div style=""font-size:60px;"">+</div>","null","","fixation","","",""
"memory-trial","284","542553","0.0-18.0-1.119","8855","approach_avoid_sv1","""event"",""trial"",""time""
""fullscreenenter"",""1"",""1985""
","
","
","""event"",""trial"",""time""
""fullscreenenter"",""1"",""1985""
","
","","","","","","2104.20000000007","images/rabbit4.png","","","memory_trial","1","definitely_old",""
"html-keyboard-response","285","543054","0.0-18.0-0.120","8855","approach_avoid_sv1","""event"",""trial"",""time""
""fullscreenenter"",""1"",""1985""
","
","
","""event"",""trial"",""time""
""fullscreenenter"",""1"",""1985""
","
","","","","","","null","<div style=""font-size:60px;"">+</div>","null","","fixation","","",""
"memory-trial","286","546128","0.0-18.0-1.120","8855","approach_avoid_sv1","""event"",""trial"",""time""
""fullscreenenter"",""1"",""1985""
","
","
","""event"",""trial"",""time""
""fullscreenenter"",""1"",""1985""
","
","","","","","","2072.29999999993","images/rodent5.png","","","memory_trial","3","maybe_new",""
"html-keyboard-response","287","546629","0.0-18.0-0.121","8855","approach_avoid_sv1","""event"",""trial"",""time""
""fullscreenenter"",""1"",""1985""
","
","
","""event"",""trial"",""time""
""fullscreenenter"",""1"",""1985""
","
","","","","","","null","<div style=""font-size:60px;"">+</div>","null","","fixation","","",""
"memory-trial","288","548952","0.0-18.0-1.121","8855","approach_avoid_sv1","""event"",""trial"",""time""
""fullscreenenter"",""1"",""1985""
","
","
","""event"",""trial"",""time""
""fullscreenenter"",""1"",""1985""
","
","","","","","","1320.8000000000466","images/goat4.png","","","memory_trial","4","definitely_new",""
"html-keyboard-response","289","549454","0.0-18.0-0.122","8855","approach_avoid_sv1","""event"",""trial"",""time""
""fullscreenenter"",""1"",""1985""
","
","
","""event"",""trial"",""time""
""fullscreenenter"",""1"",""1985""
","
","","","","","","null","<div style=""font-size:60px;"">+</div>","null","","fixation","","",""
"memory-trial","290","551697","0.0-18.0-1.122","8855","approach_avoid_sv1","""event"",""trial"",""time""
""fullscreenenter"",""1"",""1985""
","
","
","""event"",""trial"",""time""
""fullscreenenter"",""1"",""1985""
","
","","","","","","1240.2999999999302","images/straw3.png","","","memory_trial","3","maybe_new",""
"html-keyboard-response","291","552198","0.0-18.0-0.123","8855","approach_avoid_sv1","""event"",""trial"",""time""
""fullscreenenter"",""1"",""1985""
","
","
","""event"",""trial"",""time""
""fullscreenenter"",""1"",""1985""
","
","","","","","","null","<div style=""font-size:60px;"">+</div>","null","","fixation","","",""
"memory-trial","292","554608","0.0-18.0-1.123","8855","approach_avoid_sv1","""event"",""trial"",""time""
""fullscreenenter"",""1"",""1985""
","
","
","""event"",""trial"",""time""
""fullscreenenter"",""1"",""1985""
","
","","","","","","1408.6000000000931","images/bush3.png","","","memory_trial","4","definitely_new",""
"html-keyboard-response","293","555110","0.0-18.0-0.124","8855","approach_avoid_sv1","""event"",""trial"",""time""
""fullscreenenter"",""1"",""1985""
","
","
","""event"",""trial"",""time""
""fullscreenenter"",""1"",""1985""
","
","","","","","","null","<div style=""font-size:60px;"">+</div>","null","","fixation","","",""
"memory-trial","294","557649","0.0-18.0-1.124","8855","approach_avoid_sv1","""event"",""trial"",""time""
""fullscreenenter"",""1"",""1985""
","
","
","""event"",""trial"",""time""
""fullscreenenter"",""1"",""1985""
","
","","","","","","1536.4000000000233","images/cactus7.png","","","memory_trial","3","maybe_new",""
"html-keyboard-response","295","558150","0.0-18.0-0.125","8855","approach_avoid_sv1","""event"",""trial"",""time""
""fullscreenenter"",""1"",""1985""
","
","
","""event"",""trial"",""time""
""fullscreenenter"",""1"",""1985""
","
","","","","","","null","<div style=""font-size:60px;"">+</div>","null","","fixation","","",""
"memory-trial","296","560409","0.0-18.0-1.125","8855","approach_avoid_sv1","""event"",""trial"",""time""
""fullscreenenter"",""1"",""1985""
","
","
","""event"",""trial"",""time""
""fullscreenenter"",""1"",""1985""
","
","","","","","","1256.7999999999302","images/orange8.png","","","memory_trial","3","maybe_new",""
"html-keyboard-response","297","560910","0.0-18.0-0.126","8855","approach_avoid_sv1","""event"",""trial"",""time""
""fullscreenenter"",""1"",""1985""
","
","
","""event"",""trial"",""time""
""fullscreenenter"",""1"",""1985""
","
","","","","","","null","<div style=""font-size:60px;"">+</div>","null","","fixation","","",""
