"trial_type","trial_index","time_elapsed","internal_node_id","subject_id","task_version","interactions","blur_events","focus_events","fullscreenenter_events","fullscreenexit_events","success","timeout","failed_images","failed_audio","failed_video","rt","stimulus","response","button_pressed","task_part","key_press","answer","correct"
"pavlovia","0","4","0.0-0.0","6486","approach_avoid_sv1","""event"",""trial"",""time""
""fullscreenenter"",""1"",""1507""
","
","
","""event"",""trial"",""time""
""fullscreenenter"",""1"",""1507""
","
","","","","","","","","","","","","",""
"fullscreen","1","2491","0.0-1.0","6486","approach_avoid_sv1","""event"",""trial"",""time""
""fullscreenenter"",""1"",""1507""
","
","
","""event"",""trial"",""time""
""fullscreenenter"",""1"",""1507""
","
","true","","","","","","","","","","","",""
"preload","2","5787","0.0-2.0","6486","approach_avoid_sv1","""event"",""trial"",""time""
""fullscreenenter"",""1"",""1507""
","
","
","""event"",""trial"",""time""
""fullscreenenter"",""1"",""1507""
","
","true","false","[]","[]","[]","","","","","","","",""
"preload","3","8045","0.0-3.0","6486","approach_avoid_sv1","""event"",""trial"",""time""
""fullscreenenter"",""1"",""1507""
","
","
","""event"",""trial"",""time""
""fullscreenenter"",""1"",""1507""
","
","true","false","[]","[]","[]","","","","","","","",""
"preload","4","8298","0.0-4.0","6486","approach_avoid_sv1","""event"",""trial"",""time""
""fullscreenenter"",""1"",""1507""
","
","
","""event"",""trial"",""time""
""fullscreenenter"",""1"",""1507""
","
","true","false","[]","[]","[]","","","","","","","",""
"audio-keyboard-response","5","11304","0.0-5.0","6486","approach_avoid_sv1","""event"",""trial"",""time""
""fullscreenenter"",""1"",""1507""
","
","
","""event"",""trial"",""time""
""fullscreenenter"",""1"",""1507""
","
","","","","","","2869.3333333333335","audio/beep_loop.wav"," ","","","","",""
"audio-button-response","6","13442","0.0-6.0","6486","approach_avoid_sv1","""event"",""trial"",""time""
""fullscreenenter"",""1"",""1507""
","
","
","""event"",""trial"",""time""
""fullscreenenter"",""1"",""1507""
","
","","","","","","2141","audio/turtle.wav","3","","","","",""
"audio-button-response","7","15577","0.0-7.0","6486","approach_avoid_sv1","""event"",""trial"",""time""
""fullscreenenter"",""1"",""1507""
","
","
","""event"",""trial"",""time""
""fullscreenenter"",""1"",""1507""
","
","","","","","","1131","audio/shark.wav","2","","","","",""
"preload","8","18314","0.0-8.0","6486","approach_avoid_sv1","""event"",""trial"",""time""
""fullscreenenter"",""1"",""1507""
","
","
","""event"",""trial"",""time""
""fullscreenenter"",""1"",""1507""
","
","true","false","[]","[]","[]","","","","","","","",""
"learning-instructions","9","32622","0.0-9.0-0.0","6486","approach_avoid_sv1","""event"",""trial"",""time""
""fullscreenenter"",""1"",""1507""
","
","
","""event"",""trial"",""time""
""fullscreenenter"",""1"",""1507""
","
","","","","","","9828.59999999404","<p> Welcome back! </p><p> Last week, you had to make choices about lots of different items.  </p>","","0","instructions","","",""
"learning-instructions","10","37998","0.0-9.0-0.1","6486","approach_avoid_sv1","""event"",""trial"",""time""
""fullscreenenter"",""1"",""1507""
","
","
","""event"",""trial"",""time""
""fullscreenenter"",""1"",""1507""
","
","","","","","","1245.2999999970198","<p> Today, we are going to ask you to try to remember all the items. </p>","","0","instructions","","",""
"learning-instructions","11","51069","0.0-9.0-0.2","6486","approach_avoid_sv1","""event"",""trial"",""time""
""fullscreenenter"",""1"",""1507""
","
","
","""event"",""trial"",""time""
""fullscreenenter"",""1"",""1507""
","
","","","","","","2936.7999999970198","<p> On every trial, you will see an image. </p><p> The image may be an OLD image you saw during the games last week or it may be a NEW image that was not presented. </p>","","0","instructions","","",""
"learning-instructions","12","60846","0.0-9.0-0.3","6486","approach_avoid_sv1","""event"",""trial"",""time""
""fullscreenenter"",""1"",""1507""
","
","
","""event"",""trial"",""time""
""fullscreenenter"",""1"",""1507""
","
","","","","","","1272.199999988079","<p> You need to select whether the image is:  </p><p>  'Definitely old', 'Maybe old', 'Maybe new', or 'Definitely new.'  </p><div class=""mem-choice-instructions-grid""><div class=""choice-option"" id=""choice-option-1"" ><img src=""images/definitely_old_1.png"" id=""choice-option-img-1"" class=""choice-option-img"" stage=""1""></div><div class=""choice-option"" id=""choice-option-2"" ><img src=""images/maybe_old_1.png"" id=""choice-option-img-2"" class=""choice-option-img"" stage=""1""></div><div class=""choice-option"" id=""choice-option-3"" ><img src=""images/maybe_new_1.png"" id=""choice-option-img-3"" class=""choice-option-img"" stage=""1""></div><div class=""choice-option"" id=""choice-option-4"" > <img src=""images/definitely_new_1.png"" id=""choice-option-img-4"" class=""choice-option-img"" stage=""1""></div></div>","","0","instructions","","",""
"learning-instructions","13","69446","0.0-9.0-0.4","6486","approach_avoid_sv1","""event"",""trial"",""time""
""fullscreenenter"",""1"",""1507""
","
","
","""event"",""trial"",""time""
""fullscreenenter"",""1"",""1507""
","
","","","","","","2092.8999999910593","<p> You should use the 1, 2, 3, and 4 keys to make your responses.  </p><div class=""mem-choice-instructions-grid""><div class=""choice-option"" id=""choice-option-1"" ><img src=""images/definitely_old.png"" id=""choice-option-img-1"" class=""choice-option-img"" stage=""1""></div><div class=""choice-option"" id=""choice-option-2"" ><img src=""images/maybe_old.png"" id=""choice-option-img-2"" class=""choice-option-img"" stage=""1""></div><div class=""choice-option"" id=""choice-option-3"" ><img src=""images/maybe_new.png"" id=""choice-option-img-3"" class=""choice-option-img"" stage=""1""></div><div class=""choice-option"" id=""choice-option-4"" > <img src=""images/definitely_new.png"" id=""choice-option-img-4"" class=""choice-option-img"" stage=""1""></div></div>","","0","instructions","","",""
"learning-instructions","14","77454","0.0-9.0-0.5","6486","approach_avoid_sv1","""event"",""trial"",""time""
""fullscreenenter"",""1"",""1507""
","
","
","""event"",""trial"",""time""
""fullscreenenter"",""1"",""1507""
","
","","","","","","1680.800000011921","<p> You will have 10 seconds to make each response.  </p><p>  Make sure to respond before time runs out! </p>","","0","instructions","","",""
"learning-instructions","15","85358","0.0-9.0-0.6","6486","approach_avoid_sv1","""event"",""trial"",""time""
""fullscreenenter"",""1"",""1507""
","
","
","""event"",""trial"",""time""
""fullscreenenter"",""1"",""1507""
","
","","","","","","835","<p> Today, you will see each image ONCE only.  </p><p>  That means none of the images will repeat. </p>","","0","instructions","","",""
"learning-instructions","16","98606","0.0-9.0-0.7","6486","approach_avoid_sv1","""event"",""trial"",""time""
""fullscreenenter"",""1"",""1507""
","
","
","""event"",""trial"",""time""
""fullscreenenter"",""1"",""1507""
","
","","","","","","573.1000000089407","<p> Before you play the real game, it is time to practice. </p><p>  Just like in the real game, some of the images in the practice will be ones you have seen before. </p><p>  Others will be entirely new. </p>","","0","instructions","","",""
"html-button-response","17","100341","0.0-10.0","6486","approach_avoid_sv1","""event"",""trial"",""time""
""fullscreenenter"",""1"",""1507""
","
","
","""event"",""trial"",""time""
""fullscreenenter"",""1"",""1507""
","
","","","","","","1623.4000000059605","<p> Ready to practice? </p><p> Remember, use the 1, 2, 3, and 4 keys to make your responses. </p>","0","","instructions","","",""
"html-keyboard-response","18","100950","0.0-11.0-0.0","6486","approach_avoid_sv1","""event"",""trial"",""time""
""fullscreenenter"",""1"",""1507""
","
","
","""event"",""trial"",""time""
""fullscreenenter"",""1"",""1507""
","
","","","","","","null","<div style=""font-size:60px;"">+</div>","null","","fixation","","",""
"memory-trial","19","104362","0.0-11.0-1.0","6486","approach_avoid_sv1","""event"",""trial"",""time""
""fullscreenenter"",""1"",""1507""
","
","
","""event"",""trial"",""time""
""fullscreenenter"",""1"",""1507""
","
","","","","","","2397.1000000089407","images/racket1.png","","","practice","3","maybe_new",""
"html-keyboard-response","20","104864","0.0-11.0-0.1","6486","approach_avoid_sv1","""event"",""trial"",""time""
""fullscreenenter"",""1"",""1507""
","
","
","""event"",""trial"",""time""
""fullscreenenter"",""1"",""1507""
","
","","","","","","null","<div style=""font-size:60px;"">+</div>","null","","fixation","","",""
"memory-trial","21","108259","0.0-11.0-1.1","6486","approach_avoid_sv1","""event"",""trial"",""time""
""fullscreenenter"",""1"",""1507""
","
","
","""event"",""trial"",""time""
""fullscreenenter"",""1"",""1507""
","
","","","","","","2380.2999999970198","images/racket2.png","","","practice","4","definitely_new",""
"html-keyboard-response","22","108771","0.0-11.0-0.2","6486","approach_avoid_sv1","""event"",""trial"",""time""
""fullscreenenter"",""1"",""1507""
","
","
","""event"",""trial"",""time""
""fullscreenenter"",""1"",""1507""
","
","","","","","","null","<div style=""font-size:60px;"">+</div>","null","","fixation","","",""
"memory-trial","23","112145","0.0-11.0-1.2","6486","approach_avoid_sv1","""event"",""trial"",""time""
""fullscreenenter"",""1"",""1507""
","
","
","""event"",""trial"",""time""
""fullscreenenter"",""1"",""1507""
","
","","","","","","2360.2000000029802","images/ball3.png","","","practice","2","maybe_old",""
"html-keyboard-response","24","112651","0.0-11.0-0.3","6486","approach_avoid_sv1","""event"",""trial"",""time""
""fullscreenenter"",""1"",""1507""
","
","
","""event"",""trial"",""time""
""fullscreenenter"",""1"",""1507""
","
","","","","","","null","<div style=""font-size:60px;"">+</div>","null","","fixation","","",""
"memory-trial","25","115075","0.0-11.0-1.3","6486","approach_avoid_sv1","""event"",""trial"",""time""
""fullscreenenter"",""1"",""1507""
","
","
","""event"",""trial"",""time""
""fullscreenenter"",""1"",""1507""
","
","","","","","","1416.7000000029802","images/ball1.png","","","practice","2","maybe_old",""
"html-keyboard-response","26","115583","0.0-11.0-0.4","6486","approach_avoid_sv1","""event"",""trial"",""time""
""fullscreenenter"",""1"",""1507""
","
","
","""event"",""trial"",""time""
""fullscreenenter"",""1"",""1507""
","
","","","","","","null","<div style=""font-size:60px;"">+</div>","null","","fixation","","",""
"memory-trial","27","118341","0.0-11.0-1.4","6486","approach_avoid_sv1","""event"",""trial"",""time""
""fullscreenenter"",""1"",""1507""
","
","
","""event"",""trial"",""time""
""fullscreenenter"",""1"",""1507""
","
","","","","","","1748.7000000029802","images/ball2.png","","","practice","1","definitely_old",""
"html-keyboard-response","28","118847","0.0-11.0-0.5","6486","approach_avoid_sv1","""event"",""trial"",""time""
""fullscreenenter"",""1"",""1507""
","
","
","""event"",""trial"",""time""
""fullscreenenter"",""1"",""1507""
","
","","","","","","null","<div style=""font-size:60px;"">+</div>","null","","fixation","","",""
"memory-trial","29","120911","0.0-11.0-1.5","6486","approach_avoid_sv1","""event"",""trial"",""time""
""fullscreenenter"",""1"",""1507""
","
","
","""event"",""trial"",""time""
""fullscreenenter"",""1"",""1507""
","
","","","","","","1061.5","images/racket3.png","","","practice","1","definitely_old",""
"html-keyboard-response","30","121418","0.0-11.0-0.6","6486","approach_avoid_sv1","""event"",""trial"",""time""
""fullscreenenter"",""1"",""1507""
","
","
","""event"",""trial"",""time""
""fullscreenenter"",""1"",""1507""
","
","","","","","","null","<div style=""font-size:60px;"">+</div>","null","","fixation","","",""
"memory-trial","31","123876","0.0-11.0-1.6","6486","approach_avoid_sv1","""event"",""trial"",""time""
""fullscreenenter"",""1"",""1507""
","
","
","""event"",""trial"",""time""
""fullscreenenter"",""1"",""1507""
","
","","","","","","1441.7000000029802","images/ball5.png","","","practice","2","maybe_old",""
"html-keyboard-response","32","124387","0.0-11.0-0.7","6486","approach_avoid_sv1","""event"",""trial"",""time""
""fullscreenenter"",""1"",""1507""
","
","
","""event"",""trial"",""time""
""fullscreenenter"",""1"",""1507""
","
","","","","","","null","<div style=""font-size:60px;"">+</div>","null","","fixation","","",""
"memory-trial","33","127018","0.0-11.0-1.7","6486","approach_avoid_sv1","""event"",""trial"",""time""
""fullscreenenter"",""1"",""1507""
","
","
","""event"",""trial"",""time""
""fullscreenenter"",""1"",""1507""
","
","","","","","","1625","images/racket5.png","","","practice","3","maybe_new",""
"learning-instructions","34","136337","0.0-12.0-0.0","6486","approach_avoid_sv1","""event"",""trial"",""time""
""fullscreenenter"",""1"",""1507""
","
","
","""event"",""trial"",""time""
""fullscreenenter"",""1"",""1507""
","
","","","","","","2014.7999999970198","<p> Great! You have completed the practice. </p><p> Before you start, we're going to ask you a few questions about how the game works.  </p>","","0","instructions","","",""
"preload","35","140372","0.0-13.0","6486","approach_avoid_sv1","""event"",""trial"",""time""
""fullscreenenter"",""1"",""1507""
","
","
","""event"",""trial"",""time""
""fullscreenenter"",""1"",""1507""
","
","true","false","[]","[]","[]","","","","","","","",""
"comp-q","36","147058","0.0-14.0-0.0","6486","approach_avoid_sv1","""event"",""trial"",""time""
""fullscreenenter"",""1"",""1507""
","
","
","""event"",""trial"",""time""
""fullscreenenter"",""1"",""1507""
","
","","","","","","855","<p> <b> True or False? </b> </p><p> In this game, you will only see each image once. </p>","","0","comp_question","","","true"
"comp-q","37","162434","0.0-14.0-1.0","6486","approach_avoid_sv1","""event"",""trial"",""time""
""fullscreenenter"",""1"",""1507""
","
","
","""event"",""trial"",""time""
""fullscreenenter"",""1"",""1507""
","
","","","","","","9031.60000000894","<p> <b> That's right! </b> You will see many different images <i> one time each </i> in this game. </p>","","0","comp_answer","","",""
"comp-q","38","168378","0.0-15.0-0.0","6486","approach_avoid_sv1","""event"",""trial"",""time""
""fullscreenenter"",""1"",""1507""
","
","
","""event"",""trial"",""time""
""fullscreenenter"",""1"",""1507""
","
","","","","","","935.1000000089407","<p> <b> True or False? </b> </p><p> You should use the mouse and click to make your response. </p>","","1","comp_question","","","true"
"comp-q","39","176858","0.0-15.0-1.0","6486","approach_avoid_sv1","""event"",""trial"",""time""
""fullscreenenter"",""1"",""1507""
","
","
","""event"",""trial"",""time""
""fullscreenenter"",""1"",""1507""
","
","","","","","","1974.9000000059605","<p><b> That's right! </b> You should use the '1', '2', '3', and '4' keys to make your response. </p>","","0","comp_answer","","",""
"comp-q","40","183713","0.0-16.0-0.0","6486","approach_avoid_sv1","""event"",""trial"",""time""
""fullscreenenter"",""1"",""1507""
","
","
","""event"",""trial"",""time""
""fullscreenenter"",""1"",""1507""
","
","","","","","","1180.5","<p> <b> True or False? </b> </p><p> You will have as much time as you want to make each choice. </p>","","1","comp_question","","","true"
"comp-q","41","190673","0.0-16.0-1.0","6486","approach_avoid_sv1","""event"",""trial"",""time""
""fullscreenenter"",""1"",""1507""
","
","
","""event"",""trial"",""time""
""fullscreenenter"",""1"",""1507""
","
","","","","","","2260.699999988079","<p> <b> That's right! </b> You will only have 10 seconds to make each choice. </p>","","0","comp_answer","","",""
"learning-instructions","42","200402","0.0-17.0","6486","approach_avoid_sv1","""event"",""trial"",""time""
""fullscreenenter"",""1"",""1507""
","
","
","""event"",""trial"",""time""
""fullscreenenter"",""1"",""1507""
","
","","","","","","1049.2000000029802","<p> Great! You are now ready to begin the game. </p><p> Remember, use the 1, 2, 3, and 4 keys to make your responses. </p>","","0","instructions","","",""
"html-keyboard-response","43","201019","0.0-18.0-0.0","6486","approach_avoid_sv1","""event"",""trial"",""time""
""fullscreenenter"",""1"",""1507""
","
","
","""event"",""trial"",""time""
""fullscreenenter"",""1"",""1507""
","
","","","","","","null","<div style=""font-size:60px;"">+</div>","null","","fixation","","",""
"memory-trial","44","204759","0.0-18.0-1.0","6486","approach_avoid_sv1","""event"",""trial"",""time""
""fullscreenenter"",""1"",""1507""
","
","
","""event"",""trial"",""time""
""fullscreenenter"",""1"",""1507""
","
","","","","","","2736.2999999970198","images/boat7.png","","","memory_trial","4","definitely_new",""
"html-keyboard-response","45","205260","0.0-18.0-0.1","6486","approach_avoid_sv1","""event"",""trial"",""time""
""fullscreenenter"",""1"",""1507""
","
","
","""event"",""trial"",""time""
""fullscreenenter"",""1"",""1507""
","
","","","","","","null","<div style=""font-size:60px;"">+</div>","null","","fixation","","",""
"memory-trial","46","209779","0.0-18.0-1.1","6486","approach_avoid_sv1","""event"",""trial"",""time""
""fullscreenenter"",""1"",""1507""
","
","
","""event"",""trial"",""time""
""fullscreenenter"",""1"",""1507""
","
","","","","","","3503.1000000089407","images/orange4.png","","","memory_trial","1","definitely_old",""
"html-keyboard-response","47","210286","0.0-18.0-0.2","6486","approach_avoid_sv1","""event"",""trial"",""time""
""fullscreenenter"",""1"",""1507""
","
","
","""event"",""trial"",""time""
""fullscreenenter"",""1"",""1507""
","
","","","","","","null","<div style=""font-size:60px;"">+</div>","null","","fixation","","",""
"memory-trial","48","213372","0.0-18.0-1.2","6486","approach_avoid_sv1","""event"",""trial"",""time""
""fullscreenenter"",""1"",""1507""
","
","
","""event"",""trial"",""time""
""fullscreenenter"",""1"",""1507""
","
","","","","","","2077.4000000059605","images/straw2.png","","","memory_trial","2","maybe_old",""
"html-keyboard-response","49","213887","0.0-18.0-0.3","6486","approach_avoid_sv1","""event"",""trial"",""time""
""fullscreenenter"",""1"",""1507""
","
","
","""event"",""trial"",""time""
""fullscreenenter"",""1"",""1507""
","
","","","","","","null","<div style=""font-size:60px;"">+</div>","null","","fixation","","",""
"memory-trial","50","216623","0.0-18.0-1.3","6486","approach_avoid_sv1","""event"",""trial"",""time""
""fullscreenenter"",""1"",""1507""
","
","
","""event"",""trial"",""time""
""fullscreenenter"",""1"",""1507""
","
","","","","","","1724.4000000059605","images/bed2.png","","","memory_trial","4","definitely_new",""
"html-keyboard-response","51","217137","0.0-18.0-0.4","6486","approach_avoid_sv1","""event"",""trial"",""time""
""fullscreenenter"",""1"",""1507""
","
","
","""event"",""trial"",""time""
""fullscreenenter"",""1"",""1507""
","
","","","","","","null","<div style=""font-size:60px;"">+</div>","null","","fixation","","",""
"memory-trial","52","220061","0.0-18.0-1.4","6486","approach_avoid_sv1","""event"",""trial"",""time""
""fullscreenenter"",""1"",""1507""
","
","
","""event"",""trial"",""time""
""fullscreenenter"",""1"",""1507""
","
","","","","","","1907","images/straw5.png","","","memory_trial","1","definitely_old",""
"html-keyboard-response","53","220574","0.0-18.0-0.5","6486","approach_avoid_sv1","""event"",""trial"",""time""
""fullscreenenter"",""1"",""1507""
","
","
","""event"",""trial"",""time""
""fullscreenenter"",""1"",""1507""
","
","","","","","","null","<div style=""font-size:60px;"">+</div>","null","","fixation","","",""
"memory-trial","54","222628","0.0-18.0-1.5","6486","approach_avoid_sv1","""event"",""trial"",""time""
""fullscreenenter"",""1"",""1507""
","
","
","""event"",""trial"",""time""
""fullscreenenter"",""1"",""1507""
","
","","","","","","1038.2999999970198","images/orange6.png","","","memory_trial","1","definitely_old",""
"html-keyboard-response","55","223137","0.0-18.0-0.6","6486","approach_avoid_sv1","""event"",""trial"",""time""
""fullscreenenter"",""1"",""1507""
","
","
","""event"",""trial"",""time""
""fullscreenenter"",""1"",""1507""
","
","","","","","","null","<div style=""font-size:60px;"">+</div>","null","","fixation","","",""
"memory-trial","56","227597","0.0-18.0-1.6","6486","approach_avoid_sv1","""event"",""trial"",""time""
""fullscreenenter"",""1"",""1507""
","
","
","""event"",""trial"",""time""
""fullscreenenter"",""1"",""1507""
","
","","","","","","3443","images/table7.png","","","memory_trial","2","maybe_old",""
"html-keyboard-response","57","228103","0.0-18.0-0.7","6486","approach_avoid_sv1","""event"",""trial"",""time""
""fullscreenenter"",""1"",""1507""
","
","
","""event"",""trial"",""time""
""fullscreenenter"",""1"",""1507""
","
","","","","","","null","<div style=""font-size:60px;"">+</div>","null","","fixation","","",""
"memory-trial","58","231310","0.0-18.0-1.7","6486","approach_avoid_sv1","""event"",""trial"",""time""
""fullscreenenter"",""1"",""1507""
","
","
","""event"",""trial"",""time""
""fullscreenenter"",""1"",""1507""
","
","","","","","","2205.2000000029802","images/rabbit7.png","","","memory_trial","3","maybe_new",""
"html-keyboard-response","59","231811","0.0-18.0-0.8","6486","approach_avoid_sv1","""event"",""trial"",""time""
""fullscreenenter"",""1"",""1507""
","
","
","""event"",""trial"",""time""
""fullscreenenter"",""1"",""1507""
","
","","","","","","null","<div style=""font-size:60px;"">+</div>","null","","fixation","","",""
"memory-trial","60","235095","0.0-18.0-1.8","6486","approach_avoid_sv1","""event"",""trial"",""time""
""fullscreenenter"",""1"",""1507""
","
","
","""event"",""trial"",""time""
""fullscreenenter"",""1"",""1507""
","
","","","","","","2280.5999999940395","images/cow3.png","","","memory_trial","1","definitely_old",""
"html-keyboard-response","61","235597","0.0-18.0-0.9","6486","approach_avoid_sv1","""event"",""trial"",""time""
""fullscreenenter"",""1"",""1507""
","
","
","""event"",""trial"",""time""
""fullscreenenter"",""1"",""1507""
","
","","","","","","null","<div style=""font-size:60px;"">+</div>","null","","fixation","","",""
"memory-trial","62","238150","0.0-18.0-1.9","6486","approach_avoid_sv1","""event"",""trial"",""time""
""fullscreenenter"",""1"",""1507""
","
","
","""event"",""trial"",""time""
""fullscreenenter"",""1"",""1507""
","
","","","","","","1551.199999988079","images/truck8.png","","","memory_trial","3","maybe_new",""
"html-keyboard-response","63","238651","0.0-18.0-0.10","6486","approach_avoid_sv1","""event"",""trial"",""time""
""fullscreenenter"",""1"",""1507""
","
","
","""event"",""trial"",""time""
""fullscreenenter"",""1"",""1507""
","
","","","","","","null","<div style=""font-size:60px;"">+</div>","null","","fixation","","",""
"memory-trial","64","241735","0.0-18.0-1.10","6486","approach_avoid_sv1","""event"",""trial"",""time""
""fullscreenenter"",""1"",""1507""
","
","
","""event"",""trial"",""time""
""fullscreenenter"",""1"",""1507""
","
","","","","","","2081.5","images/apple3.png","","","memory_trial","4","definitely_new",""
"html-keyboard-response","65","242236","0.0-18.0-0.11","6486","approach_avoid_sv1","""event"",""trial"",""time""
""fullscreenenter"",""1"",""1507""
","
","
","""event"",""trial"",""time""
""fullscreenenter"",""1"",""1507""
","
","","","","","","null","<div style=""font-size:60px;"">+</div>","null","","fixation","","",""
"memory-trial","66","245510","0.0-18.0-1.11","6486","approach_avoid_sv1","""event"",""trial"",""time""
""fullscreenenter"",""1"",""1507""
","
","
","""event"",""trial"",""time""
""fullscreenenter"",""1"",""1507""
","
","","","","","","2271.5","images/rodent2.png","","","memory_trial","2","maybe_old",""
"html-keyboard-response","67","246011","0.0-18.0-0.12","6486","approach_avoid_sv1","""event"",""trial"",""time""
""fullscreenenter"",""1"",""1507""
","
","
","""event"",""trial"",""time""
""fullscreenenter"",""1"",""1507""
","
","","","","","","null","<div style=""font-size:60px;"">+</div>","null","","fixation","","",""
"memory-trial","68","249055","0.0-18.0-1.12","6486","approach_avoid_sv1","""event"",""trial"",""time""
""fullscreenenter"",""1"",""1507""
","
","
","""event"",""trial"",""time""
""fullscreenenter"",""1"",""1507""
","
","","","","","","2040.1000000089407","images/apple7.png","","","memory_trial","2","maybe_old",""
"html-keyboard-response","69","249556","0.0-18.0-0.13","6486","approach_avoid_sv1","""event"",""trial"",""time""
""fullscreenenter"",""1"",""1507""
","
","
","""event"",""trial"",""time""
""fullscreenenter"",""1"",""1507""
","
","","","","","","null","<div style=""font-size:60px;"">+</div>","null","","fixation","","",""
"memory-trial","70","251846","0.0-18.0-1.13","6486","approach_avoid_sv1","""event"",""trial"",""time""
""fullscreenenter"",""1"",""1507""
","
","
","""event"",""trial"",""time""
""fullscreenenter"",""1"",""1507""
","
","","","","","","1287.2000000029802","images/sheep8.png","","","memory_trial","1","definitely_old",""
"html-keyboard-response","71","252348","0.0-18.0-0.14","6486","approach_avoid_sv1","""event"",""trial"",""time""
""fullscreenenter"",""1"",""1507""
","
","
","""event"",""trial"",""time""
""fullscreenenter"",""1"",""1507""
","
","","","","","","null","<div style=""font-size:60px;"">+</div>","null","","fixation","","",""
"memory-trial","72","254647","0.0-18.0-1.14","6486","approach_avoid_sv1","""event"",""trial"",""time""
""fullscreenenter"",""1"",""1507""
","
","
","""event"",""trial"",""time""
""fullscreenenter"",""1"",""1507""
","
","","","","","","1296.5","images/sofa4.png","","","memory_trial","1","definitely_old",""
"html-keyboard-response","73","255149","0.0-18.0-0.15","6486","approach_avoid_sv1","""event"",""trial"",""time""
""fullscreenenter"",""1"",""1507""
","
","
","""event"",""trial"",""time""
""fullscreenenter"",""1"",""1507""
","
","","","","","","null","<div style=""font-size:60px;"">+</div>","null","","fixation","","",""
"memory-trial","74","257655","0.0-18.0-1.15","6486","approach_avoid_sv1","""event"",""trial"",""time""
""fullscreenenter"",""1"",""1507""
","
","
","""event"",""trial"",""time""
""fullscreenenter"",""1"",""1507""
","
","","","","","","1502.5999999940395","images/goat7.png","","","memory_trial","3","maybe_new",""
"html-keyboard-response","75","258156","0.0-18.0-0.16","6486","approach_avoid_sv1","""event"",""trial"",""time""
""fullscreenenter"",""1"",""1507""
","
","
","""event"",""trial"",""time""
""fullscreenenter"",""1"",""1507""
","
","","","","","","null","<div style=""font-size:60px;"">+</div>","null","","fixation","","",""
"memory-trial","76","260399","0.0-18.0-1.16","6486","approach_avoid_sv1","""event"",""trial"",""time""
""fullscreenenter"",""1"",""1507""
","
","
","""event"",""trial"",""time""
""fullscreenenter"",""1"",""1507""
","
","","","","","","1240.2000000029802","images/bush8.png","","","memory_trial","1","definitely_old",""
"html-keyboard-response","77","260900","0.0-18.0-0.17","6486","approach_avoid_sv1","""event"",""trial"",""time""
""fullscreenenter"",""1"",""1507""
","
","
","""event"",""trial"",""time""
""fullscreenenter"",""1"",""1507""
","
","","","","","","null","<div style=""font-size:60px;"">+</div>","null","","fixation","","",""
"memory-trial","78","263535","0.0-18.0-1.17","6486","approach_avoid_sv1","""event"",""trial"",""time""
""fullscreenenter"",""1"",""1507""
","
","
","""event"",""trial"",""time""
""fullscreenenter"",""1"",""1507""
","
","","","","","","1632.0999999940395","images/dog1.png","","","memory_trial","2","maybe_old",""
"html-keyboard-response","79","264035","0.0-18.0-0.18","6486","approach_avoid_sv1","""event"",""trial"",""time""
""fullscreenenter"",""1"",""1507""
","
","
","""event"",""trial"",""time""
""fullscreenenter"",""1"",""1507""
","
","","","","","","null","<div style=""font-size:60px;"">+</div>","null","","fixation","","",""
"memory-trial","80","266686","0.0-18.0-1.18","6486","approach_avoid_sv1","""event"",""trial"",""time""
""fullscreenenter"",""1"",""1507""
","
","
","""event"",""trial"",""time""
""fullscreenenter"",""1"",""1507""
","
","","","","","","1647.5","images/sofa7.png","","","memory_trial","3","maybe_new",""
"html-keyboard-response","81","267187","0.0-18.0-0.19","6486","approach_avoid_sv1","""event"",""trial"",""time""
""fullscreenenter"",""1"",""1507""
","
","
","""event"",""trial"",""time""
""fullscreenenter"",""1"",""1507""
","
","","","","","","null","<div style=""font-size:60px;"">+</div>","null","","fixation","","",""
"memory-trial","82","269526","0.0-18.0-1.19","6486","approach_avoid_sv1","""event"",""trial"",""time""
""fullscreenenter"",""1"",""1507""
","
","
","""event"",""trial"",""time""
""fullscreenenter"",""1"",""1507""
","
","","","","","","1336.6000000089407","images/table1.png","","","memory_trial","4","definitely_new",""
"html-keyboard-response","83","270027","0.0-18.0-0.20","6486","approach_avoid_sv1","""event"",""trial"",""time""
""fullscreenenter"",""1"",""1507""
","
","
","""event"",""trial"",""time""
""fullscreenenter"",""1"",""1507""
","
","","","","","","null","<div style=""font-size:60px;"">+</div>","null","","fixation","","",""
"memory-trial","84","272318","0.0-18.0-1.20","6486","approach_avoid_sv1","""event"",""trial"",""time""
""fullscreenenter"",""1"",""1507""
","
","
","""event"",""trial"",""time""
""fullscreenenter"",""1"",""1507""
","
","","","","","","1288.8999999910593","images/boat3.png","","","memory_trial","4","definitely_new",""
"html-keyboard-response","85","272820","0.0-18.0-0.21","6486","approach_avoid_sv1","""event"",""trial"",""time""
""fullscreenenter"",""1"",""1507""
","
","
","""event"",""trial"",""time""
""fullscreenenter"",""1"",""1507""
","
","","","","","","null","<div style=""font-size:60px;"">+</div>","null","","fixation","","",""
"memory-trial","86","275111","0.0-18.0-1.21","6486","approach_avoid_sv1","""event"",""trial"",""time""
""fullscreenenter"",""1"",""1507""
","
","
","""event"",""trial"",""time""
""fullscreenenter"",""1"",""1507""
","
","","","","","","1288.4000000059605","images/cactus6.png","","","memory_trial","1","definitely_old",""
"html-keyboard-response","87","275612","0.0-18.0-0.22","6486","approach_avoid_sv1","""event"",""trial"",""time""
""fullscreenenter"",""1"",""1507""
","
","
","""event"",""trial"",""time""
""fullscreenenter"",""1"",""1507""
","
","","","","","","null","<div style=""font-size:60px;"">+</div>","null","","fixation","","",""
"memory-trial","88","278766","0.0-18.0-1.22","6486","approach_avoid_sv1","""event"",""trial"",""time""
""fullscreenenter"",""1"",""1507""
","
","
","""event"",""trial"",""time""
""fullscreenenter"",""1"",""1507""
","
","","","","","","2151.2999999970198","images/banana4.png","","","memory_trial","3","maybe_new",""
"html-keyboard-response","89","279267","0.0-18.0-0.23","6486","approach_avoid_sv1","""event"",""trial"",""time""
""fullscreenenter"",""1"",""1507""
","
","
","""event"",""trial"",""time""
""fullscreenenter"",""1"",""1507""
","
","","","","","","null","<div style=""font-size:60px;"">+</div>","null","","fixation","","",""
"memory-trial","90","282063","0.0-18.0-1.23","6486","approach_avoid_sv1","""event"",""trial"",""time""
""fullscreenenter"",""1"",""1507""
","
","
","""event"",""trial"",""time""
""fullscreenenter"",""1"",""1507""
","
","","","","","","1792.4000000059605","images/straw1.png","","","memory_trial","2","maybe_old",""
"html-keyboard-response","91","282563","0.0-18.0-0.24","6486","approach_avoid_sv1","""event"",""trial"",""time""
""fullscreenenter"",""1"",""1507""
","
","
","""event"",""trial"",""time""
""fullscreenenter"",""1"",""1507""
","
","","","","","","null","<div style=""font-size:60px;"">+</div>","null","","fixation","","",""
"memory-trial","92","284686","0.0-18.0-1.24","6486","approach_avoid_sv1","""event"",""trial"",""time""
""fullscreenenter"",""1"",""1507""
","
","
","""event"",""trial"",""time""
""fullscreenenter"",""1"",""1507""
","
","","","","","","1120.8999999910593","images/sheep5.png","","","memory_trial","1","definitely_old",""
"html-keyboard-response","93","285187","0.0-18.0-0.25","6486","approach_avoid_sv1","""event"",""trial"",""time""
""fullscreenenter"",""1"",""1507""
","
","
","""event"",""trial"",""time""
""fullscreenenter"",""1"",""1507""
","
","","","","","","null","<div style=""font-size:60px;"">+</div>","null","","fixation","","",""
"memory-trial","94","287662","0.0-18.0-1.25","6486","approach_avoid_sv1","""event"",""trial"",""time""
""fullscreenenter"",""1"",""1507""
","
","
","""event"",""trial"",""time""
""fullscreenenter"",""1"",""1507""
","
","","","","","","1472.1000000089407","images/rabbit3.png","","","memory_trial","3","maybe_new",""
"html-keyboard-response","95","288164","0.0-18.0-0.26","6486","approach_avoid_sv1","""event"",""trial"",""time""
""fullscreenenter"",""1"",""1507""
","
","
","""event"",""trial"",""time""
""fullscreenenter"",""1"",""1507""
","
","","","","","","null","<div style=""font-size:60px;"">+</div>","null","","fixation","","",""
"memory-trial","96","291158","0.0-18.0-1.26","6486","approach_avoid_sv1","""event"",""trial"",""time""
""fullscreenenter"",""1"",""1507""
","
","
","""event"",""trial"",""time""
""fullscreenenter"",""1"",""1507""
","
","","","","","","1991.1000000089407","images/banana1.png","","","memory_trial","2","maybe_old",""
"html-keyboard-response","97","291659","0.0-18.0-0.27","6486","approach_avoid_sv1","""event"",""trial"",""time""
""fullscreenenter"",""1"",""1507""
","
","
","""event"",""trial"",""time""
""fullscreenenter"",""1"",""1507""
","
","","","","","","null","<div style=""font-size:60px;"">+</div>","null","","fixation","","",""
"memory-trial","98","294119","0.0-18.0-1.27","6486","approach_avoid_sv1","""event"",""trial"",""time""
""fullscreenenter"",""1"",""1507""
","
","
","""event"",""trial"",""time""
""fullscreenenter"",""1"",""1507""
","
","","","","","","1455.7999999970198","images/tree5.png","","","memory_trial","4","definitely_new",""
"html-keyboard-response","99","294621","0.0-18.0-0.28","6486","approach_avoid_sv1","""event"",""trial"",""time""
""fullscreenenter"",""1"",""1507""
","
","
","""event"",""trial"",""time""
""fullscreenenter"",""1"",""1507""
","
","","","","","","null","<div style=""font-size:60px;"">+</div>","null","","fixation","","",""
"memory-trial","100","296902","0.0-18.0-1.28","6486","approach_avoid_sv1","""event"",""trial"",""time""
""fullscreenenter"",""1"",""1507""
","
","
","""event"",""trial"",""time""
""fullscreenenter"",""1"",""1507""
","
","","","","","","1279.800000011921","images/bed6.png","","","memory_trial","4","definitely_new",""
"html-keyboard-response","101","297404","0.0-18.0-0.29","6486","approach_avoid_sv1","""event"",""trial"",""time""
""fullscreenenter"",""1"",""1507""
","
","
","""event"",""trial"",""time""
""fullscreenenter"",""1"",""1507""
","
","","","","","","null","<div style=""font-size:60px;"">+</div>","null","","fixation","","",""
"memory-trial","102","300447","0.0-18.0-1.29","6486","approach_avoid_sv1","""event"",""trial"",""time""
""fullscreenenter"",""1"",""1507""
","
","
","""event"",""trial"",""time""
""fullscreenenter"",""1"",""1507""
","
","","","","","","2038.7000000029802","images/sheep3.png","","","memory_trial","3","maybe_new",""
"html-keyboard-response","103","300948","0.0-18.0-0.30","6486","approach_avoid_sv1","""event"",""trial"",""time""
""fullscreenenter"",""1"",""1507""
","
","
","""event"",""trial"",""time""
""fullscreenenter"",""1"",""1507""
","
","","","","","","null","<div style=""font-size:60px;"">+</div>","null","","fixation","","",""
"memory-trial","104","303325","0.0-18.0-1.30","6486","approach_avoid_sv1","""event"",""trial"",""time""
""fullscreenenter"",""1"",""1507""
","
","
","""event"",""trial"",""time""
""fullscreenenter"",""1"",""1507""
","
","","","","","","1376","images/horse8.png","","","memory_trial","4","definitely_new",""
"html-keyboard-response","105","303827","0.0-18.0-0.31","6486","approach_avoid_sv1","""event"",""trial"",""time""
""fullscreenenter"",""1"",""1507""
","
","
","""event"",""trial"",""time""
""fullscreenenter"",""1"",""1507""
","
","","","","","","null","<div style=""font-size:60px;"">+</div>","null","","fixation","","",""
"memory-trial","106","306222","0.0-18.0-1.31","6486","approach_avoid_sv1","""event"",""trial"",""time""
""fullscreenenter"",""1"",""1507""
","
","
","""event"",""trial"",""time""
""fullscreenenter"",""1"",""1507""
","
","","","","","","1392.4000000059605","images/train2.png","","","memory_trial","3","maybe_new",""
"html-keyboard-response","107","306724","0.0-18.0-0.32","6486","approach_avoid_sv1","""event"",""trial"",""time""
""fullscreenenter"",""1"",""1507""
","
","
","""event"",""trial"",""time""
""fullscreenenter"",""1"",""1507""
","
","","","","","","null","<div style=""font-size:60px;"">+</div>","null","","fixation","","",""
"memory-trial","108","309407","0.0-18.0-1.32","6486","approach_avoid_sv1","""event"",""trial"",""time""
""fullscreenenter"",""1"",""1507""
","
","
","""event"",""trial"",""time""
""fullscreenenter"",""1"",""1507""
","
","","","","","","1680.2000000029802","images/sheep7.png","","","memory_trial","1","definitely_old",""
"html-keyboard-response","109","309908","0.0-18.0-0.33","6486","approach_avoid_sv1","""event"",""trial"",""time""
""fullscreenenter"",""1"",""1507""
","
","
","""event"",""trial"",""time""
""fullscreenenter"",""1"",""1507""
","
","","","","","","null","<div style=""font-size:60px;"">+</div>","null","","fixation","","",""
"memory-trial","110","312614","0.0-18.0-1.33","6486","approach_avoid_sv1","""event"",""trial"",""time""
""fullscreenenter"",""1"",""1507""
","
","
","""event"",""trial"",""time""
""fullscreenenter"",""1"",""1507""
","
","","","","","","1703.6000000089407","images/bed3.png","","","memory_trial","4","definitely_new",""
"html-keyboard-response","111","313115","0.0-18.0-0.34","6486","approach_avoid_sv1","""event"",""trial"",""time""
""fullscreenenter"",""1"",""1507""
","
","
","""event"",""trial"",""time""
""fullscreenenter"",""1"",""1507""
","
","","","","","","null","<div style=""font-size:60px;"">+</div>","null","","fixation","","",""
"memory-trial","112","315766","0.0-18.0-1.34","6486","approach_avoid_sv1","""event"",""trial"",""time""
""fullscreenenter"",""1"",""1507""
","
","
","""event"",""trial"",""time""
""fullscreenenter"",""1"",""1507""
","
","","","","","","1648.4000000059605","images/plane1.png","","","memory_trial","4","definitely_new",""
"html-keyboard-response","113","316268","0.0-18.0-0.35","6486","approach_avoid_sv1","""event"",""trial"",""time""
""fullscreenenter"",""1"",""1507""
","
","
","""event"",""trial"",""time""
""fullscreenenter"",""1"",""1507""
","
","","","","","","null","<div style=""font-size:60px;"">+</div>","null","","fixation","","",""
"memory-trial","114","319351","0.0-18.0-1.35","6486","approach_avoid_sv1","""event"",""trial"",""time""
""fullscreenenter"",""1"",""1507""
","
","
","""event"",""trial"",""time""
""fullscreenenter"",""1"",""1507""
","
","","","","","","2079.0999999940395","images/plane8.png","","","memory_trial","1","definitely_old",""
"html-keyboard-response","115","319851","0.0-18.0-0.36","6486","approach_avoid_sv1","""event"",""trial"",""time""
""fullscreenenter"",""1"",""1507""
","
","
","""event"",""trial"",""time""
""fullscreenenter"",""1"",""1507""
","
","","","","","","null","<div style=""font-size:60px;"">+</div>","null","","fixation","","",""
"memory-trial","116","322247","0.0-18.0-1.36","6486","approach_avoid_sv1","""event"",""trial"",""time""
""fullscreenenter"",""1"",""1507""
","
","
","""event"",""trial"",""time""
""fullscreenenter"",""1"",""1507""
","
","","","","","","1392.2999999970198","images/rodent7.png","","","memory_trial","1","definitely_old",""
"html-keyboard-response","117","322748","0.0-18.0-0.37","6486","approach_avoid_sv1","""event"",""trial"",""time""
""fullscreenenter"",""1"",""1507""
","
","
","""event"",""trial"",""time""
""fullscreenenter"",""1"",""1507""
","
","","","","","","null","<div style=""font-size:60px;"">+</div>","null","","fixation","","",""
"memory-trial","118","325070","0.0-18.0-1.37","6486","approach_avoid_sv1","""event"",""trial"",""time""
""fullscreenenter"",""1"",""1507""
","
","
","""event"",""trial"",""time""
""fullscreenenter"",""1"",""1507""
","
","","","","","","1320.7000000029802","images/train4.png","","","memory_trial","2","maybe_old",""
"html-keyboard-response","119","325572","0.0-18.0-0.38","6486","approach_avoid_sv1","""event"",""trial"",""time""
""fullscreenenter"",""1"",""1507""
","
","
","""event"",""trial"",""time""
""fullscreenenter"",""1"",""1507""
","
","","","","","","null","<div style=""font-size:60px;"">+</div>","null","","fixation","","",""
"memory-trial","120","327910","0.0-18.0-1.38","6486","approach_avoid_sv1","""event"",""trial"",""time""
""fullscreenenter"",""1"",""1507""
","
","
","""event"",""trial"",""time""
""fullscreenenter"",""1"",""1507""
","
","","","","","","1335","images/horse1.png","","","memory_trial","4","definitely_new",""
"html-keyboard-response","121","328412","0.0-18.0-0.39","6486","approach_avoid_sv1","""event"",""trial"",""time""
""fullscreenenter"",""1"",""1507""
","
","
","""event"",""trial"",""time""
""fullscreenenter"",""1"",""1507""
","
","","","","","","null","<div style=""font-size:60px;"">+</div>","null","","fixation","","",""
"memory-trial","122","331830","0.0-18.0-1.39","6486","approach_avoid_sv1","""event"",""trial"",""time""
""fullscreenenter"",""1"",""1507""
","
","
","""event"",""trial"",""time""
""fullscreenenter"",""1"",""1507""
","
","","","","","","2416.6000000089407","images/bush4.png","","","memory_trial","2","maybe_old",""
"html-keyboard-response","123","332331","0.0-18.0-0.40","6486","approach_avoid_sv1","""event"",""trial"",""time""
""fullscreenenter"",""1"",""1507""
","
","
","""event"",""trial"",""time""
""fullscreenenter"",""1"",""1507""
","
","","","","","","null","<div style=""font-size:60px;"">+</div>","null","","fixation","","",""
"memory-trial","124","335054","0.0-18.0-1.40","6486","approach_avoid_sv1","""event"",""trial"",""time""
""fullscreenenter"",""1"",""1507""
","
","
","""event"",""trial"",""time""
""fullscreenenter"",""1"",""1507""
","
","","","","","","1720.5","images/plane4.png","","","memory_trial","1","definitely_old",""
"html-keyboard-response","125","335555","0.0-18.0-0.41","6486","approach_avoid_sv1","""event"",""trial"",""time""
""fullscreenenter"",""1"",""1507""
","
","
","""event"",""trial"",""time""
""fullscreenenter"",""1"",""1507""
","
","","","","","","null","<div style=""font-size:60px;"">+</div>","null","","fixation","","",""
"memory-trial","126","338087","0.0-18.0-1.41","6486","approach_avoid_sv1","""event"",""trial"",""time""
""fullscreenenter"",""1"",""1507""
","
","
","""event"",""trial"",""time""
""fullscreenenter"",""1"",""1507""
","
","","","","","","1528.5","images/bush6.png","","","memory_trial","1","definitely_old",""
"html-button-response","127","383142","0.0-18.0-2.41-0.41","6486","approach_avoid_sv1","""event"",""trial"",""time""
""fullscreenenter"",""1"",""1507""
","
","
","""event"",""trial"",""time""
""fullscreenenter"",""1"",""1507""
","
","","","","","","45054.5","<p> Take a break! </p><p> Click the button to continue. </p>","0","","break","","",""
"html-keyboard-response","128","383644","0.0-18.0-0.42","6486","approach_avoid_sv1","""event"",""trial"",""time""
""fullscreenenter"",""1"",""1507""
","
","
","""event"",""trial"",""time""
""fullscreenenter"",""1"",""1507""
","
","","","","","","null","<div style=""font-size:60px;"">+</div>","null","","fixation","","",""
"memory-trial","129","387671","0.0-18.0-1.42","6486","approach_avoid_sv1","""event"",""trial"",""time""
""fullscreenenter"",""1"",""1507""
","
","
","""event"",""trial"",""time""
""fullscreenenter"",""1"",""1507""
","
","","","","","","3022.7000000029802","images/goat5.png","","","memory_trial","2","maybe_old",""
"html-keyboard-response","130","388172","0.0-18.0-0.43","6486","approach_avoid_sv1","""event"",""trial"",""time""
""fullscreenenter"",""1"",""1507""
","
","
","""event"",""trial"",""time""
""fullscreenenter"",""1"",""1507""
","
","","","","","","null","<div style=""font-size:60px;"">+</div>","null","","fixation","","",""
"memory-trial","131","390566","0.0-18.0-1.43","6486","approach_avoid_sv1","""event"",""trial"",""time""
""fullscreenenter"",""1"",""1507""
","
","
","""event"",""trial"",""time""
""fullscreenenter"",""1"",""1507""
","
","","","","","","1392","images/goat4.png","","","memory_trial","4","definitely_new",""
"html-keyboard-response","132","391068","0.0-18.0-0.44","6486","approach_avoid_sv1","""event"",""trial"",""time""
""fullscreenenter"",""1"",""1507""
","
","
","""event"",""trial"",""time""
""fullscreenenter"",""1"",""1507""
","
","","","","","","null","<div style=""font-size:60px;"">+</div>","null","","fixation","","",""
"memory-trial","133","393670","0.0-18.0-1.44","6486","approach_avoid_sv1","""event"",""trial"",""time""
""fullscreenenter"",""1"",""1507""
","
","
","""event"",""trial"",""time""
""fullscreenenter"",""1"",""1507""
","
","","","","","","1600.5","images/table6.png","","","memory_trial","2","maybe_old",""
"html-keyboard-response","134","394171","0.0-18.0-0.45","6486","approach_avoid_sv1","""event"",""trial"",""time""
""fullscreenenter"",""1"",""1507""
","
","
","""event"",""trial"",""time""
""fullscreenenter"",""1"",""1507""
","
","","","","","","null","<div style=""font-size:60px;"">+</div>","null","","fixation","","",""
"memory-trial","135","396519","0.0-18.0-1.45","6486","approach_avoid_sv1","""event"",""trial"",""time""
""fullscreenenter"",""1"",""1507""
","
","
","""event"",""trial"",""time""
""fullscreenenter"",""1"",""1507""
","
","","","","","","1344.300000011921","images/goat2.png","","","memory_trial","4","definitely_new",""
"html-keyboard-response","136","397020","0.0-18.0-0.46","6486","approach_avoid_sv1","""event"",""trial"",""time""
""fullscreenenter"",""1"",""1507""
","
","
","""event"",""trial"",""time""
""fullscreenenter"",""1"",""1507""
","
","","","","","","null","<div style=""font-size:60px;"">+</div>","null","","fixation","","",""
"memory-trial","137","399206","0.0-18.0-1.46","6486","approach_avoid_sv1","""event"",""trial"",""time""
""fullscreenenter"",""1"",""1507""
","
","
","""event"",""trial"",""time""
""fullscreenenter"",""1"",""1507""
","
","","","","","","1184","images/bed4.png","","","memory_trial","4","definitely_new",""
"html-keyboard-response","138","399708","0.0-18.0-0.47","6486","approach_avoid_sv1","""event"",""trial"",""time""
""fullscreenenter"",""1"",""1507""
","
","
","""event"",""trial"",""time""
""fullscreenenter"",""1"",""1507""
","
","","","","","","null","<div style=""font-size:60px;"">+</div>","null","","fixation","","",""
"memory-trial","139","403110","0.0-18.0-1.47","6486","approach_avoid_sv1","""event"",""trial"",""time""
""fullscreenenter"",""1"",""1507""
","
","
","""event"",""trial"",""time""
""fullscreenenter"",""1"",""1507""
","
","","","","","","2400.2000000029802","images/train1.png","","","memory_trial","3","maybe_new",""
"html-keyboard-response","140","403611","0.0-18.0-0.48","6486","approach_avoid_sv1","""event"",""trial"",""time""
""fullscreenenter"",""1"",""1507""
","
","
","""event"",""trial"",""time""
""fullscreenenter"",""1"",""1507""
","
","","","","","","null","<div style=""font-size:60px;"">+</div>","null","","fixation","","",""
"memory-trial","141","406262","0.0-18.0-1.48","6486","approach_avoid_sv1","""event"",""trial"",""time""
""fullscreenenter"",""1"",""1507""
","
","
","""event"",""trial"",""time""
""fullscreenenter"",""1"",""1507""
","
","","","","","","1648.3999999910593","images/rabbit2.png","","","memory_trial","1","definitely_old",""
"html-keyboard-response","142","406763","0.0-18.0-0.49","6486","approach_avoid_sv1","""event"",""trial"",""time""
""fullscreenenter"",""1"",""1507""
","
","
","""event"",""trial"",""time""
""fullscreenenter"",""1"",""1507""
","
","","","","","","null","<div style=""font-size:60px;"">+</div>","null","","fixation","","",""
"memory-trial","143","410631","0.0-18.0-1.49","6486","approach_avoid_sv1","""event"",""trial"",""time""
""fullscreenenter"",""1"",""1507""
","
","
","""event"",""trial"",""time""
""fullscreenenter"",""1"",""1507""
","
","","","","","","2864.7000000029802","images/sheep6.png","","","memory_trial","3","maybe_new",""
"html-keyboard-response","144","411133","0.0-18.0-0.50","6486","approach_avoid_sv1","""event"",""trial"",""time""
""fullscreenenter"",""1"",""1507""
","
","
","""event"",""trial"",""time""
""fullscreenenter"",""1"",""1507""
","
","","","","","","null","<div style=""font-size:60px;"">+</div>","null","","fixation","","",""
"memory-trial","145","413630","0.0-18.0-1.50","6486","approach_avoid_sv1","""event"",""trial"",""time""
""fullscreenenter"",""1"",""1507""
","
","
","""event"",""trial"",""time""
""fullscreenenter"",""1"",""1507""
","
","","","","","","1495.2000000029802","images/tree8.png","","","memory_trial","4","definitely_new",""
"html-keyboard-response","146","414133","0.0-18.0-0.51","6486","approach_avoid_sv1","""event"",""trial"",""time""
""fullscreenenter"",""1"",""1507""
","
","
","""event"",""trial"",""time""
""fullscreenenter"",""1"",""1507""
","
","","","","","","null","<div style=""font-size:60px;"">+</div>","null","","fixation","","",""
"memory-trial","147","417302","0.0-18.0-1.51","6486","approach_avoid_sv1","""event"",""trial"",""time""
""fullscreenenter"",""1"",""1507""
","
","
","""event"",""trial"",""time""
""fullscreenenter"",""1"",""1507""
","
","","","","","","2167","images/flower3.png","","","memory_trial","1","definitely_old",""
"html-keyboard-response","148","417805","0.0-18.0-0.52","6486","approach_avoid_sv1","""event"",""trial"",""time""
""fullscreenenter"",""1"",""1507""
","
","
","""event"",""trial"",""time""
""fullscreenenter"",""1"",""1507""
","
","","","","","","null","<div style=""font-size:60px;"">+</div>","null","","fixation","","",""
"memory-trial","149","419766","0.0-18.0-1.52","6486","approach_avoid_sv1","""event"",""trial"",""time""
""fullscreenenter"",""1"",""1507""
","
","
","""event"",""trial"",""time""
""fullscreenenter"",""1"",""1507""
","
","","","","","","959","images/bed5.png","","","memory_trial","4","definitely_new",""
"html-keyboard-response","150","420267","0.0-18.0-0.53","6486","approach_avoid_sv1","""event"",""trial"",""time""
""fullscreenenter"",""1"",""1507""
","
","
","""event"",""trial"",""time""
""fullscreenenter"",""1"",""1507""
","
","","","","","","null","<div style=""font-size:60px;"">+</div>","null","","fixation","","",""
"memory-trial","151","423431","0.0-18.0-1.53","6486","approach_avoid_sv1","""event"",""trial"",""time""
""fullscreenenter"",""1"",""1507""
","
","
","""event"",""trial"",""time""
""fullscreenenter"",""1"",""1507""
","
","","","","","","2161.2000000029802","images/cactus7.png","","","memory_trial","1","definitely_old",""
"html-keyboard-response","152","423932","0.0-18.0-0.54","6486","approach_avoid_sv1","""event"",""trial"",""time""
""fullscreenenter"",""1"",""1507""
","
","
","""event"",""trial"",""time""
""fullscreenenter"",""1"",""1507""
","
","","","","","","null","<div style=""font-size:60px;"">+</div>","null","","fixation","","",""
"memory-trial","153","426678","0.0-18.0-1.54","6486","approach_avoid_sv1","""event"",""trial"",""time""
""fullscreenenter"",""1"",""1507""
","
","
","""event"",""trial"",""time""
""fullscreenenter"",""1"",""1507""
","
","","","","","","1743.199999988079","images/straw8.png","","","memory_trial","3","maybe_new",""
"html-keyboard-response","154","427179","0.0-18.0-0.55","6486","approach_avoid_sv1","""event"",""trial"",""time""
""fullscreenenter"",""1"",""1507""
","
","
","""event"",""trial"",""time""
""fullscreenenter"",""1"",""1507""
","
","","","","","","null","<div style=""font-size:60px;"">+</div>","null","","fixation","","",""
"memory-trial","155","430487","0.0-18.0-1.55","6486","approach_avoid_sv1","""event"",""trial"",""time""
""fullscreenenter"",""1"",""1507""
","
","
","""event"",""trial"",""time""
""fullscreenenter"",""1"",""1507""
","
","","","","","","2305","images/goat8.png","","","memory_trial","3","maybe_new",""
"html-keyboard-response","156","430987","0.0-18.0-0.56","6486","approach_avoid_sv1","""event"",""trial"",""time""
""fullscreenenter"",""1"",""1507""
","
","
","""event"",""trial"",""time""
""fullscreenenter"",""1"",""1507""
","
","","","","","","null","<div style=""font-size:60px;"">+</div>","null","","fixation","","",""
"memory-trial","157","433335","0.0-18.0-1.56","6486","approach_avoid_sv1","""event"",""trial"",""time""
""fullscreenenter"",""1"",""1507""
","
","
","""event"",""trial"",""time""
""fullscreenenter"",""1"",""1507""
","
","","","","","","1344.0999999940395","images/truck4.png","","","memory_trial","4","definitely_new",""
"html-keyboard-response","158","433836","0.0-18.0-0.57","6486","approach_avoid_sv1","""event"",""trial"",""time""
""fullscreenenter"",""1"",""1507""
","
","
","""event"",""trial"",""time""
""fullscreenenter"",""1"",""1507""
","
","","","","","","null","<div style=""font-size:60px;"">+</div>","null","","fixation","","",""
"memory-trial","159","435943","0.0-18.0-1.57","6486","approach_avoid_sv1","""event"",""trial"",""time""
""fullscreenenter"",""1"",""1507""
","
","
","""event"",""trial"",""time""
""fullscreenenter"",""1"",""1507""
","
","","","","","","1103.6000000089407","images/chair5.png","","","memory_trial","4","definitely_new",""
"html-keyboard-response","160","436444","0.0-18.0-0.58","6486","approach_avoid_sv1","""event"",""trial"",""time""
""fullscreenenter"",""1"",""1507""
","
","
","""event"",""trial"",""time""
""fullscreenenter"",""1"",""1507""
","
","","","","","","null","<div style=""font-size:60px;"">+</div>","null","","fixation","","",""
"memory-trial","161","439678","0.0-18.0-1.58","6486","approach_avoid_sv1","""event"",""trial"",""time""
""fullscreenenter"",""1"",""1507""
","
","
","""event"",""trial"",""time""
""fullscreenenter"",""1"",""1507""
","
","","","","","","2232","images/plane6.png","","","memory_trial","1","definitely_old",""
"html-keyboard-response","162","440179","0.0-18.0-0.59","6486","approach_avoid_sv1","""event"",""trial"",""time""
""fullscreenenter"",""1"",""1507""
","
","
","""event"",""trial"",""time""
""fullscreenenter"",""1"",""1507""
","
","","","","","","null","<div style=""font-size:60px;"">+</div>","null","","fixation","","",""
"memory-trial","163","443439","0.0-18.0-1.59","6486","approach_avoid_sv1","""event"",""trial"",""time""
""fullscreenenter"",""1"",""1507""
","
","
","""event"",""trial"",""time""
""fullscreenenter"",""1"",""1507""
","
","","","","","","2256.7000000029802","images/cow4.png","","","memory_trial","1","definitely_old",""
"html-keyboard-response","164","443940","0.0-18.0-0.60","6486","approach_avoid_sv1","""event"",""trial"",""time""
""fullscreenenter"",""1"",""1507""
","
","
","""event"",""trial"",""time""
""fullscreenenter"",""1"",""1507""
","
","","","","","","null","<div style=""font-size:60px;"">+</div>","null","","fixation","","",""
"memory-trial","165","447070","0.0-18.0-1.60","6486","approach_avoid_sv1","""event"",""trial"",""time""
""fullscreenenter"",""1"",""1507""
","
","
","""event"",""trial"",""time""
""fullscreenenter"",""1"",""1507""
","
","","","","","","2128","images/boat1.png","","","memory_trial","1","definitely_old",""
"html-keyboard-response","166","447572","0.0-18.0-0.61","6486","approach_avoid_sv1","""event"",""trial"",""time""
""fullscreenenter"",""1"",""1507""
","
","
","""event"",""trial"",""time""
""fullscreenenter"",""1"",""1507""
","
","","","","","","null","<div style=""font-size:60px;"">+</div>","null","","fixation","","",""
"memory-trial","167","450366","0.0-18.0-1.61","6486","approach_avoid_sv1","""event"",""trial"",""time""
""fullscreenenter"",""1"",""1507""
","
","
","""event"",""trial"",""time""
""fullscreenenter"",""1"",""1507""
","
","","","","","","1792.2000000029802","images/sheep1.png","","","memory_trial","3","maybe_new",""
"html-keyboard-response","168","450867","0.0-18.0-0.62","6486","approach_avoid_sv1","""event"",""trial"",""time""
""fullscreenenter"",""1"",""1507""
","
","
","""event"",""trial"",""time""
""fullscreenenter"",""1"",""1507""
","
","","","","","","null","<div style=""font-size:60px;"">+</div>","null","","fixation","","",""
"memory-trial","169","453423","0.0-18.0-1.62","6486","approach_avoid_sv1","""event"",""trial"",""time""
""fullscreenenter"",""1"",""1507""
","
","
","""event"",""trial"",""time""
""fullscreenenter"",""1"",""1507""
","
","","","","","","1552.4000000059605","images/dog6.png","","","memory_trial","2","maybe_old",""
"html-keyboard-response","170","453925","0.0-18.0-0.63","6486","approach_avoid_sv1","""event"",""trial"",""time""
""fullscreenenter"",""1"",""1507""
","
","
","""event"",""trial"",""time""
""fullscreenenter"",""1"",""1507""
","
","","","","","","null","<div style=""font-size:60px;"">+</div>","null","","fixation","","",""
"memory-trial","171","456422","0.0-18.0-1.63","6486","approach_avoid_sv1","""event"",""trial"",""time""
""fullscreenenter"",""1"",""1507""
","
","
","""event"",""trial"",""time""
""fullscreenenter"",""1"",""1507""
","
","","","","","","1495.2000000029802","images/banana2.png","","","memory_trial","3","maybe_new",""
"html-keyboard-response","172","456923","0.0-18.0-0.64","6486","approach_avoid_sv1","""event"",""trial"",""time""
""fullscreenenter"",""1"",""1507""
","
","
","""event"",""trial"",""time""
""fullscreenenter"",""1"",""1507""
","
","","","","","","null","<div style=""font-size:60px;"">+</div>","null","","fixation","","",""
"memory-trial","173","459303","0.0-18.0-1.64","6486","approach_avoid_sv1","""event"",""trial"",""time""
""fullscreenenter"",""1"",""1507""
","
","
","""event"",""trial"",""time""
""fullscreenenter"",""1"",""1507""
","
","","","","","","1377.1000000089407","images/cow1.png","","","memory_trial","4","definitely_new",""
"html-keyboard-response","174","459805","0.0-18.0-0.65","6486","approach_avoid_sv1","""event"",""trial"",""time""
""fullscreenenter"",""1"",""1507""
","
","
","""event"",""trial"",""time""
""fullscreenenter"",""1"",""1507""
","
","","","","","","null","<div style=""font-size:60px;"">+</div>","null","","fixation","","",""
"memory-trial","175","462631","0.0-18.0-1.65","6486","approach_avoid_sv1","""event"",""trial"",""time""
""fullscreenenter"",""1"",""1507""
","
","
","""event"",""trial"",""time""
""fullscreenenter"",""1"",""1507""
","
","","","","","","1823","images/chair7.png","","","memory_trial","1","definitely_old",""
"html-keyboard-response","176","463132","0.0-18.0-0.66","6486","approach_avoid_sv1","""event"",""trial"",""time""
""fullscreenenter"",""1"",""1507""
","
","
","""event"",""trial"",""time""
""fullscreenenter"",""1"",""1507""
","
","","","","","","null","<div style=""font-size:60px;"">+</div>","null","","fixation","","",""
"memory-trial","177","466318","0.0-18.0-1.66","6486","approach_avoid_sv1","""event"",""trial"",""time""
""fullscreenenter"",""1"",""1507""
","
","
","""event"",""trial"",""time""
""fullscreenenter"",""1"",""1507""
","
","","","","","","2184.7999999970198","images/cow5.png","","","memory_trial","2","maybe_old",""
"html-keyboard-response","178","466820","0.0-18.0-0.67","6486","approach_avoid_sv1","""event"",""trial"",""time""
""fullscreenenter"",""1"",""1507""
","
","
","""event"",""trial"",""time""
""fullscreenenter"",""1"",""1507""
","
","","","","","","null","<div style=""font-size:60px;"">+</div>","null","","fixation","","",""
"memory-trial","179","469191","0.0-18.0-1.67","6486","approach_avoid_sv1","""event"",""trial"",""time""
""fullscreenenter"",""1"",""1507""
","
","
","""event"",""trial"",""time""
""fullscreenenter"",""1"",""1507""
","
","","","","","","1368.0999999940395","images/flower5.png","","","memory_trial","4","definitely_new",""
"html-keyboard-response","180","469693","0.0-18.0-0.68","6486","approach_avoid_sv1","""event"",""trial"",""time""
""fullscreenenter"",""1"",""1507""
","
","
","""event"",""trial"",""time""
""fullscreenenter"",""1"",""1507""
","
","","","","","","null","<div style=""font-size:60px;"">+</div>","null","","fixation","","",""
"memory-trial","181","472271","0.0-18.0-1.68","6486","approach_avoid_sv1","""event"",""trial"",""time""
""fullscreenenter"",""1"",""1507""
","
","
","""event"",""trial"",""time""
""fullscreenenter"",""1"",""1507""
","
","","","","","","1575.5","images/sheep2.png","","","memory_trial","4","definitely_new",""
"html-keyboard-response","182","472773","0.0-18.0-0.69","6486","approach_avoid_sv1","""event"",""trial"",""time""
""fullscreenenter"",""1"",""1507""
","
","
","""event"",""trial"",""time""
""fullscreenenter"",""1"",""1507""
","
","","","","","","null","<div style=""font-size:60px;"">+</div>","null","","fixation","","",""
"memory-trial","183","475127","0.0-18.0-1.69","6486","approach_avoid_sv1","""event"",""trial"",""time""
""fullscreenenter"",""1"",""1507""
","
","
","""event"",""trial"",""time""
""fullscreenenter"",""1"",""1507""
","
","","","","","","1351.699999988079","images/apple5.png","","","memory_trial","4","definitely_new",""
"html-keyboard-response","184","475628","0.0-18.0-0.70","6486","approach_avoid_sv1","""event"",""trial"",""time""
""fullscreenenter"",""1"",""1507""
","
","
","""event"",""trial"",""time""
""fullscreenenter"",""1"",""1507""
","
","","","","","","null","<div style=""font-size:60px;"">+</div>","null","","fixation","","",""
"memory-trial","185","478134","0.0-18.0-1.70","6486","approach_avoid_sv1","""event"",""trial"",""time""
""fullscreenenter"",""1"",""1507""
","
","
","""event"",""trial"",""time""
""fullscreenenter"",""1"",""1507""
","
","","","","","","1503.9000000059605","images/sofa8.png","","","memory_trial","3","maybe_new",""
"html-keyboard-response","186","478636","0.0-18.0-0.71","6486","approach_avoid_sv1","""event"",""trial"",""time""
""fullscreenenter"",""1"",""1507""
","
","
","""event"",""trial"",""time""
""fullscreenenter"",""1"",""1507""
","
","","","","","","null","<div style=""font-size:60px;"">+</div>","null","","fixation","","",""
"memory-trial","187","481399","0.0-18.0-1.71","6486","approach_avoid_sv1","""event"",""trial"",""time""
""fullscreenenter"",""1"",""1507""
","
","
","""event"",""trial"",""time""
""fullscreenenter"",""1"",""1507""
","
","","","","","","1760.2999999970198","images/dog2.png","","","memory_trial","1","definitely_old",""
"html-keyboard-response","188","481900","0.0-18.0-0.72","6486","approach_avoid_sv1","""event"",""trial"",""time""
""fullscreenenter"",""1"",""1507""
","
","
","""event"",""trial"",""time""
""fullscreenenter"",""1"",""1507""
","
","","","","","","null","<div style=""font-size:60px;"">+</div>","null","","fixation","","",""
"memory-trial","189","484359","0.0-18.0-1.72","6486","approach_avoid_sv1","""event"",""trial"",""time""
""fullscreenenter"",""1"",""1507""
","
","
","""event"",""trial"",""time""
""fullscreenenter"",""1"",""1507""
","
","","","","","","1456.0999999940395","images/apple6.png","","","memory_trial","3","maybe_new",""
"html-keyboard-response","190","484860","0.0-18.0-0.73","6486","approach_avoid_sv1","""event"",""trial"",""time""
""fullscreenenter"",""1"",""1507""
","
","
","""event"",""trial"",""time""
""fullscreenenter"",""1"",""1507""
","
","","","","","","null","<div style=""font-size:60px;"">+</div>","null","","fixation","","",""
"memory-trial","191","487439","0.0-18.0-1.73","6486","approach_avoid_sv1","""event"",""trial"",""time""
""fullscreenenter"",""1"",""1507""
","
","
","""event"",""trial"",""time""
""fullscreenenter"",""1"",""1507""
","
","","","","","","1576.8999999910593","images/train5.png","","","memory_trial","2","maybe_old",""
"html-keyboard-response","192","487940","0.0-18.0-0.74","6486","approach_avoid_sv1","""event"",""trial"",""time""
""fullscreenenter"",""1"",""1507""
","
","
","""event"",""trial"",""time""
""fullscreenenter"",""1"",""1507""
","
","","","","","","null","<div style=""font-size:60px;"">+</div>","null","","fixation","","",""
"memory-trial","193","491006","0.0-18.0-1.74","6486","approach_avoid_sv1","""event"",""trial"",""time""
""fullscreenenter"",""1"",""1507""
","
","
","""event"",""trial"",""time""
""fullscreenenter"",""1"",""1507""
","
","","","","","","2063.699999988079","images/chair6.png","","","memory_trial","2","maybe_old",""
"html-keyboard-response","194","491509","0.0-18.0-0.75","6486","approach_avoid_sv1","""event"",""trial"",""time""
""fullscreenenter"",""1"",""1507""
","
","
","""event"",""trial"",""time""
""fullscreenenter"",""1"",""1507""
","
","","","","","","null","<div style=""font-size:60px;"">+</div>","null","","fixation","","",""
"memory-trial","195","495063","0.0-18.0-1.75","6486","approach_avoid_sv1","""event"",""trial"",""time""
""fullscreenenter"",""1"",""1507""
","
","
","""event"",""trial"",""time""
""fullscreenenter"",""1"",""1507""
","
","","","","","","2552.4000000059605","images/plane3.png","","","memory_trial","2","maybe_old",""
"html-keyboard-response","196","495565","0.0-18.0-0.76","6486","approach_avoid_sv1","""event"",""trial"",""time""
""fullscreenenter"",""1"",""1507""
","
","
","""event"",""trial"",""time""
""fullscreenenter"",""1"",""1507""
","
","","","","","","null","<div style=""font-size:60px;"">+</div>","null","","fixation","","",""
"memory-trial","197","497799","0.0-18.0-1.76","6486","approach_avoid_sv1","""event"",""trial"",""time""
""fullscreenenter"",""1"",""1507""
","
","
","""event"",""trial"",""time""
""fullscreenenter"",""1"",""1507""
","
","","","","","","1230.8999999910593","images/banana7.png","","","memory_trial","3","maybe_new",""
"html-keyboard-response","198","498301","0.0-18.0-0.77","6486","approach_avoid_sv1","""event"",""trial"",""time""
""fullscreenenter"",""1"",""1507""
","
","
","""event"",""trial"",""time""
""fullscreenenter"",""1"",""1507""
","
","","","","","","null","<div style=""font-size:60px;"">+</div>","null","","fixation","","",""
"memory-trial","199","500375","0.0-18.0-1.77","6486","approach_avoid_sv1","""event"",""trial"",""time""
""fullscreenenter"",""1"",""1507""
","
","
","""event"",""trial"",""time""
""fullscreenenter"",""1"",""1507""
","
","","","","","","1071.2999999970198","images/tree4.png","","","memory_trial","4","definitely_new",""
"html-keyboard-response","200","500876","0.0-18.0-0.78","6486","approach_avoid_sv1","""event"",""trial"",""time""
""fullscreenenter"",""1"",""1507""
","
","
","""event"",""trial"",""time""
""fullscreenenter"",""1"",""1507""
","
","","","","","","null","<div style=""font-size:60px;"">+</div>","null","","fixation","","",""
"memory-trial","201","503311","0.0-18.0-1.78","6486","approach_avoid_sv1","""event"",""trial"",""time""
""fullscreenenter"",""1"",""1507""
","
","
","""event"",""trial"",""time""
""fullscreenenter"",""1"",""1507""
","
","","","","","","1432.8999999910593","images/cactus5.png","","","memory_trial","2","maybe_old",""
"html-keyboard-response","202","503813","0.0-18.0-0.79","6486","approach_avoid_sv1","""event"",""trial"",""time""
""fullscreenenter"",""1"",""1507""
","
","
","""event"",""trial"",""time""
""fullscreenenter"",""1"",""1507""
","
","","","","","","null","<div style=""font-size:60px;"">+</div>","null","","fixation","","",""
"memory-trial","203","506542","0.0-18.0-1.79","6486","approach_avoid_sv1","""event"",""trial"",""time""
""fullscreenenter"",""1"",""1507""
","
","
","""event"",""trial"",""time""
""fullscreenenter"",""1"",""1507""
","
","","","","","","1727.4000000059605","images/cactus1.png","","","memory_trial","3","maybe_new",""
"html-keyboard-response","204","507045","0.0-18.0-0.80","6486","approach_avoid_sv1","""event"",""trial"",""time""
""fullscreenenter"",""1"",""1507""
","
","
","""event"",""trial"",""time""
""fullscreenenter"",""1"",""1507""
","
","","","","","","null","<div style=""font-size:60px;"">+</div>","null","","fixation","","",""
"memory-trial","205","509782","0.0-18.0-1.80","6486","approach_avoid_sv1","""event"",""trial"",""time""
""fullscreenenter"",""1"",""1507""
","
","
","""event"",""trial"",""time""
""fullscreenenter"",""1"",""1507""
","
","","","","","","1735.699999988079","images/chair3.png","","","memory_trial","4","definitely_new",""
"html-keyboard-response","206","510283","0.0-18.0-0.81","6486","approach_avoid_sv1","""event"",""trial"",""time""
""fullscreenenter"",""1"",""1507""
","
","
","""event"",""trial"",""time""
""fullscreenenter"",""1"",""1507""
","
","","","","","","null","<div style=""font-size:60px;"">+</div>","null","","fixation","","",""
"memory-trial","207","512647","0.0-18.0-1.81","6486","approach_avoid_sv1","""event"",""trial"",""time""
""fullscreenenter"",""1"",""1507""
","
","
","""event"",""trial"",""time""
""fullscreenenter"",""1"",""1507""
","
","","","","","","1360.2000000029802","images/dog3.png","","","memory_trial","3","maybe_new",""
"html-keyboard-response","208","513148","0.0-18.0-0.82","6486","approach_avoid_sv1","""event"",""trial"",""time""
""fullscreenenter"",""1"",""1507""
","
","
","""event"",""trial"",""time""
""fullscreenenter"",""1"",""1507""
","
","","","","","","null","<div style=""font-size:60px;"">+</div>","null","","fixation","","",""
"memory-trial","209","515462","0.0-18.0-1.82","6486","approach_avoid_sv1","""event"",""trial"",""time""
""fullscreenenter"",""1"",""1507""
","
","
","""event"",""trial"",""time""
""fullscreenenter"",""1"",""1507""
","
","","","","","","1312","images/rodent4.png","","","memory_trial","1","definitely_old",""
"html-keyboard-response","210","515964","0.0-18.0-0.83","6486","approach_avoid_sv1","""event"",""trial"",""time""
""fullscreenenter"",""1"",""1507""
","
","
","""event"",""trial"",""time""
""fullscreenenter"",""1"",""1507""
","
","","","","","","null","<div style=""font-size:60px;"">+</div>","null","","fixation","","",""
"memory-trial","211","518823","0.0-18.0-1.83","6486","approach_avoid_sv1","""event"",""trial"",""time""
""fullscreenenter"",""1"",""1507""
","
","
","""event"",""trial"",""time""
""fullscreenenter"",""1"",""1507""
","
","","","","","","1855.7999999970198","images/flower7.png","","","memory_trial","2","maybe_old",""
"html-keyboard-response","212","519324","0.0-18.0-0.84","6486","approach_avoid_sv1","""event"",""trial"",""time""
""fullscreenenter"",""1"",""1507""
","
","
","""event"",""trial"",""time""
""fullscreenenter"",""1"",""1507""
","
","","","","","","null","<div style=""font-size:60px;"">+</div>","null","","fixation","","",""
"memory-trial","213","521902","0.0-18.0-1.84","6486","approach_avoid_sv1","""event"",""trial"",""time""
""fullscreenenter"",""1"",""1507""
","
","
","""event"",""trial"",""time""
""fullscreenenter"",""1"",""1507""
","
","","","","","","1575.8999999910593","images/flower2.png","","","memory_trial","1","definitely_old",""
"html-keyboard-response","214","522404","0.0-18.0-0.85","6486","approach_avoid_sv1","""event"",""trial"",""time""
""fullscreenenter"",""1"",""1507""
","
","
","""event"",""trial"",""time""
""fullscreenenter"",""1"",""1507""
","
","","","","","","null","<div style=""font-size:60px;"">+</div>","null","","fixation","","",""
"memory-trial","215","524647","0.0-18.0-1.85","6486","approach_avoid_sv1","""event"",""trial"",""time""
""fullscreenenter"",""1"",""1507""
","
","
","""event"",""trial"",""time""
""fullscreenenter"",""1"",""1507""
","
","","","","","","1239.5","images/dog5.png","","","memory_trial","3","maybe_new",""
"html-keyboard-response","216","525149","0.0-18.0-0.86","6486","approach_avoid_sv1","""event"",""trial"",""time""
""fullscreenenter"",""1"",""1507""
","
","
","""event"",""trial"",""time""
""fullscreenenter"",""1"",""1507""
","
","","","","","","null","<div style=""font-size:60px;"">+</div>","null","","fixation","","",""
"memory-trial","217","527375","0.0-18.0-1.86","6486","approach_avoid_sv1","""event"",""trial"",""time""
""fullscreenenter"",""1"",""1507""
","
","
","""event"",""trial"",""time""
""fullscreenenter"",""1"",""1507""
","
","","","","","","1223.2999999970198","images/truck1.png","","","memory_trial","4","definitely_new",""
"html-keyboard-response","218","527876","0.0-18.0-0.87","6486","approach_avoid_sv1","""event"",""trial"",""time""
""fullscreenenter"",""1"",""1507""
","
","
","""event"",""trial"",""time""
""fullscreenenter"",""1"",""1507""
","
","","","","","","null","<div style=""font-size:60px;"">+</div>","null","","fixation","","",""
"memory-trial","219","530438","0.0-18.0-1.87","6486","approach_avoid_sv1","""event"",""trial"",""time""
""fullscreenenter"",""1"",""1507""
","
","
","""event"",""trial"",""time""
""fullscreenenter"",""1"",""1507""
","
","","","","","","1559.8999999910593","images/bush7.png","","","memory_trial","1","definitely_old",""
"html-keyboard-response","220","530939","0.0-18.0-0.88","6486","approach_avoid_sv1","""event"",""trial"",""time""
""fullscreenenter"",""1"",""1507""
","
","
","""event"",""trial"",""time""
""fullscreenenter"",""1"",""1507""
","
","","","","","","null","<div style=""font-size:60px;"">+</div>","null","","fixation","","",""
"memory-trial","221","533270","0.0-18.0-1.88","6486","approach_avoid_sv1","""event"",""trial"",""time""
""fullscreenenter"",""1"",""1507""
","
","
","""event"",""trial"",""time""
""fullscreenenter"",""1"",""1507""
","
","","","","","","1329","images/rabbit6.png","","","memory_trial","1","definitely_old",""
"html-keyboard-response","222","533771","0.0-18.0-0.89","6486","approach_avoid_sv1","""event"",""trial"",""time""
""fullscreenenter"",""1"",""1507""
","
","
","""event"",""trial"",""time""
""fullscreenenter"",""1"",""1507""
","
","","","","","","null","<div style=""font-size:60px;"">+</div>","null","","fixation","","",""
"memory-trial","223","536406","0.0-18.0-1.89","6486","approach_avoid_sv1","""event"",""trial"",""time""
""fullscreenenter"",""1"",""1507""
","
","
","""event"",""trial"",""time""
""fullscreenenter"",""1"",""1507""
","
","","","","","","1632.0999999940395","images/orange5.png","","","memory_trial","3","maybe_new",""
"html-keyboard-response","224","536907","0.0-18.0-0.90","6486","approach_avoid_sv1","""event"",""trial"",""time""
""fullscreenenter"",""1"",""1507""
","
","
","""event"",""trial"",""time""
""fullscreenenter"",""1"",""1507""
","
","","","","","","null","<div style=""font-size:60px;"">+</div>","null","","fixation","","",""
"memory-trial","225","538990","0.0-18.0-1.90","6486","approach_avoid_sv1","""event"",""trial"",""time""
""fullscreenenter"",""1"",""1507""
","
","
","""event"",""trial"",""time""
""fullscreenenter"",""1"",""1507""
","
","","","","","","1081.2999999970198","images/train8.png","","","memory_trial","4","definitely_new",""
"html-keyboard-response","226","539492","0.0-18.0-0.91","6486","approach_avoid_sv1","""event"",""trial"",""time""
""fullscreenenter"",""1"",""1507""
","
","
","""event"",""trial"",""time""
""fullscreenenter"",""1"",""1507""
","
","","","","","","null","<div style=""font-size:60px;"">+</div>","null","","fixation","","",""
"memory-trial","227","542310","0.0-18.0-1.91","6486","approach_avoid_sv1","""event"",""trial"",""time""
""fullscreenenter"",""1"",""1507""
","
","
","""event"",""trial"",""time""
""fullscreenenter"",""1"",""1507""
","
","","","","","","1816.8999999910593","images/chair1.png","","","memory_trial","2","maybe_old",""
"html-button-response","228","600222","0.0-18.0-2.91-0.91","6486","approach_avoid_sv1","""event"",""trial"",""time""
""fullscreenenter"",""1"",""1507""
","
","
","""event"",""trial"",""time""
""fullscreenenter"",""1"",""1507""
","
","","","","","","57910.79999999702","<p> Take a break! </p><p> Click the button to continue. </p>","0","","break","","",""
"html-keyboard-response","229","600723","0.0-18.0-0.92","6486","approach_avoid_sv1","""event"",""trial"",""time""
""fullscreenenter"",""1"",""1507""
","
","
","""event"",""trial"",""time""
""fullscreenenter"",""1"",""1507""
","
","","","","","","null","<div style=""font-size:60px;"">+</div>","null","","fixation","","",""
"memory-trial","230","603799","0.0-18.0-1.92","6486","approach_avoid_sv1","""event"",""trial"",""time""
""fullscreenenter"",""1"",""1507""
","
","
","""event"",""trial"",""time""
""fullscreenenter"",""1"",""1507""
","
","","","","","","2072.2999999970198","images/tree6.png","","","memory_trial","3","maybe_new",""
"html-keyboard-response","231","604300","0.0-18.0-0.93","6486","approach_avoid_sv1","""event"",""trial"",""time""
""fullscreenenter"",""1"",""1507""
","
","
","""event"",""trial"",""time""
""fullscreenenter"",""1"",""1507""
","
","","","","","","null","<div style=""font-size:60px;"">+</div>","null","","fixation","","",""
"memory-trial","232","606543","0.0-18.0-1.93","6486","approach_avoid_sv1","""event"",""trial"",""time""
""fullscreenenter"",""1"",""1507""
","
","
","""event"",""trial"",""time""
""fullscreenenter"",""1"",""1507""
","
","","","","","","1240.199999988079","images/horse4.png","","","memory_trial","3","maybe_new",""
"html-keyboard-response","233","607045","0.0-18.0-0.94","6486","approach_avoid_sv1","""event"",""trial"",""time""
""fullscreenenter"",""1"",""1507""
","
","
","""event"",""trial"",""time""
""fullscreenenter"",""1"",""1507""
","
","","","","","","null","<div style=""font-size:60px;"">+</div>","null","","fixation","","",""
"memory-trial","234","609519","0.0-18.0-1.94","6486","approach_avoid_sv1","""event"",""trial"",""time""
""fullscreenenter"",""1"",""1507""
","
","
","""event"",""trial"",""time""
""fullscreenenter"",""1"",""1507""
","
","","","","","","1471.6000000089407","images/boat6.png","","","memory_trial","2","maybe_old",""
"html-keyboard-response","235","610020","0.0-18.0-0.95","6486","approach_avoid_sv1","""event"",""trial"",""time""
""fullscreenenter"",""1"",""1507""
","
","
","""event"",""trial"",""time""
""fullscreenenter"",""1"",""1507""
","
","","","","","","null","<div style=""font-size:60px;"">+</div>","null","","fixation","","",""
"memory-trial","236","612463","0.0-18.0-1.95","6486","approach_avoid_sv1","""event"",""trial"",""time""
""fullscreenenter"",""1"",""1507""
","
","
","""event"",""trial"",""time""
""fullscreenenter"",""1"",""1507""
","
","","","","","","1440.5999999940395","images/cat6.png","","","memory_trial","4","definitely_new",""
"html-keyboard-response","237","612964","0.0-18.0-0.96","6486","approach_avoid_sv1","""event"",""trial"",""time""
""fullscreenenter"",""1"",""1507""
","
","
","""event"",""trial"",""time""
""fullscreenenter"",""1"",""1507""
","
","","","","","","null","<div style=""font-size:60px;"">+</div>","null","","fixation","","",""
"memory-trial","238","615359","0.0-18.0-1.96","6486","approach_avoid_sv1","""event"",""trial"",""time""
""fullscreenenter"",""1"",""1507""
","
","
","""event"",""trial"",""time""
""fullscreenenter"",""1"",""1507""
","
","","","","","","1391.5","images/cactus4.png","","","memory_trial","3","maybe_new",""
"html-keyboard-response","239","615860","0.0-18.0-0.97","6486","approach_avoid_sv1","""event"",""trial"",""time""
""fullscreenenter"",""1"",""1507""
","
","
","""event"",""trial"",""time""
""fullscreenenter"",""1"",""1507""
","
","","","","","","null","<div style=""font-size:60px;"">+</div>","null","","fixation","","",""
"memory-trial","240","618391","0.0-18.0-1.97","6486","approach_avoid_sv1","""event"",""trial"",""time""
""fullscreenenter"",""1"",""1507""
","
","
","""event"",""trial"",""time""
""fullscreenenter"",""1"",""1507""
","
","","","","","","1528.5","images/goat6.png","","","memory_trial","2","maybe_old",""
"html-keyboard-response","241","618899","0.0-18.0-0.98","6486","approach_avoid_sv1","""event"",""trial"",""time""
""fullscreenenter"",""1"",""1507""
","
","
","""event"",""trial"",""time""
""fullscreenenter"",""1"",""1507""
","
","","","","","","null","<div style=""font-size:60px;"">+</div>","null","","fixation","","",""
"memory-trial","242","621095","0.0-18.0-1.98","6486","approach_avoid_sv1","""event"",""trial"",""time""
""fullscreenenter"",""1"",""1507""
","
","
","""event"",""trial"",""time""
""fullscreenenter"",""1"",""1507""
","
","","","","","","1193.0999999940395","images/table4.png","","","memory_trial","2","maybe_old",""
"html-keyboard-response","243","621596","0.0-18.0-0.99","6486","approach_avoid_sv1","""event"",""trial"",""time""
""fullscreenenter"",""1"",""1507""
","
","
","""event"",""trial"",""time""
""fullscreenenter"",""1"",""1507""
","
","","","","","","null","<div style=""font-size:60px;"">+</div>","null","","fixation","","",""
"memory-trial","244","623591","0.0-18.0-1.99","6486","approach_avoid_sv1","""event"",""trial"",""time""
""fullscreenenter"",""1"",""1507""
","
","
","""event"",""trial"",""time""
""fullscreenenter"",""1"",""1507""
","
","","","","","","992.6000000089407","images/cow8.png","","","memory_trial","1","definitely_old",""
"html-keyboard-response","245","624093","0.0-18.0-0.100","6486","approach_avoid_sv1","""event"",""trial"",""time""
""fullscreenenter"",""1"",""1507""
","
","
","""event"",""trial"",""time""
""fullscreenenter"",""1"",""1507""
","
","","","","","","null","<div style=""font-size:60px;"">+</div>","null","","fixation","","",""
"memory-trial","246","626056","0.0-18.0-1.100","6486","approach_avoid_sv1","""event"",""trial"",""time""
""fullscreenenter"",""1"",""1507""
","
","
","""event"",""trial"",""time""
""fullscreenenter"",""1"",""1507""
","
","","","","","","960.0999999940395","images/table2.png","","","memory_trial","1","definitely_old",""
"html-keyboard-response","247","626556","0.0-18.0-0.101","6486","approach_avoid_sv1","""event"",""trial"",""time""
""fullscreenenter"",""1"",""1507""
","
","
","""event"",""trial"",""time""
""fullscreenenter"",""1"",""1507""
","
","","","","","","null","<div style=""font-size:60px;"">+</div>","null","","fixation","","",""
"memory-trial","248","629271","0.0-18.0-1.101","6486","approach_avoid_sv1","""event"",""trial"",""time""
""fullscreenenter"",""1"",""1507""
","
","
","""event"",""trial"",""time""
""fullscreenenter"",""1"",""1507""
","
","","","","","","1712.4000000059605","images/train6.png","","","memory_trial","3","maybe_new",""
"html-keyboard-response","249","629771","0.0-18.0-0.102","6486","approach_avoid_sv1","""event"",""trial"",""time""
""fullscreenenter"",""1"",""1507""
","
","
","""event"",""trial"",""time""
""fullscreenenter"",""1"",""1507""
","
","","","","","","null","<div style=""font-size:60px;"">+</div>","null","","fixation","","",""
"memory-trial","250","632503","0.0-18.0-1.102","6486","approach_avoid_sv1","""event"",""trial"",""time""
""fullscreenenter"",""1"",""1507""
","
","
","""event"",""trial"",""time""
""fullscreenenter"",""1"",""1507""
","
","","","","","","1728.5999999940395","images/train3.png","","","memory_trial","4","definitely_new",""
"html-keyboard-response","251","633004","0.0-18.0-0.103","6486","approach_avoid_sv1","""event"",""trial"",""time""
""fullscreenenter"",""1"",""1507""
","
","
","""event"",""trial"",""time""
""fullscreenenter"",""1"",""1507""
","
","","","","","","null","<div style=""font-size:60px;"">+</div>","null","","fixation","","",""
"memory-trial","252","635207","0.0-18.0-1.103","6486","approach_avoid_sv1","""event"",""trial"",""time""
""fullscreenenter"",""1"",""1507""
","
","
","""event"",""trial"",""time""
""fullscreenenter"",""1"",""1507""
","
","","","","","","1200.5","images/cat2.png","","","memory_trial","4","definitely_new",""
"html-keyboard-response","253","635708","0.0-18.0-0.104","6486","approach_avoid_sv1","""event"",""trial"",""time""
""fullscreenenter"",""1"",""1507""
","
","
","""event"",""trial"",""time""
""fullscreenenter"",""1"",""1507""
","
","","","","","","null","<div style=""font-size:60px;"">+</div>","null","","fixation","","",""
"memory-trial","254","637511","0.0-18.0-1.104","6486","approach_avoid_sv1","""event"",""trial"",""time""
""fullscreenenter"",""1"",""1507""
","
","
","""event"",""trial"",""time""
""fullscreenenter"",""1"",""1507""
","
","","","","","","800.2000000029802","images/truck5.png","","","memory_trial","4","definitely_new",""
"html-keyboard-response","255","638013","0.0-18.0-0.105","6486","approach_avoid_sv1","""event"",""trial"",""time""
""fullscreenenter"",""1"",""1507""
","
","
","""event"",""trial"",""time""
""fullscreenenter"",""1"",""1507""
","
","","","","","","null","<div style=""font-size:60px;"">+</div>","null","","fixation","","",""
"memory-trial","256","641032","0.0-18.0-1.105","6486","approach_avoid_sv1","""event"",""trial"",""time""
""fullscreenenter"",""1"",""1507""
","
","
","""event"",""trial"",""time""
""fullscreenenter"",""1"",""1507""
","
","","","","","","2016.2000000029802","images/orange7.png","","","memory_trial","2","maybe_old",""
"html-keyboard-response","257","641533","0.0-18.0-0.106","6486","approach_avoid_sv1","""event"",""trial"",""time""
""fullscreenenter"",""1"",""1507""
","
","
","""event"",""trial"",""time""
""fullscreenenter"",""1"",""1507""
","
","","","","","","null","<div style=""font-size:60px;"">+</div>","null","","fixation","","",""
"memory-trial","258","643678","0.0-18.0-1.106","6486","approach_avoid_sv1","""event"",""trial"",""time""
""fullscreenenter"",""1"",""1507""
","
","
","""event"",""trial"",""time""
""fullscreenenter"",""1"",""1507""
","
","","","","","","1142.4000000059605","images/cow2.png","","","memory_trial","3","maybe_new",""
"html-keyboard-response","259","644180","0.0-18.0-0.107","6486","approach_avoid_sv1","""event"",""trial"",""time""
""fullscreenenter"",""1"",""1507""
","
","
","""event"",""trial"",""time""
""fullscreenenter"",""1"",""1507""
","
","","","","","","null","<div style=""font-size:60px;"">+</div>","null","","fixation","","",""
"memory-trial","260","646118","0.0-18.0-1.107","6486","approach_avoid_sv1","""event"",""trial"",""time""
""fullscreenenter"",""1"",""1507""
","
","
","""event"",""trial"",""time""
""fullscreenenter"",""1"",""1507""
","
","","","","","","936.5","images/bed8.png","","","memory_trial","4","definitely_new",""
"html-keyboard-response","261","646619","0.0-18.0-0.108","6486","approach_avoid_sv1","""event"",""trial"",""time""
""fullscreenenter"",""1"",""1507""
","
","
","""event"",""trial"",""time""
""fullscreenenter"",""1"",""1507""
","
","","","","","","null","<div style=""font-size:60px;"">+</div>","null","","fixation","","",""
"memory-trial","262","649695","0.0-18.0-1.108","6486","approach_avoid_sv1","""event"",""trial"",""time""
""fullscreenenter"",""1"",""1507""
","
","
","""event"",""trial"",""time""
""fullscreenenter"",""1"",""1507""
","
","","","","","","2073.0999999940395","images/orange1.png","","","memory_trial","1","definitely_old",""
"html-keyboard-response","263","650196","0.0-18.0-0.109","6486","approach_avoid_sv1","""event"",""trial"",""time""
""fullscreenenter"",""1"",""1507""
","
","
","""event"",""trial"",""time""
""fullscreenenter"",""1"",""1507""
","
","","","","","","null","<div style=""font-size:60px;"">+</div>","null","","fixation","","",""
"memory-trial","264","652688","0.0-18.0-1.109","6486","approach_avoid_sv1","""event"",""trial"",""time""
""fullscreenenter"",""1"",""1507""
","
","
","""event"",""trial"",""time""
""fullscreenenter"",""1"",""1507""
","
","","","","","","1488.199999988079","images/straw3.png","","","memory_trial","3","maybe_new",""
"html-keyboard-response","265","653189","0.0-18.0-0.110","6486","approach_avoid_sv1","""event"",""trial"",""time""
""fullscreenenter"",""1"",""1507""
","
","
","""event"",""trial"",""time""
""fullscreenenter"",""1"",""1507""
","
","","","","","","null","<div style=""font-size:60px;"">+</div>","null","","fixation","","",""
"memory-trial","266","655463","0.0-18.0-1.110","6486","approach_avoid_sv1","""event"",""trial"",""time""
""fullscreenenter"",""1"",""1507""
","
","
","""event"",""trial"",""time""
""fullscreenenter"",""1"",""1507""
","
","","","","","","1271.3999999910593","images/table8.png","","","memory_trial","1","definitely_old",""
"html-keyboard-response","267","655965","0.0-18.0-0.111","6486","approach_avoid_sv1","""event"",""trial"",""time""
""fullscreenenter"",""1"",""1507""
","
","
","""event"",""trial"",""time""
""fullscreenenter"",""1"",""1507""
","
","","","","","","null","<div style=""font-size:60px;"">+</div>","null","","fixation","","",""
"memory-trial","268","658671","0.0-18.0-1.111","6486","approach_avoid_sv1","""event"",""trial"",""time""
""fullscreenenter"",""1"",""1507""
","
","
","""event"",""trial"",""time""
""fullscreenenter"",""1"",""1507""
","
","","","","","","1704.5","images/dog7.png","","","memory_trial","4","definitely_new",""
"html-keyboard-response","269","659172","0.0-18.0-0.112","6486","approach_avoid_sv1","""event"",""trial"",""time""
""fullscreenenter"",""1"",""1507""
","
","
","""event"",""trial"",""time""
""fullscreenenter"",""1"",""1507""
","
","","","","","","null","<div style=""font-size:60px;"">+</div>","null","","fixation","","",""
"memory-trial","270","662158","0.0-18.0-1.112","6486","approach_avoid_sv1","""event"",""trial"",""time""
""fullscreenenter"",""1"",""1507""
","
","
","""event"",""trial"",""time""
""fullscreenenter"",""1"",""1507""
","
","","","","","","1984.1000000089407","images/rodent3.png","","","memory_trial","2","maybe_old",""
"html-keyboard-response","271","662659","0.0-18.0-0.113","6486","approach_avoid_sv1","""event"",""trial"",""time""
""fullscreenenter"",""1"",""1507""
","
","
","""event"",""trial"",""time""
""fullscreenenter"",""1"",""1507""
","
","","","","","","null","<div style=""font-size:60px;"">+</div>","null","","fixation","","",""
"memory-trial","272","664959","0.0-18.0-1.113","6486","approach_avoid_sv1","""event"",""trial"",""time""
""fullscreenenter"",""1"",""1507""
","
","
","""event"",""trial"",""time""
""fullscreenenter"",""1"",""1507""
","
","","","","","","1296.699999988079","images/flower4.png","","","memory_trial","1","definitely_old",""
"html-keyboard-response","273","665460","0.0-18.0-0.114","6486","approach_avoid_sv1","""event"",""trial"",""time""
""fullscreenenter"",""1"",""1507""
","
","
","""event"",""trial"",""time""
""fullscreenenter"",""1"",""1507""
","
","","","","","","null","<div style=""font-size:60px;"">+</div>","null","","fixation","","",""
"memory-trial","274","668574","0.0-18.0-1.114","6486","approach_avoid_sv1","""event"",""trial"",""time""
""fullscreenenter"",""1"",""1507""
","
","
","""event"",""trial"",""time""
""fullscreenenter"",""1"",""1507""
","
","","","","","","2112","images/truck7.png","","","memory_trial","4","definitely_new",""
"html-keyboard-response","275","669075","0.0-18.0-0.115","6486","approach_avoid_sv1","""event"",""trial"",""time""
""fullscreenenter"",""1"",""1507""
","
","
","""event"",""trial"",""time""
""fullscreenenter"",""1"",""1507""
","
","","","","","","null","<div style=""font-size:60px;"">+</div>","null","","fixation","","",""
"memory-trial","276","673198","0.0-18.0-1.115","6486","approach_avoid_sv1","""event"",""trial"",""time""
""fullscreenenter"",""1"",""1507""
","
","
","""event"",""trial"",""time""
""fullscreenenter"",""1"",""1507""
","
","","","","","","3120.199999988079","images/bed1.png","","","memory_trial","4","definitely_new",""
"html-keyboard-response","277","673699","0.0-18.0-0.116","6486","approach_avoid_sv1","""event"",""trial"",""time""
""fullscreenenter"",""1"",""1507""
","
","
","""event"",""trial"",""time""
""fullscreenenter"",""1"",""1507""
","
","","","","","","null","<div style=""font-size:60px;"">+</div>","null","","fixation","","",""
"memory-trial","278","676278","0.0-18.0-1.116","6486","approach_avoid_sv1","""event"",""trial"",""time""
""fullscreenenter"",""1"",""1507""
","
","
","""event"",""trial"",""time""
""fullscreenenter"",""1"",""1507""
","
","","","","","","1576.0999999940395","images/flower8.png","","","memory_trial","2","maybe_old",""
"html-keyboard-response","279","676779","0.0-18.0-0.117","6486","approach_avoid_sv1","""event"",""trial"",""time""
""fullscreenenter"",""1"",""1507""
","
","
","""event"",""trial"",""time""
""fullscreenenter"",""1"",""1507""
","
","","","","","","null","<div style=""font-size:60px;"">+</div>","null","","fixation","","",""
"memory-trial","280","679031","0.0-18.0-1.117","6486","approach_avoid_sv1","""event"",""trial"",""time""
""fullscreenenter"",""1"",""1507""
","
","
","""event"",""trial"",""time""
""fullscreenenter"",""1"",""1507""
","
","","","","","","1248.3999999910593","images/rodent8.png","","","memory_trial","4","definitely_new",""
"html-keyboard-response","281","679532","0.0-18.0-0.118","6486","approach_avoid_sv1","""event"",""trial"",""time""
""fullscreenenter"",""1"",""1507""
","
","
","""event"",""trial"",""time""
""fullscreenenter"",""1"",""1507""
","
","","","","","","null","<div style=""font-size:60px;"">+</div>","null","","fixation","","",""
"memory-trial","282","681998","0.0-18.0-1.118","6486","approach_avoid_sv1","""event"",""trial"",""time""
""fullscreenenter"",""1"",""1507""
","
","
","""event"",""trial"",""time""
""fullscreenenter"",""1"",""1507""
","
","","","","","","1464.2000000029802","images/cow7.png","","","memory_trial","2","maybe_old",""
"html-keyboard-response","283","682499","0.0-18.0-0.119","6486","approach_avoid_sv1","""event"",""trial"",""time""
""fullscreenenter"",""1"",""1507""
","
","
","""event"",""trial"",""time""
""fullscreenenter"",""1"",""1507""
","
","","","","","","null","<div style=""font-size:60px;"">+</div>","null","","fixation","","",""
"memory-trial","284","685174","0.0-18.0-1.119","6486","approach_avoid_sv1","""event"",""trial"",""time""
""fullscreenenter"",""1"",""1507""
","
","
","""event"",""trial"",""time""
""fullscreenenter"",""1"",""1507""
","
","","","","","","1673.7000000029802","images/horse2.png","","","memory_trial","4","definitely_new",""
"html-keyboard-response","285","685676","0.0-18.0-0.120","6486","approach_avoid_sv1","""event"",""trial"",""time""
""fullscreenenter"",""1"",""1507""
","
","
","""event"",""trial"",""time""
""fullscreenenter"",""1"",""1507""
","
","","","","","","null","<div style=""font-size:60px;"">+</div>","null","","fixation","","",""
"memory-trial","286","688126","0.0-18.0-1.120","6486","approach_avoid_sv1","""event"",""trial"",""time""
""fullscreenenter"",""1"",""1507""
","
","
","""event"",""trial"",""time""
""fullscreenenter"",""1"",""1507""
","
","","","","","","1447.4000000059605","images/rabbit8.png","","","memory_trial","2","maybe_old",""
"html-keyboard-response","287","688627","0.0-18.0-0.121","6486","approach_avoid_sv1","""event"",""trial"",""time""
""fullscreenenter"",""1"",""1507""
","
","
","""event"",""trial"",""time""
""fullscreenenter"",""1"",""1507""
","
","","","","","","null","<div style=""font-size:60px;"">+</div>","null","","fixation","","",""
"memory-trial","288","691169","0.0-18.0-1.121","6486","approach_avoid_sv1","""event"",""trial"",""time""
""fullscreenenter"",""1"",""1507""
","
","
","""event"",""trial"",""time""
""fullscreenenter"",""1"",""1507""
","
","","","","","","1536.5999999940395","images/horse3.png","","","memory_trial","3","maybe_new",""
"html-keyboard-response","289","691670","0.0-18.0-0.122","6486","approach_avoid_sv1","""event"",""trial"",""time""
""fullscreenenter"",""1"",""1507""
","
","
","""event"",""trial"",""time""
""fullscreenenter"",""1"",""1507""
","
","","","","","","null","<div style=""font-size:60px;"">+</div>","null","","fixation","","",""
"memory-trial","290","694030","0.0-18.0-1.122","6486","approach_avoid_sv1","""event"",""trial"",""time""
""fullscreenenter"",""1"",""1507""
","
","
","""event"",""trial"",""time""
""fullscreenenter"",""1"",""1507""
","
","","","","","","1357","images/banana8.png","","","memory_trial","1","definitely_old",""
"html-keyboard-response","291","694531","0.0-18.0-0.123","6486","approach_avoid_sv1","""event"",""trial"",""time""
""fullscreenenter"",""1"",""1507""
","
","
","""event"",""trial"",""time""
""fullscreenenter"",""1"",""1507""
","
","","","","","","null","<div style=""font-size:60px;"">+</div>","null","","fixation","","",""
"memory-trial","292","696766","0.0-18.0-1.123","6486","approach_avoid_sv1","""event"",""trial"",""time""
""fullscreenenter"",""1"",""1507""
","
","
","""event"",""trial"",""time""
""fullscreenenter"",""1"",""1507""
","
","","","","","","1233","images/cat3.png","","","memory_trial","4","definitely_new",""
"html-keyboard-response","293","697268","0.0-18.0-0.124","6486","approach_avoid_sv1","""event"",""trial"",""time""
""fullscreenenter"",""1"",""1507""
","
","
","""event"",""trial"",""time""
""fullscreenenter"",""1"",""1507""
","
","","","","","","null","<div style=""font-size:60px;"">+</div>","null","","fixation","","",""
"memory-trial","294","700134","0.0-18.0-1.124","6486","approach_avoid_sv1","""event"",""trial"",""time""
""fullscreenenter"",""1"",""1507""
","
","
","""event"",""trial"",""time""
""fullscreenenter"",""1"",""1507""
","
","","","","","","1863.7999999970198","images/cat4.png","","","memory_trial","4","definitely_new",""
"html-keyboard-response","295","700636","0.0-18.0-0.125","6486","approach_avoid_sv1","""event"",""trial"",""time""
""fullscreenenter"",""1"",""1507""
","
","
","""event"",""trial"",""time""
""fullscreenenter"",""1"",""1507""
","
","","","","","","null","<div style=""font-size:60px;"">+</div>","null","","fixation","","",""
"memory-trial","296","702806","0.0-18.0-1.125","6486","approach_avoid_sv1","""event"",""trial"",""time""
""fullscreenenter"",""1"",""1507""
","
","
","""event"",""trial"",""time""
""fullscreenenter"",""1"",""1507""
","
","","","","","","1168.0999999940395","images/truck3.png","","","memory_trial","4","definitely_new",""
"html-keyboard-response","297","703307","0.0-18.0-0.126","6486","approach_avoid_sv1","""event"",""trial"",""time""
""fullscreenenter"",""1"",""1507""
","
","
","""event"",""trial"",""time""
""fullscreenenter"",""1"",""1507""
","
