"trial_type","trial_index","time_elapsed","internal_node_id","subject_id","task_version","interactions","blur_events","focus_events","fullscreenenter_events","fullscreenexit_events","success","timeout","failed_images","failed_audio","failed_video","rt","stimulus","response","button_pressed","task_part","key_press","answer","correct"
"pavlovia","0","7","0.0-0.0","7815","approach_avoid_sv1","""event"",""trial"",""time""
""fullscreenenter"",""1"",""3228""
","
","
","""event"",""trial"",""time""
""fullscreenenter"",""1"",""3228""
","
","","","","","","","","","","","","",""
"fullscreen","1","4191","0.0-1.0","7815","approach_avoid_sv1","""event"",""trial"",""time""
""fullscreenenter"",""1"",""3228""
","
","
","""event"",""trial"",""time""
""fullscreenenter"",""1"",""3228""
","
","true","","","","","","","","","","","",""
"preload","2","5579","0.0-2.0","7815","approach_avoid_sv1","""event"",""trial"",""time""
""fullscreenenter"",""1"",""3228""
","
","
","""event"",""trial"",""time""
""fullscreenenter"",""1"",""3228""
","
","true","false","[]","[]","[]","","","","","","","",""
"preload","3","6078","0.0-3.0","7815","approach_avoid_sv1","""event"",""trial"",""time""
""fullscreenenter"",""1"",""3228""
","
","
","""event"",""trial"",""time""
""fullscreenenter"",""1"",""3228""
","
","true","false","[]","[]","[]","","","","","","","",""
"preload","4","6321","0.0-4.0","7815","approach_avoid_sv1","""event"",""trial"",""time""
""fullscreenenter"",""1"",""3228""
","
","
","""event"",""trial"",""time""
""fullscreenenter"",""1"",""3228""
","
","true","false","[]","[]","[]","","","","","","","",""
"audio-keyboard-response","5","12668","0.0-5.0","7815","approach_avoid_sv1","""event"",""trial"",""time""
""fullscreenenter"",""1"",""3228""
","
","
","""event"",""trial"",""time""
""fullscreenenter"",""1"",""3228""
","
","","","","","","6229.333333333333","audio/beep_loop.wav"," ","","","","",""
"audio-button-response","6","17283","0.0-6.0","7815","approach_avoid_sv1","""event"",""trial"",""time""
""fullscreenenter"",""1"",""3228""
","
","
","""event"",""trial"",""time""
""fullscreenenter"",""1"",""3228""
","
","","","","","","4621","audio/turtle.wav","3","","","","",""
"audio-button-response","7","19979","0.0-7.0","7815","approach_avoid_sv1","""event"",""trial"",""time""
""fullscreenenter"",""1"",""3228""
","
","
","""event"",""trial"",""time""
""fullscreenenter"",""1"",""3228""
","
","","","","","","1680","audio/shark.wav","2","","","","",""
"preload","8","22508","0.0-8.0","7815","approach_avoid_sv1","""event"",""trial"",""time""
""fullscreenenter"",""1"",""3228""
","
","
","""event"",""trial"",""time""
""fullscreenenter"",""1"",""3228""
","
","true","false","[]","[]","[]","","","","","","","",""
"learning-instructions","9","31483","0.0-9.0-0.0","7815","approach_avoid_sv1","""event"",""trial"",""time""
""fullscreenenter"",""1"",""3228""
","
","
","""event"",""trial"",""time""
""fullscreenenter"",""1"",""3228""
","
","","","","","","4500","<p> Welcome back! </p><p> Last week, you had to make choices about lots of different items.  </p>","","0","instructions","","",""
"learning-instructions","10","38693","0.0-9.0-0.1","7815","approach_avoid_sv1","""event"",""trial"",""time""
""fullscreenenter"",""1"",""3228""
","
","
","""event"",""trial"",""time""
""fullscreenenter"",""1"",""3228""
","
","","","","","","3089.5999999046326","<p> Today, we are going to ask you to try to remember all the items. </p>","","0","instructions","","",""
"learning-instructions","11","50862","0.0-9.0-0.2","7815","approach_avoid_sv1","""event"",""trial"",""time""
""fullscreenenter"",""1"",""3228""
","
","
","""event"",""trial"",""time""
""fullscreenenter"",""1"",""3228""
","
","","","","","","2039.4000000953674","<p> On every trial, you will see an image. </p><p> The image may be an OLD image you saw during the games last week or it may be a NEW image that was not presented. </p>","","0","instructions","","",""
"learning-instructions","12","61503","0.0-9.0-0.3","7815","approach_avoid_sv1","""event"",""trial"",""time""
""fullscreenenter"",""1"",""3228""
","
","
","""event"",""trial"",""time""
""fullscreenenter"",""1"",""3228""
","
","","","","","","2128.8999996185303","<p> You need to select whether the image is:  </p><p>  'Definitely old', 'Maybe old', 'Maybe new', or 'Definitely new.'  </p><div class=""mem-choice-instructions-grid""><div class=""choice-option"" id=""choice-option-1"" ><img src=""images/definitely_old_1.png"" id=""choice-option-img-1"" class=""choice-option-img"" stage=""1""></div><div class=""choice-option"" id=""choice-option-2"" ><img src=""images/maybe_old_1.png"" id=""choice-option-img-2"" class=""choice-option-img"" stage=""1""></div><div class=""choice-option"" id=""choice-option-3"" ><img src=""images/maybe_new_1.png"" id=""choice-option-img-3"" class=""choice-option-img"" stage=""1""></div><div class=""choice-option"" id=""choice-option-4"" > <img src=""images/definitely_new_1.png"" id=""choice-option-img-4"" class=""choice-option-img"" stage=""1""></div></div>","","0","instructions","","",""
"learning-instructions","13","72186","0.0-9.0-0.4","7815","approach_avoid_sv1","""event"",""trial"",""time""
""fullscreenenter"",""1"",""3228""
","
","
","""event"",""trial"",""time""
""fullscreenenter"",""1"",""3228""
","
","","","","","","4161.300000190735","<p> You should use the 1, 2, 3, and 4 keys to make your responses.  </p><div class=""mem-choice-instructions-grid""><div class=""choice-option"" id=""choice-option-1"" ><img src=""images/definitely_old.png"" id=""choice-option-img-1"" class=""choice-option-img"" stage=""1""></div><div class=""choice-option"" id=""choice-option-2"" ><img src=""images/maybe_old.png"" id=""choice-option-img-2"" class=""choice-option-img"" stage=""1""></div><div class=""choice-option"" id=""choice-option-3"" ><img src=""images/maybe_new.png"" id=""choice-option-img-3"" class=""choice-option-img"" stage=""1""></div><div class=""choice-option"" id=""choice-option-4"" > <img src=""images/definitely_new.png"" id=""choice-option-img-4"" class=""choice-option-img"" stage=""1""></div></div>","","0","instructions","","",""
"learning-instructions","14","84861","0.0-9.0-0.5","7815","approach_avoid_sv1","""event"",""trial"",""time""
""fullscreenenter"",""1"",""3228""
","
","
","""event"",""trial"",""time""
""fullscreenenter"",""1"",""3228""
","
","","","","","","6328","<p> You will have 10 seconds to make each response.  </p><p>  Make sure to respond before time runs out! </p>","","0","instructions","","",""
"learning-instructions","15","93653","0.0-9.0-0.6","7815","approach_avoid_sv1","""event"",""trial"",""time""
""fullscreenenter"",""1"",""3228""
","
","
","""event"",""trial"",""time""
""fullscreenenter"",""1"",""3228""
","
","","","","","","1699.7999997138977","<p> Today, you will see each image ONCE only.  </p><p>  That means none of the images will repeat. </p>","","0","instructions","","",""
"learning-instructions","16","107062","0.0-9.0-0.7","7815","approach_avoid_sv1","""event"",""trial"",""time""
""fullscreenenter"",""1"",""3228""
","
","
","""event"",""trial"",""time""
""fullscreenenter"",""1"",""3228""
","
","","","","","","729","<p> Before you play the real game, it is time to practice. </p><p>  Just like in the real game, some of the images in the practice will be ones you have seen before. </p><p>  Others will be entirely new. </p>","","0","instructions","","",""
"html-button-response","17","109977","0.0-10.0","7815","approach_avoid_sv1","""event"",""trial"",""time""
""fullscreenenter"",""1"",""3228""
","
","
","""event"",""trial"",""time""
""fullscreenenter"",""1"",""3228""
","
","","","","","","2803.7000002861023","<p> Ready to practice? </p><p> Remember, use the 1, 2, 3, and 4 keys to make your responses. </p>","0","","instructions","","",""
"html-keyboard-response","18","110611","0.0-11.0-0.0","7815","approach_avoid_sv1","""event"",""trial"",""time""
""fullscreenenter"",""1"",""3228""
","
","
","""event"",""trial"",""time""
""fullscreenenter"",""1"",""3228""
","
","","","","","","null","<div style=""font-size:60px;"">+</div>","null","","fixation","","",""
"memory-trial","19","114311","0.0-11.0-1.0","7815","approach_avoid_sv1","""event"",""trial"",""time""
""fullscreenenter"",""1"",""3228""
","
","
","""event"",""trial"",""time""
""fullscreenenter"",""1"",""3228""
","
","","","","","","2689.4000000953674","images/racket2.png","","","practice","4","definitely_new",""
"html-keyboard-response","20","114821","0.0-11.0-0.1","7815","approach_avoid_sv1","""event"",""trial"",""time""
""fullscreenenter"",""1"",""3228""
","
","
","""event"",""trial"",""time""
""fullscreenenter"",""1"",""3228""
","
","","","","","","null","<div style=""font-size:60px;"">+</div>","null","","fixation","","",""
"memory-trial","21","118271","0.0-11.0-1.1","7815","approach_avoid_sv1","""event"",""trial"",""time""
""fullscreenenter"",""1"",""3228""
","
","
","""event"",""trial"",""time""
""fullscreenenter"",""1"",""3228""
","
","","","","","","2429.300000190735","images/racket5.png","","","practice","3","maybe_new",""
"html-keyboard-response","22","118781","0.0-11.0-0.2","7815","approach_avoid_sv1","""event"",""trial"",""time""
""fullscreenenter"",""1"",""3228""
","
","
","""event"",""trial"",""time""
""fullscreenenter"",""1"",""3228""
","
","","","","","","null","<div style=""font-size:60px;"">+</div>","null","","fixation","","",""
"memory-trial","23","121490","0.0-11.0-1.2","7815","approach_avoid_sv1","""event"",""trial"",""time""
""fullscreenenter"",""1"",""3228""
","
","
","""event"",""trial"",""time""
""fullscreenenter"",""1"",""3228""
","
","","","","","","1694.5","images/racket3.png","","","practice","3","maybe_new",""
"html-keyboard-response","24","122010","0.0-11.0-0.3","7815","approach_avoid_sv1","""event"",""trial"",""time""
""fullscreenenter"",""1"",""3228""
","
","
","""event"",""trial"",""time""
""fullscreenenter"",""1"",""3228""
","
","","","","","","null","<div style=""font-size:60px;"">+</div>","null","","fixation","","",""
"memory-trial","25","125070","0.0-11.0-1.3","7815","approach_avoid_sv1","""event"",""trial"",""time""
""fullscreenenter"",""1"",""3228""
","
","
","""event"",""trial"",""time""
""fullscreenenter"",""1"",""3228""
","
","","","","","","2056.199999809265","images/ball5.png","","","practice","3","maybe_new",""
"html-keyboard-response","26","125590","0.0-11.0-0.4","7815","approach_avoid_sv1","""event"",""trial"",""time""
""fullscreenenter"",""1"",""3228""
","
","
","""event"",""trial"",""time""
""fullscreenenter"",""1"",""3228""
","
","","","","","","null","<div style=""font-size:60px;"">+</div>","null","","fixation","","",""
"memory-trial","27","128260","0.0-11.0-1.4","7815","approach_avoid_sv1","""event"",""trial"",""time""
""fullscreenenter"",""1"",""3228""
","
","
","""event"",""trial"",""time""
""fullscreenenter"",""1"",""3228""
","
","","","","","","1662.9000000953674","images/ball1.png","","","practice","2","maybe_old",""
"html-keyboard-response","28","128780","0.0-11.0-0.5","7815","approach_avoid_sv1","""event"",""trial"",""time""
""fullscreenenter"",""1"",""3228""
","
","
","""event"",""trial"",""time""
""fullscreenenter"",""1"",""3228""
","
","","","","","","null","<div style=""font-size:60px;"">+</div>","null","","fixation","","",""
"memory-trial","29","131210","0.0-11.0-1.5","7815","approach_avoid_sv1","""event"",""trial"",""time""
""fullscreenenter"",""1"",""3228""
","
","
","""event"",""trial"",""time""
""fullscreenenter"",""1"",""3228""
","
","","","","","","1420.4000000953674","images/ball2.png","","","practice","4","definitely_new",""
"html-keyboard-response","30","131730","0.0-11.0-0.6","7815","approach_avoid_sv1","""event"",""trial"",""time""
""fullscreenenter"",""1"",""3228""
","
","
","""event"",""trial"",""time""
""fullscreenenter"",""1"",""3228""
","
","","","","","","null","<div style=""font-size:60px;"">+</div>","null","","fixation","","",""
"memory-trial","31","133730","0.0-11.0-1.6","7815","approach_avoid_sv1","""event"",""trial"",""time""
""fullscreenenter"",""1"",""3228""
","
","
","""event"",""trial"",""time""
""fullscreenenter"",""1"",""3228""
","
","","","","","","981.8000001907349","images/racket1.png","","","practice","2","maybe_old",""
"html-keyboard-response","32","134250","0.0-11.0-0.7","7815","approach_avoid_sv1","""event"",""trial"",""time""
""fullscreenenter"",""1"",""3228""
","
","
","""event"",""trial"",""time""
""fullscreenenter"",""1"",""3228""
","
","","","","","","null","<div style=""font-size:60px;"">+</div>","null","","fixation","","",""
"memory-trial","33","137301","0.0-11.0-1.7","7815","approach_avoid_sv1","""event"",""trial"",""time""
""fullscreenenter"",""1"",""3228""
","
","
","""event"",""trial"",""time""
""fullscreenenter"",""1"",""3228""
","
","","","","","","2036.6999998092651","images/ball3.png","","","practice","2","maybe_old",""
"learning-instructions","34","147778","0.0-12.0-0.0","7815","approach_avoid_sv1","""event"",""trial"",""time""
""fullscreenenter"",""1"",""3228""
","
","
","""event"",""trial"",""time""
""fullscreenenter"",""1"",""3228""
","
","","","","","","3174.5","<p> Great! You have completed the practice. </p><p> Before you start, we're going to ask you a few questions about how the game works.  </p>","","0","instructions","","",""
"preload","35","149059","0.0-13.0","7815","approach_avoid_sv1","""event"",""trial"",""time""
""fullscreenenter"",""1"",""3228""
","
","
","""event"",""trial"",""time""
""fullscreenenter"",""1"",""3228""
","
","true","false","[]","[]","[]","","","","","","","",""
"comp-q","36","156994","0.0-14.0-0.0","7815","approach_avoid_sv1","""event"",""trial"",""time""
""fullscreenenter"",""1"",""3228""
","
","
","""event"",""trial"",""time""
""fullscreenenter"",""1"",""3228""
","
","","","","","","2110.5999999046326","<p> <b> True or False? </b> </p><p> In this game, you will only see each image once. </p>","","0","comp_question","","","true"
"comp-q","37","168666","0.0-14.0-1.0","7815","approach_avoid_sv1","""event"",""trial"",""time""
""fullscreenenter"",""1"",""3228""
","
","
","""event"",""trial"",""time""
""fullscreenenter"",""1"",""3228""
","
","","","","","","5331.300000190735","<p> <b> That's right! </b> You will see many different images <i> one time each </i> in this game. </p>","","0","comp_answer","","",""
"comp-q","38","174239","0.0-15.0-0.0","7815","approach_avoid_sv1","""event"",""trial"",""time""
""fullscreenenter"",""1"",""3228""
","
","
","""event"",""trial"",""time""
""fullscreenenter"",""1"",""3228""
","
","","","","","","555.2999997138977","<p> <b> True or False? </b> </p><p> You should use the mouse and click to make your response. </p>","","1","comp_question","","","true"
"comp-q","39","182612","0.0-15.0-1.0","7815","approach_avoid_sv1","""event"",""trial"",""time""
""fullscreenenter"",""1"",""3228""
","
","
","""event"",""trial"",""time""
""fullscreenenter"",""1"",""3228""
","
","","","","","","1868.3000001907349","<p><b> That's right! </b> You should use the '1', '2', '3', and '4' keys to make your response. </p>","","0","comp_answer","","",""
"comp-q","40","191489","0.0-16.0-0.0","7815","approach_avoid_sv1","""event"",""trial"",""time""
""fullscreenenter"",""1"",""3228""
","
","
","""event"",""trial"",""time""
""fullscreenenter"",""1"",""3228""
","
","","","","","","3195.7000002861023","<p> <b> True or False? </b> </p><p> You will have as much time as you want to make each choice. </p>","","1","comp_question","","","true"
"comp-q","41","197722","0.0-16.0-1.0","7815","approach_avoid_sv1","""event"",""trial"",""time""
""fullscreenenter"",""1"",""3228""
","
","
","""event"",""trial"",""time""
""fullscreenenter"",""1"",""3228""
","
","","","","","","1528","<p> <b> That's right! </b> You will only have 10 seconds to make each choice. </p>","","0","comp_answer","","",""
"learning-instructions","42","230844","0.0-17.0","7815","approach_avoid_sv1","""event"",""trial"",""time""
""fullscreenenter"",""1"",""3228""
","
","
","""event"",""trial"",""time""
""fullscreenenter"",""1"",""3228""
","
","","","","","","24440.199999809265","<p> Great! You are now ready to begin the game. </p><p> Remember, use the 1, 2, 3, and 4 keys to make your responses. </p>","","0","instructions","","",""
"html-keyboard-response","43","231471","0.0-18.0-0.0","7815","approach_avoid_sv1","""event"",""trial"",""time""
""fullscreenenter"",""1"",""3228""
","
","
","""event"",""trial"",""time""
""fullscreenenter"",""1"",""3228""
","
","","","","","","null","<div style=""font-size:60px;"">+</div>","null","","fixation","","",""
"memory-trial","44","234542","0.0-18.0-1.0","7815","approach_avoid_sv1","""event"",""trial"",""time""
""fullscreenenter"",""1"",""3228""
","
","
","""event"",""trial"",""time""
""fullscreenenter"",""1"",""3228""
","
","","","","","","2045.0999999046326","images/chair1.png","","","memory_trial","1","definitely_old",""
"html-keyboard-response","45","235061","0.0-18.0-0.1","7815","approach_avoid_sv1","""event"",""trial"",""time""
""fullscreenenter"",""1"",""3228""
","
","
","""event"",""trial"",""time""
""fullscreenenter"",""1"",""3228""
","
","","","","","","null","<div style=""font-size:60px;"">+</div>","null","","fixation","","",""
"memory-trial","46","237444","0.0-18.0-1.1","7815","approach_avoid_sv1","""event"",""trial"",""time""
""fullscreenenter"",""1"",""3228""
","
","
","""event"",""trial"",""time""
""fullscreenenter"",""1"",""3228""
","
","","","","","","1368.1999998092651","images/sheep2.png","","","memory_trial","3","maybe_new",""
"html-keyboard-response","47","237947","0.0-18.0-0.2","7815","approach_avoid_sv1","""event"",""trial"",""time""
""fullscreenenter"",""1"",""3228""
","
","
","""event"",""trial"",""time""
""fullscreenenter"",""1"",""3228""
","
","","","","","","null","<div style=""font-size:60px;"">+</div>","null","","fixation","","",""
"memory-trial","48","240629","0.0-18.0-1.2","7815","approach_avoid_sv1","""event"",""trial"",""time""
""fullscreenenter"",""1"",""3228""
","
","
","""event"",""trial"",""time""
""fullscreenenter"",""1"",""3228""
","
","","","","","","1663.5","images/sheep1.png","","","memory_trial","3","maybe_new",""
"html-keyboard-response","49","241131","0.0-18.0-0.3","7815","approach_avoid_sv1","""event"",""trial"",""time""
""fullscreenenter"",""1"",""3228""
","
","
","""event"",""trial"",""time""
""fullscreenenter"",""1"",""3228""
","
","","","","","","null","<div style=""font-size:60px;"">+</div>","null","","fixation","","",""
"memory-trial","50","243333","0.0-18.0-1.3","7815","approach_avoid_sv1","""event"",""trial"",""time""
""fullscreenenter"",""1"",""3228""
","
","
","""event"",""trial"",""time""
""fullscreenenter"",""1"",""3228""
","
","","","","","","1191.7000002861023","images/tree7.png","","","memory_trial","3","maybe_new",""
"html-keyboard-response","51","243843","0.0-18.0-0.4","7815","approach_avoid_sv1","""event"",""trial"",""time""
""fullscreenenter"",""1"",""3228""
","
","
","""event"",""trial"",""time""
""fullscreenenter"",""1"",""3228""
","
","","","","","","null","<div style=""font-size:60px;"">+</div>","null","","fixation","","",""
"memory-trial","52","246176","0.0-18.0-1.4","7815","approach_avoid_sv1","""event"",""trial"",""time""
""fullscreenenter"",""1"",""3228""
","
","
","""event"",""trial"",""time""
""fullscreenenter"",""1"",""3228""
","
","","","","","","1320.5","images/boat2.png","","","memory_trial","4","definitely_new",""
"html-keyboard-response","53","246683","0.0-18.0-0.5","7815","approach_avoid_sv1","""event"",""trial"",""time""
""fullscreenenter"",""1"",""3228""
","
","
","""event"",""trial"",""time""
""fullscreenenter"",""1"",""3228""
","
","","","","","","null","<div style=""font-size:60px;"">+</div>","null","","fixation","","",""
"memory-trial","54","249100","0.0-18.0-1.5","7815","approach_avoid_sv1","""event"",""trial"",""time""
""fullscreenenter"",""1"",""3228""
","
","
","""event"",""trial"",""time""
""fullscreenenter"",""1"",""3228""
","
","","","","","","1404.4000000953674","images/bush3.png","","","memory_trial","1","definitely_old",""
"html-keyboard-response","55","249602","0.0-18.0-0.6","7815","approach_avoid_sv1","""event"",""trial"",""time""
""fullscreenenter"",""1"",""3228""
","
","
","""event"",""trial"",""time""
""fullscreenenter"",""1"",""3228""
","
","","","","","","null","<div style=""font-size:60px;"">+</div>","null","","fixation","","",""
"memory-trial","56","252029","0.0-18.0-1.6","7815","approach_avoid_sv1","""event"",""trial"",""time""
""fullscreenenter"",""1"",""3228""
","
","
","""event"",""trial"",""time""
""fullscreenenter"",""1"",""3228""
","
","","","","","","1415.0999999046326","images/dog8.png","","","memory_trial","3","maybe_new",""
"html-keyboard-response","57","252540","0.0-18.0-0.7","7815","approach_avoid_sv1","""event"",""trial"",""time""
""fullscreenenter"",""1"",""3228""
","
","
","""event"",""trial"",""time""
""fullscreenenter"",""1"",""3228""
","
","","","","","","null","<div style=""font-size:60px;"">+</div>","null","","fixation","","",""
"memory-trial","58","254925","0.0-18.0-1.7","7815","approach_avoid_sv1","""event"",""trial"",""time""
""fullscreenenter"",""1"",""3228""
","
","
","""event"",""trial"",""time""
""fullscreenenter"",""1"",""3228""
","
","","","","","","1373.1999998092651","images/flower1.png","","","memory_trial","2","maybe_old",""
"html-keyboard-response","59","255431","0.0-18.0-0.8","7815","approach_avoid_sv1","""event"",""trial"",""time""
""fullscreenenter"",""1"",""3228""
","
","
","""event"",""trial"",""time""
""fullscreenenter"",""1"",""3228""
","
","","","","","","null","<div style=""font-size:60px;"">+</div>","null","","fixation","","",""
"memory-trial","60","257923","0.0-18.0-1.8","7815","approach_avoid_sv1","""event"",""trial"",""time""
""fullscreenenter"",""1"",""3228""
","
","
","""event"",""trial"",""time""
""fullscreenenter"",""1"",""3228""
","
","","","","","","1478.3000001907349","images/chair5.png","","","memory_trial","4","definitely_new",""
"html-keyboard-response","61","258436","0.0-18.0-0.9","7815","approach_avoid_sv1","""event"",""trial"",""time""
""fullscreenenter"",""1"",""3228""
","
","
","""event"",""trial"",""time""
""fullscreenenter"",""1"",""3228""
","
","","","","","","null","<div style=""font-size:60px;"">+</div>","null","","fixation","","",""
"memory-trial","62","261123","0.0-18.0-1.9","7815","approach_avoid_sv1","""event"",""trial"",""time""
""fullscreenenter"",""1"",""3228""
","
","
","""event"",""trial"",""time""
""fullscreenenter"",""1"",""3228""
","
","","","","","","1676.4000000953674","images/bush5.png","","","memory_trial","4","definitely_new",""
"html-keyboard-response","63","261642","0.0-18.0-0.10","7815","approach_avoid_sv1","""event"",""trial"",""time""
""fullscreenenter"",""1"",""3228""
","
","
","""event"",""trial"",""time""
""fullscreenenter"",""1"",""3228""
","
","","","","","","null","<div style=""font-size:60px;"">+</div>","null","","fixation","","",""
"memory-trial","64","263662","0.0-18.0-1.10","7815","approach_avoid_sv1","""event"",""trial"",""time""
""fullscreenenter"",""1"",""3228""
","
","
","""event"",""trial"",""time""
""fullscreenenter"",""1"",""3228""
","
","","","","","","1012.9000000953674","images/train4.png","","","memory_trial","4","definitely_new",""
"html-keyboard-response","65","264164","0.0-18.0-0.11","7815","approach_avoid_sv1","""event"",""trial"",""time""
""fullscreenenter"",""1"",""3228""
","
","
","""event"",""trial"",""time""
""fullscreenenter"",""1"",""3228""
","
","","","","","","null","<div style=""font-size:60px;"">+</div>","null","","fixation","","",""
"memory-trial","66","265943","0.0-18.0-1.11","7815","approach_avoid_sv1","""event"",""trial"",""time""
""fullscreenenter"",""1"",""3228""
","
","
","""event"",""trial"",""time""
""fullscreenenter"",""1"",""3228""
","
","","","","","","769.3999996185303","images/cow2.png","","","memory_trial","2","maybe_old",""
"html-keyboard-response","67","266446","0.0-18.0-0.12","7815","approach_avoid_sv1","""event"",""trial"",""time""
""fullscreenenter"",""1"",""3228""
","
","
","""event"",""trial"",""time""
""fullscreenenter"",""1"",""3228""
","
","","","","","","null","<div style=""font-size:60px;"">+</div>","null","","fixation","","",""
"memory-trial","68","268696","0.0-18.0-1.12","7815","approach_avoid_sv1","""event"",""trial"",""time""
""fullscreenenter"",""1"",""3228""
","
","
","""event"",""trial"",""time""
""fullscreenenter"",""1"",""3228""
","
","","","","","","1242.6999998092651","images/table7.png","","","memory_trial","2","maybe_old",""
"html-keyboard-response","69","269197","0.0-18.0-0.13","7815","approach_avoid_sv1","""event"",""trial"",""time""
""fullscreenenter"",""1"",""3228""
","
","
","""event"",""trial"",""time""
""fullscreenenter"",""1"",""3228""
","
","","","","","","null","<div style=""font-size:60px;"">+</div>","null","","fixation","","",""
"memory-trial","70","271341","0.0-18.0-1.13","7815","approach_avoid_sv1","""event"",""trial"",""time""
""fullscreenenter"",""1"",""3228""
","
","
","""event"",""trial"",""time""
""fullscreenenter"",""1"",""3228""
","
","","","","","","1133.5","images/bush4.png","","","memory_trial","1","definitely_old",""
"html-keyboard-response","71","271850","0.0-18.0-0.14","7815","approach_avoid_sv1","""event"",""trial"",""time""
""fullscreenenter"",""1"",""3228""
","
","
","""event"",""trial"",""time""
""fullscreenenter"",""1"",""3228""
","
","","","","","","null","<div style=""font-size:60px;"">+</div>","null","","fixation","","",""
"memory-trial","72","274092","0.0-18.0-1.14","7815","approach_avoid_sv1","""event"",""trial"",""time""
""fullscreenenter"",""1"",""3228""
","
","
","""event"",""trial"",""time""
""fullscreenenter"",""1"",""3228""
","
","","","","","","1231.3000001907349","images/apple2.png","","","memory_trial","1","definitely_old",""
"html-keyboard-response","73","274595","0.0-18.0-0.15","7815","approach_avoid_sv1","""event"",""trial"",""time""
""fullscreenenter"",""1"",""3228""
","
","
","""event"",""trial"",""time""
""fullscreenenter"",""1"",""3228""
","
","","","","","","null","<div style=""font-size:60px;"">+</div>","null","","fixation","","",""
"memory-trial","74","277021","0.0-18.0-1.15","7815","approach_avoid_sv1","""event"",""trial"",""time""
""fullscreenenter"",""1"",""3228""
","
","
","""event"",""trial"",""time""
""fullscreenenter"",""1"",""3228""
","
","","","","","","1407.2000002861023","images/sofa8.png","","","memory_trial","2","maybe_old",""
"html-keyboard-response","75","277527","0.0-18.0-0.16","7815","approach_avoid_sv1","""event"",""trial"",""time""
""fullscreenenter"",""1"",""3228""
","
","
","""event"",""trial"",""time""
""fullscreenenter"",""1"",""3228""
","
","","","","","","null","<div style=""font-size:60px;"">+</div>","null","","fixation","","",""
"memory-trial","76","279782","0.0-18.0-1.16","7815","approach_avoid_sv1","""event"",""trial"",""time""
""fullscreenenter"",""1"",""3228""
","
","
","""event"",""trial"",""time""
""fullscreenenter"",""1"",""3228""
","
","","","","","","1238.2999997138977","images/apple8.png","","","memory_trial","4","definitely_new",""
"html-keyboard-response","77","280290","0.0-18.0-0.17","7815","approach_avoid_sv1","""event"",""trial"",""time""
""fullscreenenter"",""1"",""3228""
","
","
","""event"",""trial"",""time""
""fullscreenenter"",""1"",""3228""
","
","","","","","","null","<div style=""font-size:60px;"">+</div>","null","","fixation","","",""
"memory-trial","78","282787","0.0-18.0-1.17","7815","approach_avoid_sv1","""event"",""trial"",""time""
""fullscreenenter"",""1"",""3228""
","
","
","""event"",""trial"",""time""
""fullscreenenter"",""1"",""3228""
","
","","","","","","1480.6999998092651","images/train7.png","","","memory_trial","4","definitely_new",""
"html-keyboard-response","79","283297","0.0-18.0-0.18","7815","approach_avoid_sv1","""event"",""trial"",""time""
""fullscreenenter"",""1"",""3228""
","
","
","""event"",""trial"",""time""
""fullscreenenter"",""1"",""3228""
","
","","","","","","null","<div style=""font-size:60px;"">+</div>","null","","fixation","","",""
"memory-trial","80","285421","0.0-18.0-1.18","7815","approach_avoid_sv1","""event"",""trial"",""time""
""fullscreenenter"",""1"",""3228""
","
","
","""event"",""trial"",""time""
""fullscreenenter"",""1"",""3228""
","
","","","","","","1120","images/cat8.png","","","memory_trial","4","definitely_new",""
"html-keyboard-response","81","285933","0.0-18.0-0.19","7815","approach_avoid_sv1","""event"",""trial"",""time""
""fullscreenenter"",""1"",""3228""
","
","
","""event"",""trial"",""time""
""fullscreenenter"",""1"",""3228""
","
","","","","","","null","<div style=""font-size:60px;"">+</div>","null","","fixation","","",""
"memory-trial","82","288021","0.0-18.0-1.19","7815","approach_avoid_sv1","""event"",""trial"",""time""
""fullscreenenter"",""1"",""3228""
","
","
","""event"",""trial"",""time""
""fullscreenenter"",""1"",""3228""
","
","","","","","","1080.5999999046326","images/boat7.png","","","memory_trial","4","definitely_new",""
"html-keyboard-response","83","288537","0.0-18.0-0.20","7815","approach_avoid_sv1","""event"",""trial"",""time""
""fullscreenenter"",""1"",""3228""
","
","
","""event"",""trial"",""time""
""fullscreenenter"",""1"",""3228""
","
","","","","","","null","<div style=""font-size:60px;"">+</div>","null","","fixation","","",""
"memory-trial","84","291210","0.0-18.0-1.20","7815","approach_avoid_sv1","""event"",""trial"",""time""
""fullscreenenter"",""1"",""3228""
","
","
","""event"",""trial"",""time""
""fullscreenenter"",""1"",""3228""
","
","","","","","","1670.5999999046326","images/rabbit4.png","","","memory_trial","3","maybe_new",""
"html-keyboard-response","85","291720","0.0-18.0-0.21","7815","approach_avoid_sv1","""event"",""trial"",""time""
""fullscreenenter"",""1"",""3228""
","
","
","""event"",""trial"",""time""
""fullscreenenter"",""1"",""3228""
","
","","","","","","null","<div style=""font-size:60px;"">+</div>","null","","fixation","","",""
"memory-trial","86","293896","0.0-18.0-1.21","7815","approach_avoid_sv1","""event"",""trial"",""time""
""fullscreenenter"",""1"",""3228""
","
","
","""event"",""trial"",""time""
""fullscreenenter"",""1"",""3228""
","
","","","","","","1162.0999999046326","images/bed6.png","","","memory_trial","4","definitely_new",""
"html-keyboard-response","87","294414","0.0-18.0-0.22","7815","approach_avoid_sv1","""event"",""trial"",""time""
""fullscreenenter"",""1"",""3228""
","
","
","""event"",""trial"",""time""
""fullscreenenter"",""1"",""3228""
","
","","","","","","null","<div style=""font-size:60px;"">+</div>","null","","fixation","","",""
"memory-trial","88","296494","0.0-18.0-1.22","7815","approach_avoid_sv1","""event"",""trial"",""time""
""fullscreenenter"",""1"",""3228""
","
","
","""event"",""trial"",""time""
""fullscreenenter"",""1"",""3228""
","
","","","","","","1063.8000001907349","images/cow8.png","","","memory_trial","4","definitely_new",""
"html-keyboard-response","89","296996","0.0-18.0-0.23","7815","approach_avoid_sv1","""event"",""trial"",""time""
""fullscreenenter"",""1"",""3228""
","
","
","""event"",""trial"",""time""
""fullscreenenter"",""1"",""3228""
","
","","","","","","null","<div style=""font-size:60px;"">+</div>","null","","fixation","","",""
"memory-trial","90","299142","0.0-18.0-1.23","7815","approach_avoid_sv1","""event"",""trial"",""time""
""fullscreenenter"",""1"",""3228""
","
","
","""event"",""trial"",""time""
""fullscreenenter"",""1"",""3228""
","
","","","","","","1135.6999998092651","images/straw1.png","","","memory_trial","3","maybe_new",""
"html-keyboard-response","91","299644","0.0-18.0-0.24","7815","approach_avoid_sv1","""event"",""trial"",""time""
""fullscreenenter"",""1"",""3228""
","
","
","""event"",""trial"",""time""
""fullscreenenter"",""1"",""3228""
","
","","","","","","null","<div style=""font-size:60px;"">+</div>","null","","fixation","","",""
"memory-trial","92","301557","0.0-18.0-1.24","7815","approach_avoid_sv1","""event"",""trial"",""time""
""fullscreenenter"",""1"",""3228""
","
","
","""event"",""trial"",""time""
""fullscreenenter"",""1"",""3228""
","
","","","","","","907.9000000953674","images/rabbit2.png","","","memory_trial","2","maybe_old",""
"html-keyboard-response","93","302066","0.0-18.0-0.25","7815","approach_avoid_sv1","""event"",""trial"",""time""
""fullscreenenter"",""1"",""3228""
","
","
","""event"",""trial"",""time""
""fullscreenenter"",""1"",""3228""
","
","","","","","","null","<div style=""font-size:60px;"">+</div>","null","","fixation","","",""
"memory-trial","94","304473","0.0-18.0-1.25","7815","approach_avoid_sv1","""event"",""trial"",""time""
""fullscreenenter"",""1"",""3228""
","
","
","""event"",""trial"",""time""
""fullscreenenter"",""1"",""3228""
","
","","","","","","1393.7999997138977","images/orange8.png","","","memory_trial","4","definitely_new",""
"html-keyboard-response","95","304980","0.0-18.0-0.26","7815","approach_avoid_sv1","""event"",""trial"",""time""
""fullscreenenter"",""1"",""3228""
","
","
","""event"",""trial"",""time""
""fullscreenenter"",""1"",""3228""
","
","","","","","","null","<div style=""font-size:60px;"">+</div>","null","","fixation","","",""
"memory-trial","96","307133","0.0-18.0-1.26","7815","approach_avoid_sv1","""event"",""trial"",""time""
""fullscreenenter"",""1"",""3228""
","
","
","""event"",""trial"",""time""
""fullscreenenter"",""1"",""3228""
","
","","","","","","1149.4000000953674","images/goat8.png","","","memory_trial","4","definitely_new",""
"html-keyboard-response","97","307636","0.0-18.0-0.27","7815","approach_avoid_sv1","""event"",""trial"",""time""
""fullscreenenter"",""1"",""3228""
","
","
","""event"",""trial"",""time""
""fullscreenenter"",""1"",""3228""
","
","","","","","","null","<div style=""font-size:60px;"">+</div>","null","","fixation","","",""
"memory-trial","98","309671","0.0-18.0-1.27","7815","approach_avoid_sv1","""event"",""trial"",""time""
""fullscreenenter"",""1"",""3228""
","
","
","""event"",""trial"",""time""
""fullscreenenter"",""1"",""3228""
","
","","","","","","1016.8000001907349","images/banana6.png","","","memory_trial","4","definitely_new",""
"html-keyboard-response","99","310179","0.0-18.0-0.28","7815","approach_avoid_sv1","""event"",""trial"",""time""
""fullscreenenter"",""1"",""3228""
","
","
","""event"",""trial"",""time""
""fullscreenenter"",""1"",""3228""
","
","","","","","","null","<div style=""font-size:60px;"">+</div>","null","","fixation","","",""
"memory-trial","100","312212","0.0-18.0-1.28","7815","approach_avoid_sv1","""event"",""trial"",""time""
""fullscreenenter"",""1"",""3228""
","
","
","""event"",""trial"",""time""
""fullscreenenter"",""1"",""3228""
","
","","","","","","1020.9000000953674","images/straw7.png","","","memory_trial","2","maybe_old",""
"html-keyboard-response","101","312715","0.0-18.0-0.29","7815","approach_avoid_sv1","""event"",""trial"",""time""
""fullscreenenter"",""1"",""3228""
","
","
","""event"",""trial"",""time""
""fullscreenenter"",""1"",""3228""
","
","","","","","","null","<div style=""font-size:60px;"">+</div>","null","","fixation","","",""
"memory-trial","102","315139","0.0-18.0-1.29","7815","approach_avoid_sv1","""event"",""trial"",""time""
""fullscreenenter"",""1"",""3228""
","
","
","""event"",""trial"",""time""
""fullscreenenter"",""1"",""3228""
","
","","","","","","1414.5","images/rodent6.png","","","memory_trial","4","definitely_new",""
"html-keyboard-response","103","315647","0.0-18.0-0.30","7815","approach_avoid_sv1","""event"",""trial"",""time""
""fullscreenenter"",""1"",""3228""
","
","
","""event"",""trial"",""time""
""fullscreenenter"",""1"",""3228""
","
","","","","","","null","<div style=""font-size:60px;"">+</div>","null","","fixation","","",""
"memory-trial","104","318146","0.0-18.0-1.30","7815","approach_avoid_sv1","""event"",""trial"",""time""
""fullscreenenter"",""1"",""3228""
","
","
","""event"",""trial"",""time""
""fullscreenenter"",""1"",""3228""
","
","","","","","","1488.0999999046326","images/chair2.png","","","memory_trial","4","definitely_new",""
"html-keyboard-response","105","318651","0.0-18.0-0.31","7815","approach_avoid_sv1","""event"",""trial"",""time""
""fullscreenenter"",""1"",""3228""
","
","
","""event"",""trial"",""time""
""fullscreenenter"",""1"",""3228""
","
","","","","","","null","<div style=""font-size:60px;"">+</div>","null","","fixation","","",""
"memory-trial","106","321227","0.0-18.0-1.31","7815","approach_avoid_sv1","""event"",""trial"",""time""
""fullscreenenter"",""1"",""3228""
","
","
","""event"",""trial"",""time""
""fullscreenenter"",""1"",""3228""
","
","","","","","","1568.5","images/tree6.png","","","memory_trial","1","definitely_old",""
"html-keyboard-response","107","321729","0.0-18.0-0.32","7815","approach_avoid_sv1","""event"",""trial"",""time""
""fullscreenenter"",""1"",""3228""
","
","
","""event"",""trial"",""time""
""fullscreenenter"",""1"",""3228""
","
","","","","","","null","<div style=""font-size:60px;"">+</div>","null","","fixation","","",""
"memory-trial","108","323853","0.0-18.0-1.32","7815","approach_avoid_sv1","""event"",""trial"",""time""
""fullscreenenter"",""1"",""3228""
","
","
","""event"",""trial"",""time""
""fullscreenenter"",""1"",""3228""
","
","","","","","","1106","images/boat4.png","","","memory_trial","4","definitely_new",""
"html-keyboard-response","109","324361","0.0-18.0-0.33","7815","approach_avoid_sv1","""event"",""trial"",""time""
""fullscreenenter"",""1"",""3228""
","
","
","""event"",""trial"",""time""
""fullscreenenter"",""1"",""3228""
","
","","","","","","null","<div style=""font-size:60px;"">+</div>","null","","fixation","","",""
"memory-trial","110","326093","0.0-18.0-1.33","7815","approach_avoid_sv1","""event"",""trial"",""time""
""fullscreenenter"",""1"",""3228""
","
","
","""event"",""trial"",""time""
""fullscreenenter"",""1"",""3228""
","
","","","","","","717.8000001907349","images/apple4.png","","","memory_trial","1","definitely_old",""
"html-keyboard-response","111","326596","0.0-18.0-0.34","7815","approach_avoid_sv1","""event"",""trial"",""time""
""fullscreenenter"",""1"",""3228""
","
","
","""event"",""trial"",""time""
""fullscreenenter"",""1"",""3228""
","
","","","","","","null","<div style=""font-size:60px;"">+</div>","null","","fixation","","",""
"memory-trial","112","328190","0.0-18.0-1.34","7815","approach_avoid_sv1","""event"",""trial"",""time""
""fullscreenenter"",""1"",""3228""
","
","
","""event"",""trial"",""time""
""fullscreenenter"",""1"",""3228""
","
","","","","","","584","images/horse4.png","","","memory_trial","4","definitely_new",""
"html-keyboard-response","113","328692","0.0-18.0-0.35","7815","approach_avoid_sv1","""event"",""trial"",""time""
""fullscreenenter"",""1"",""3228""
","
","
","""event"",""trial"",""time""
""fullscreenenter"",""1"",""3228""
","
","","","","","","null","<div style=""font-size:60px;"">+</div>","null","","fixation","","",""
"memory-trial","114","330672","0.0-18.0-1.35","7815","approach_avoid_sv1","""event"",""trial"",""time""
""fullscreenenter"",""1"",""3228""
","
","
","""event"",""trial"",""time""
""fullscreenenter"",""1"",""3228""
","
","","","","","","969.5","images/cow3.png","","","memory_trial","4","definitely_new",""
"html-keyboard-response","115","331179","0.0-18.0-0.36","7815","approach_avoid_sv1","""event"",""trial"",""time""
""fullscreenenter"",""1"",""3228""
","
","
","""event"",""trial"",""time""
""fullscreenenter"",""1"",""3228""
","
","","","","","","null","<div style=""font-size:60px;"">+</div>","null","","fixation","","",""
"memory-trial","116","333657","0.0-18.0-1.36","7815","approach_avoid_sv1","""event"",""trial"",""time""
""fullscreenenter"",""1"",""3228""
","
","
","""event"",""trial"",""time""
""fullscreenenter"",""1"",""3228""
","
","","","","","","1466.9000000953674","images/boat6.png","","","memory_trial","1","definitely_old",""
"html-keyboard-response","117","334166","0.0-18.0-0.37","7815","approach_avoid_sv1","""event"",""trial"",""time""
""fullscreenenter"",""1"",""3228""
","
","
","""event"",""trial"",""time""
""fullscreenenter"",""1"",""3228""
","
","","","","","","null","<div style=""font-size:60px;"">+</div>","null","","fixation","","",""
"memory-trial","118","336498","0.0-18.0-1.37","7815","approach_avoid_sv1","""event"",""trial"",""time""
""fullscreenenter"",""1"",""3228""
","
","
","""event"",""trial"",""time""
""fullscreenenter"",""1"",""3228""
","
","","","","","","1322","images/apple1.png","","","memory_trial","1","definitely_old",""
"html-keyboard-response","119","337006","0.0-18.0-0.38","7815","approach_avoid_sv1","""event"",""trial"",""time""
""fullscreenenter"",""1"",""3228""
","
","
","""event"",""trial"",""time""
""fullscreenenter"",""1"",""3228""
","
","","","","","","null","<div style=""font-size:60px;"">+</div>","null","","fixation","","",""
"memory-trial","120","338922","0.0-18.0-1.38","7815","approach_avoid_sv1","""event"",""trial"",""time""
""fullscreenenter"",""1"",""3228""
","
","
","""event"",""trial"",""time""
""fullscreenenter"",""1"",""3228""
","
","","","","","","912.2000002861023","images/train6.png","","","memory_trial","4","definitely_new",""
"html-keyboard-response","121","339432","0.0-18.0-0.39","7815","approach_avoid_sv1","""event"",""trial"",""time""
""fullscreenenter"",""1"",""3228""
","
","
","""event"",""trial"",""time""
""fullscreenenter"",""1"",""3228""
","
","","","","","","null","<div style=""font-size:60px;"">+</div>","null","","fixation","","",""
"memory-trial","122","341488","0.0-18.0-1.39","7815","approach_avoid_sv1","""event"",""trial"",""time""
""fullscreenenter"",""1"",""3228""
","
","
","""event"",""trial"",""time""
""fullscreenenter"",""1"",""3228""
","
","","","","","","1041.5999999046326","images/cow5.png","","","memory_trial","4","definitely_new",""
"html-keyboard-response","123","341991","0.0-18.0-0.40","7815","approach_avoid_sv1","""event"",""trial"",""time""
""fullscreenenter"",""1"",""3228""
","
","
","""event"",""trial"",""time""
""fullscreenenter"",""1"",""3228""
","
","","","","","","null","<div style=""font-size:60px;"">+</div>","null","","fixation","","",""
"memory-trial","124","344212","0.0-18.0-1.40","7815","approach_avoid_sv1","""event"",""trial"",""time""
""fullscreenenter"",""1"",""3228""
","
","
","""event"",""trial"",""time""
""fullscreenenter"",""1"",""3228""
","
","","","","","","1208.8000001907349","images/chair6.png","","","memory_trial","4","definitely_new",""
"html-keyboard-response","125","344721","0.0-18.0-0.41","7815","approach_avoid_sv1","""event"",""trial"",""time""
""fullscreenenter"",""1"",""3228""
","
","
","""event"",""trial"",""time""
""fullscreenenter"",""1"",""3228""
","
","","","","","","null","<div style=""font-size:60px;"">+</div>","null","","fixation","","",""
"memory-trial","126","346990","0.0-18.0-1.41","7815","approach_avoid_sv1","""event"",""trial"",""time""
""fullscreenenter"",""1"",""3228""
""fullscreenexit"",""127"",""394996""
""blur"",""127"",""402967""
""focus"",""127"",""404919""
""blur"",""127"",""413361""
""focus"",""127"",""418475""
","""event"",""trial"",""time""
""blur"",""127"",""402967""
""blur"",""127"",""413361""
","""event"",""trial"",""time""
""focus"",""127"",""404919""
""focus"",""127"",""418475""
","""event"",""trial"",""time""
""fullscreenenter"",""1"",""3228""
","""event"",""trial"",""time""
""fullscreenexit"",""127"",""394996""
","","","","","","1262.7000002861023","images/train1.png","","","memory_trial","4","definitely_new",""
"html-button-response","127","418610","0.0-18.0-2.41-0.41","7815","approach_avoid_sv1","""event"",""trial"",""time""
""fullscreenenter"",""1"",""3228""
""fullscreenexit"",""127"",""394996""
""blur"",""127"",""402967""
""focus"",""127"",""404919""
""blur"",""127"",""413361""
""focus"",""127"",""418475""
","""event"",""trial"",""time""
""blur"",""127"",""402967""
""blur"",""127"",""413361""
","""event"",""trial"",""time""
""focus"",""127"",""404919""
""focus"",""127"",""418475""
","""event"",""trial"",""time""
""fullscreenenter"",""1"",""3228""
","""event"",""trial"",""time""
""fullscreenexit"",""127"",""394996""
","","","","","","71617.80000019073","<p> Take a break! </p><p> Click the button to continue. </p>","0","","break","","",""
"html-keyboard-response","128","419112","0.0-18.0-0.42","7815","approach_avoid_sv1","""event"",""trial"",""time""
""fullscreenenter"",""1"",""3228""
""fullscreenexit"",""127"",""394996""
""blur"",""127"",""402967""
""focus"",""127"",""404919""
""blur"",""127"",""413361""
""focus"",""127"",""418475""
","""event"",""trial"",""time""
""blur"",""127"",""402967""
""blur"",""127"",""413361""
","""event"",""trial"",""time""
""focus"",""127"",""404919""
""focus"",""127"",""418475""
","""event"",""trial"",""time""
""fullscreenenter"",""1"",""3228""
","""event"",""trial"",""time""
""fullscreenexit"",""127"",""394996""
","","","","","","null","<div style=""font-size:60px;"">+</div>","null","","fixation","","",""
"memory-trial","129","421615","0.0-18.0-1.42","7815","approach_avoid_sv1","""event"",""trial"",""time""
""fullscreenenter"",""1"",""3228""
""fullscreenexit"",""127"",""394996""
""blur"",""127"",""402967""
""focus"",""127"",""404919""
""blur"",""127"",""413361""
""focus"",""127"",""418475""
","""event"",""trial"",""time""
""blur"",""127"",""402967""
""blur"",""127"",""413361""
","""event"",""trial"",""time""
""focus"",""127"",""404919""
""focus"",""127"",""418475""
","""event"",""trial"",""time""
""fullscreenenter"",""1"",""3228""
","""event"",""trial"",""time""
""fullscreenexit"",""127"",""394996""
","","","","","","1496.7999997138977","images/cactus2.png","","","memory_trial","1","definitely_old",""
"html-keyboard-response","130","422123","0.0-18.0-0.43","7815","approach_avoid_sv1","""event"",""trial"",""time""
""fullscreenenter"",""1"",""3228""
""fullscreenexit"",""127"",""394996""
""blur"",""127"",""402967""
""focus"",""127"",""404919""
""blur"",""127"",""413361""
""focus"",""127"",""418475""
","""event"",""trial"",""time""
""blur"",""127"",""402967""
""blur"",""127"",""413361""
","""event"",""trial"",""time""
""focus"",""127"",""404919""
""focus"",""127"",""418475""
","""event"",""trial"",""time""
""fullscreenenter"",""1"",""3228""
","""event"",""trial"",""time""
""fullscreenexit"",""127"",""394996""
","","","","","","null","<div style=""font-size:60px;"">+</div>","null","","fixation","","",""
"memory-trial","131","424553","0.0-18.0-1.43","7815","approach_avoid_sv1","""event"",""trial"",""time""
""fullscreenenter"",""1"",""3228""
""fullscreenexit"",""127"",""394996""
""blur"",""127"",""402967""
""focus"",""127"",""404919""
""blur"",""127"",""413361""
""focus"",""127"",""418475""
","""event"",""trial"",""time""
""blur"",""127"",""402967""
""blur"",""127"",""413361""
","""event"",""trial"",""time""
""focus"",""127"",""404919""
""focus"",""127"",""418475""
","""event"",""trial"",""time""
""fullscreenenter"",""1"",""3228""
","""event"",""trial"",""time""
""fullscreenexit"",""127"",""394996""
","","","","","","1417.1999998092651","images/rabbit7.png","","","memory_trial","2","maybe_old",""
"html-keyboard-response","132","425055","0.0-18.0-0.44","7815","approach_avoid_sv1","""event"",""trial"",""time""
""fullscreenenter"",""1"",""3228""
""fullscreenexit"",""127"",""394996""
""blur"",""127"",""402967""
""focus"",""127"",""404919""
""blur"",""127"",""413361""
""focus"",""127"",""418475""
","""event"",""trial"",""time""
""blur"",""127"",""402967""
""blur"",""127"",""413361""
","""event"",""trial"",""time""
""focus"",""127"",""404919""
""focus"",""127"",""418475""
","""event"",""trial"",""time""
""fullscreenenter"",""1"",""3228""
","""event"",""trial"",""time""
""fullscreenexit"",""127"",""394996""
","","","","","","null","<div style=""font-size:60px;"">+</div>","null","","fixation","","",""
"memory-trial","133","426922","0.0-18.0-1.44","7815","approach_avoid_sv1","""event"",""trial"",""time""
""fullscreenenter"",""1"",""3228""
""fullscreenexit"",""127"",""394996""
""blur"",""127"",""402967""
""focus"",""127"",""404919""
""blur"",""127"",""413361""
""focus"",""127"",""418475""
","""event"",""trial"",""time""
""blur"",""127"",""402967""
""blur"",""127"",""413361""
","""event"",""trial"",""time""
""focus"",""127"",""404919""
""focus"",""127"",""418475""
","""event"",""trial"",""time""
""fullscreenenter"",""1"",""3228""
","""event"",""trial"",""time""
""fullscreenexit"",""127"",""394996""
","","","","","","852.5","images/sheep6.png","","","memory_trial","4","definitely_new",""
"html-keyboard-response","134","427424","0.0-18.0-0.45","7815","approach_avoid_sv1","""event"",""trial"",""time""
""fullscreenenter"",""1"",""3228""
""fullscreenexit"",""127"",""394996""
""blur"",""127"",""402967""
""focus"",""127"",""404919""
""blur"",""127"",""413361""
""focus"",""127"",""418475""
","""event"",""trial"",""time""
""blur"",""127"",""402967""
""blur"",""127"",""413361""
","""event"",""trial"",""time""
""focus"",""127"",""404919""
""focus"",""127"",""418475""
","""event"",""trial"",""time""
""fullscreenenter"",""1"",""3228""
","""event"",""trial"",""time""
""fullscreenexit"",""127"",""394996""
","","","","","","null","<div style=""font-size:60px;"">+</div>","null","","fixation","","",""
"memory-trial","135","429373","0.0-18.0-1.45","7815","approach_avoid_sv1","""event"",""trial"",""time""
""fullscreenenter"",""1"",""3228""
""fullscreenexit"",""127"",""394996""
""blur"",""127"",""402967""
""focus"",""127"",""404919""
""blur"",""127"",""413361""
""focus"",""127"",""418475""
","""event"",""trial"",""time""
""blur"",""127"",""402967""
""blur"",""127"",""413361""
","""event"",""trial"",""time""
""focus"",""127"",""404919""
""focus"",""127"",""418475""
","""event"",""trial"",""time""
""fullscreenenter"",""1"",""3228""
","""event"",""trial"",""time""
""fullscreenexit"",""127"",""394996""
","","","","","","944.5999999046326","images/bed4.png","","","memory_trial","2","maybe_old",""
"html-keyboard-response","136","429884","0.0-18.0-0.46","7815","approach_avoid_sv1","""event"",""trial"",""time""
""fullscreenenter"",""1"",""3228""
""fullscreenexit"",""127"",""394996""
""blur"",""127"",""402967""
""focus"",""127"",""404919""
""blur"",""127"",""413361""
""focus"",""127"",""418475""
","""event"",""trial"",""time""
""blur"",""127"",""402967""
""blur"",""127"",""413361""
","""event"",""trial"",""time""
""focus"",""127"",""404919""
""focus"",""127"",""418475""
","""event"",""trial"",""time""
""fullscreenenter"",""1"",""3228""
","""event"",""trial"",""time""
""fullscreenexit"",""127"",""394996""
","","","","","","null","<div style=""font-size:60px;"">+</div>","null","","fixation","","",""
"memory-trial","137","432029","0.0-18.0-1.46","7815","approach_avoid_sv1","""event"",""trial"",""time""
""fullscreenenter"",""1"",""3228""
""fullscreenexit"",""127"",""394996""
""blur"",""127"",""402967""
""focus"",""127"",""404919""
""blur"",""127"",""413361""
""focus"",""127"",""418475""
","""event"",""trial"",""time""
""blur"",""127"",""402967""
""blur"",""127"",""413361""
","""event"",""trial"",""time""
""focus"",""127"",""404919""
""focus"",""127"",""418475""
","""event"",""trial"",""time""
""fullscreenenter"",""1"",""3228""
","""event"",""trial"",""time""
""fullscreenexit"",""127"",""394996""
","","","","","","1128.5999999046326","images/horse6.png","","","memory_trial","2","maybe_old",""
"html-keyboard-response","138","432533","0.0-18.0-0.47","7815","approach_avoid_sv1","""event"",""trial"",""time""
""fullscreenenter"",""1"",""3228""
""fullscreenexit"",""127"",""394996""
""blur"",""127"",""402967""
""focus"",""127"",""404919""
""blur"",""127"",""413361""
""focus"",""127"",""418475""
","""event"",""trial"",""time""
""blur"",""127"",""402967""
""blur"",""127"",""413361""
","""event"",""trial"",""time""
""focus"",""127"",""404919""
""focus"",""127"",""418475""
","""event"",""trial"",""time""
""fullscreenenter"",""1"",""3228""
","""event"",""trial"",""time""
""fullscreenexit"",""127"",""394996""
","","","","","","null","<div style=""font-size:60px;"">+</div>","null","","fixation","","",""
"memory-trial","139","434812","0.0-18.0-1.47","7815","approach_avoid_sv1","""event"",""trial"",""time""
""fullscreenenter"",""1"",""3228""
""fullscreenexit"",""127"",""394996""
""blur"",""127"",""402967""
""focus"",""127"",""404919""
""blur"",""127"",""413361""
""focus"",""127"",""418475""
","""event"",""trial"",""time""
""blur"",""127"",""402967""
""blur"",""127"",""413361""
","""event"",""trial"",""time""
""focus"",""127"",""404919""
""focus"",""127"",""418475""
","""event"",""trial"",""time""
""fullscreenenter"",""1"",""3228""
","""event"",""trial"",""time""
""fullscreenexit"",""127"",""394996""
","","","","","","1266.3999996185303","images/cactus5.png","","","memory_trial","2","maybe_old",""
"html-keyboard-response","140","435322","0.0-18.0-0.48","7815","approach_avoid_sv1","""event"",""trial"",""time""
""fullscreenenter"",""1"",""3228""
""fullscreenexit"",""127"",""394996""
""blur"",""127"",""402967""
""focus"",""127"",""404919""
""blur"",""127"",""413361""
""focus"",""127"",""418475""
","""event"",""trial"",""time""
""blur"",""127"",""402967""
""blur"",""127"",""413361""
","""event"",""trial"",""time""
""focus"",""127"",""404919""
""focus"",""127"",""418475""
","""event"",""trial"",""time""
""fullscreenenter"",""1"",""3228""
","""event"",""trial"",""time""
""fullscreenexit"",""127"",""394996""
","","","","","","null","<div style=""font-size:60px;"">+</div>","null","","fixation","","",""
"memory-trial","141","437859","0.0-18.0-1.48","7815","approach_avoid_sv1","""event"",""trial"",""time""
""fullscreenenter"",""1"",""3228""
""fullscreenexit"",""127"",""394996""
""blur"",""127"",""402967""
""focus"",""127"",""404919""
""blur"",""127"",""413361""
""focus"",""127"",""418475""
","""event"",""trial"",""time""
""blur"",""127"",""402967""
""blur"",""127"",""413361""
","""event"",""trial"",""time""
""focus"",""127"",""404919""
""focus"",""127"",""418475""
","""event"",""trial"",""time""
""fullscreenenter"",""1"",""3228""
","""event"",""trial"",""time""
""fullscreenexit"",""127"",""394996""
","","","","","","1515.5999999046326","images/train8.png","","","memory_trial","4","definitely_new",""
"html-keyboard-response","142","438370","0.0-18.0-0.49","7815","approach_avoid_sv1","""event"",""trial"",""time""
""fullscreenenter"",""1"",""3228""
""fullscreenexit"",""127"",""394996""
""blur"",""127"",""402967""
""focus"",""127"",""404919""
""blur"",""127"",""413361""
""focus"",""127"",""418475""
","""event"",""trial"",""time""
""blur"",""127"",""402967""
""blur"",""127"",""413361""
","""event"",""trial"",""time""
""focus"",""127"",""404919""
""focus"",""127"",""418475""
","""event"",""trial"",""time""
""fullscreenenter"",""1"",""3228""
","""event"",""trial"",""time""
""fullscreenexit"",""127"",""394996""
","","","","","","null","<div style=""font-size:60px;"">+</div>","null","","fixation","","",""
"memory-trial","143","441005","0.0-18.0-1.49","7815","approach_avoid_sv1","""event"",""trial"",""time""
""fullscreenenter"",""1"",""3228""
""fullscreenexit"",""127"",""394996""
""blur"",""127"",""402967""
""focus"",""127"",""404919""
""blur"",""127"",""413361""
""focus"",""127"",""418475""
","""event"",""trial"",""time""
""blur"",""127"",""402967""
""blur"",""127"",""413361""
","""event"",""trial"",""time""
""focus"",""127"",""404919""
""focus"",""127"",""418475""
","""event"",""trial"",""time""
""fullscreenenter"",""1"",""3228""
","""event"",""trial"",""time""
""fullscreenexit"",""127"",""394996""
","","","","","","1622.8000001907349","images/truck3.png","","","memory_trial","1","definitely_old",""
"html-keyboard-response","144","441516","0.0-18.0-0.50","7815","approach_avoid_sv1","""event"",""trial"",""time""
""fullscreenenter"",""1"",""3228""
""fullscreenexit"",""127"",""394996""
""blur"",""127"",""402967""
""focus"",""127"",""404919""
""blur"",""127"",""413361""
""focus"",""127"",""418475""
","""event"",""trial"",""time""
""blur"",""127"",""402967""
""blur"",""127"",""413361""
","""event"",""trial"",""time""
""focus"",""127"",""404919""
""focus"",""127"",""418475""
","""event"",""trial"",""time""
""fullscreenenter"",""1"",""3228""
","""event"",""trial"",""time""
""fullscreenexit"",""127"",""394996""
","","","","","","null","<div style=""font-size:60px;"">+</div>","null","","fixation","","",""
"memory-trial","145","444253","0.0-18.0-1.50","7815","approach_avoid_sv1","""event"",""trial"",""time""
""fullscreenenter"",""1"",""3228""
""fullscreenexit"",""127"",""394996""
""blur"",""127"",""402967""
""focus"",""127"",""404919""
""blur"",""127"",""413361""
""focus"",""127"",""418475""
","""event"",""trial"",""time""
""blur"",""127"",""402967""
""blur"",""127"",""413361""
","""event"",""trial"",""time""
""focus"",""127"",""404919""
""focus"",""127"",""418475""
","""event"",""trial"",""time""
""fullscreenenter"",""1"",""3228""
","""event"",""trial"",""time""
""fullscreenexit"",""127"",""394996""
","","","","","","1717.3999996185303","images/dog6.png","","","memory_trial","4","definitely_new",""
"html-keyboard-response","146","444757","0.0-18.0-0.51","7815","approach_avoid_sv1","""event"",""trial"",""time""
""fullscreenenter"",""1"",""3228""
""fullscreenexit"",""127"",""394996""
""blur"",""127"",""402967""
""focus"",""127"",""404919""
""blur"",""127"",""413361""
""focus"",""127"",""418475""
","""event"",""trial"",""time""
""blur"",""127"",""402967""
""blur"",""127"",""413361""
","""event"",""trial"",""time""
""focus"",""127"",""404919""
""focus"",""127"",""418475""
","""event"",""trial"",""time""
""fullscreenenter"",""1"",""3228""
","""event"",""trial"",""time""
""fullscreenexit"",""127"",""394996""
","","","","","","null","<div style=""font-size:60px;"">+</div>","null","","fixation","","",""
"memory-trial","147","446929","0.0-18.0-1.51","7815","approach_avoid_sv1","""event"",""trial"",""time""
""fullscreenenter"",""1"",""3228""
""fullscreenexit"",""127"",""394996""
""blur"",""127"",""402967""
""focus"",""127"",""404919""
""blur"",""127"",""413361""
""focus"",""127"",""418475""
","""event"",""trial"",""time""
""blur"",""127"",""402967""
""blur"",""127"",""413361""
","""event"",""trial"",""time""
""focus"",""127"",""404919""
""focus"",""127"",""418475""
","""event"",""trial"",""time""
""fullscreenenter"",""1"",""3228""
","""event"",""trial"",""time""
""fullscreenexit"",""127"",""394996""
","","","","","","1159.8999996185303","images/train5.png","","","memory_trial","1","definitely_old",""
"html-keyboard-response","148","447443","0.0-18.0-0.52","7815","approach_avoid_sv1","""event"",""trial"",""time""
""fullscreenenter"",""1"",""3228""
""fullscreenexit"",""127"",""394996""
""blur"",""127"",""402967""
""focus"",""127"",""404919""
""blur"",""127"",""413361""
""focus"",""127"",""418475""
","""event"",""trial"",""time""
""blur"",""127"",""402967""
""blur"",""127"",""413361""
","""event"",""trial"",""time""
""focus"",""127"",""404919""
""focus"",""127"",""418475""
","""event"",""trial"",""time""
""fullscreenenter"",""1"",""3228""
","""event"",""trial"",""time""
""fullscreenexit"",""127"",""394996""
","","","","","","null","<div style=""font-size:60px;"">+</div>","null","","fixation","","",""
"memory-trial","149","450002","0.0-18.0-1.52","7815","approach_avoid_sv1","""event"",""trial"",""time""
""fullscreenenter"",""1"",""3228""
""fullscreenexit"",""127"",""394996""
""blur"",""127"",""402967""
""focus"",""127"",""404919""
""blur"",""127"",""413361""
""focus"",""127"",""418475""
","""event"",""trial"",""time""
""blur"",""127"",""402967""
""blur"",""127"",""413361""
","""event"",""trial"",""time""
""focus"",""127"",""404919""
""focus"",""127"",""418475""
","""event"",""trial"",""time""
""fullscreenenter"",""1"",""3228""
","""event"",""trial"",""time""
""fullscreenexit"",""127"",""394996""
","","","","","","1551.1999998092651","images/goat1.png","","","memory_trial","1","definitely_old",""
"html-keyboard-response","150","450518","0.0-18.0-0.53","7815","approach_avoid_sv1","""event"",""trial"",""time""
""fullscreenenter"",""1"",""3228""
""fullscreenexit"",""127"",""394996""
""blur"",""127"",""402967""
""focus"",""127"",""404919""
""blur"",""127"",""413361""
""focus"",""127"",""418475""
","""event"",""trial"",""time""
""blur"",""127"",""402967""
""blur"",""127"",""413361""
","""event"",""trial"",""time""
""focus"",""127"",""404919""
""focus"",""127"",""418475""
","""event"",""trial"",""time""
""fullscreenenter"",""1"",""3228""
","""event"",""trial"",""time""
""fullscreenexit"",""127"",""394996""
","","","","","","null","<div style=""font-size:60px;"">+</div>","null","","fixation","","",""
"memory-trial","151","452858","0.0-18.0-1.53","7815","approach_avoid_sv1","""event"",""trial"",""time""
""fullscreenenter"",""1"",""3228""
""fullscreenexit"",""127"",""394996""
""blur"",""127"",""402967""
""focus"",""127"",""404919""
""blur"",""127"",""413361""
""focus"",""127"",""418475""
","""event"",""trial"",""time""
""blur"",""127"",""402967""
""blur"",""127"",""413361""
","""event"",""trial"",""time""
""focus"",""127"",""404919""
""focus"",""127"",""418475""
","""event"",""trial"",""time""
""fullscreenenter"",""1"",""3228""
","""event"",""trial"",""time""
""fullscreenexit"",""127"",""394996""
","","","","","","1320.5","images/chair7.png","","","memory_trial","4","definitely_new",""
"html-keyboard-response","152","453362","0.0-18.0-0.54","7815","approach_avoid_sv1","""event"",""trial"",""time""
""fullscreenenter"",""1"",""3228""
""fullscreenexit"",""127"",""394996""
""blur"",""127"",""402967""
""focus"",""127"",""404919""
""blur"",""127"",""413361""
""focus"",""127"",""418475""
","""event"",""trial"",""time""
""blur"",""127"",""402967""
""blur"",""127"",""413361""
","""event"",""trial"",""time""
""focus"",""127"",""404919""
""focus"",""127"",""418475""
","""event"",""trial"",""time""
""fullscreenenter"",""1"",""3228""
","""event"",""trial"",""time""
""fullscreenexit"",""127"",""394996""
","","","","","","null","<div style=""font-size:60px;"">+</div>","null","","fixation","","",""
"memory-trial","153","455738","0.0-18.0-1.54","7815","approach_avoid_sv1","""event"",""trial"",""time""
""fullscreenenter"",""1"",""3228""
""fullscreenexit"",""127"",""394996""
""blur"",""127"",""402967""
""focus"",""127"",""404919""
""blur"",""127"",""413361""
""focus"",""127"",""418475""
","""event"",""trial"",""time""
""blur"",""127"",""402967""
""blur"",""127"",""413361""
","""event"",""trial"",""time""
""focus"",""127"",""404919""
""focus"",""127"",""418475""
","""event"",""trial"",""time""
""fullscreenenter"",""1"",""3228""
","""event"",""trial"",""time""
""fullscreenexit"",""127"",""394996""
","","","","","","1363","images/cat5.png","","","memory_trial","2","maybe_old",""
"html-keyboard-response","154","456246","0.0-18.0-0.55","7815","approach_avoid_sv1","""event"",""trial"",""time""
""fullscreenenter"",""1"",""3228""
""fullscreenexit"",""127"",""394996""
""blur"",""127"",""402967""
""focus"",""127"",""404919""
""blur"",""127"",""413361""
""focus"",""127"",""418475""
","""event"",""trial"",""time""
""blur"",""127"",""402967""
""blur"",""127"",""413361""
","""event"",""trial"",""time""
""focus"",""127"",""404919""
""focus"",""127"",""418475""
","""event"",""trial"",""time""
""fullscreenenter"",""1"",""3228""
","""event"",""trial"",""time""
""fullscreenexit"",""127"",""394996""
","","","","","","null","<div style=""font-size:60px;"">+</div>","null","","fixation","","",""
"memory-trial","155","458733","0.0-18.0-1.55","7815","approach_avoid_sv1","""event"",""trial"",""time""
""fullscreenenter"",""1"",""3228""
""fullscreenexit"",""127"",""394996""
""blur"",""127"",""402967""
""focus"",""127"",""404919""
""blur"",""127"",""413361""
""focus"",""127"",""418475""
","""event"",""trial"",""time""
""blur"",""127"",""402967""
""blur"",""127"",""413361""
","""event"",""trial"",""time""
""focus"",""127"",""404919""
""focus"",""127"",""418475""
","""event"",""trial"",""time""
""fullscreenenter"",""1"",""3228""
","""event"",""trial"",""time""
""fullscreenexit"",""127"",""394996""
","","","","","","1480.1999998092651","images/horse2.png","","","memory_trial","1","definitely_old",""
"html-keyboard-response","156","459252","0.0-18.0-0.56","7815","approach_avoid_sv1","""event"",""trial"",""time""
""fullscreenenter"",""1"",""3228""
""fullscreenexit"",""127"",""394996""
""blur"",""127"",""402967""
""focus"",""127"",""404919""
""blur"",""127"",""413361""
""focus"",""127"",""418475""
","""event"",""trial"",""time""
""blur"",""127"",""402967""
""blur"",""127"",""413361""
","""event"",""trial"",""time""
""focus"",""127"",""404919""
""focus"",""127"",""418475""
","""event"",""trial"",""time""
""fullscreenenter"",""1"",""3228""
","""event"",""trial"",""time""
""fullscreenexit"",""127"",""394996""
","","","","","","null","<div style=""font-size:60px;"">+</div>","null","","fixation","","",""
"memory-trial","157","461307","0.0-18.0-1.56","7815","approach_avoid_sv1","""event"",""trial"",""time""
""fullscreenenter"",""1"",""3228""
""fullscreenexit"",""127"",""394996""
""blur"",""127"",""402967""
""focus"",""127"",""404919""
""blur"",""127"",""413361""
""focus"",""127"",""418475""
","""event"",""trial"",""time""
""blur"",""127"",""402967""
""blur"",""127"",""413361""
","""event"",""trial"",""time""
""focus"",""127"",""404919""
""focus"",""127"",""418475""
","""event"",""trial"",""time""
""fullscreenenter"",""1"",""3228""
","""event"",""trial"",""time""
""fullscreenexit"",""127"",""394996""
","","","","","","1045.8000001907349","images/plane3.png","","","memory_trial","1","definitely_old",""
"html-keyboard-response","158","461823","0.0-18.0-0.57","7815","approach_avoid_sv1","""event"",""trial"",""time""
""fullscreenenter"",""1"",""3228""
""fullscreenexit"",""127"",""394996""
""blur"",""127"",""402967""
""focus"",""127"",""404919""
""blur"",""127"",""413361""
""focus"",""127"",""418475""
","""event"",""trial"",""time""
""blur"",""127"",""402967""
""blur"",""127"",""413361""
","""event"",""trial"",""time""
""focus"",""127"",""404919""
""focus"",""127"",""418475""
","""event"",""trial"",""time""
""fullscreenenter"",""1"",""3228""
","""event"",""trial"",""time""
""fullscreenexit"",""127"",""394996""
","","","","","","null","<div style=""font-size:60px;"">+</div>","null","","fixation","","",""
"memory-trial","159","464206","0.0-18.0-1.57","7815","approach_avoid_sv1","""event"",""trial"",""time""
""fullscreenenter"",""1"",""3228""
""fullscreenexit"",""127"",""394996""
""blur"",""127"",""402967""
""focus"",""127"",""404919""
""blur"",""127"",""413361""
""focus"",""127"",""418475""
","""event"",""trial"",""time""
""blur"",""127"",""402967""
""blur"",""127"",""413361""
","""event"",""trial"",""time""
""focus"",""127"",""404919""
""focus"",""127"",""418475""
","""event"",""trial"",""time""
""fullscreenenter"",""1"",""3228""
","""event"",""trial"",""time""
""fullscreenexit"",""127"",""394996""
","","","","","","1372.5999999046326","images/flower6.png","","","memory_trial","4","definitely_new",""
"html-keyboard-response","160","464709","0.0-18.0-0.58","7815","approach_avoid_sv1","""event"",""trial"",""time""
""fullscreenenter"",""1"",""3228""
""fullscreenexit"",""127"",""394996""
""blur"",""127"",""402967""
""focus"",""127"",""404919""
""blur"",""127"",""413361""
""focus"",""127"",""418475""
","""event"",""trial"",""time""
""blur"",""127"",""402967""
""blur"",""127"",""413361""
","""event"",""trial"",""time""
""focus"",""127"",""404919""
""focus"",""127"",""418475""
","""event"",""trial"",""time""
""fullscreenenter"",""1"",""3228""
","""event"",""trial"",""time""
""fullscreenexit"",""127"",""394996""
","","","","","","null","<div style=""font-size:60px;"">+</div>","null","","fixation","","",""
"memory-trial","161","467111","0.0-18.0-1.58","7815","approach_avoid_sv1","""event"",""trial"",""time""
""fullscreenenter"",""1"",""3228""
""fullscreenexit"",""127"",""394996""
""blur"",""127"",""402967""
""focus"",""127"",""404919""
""blur"",""127"",""413361""
""focus"",""127"",""418475""
","""event"",""trial"",""time""
""blur"",""127"",""402967""
""blur"",""127"",""413361""
","""event"",""trial"",""time""
""focus"",""127"",""404919""
""focus"",""127"",""418475""
","""event"",""trial"",""time""
""fullscreenenter"",""1"",""3228""
","""event"",""trial"",""time""
""fullscreenexit"",""127"",""394996""
","","","","","","1385.5999999046326","images/sofa1.png","","","memory_trial","4","definitely_new",""
"html-keyboard-response","162","467623","0.0-18.0-0.59","7815","approach_avoid_sv1","""event"",""trial"",""time""
""fullscreenenter"",""1"",""3228""
""fullscreenexit"",""127"",""394996""
""blur"",""127"",""402967""
""focus"",""127"",""404919""
""blur"",""127"",""413361""
""focus"",""127"",""418475""
","""event"",""trial"",""time""
""blur"",""127"",""402967""
""blur"",""127"",""413361""
","""event"",""trial"",""time""
""focus"",""127"",""404919""
""focus"",""127"",""418475""
","""event"",""trial"",""time""
""fullscreenenter"",""1"",""3228""
","""event"",""trial"",""time""
""fullscreenexit"",""127"",""394996""
","","","","","","null","<div style=""font-size:60px;"">+</div>","null","","fixation","","",""
"memory-trial","163","469327","0.0-18.0-1.59","7815","approach_avoid_sv1","""event"",""trial"",""time""
""fullscreenenter"",""1"",""3228""
""fullscreenexit"",""127"",""394996""
""blur"",""127"",""402967""
""focus"",""127"",""404919""
""blur"",""127"",""413361""
""focus"",""127"",""418475""
","""event"",""trial"",""time""
""blur"",""127"",""402967""
""blur"",""127"",""413361""
","""event"",""trial"",""time""
""focus"",""127"",""404919""
""focus"",""127"",""418475""
","""event"",""trial"",""time""
""fullscreenenter"",""1"",""3228""
","""event"",""trial"",""time""
""fullscreenexit"",""127"",""394996""
","","","","","","700.3000001907349","images/sheep8.png","","","memory_trial","4","definitely_new",""
"html-keyboard-response","164","469835","0.0-18.0-0.60","7815","approach_avoid_sv1","""event"",""trial"",""time""
""fullscreenenter"",""1"",""3228""
""fullscreenexit"",""127"",""394996""
""blur"",""127"",""402967""
""focus"",""127"",""404919""
""blur"",""127"",""413361""
""focus"",""127"",""418475""
","""event"",""trial"",""time""
""blur"",""127"",""402967""
""blur"",""127"",""413361""
","""event"",""trial"",""time""
""focus"",""127"",""404919""
""focus"",""127"",""418475""
","""event"",""trial"",""time""
""fullscreenenter"",""1"",""3228""
","""event"",""trial"",""time""
""fullscreenexit"",""127"",""394996""
","","","","","","null","<div style=""font-size:60px;"">+</div>","null","","fixation","","",""
"memory-trial","165","471574","0.0-18.0-1.60","7815","approach_avoid_sv1","""event"",""trial"",""time""
""fullscreenenter"",""1"",""3228""
""fullscreenexit"",""127"",""394996""
""blur"",""127"",""402967""
""focus"",""127"",""404919""
""blur"",""127"",""413361""
""focus"",""127"",""418475""
","""event"",""trial"",""time""
""blur"",""127"",""402967""
""blur"",""127"",""413361""
","""event"",""trial"",""time""
""focus"",""127"",""404919""
""focus"",""127"",""418475""
","""event"",""trial"",""time""
""fullscreenenter"",""1"",""3228""
","""event"",""trial"",""time""
""fullscreenexit"",""127"",""394996""
","","","","","","728.5","images/cow6.png","","","memory_trial","4","definitely_new",""
"html-keyboard-response","166","472077","0.0-18.0-0.61","7815","approach_avoid_sv1","""event"",""trial"",""time""
""fullscreenenter"",""1"",""3228""
""fullscreenexit"",""127"",""394996""
""blur"",""127"",""402967""
""focus"",""127"",""404919""
""blur"",""127"",""413361""
""focus"",""127"",""418475""
","""event"",""trial"",""time""
""blur"",""127"",""402967""
""blur"",""127"",""413361""
","""event"",""trial"",""time""
""focus"",""127"",""404919""
""focus"",""127"",""418475""
","""event"",""trial"",""time""
""fullscreenenter"",""1"",""3228""
","""event"",""trial"",""time""
""fullscreenexit"",""127"",""394996""
","","","","","","null","<div style=""font-size:60px;"">+</div>","null","","fixation","","",""
"memory-trial","167","473920","0.0-18.0-1.61","7815","approach_avoid_sv1","""event"",""trial"",""time""
""fullscreenenter"",""1"",""3228""
""fullscreenexit"",""127"",""394996""
""blur"",""127"",""402967""
""focus"",""127"",""404919""
""blur"",""127"",""413361""
""focus"",""127"",""418475""
","""event"",""trial"",""time""
""blur"",""127"",""402967""
""blur"",""127"",""413361""
","""event"",""trial"",""time""
""focus"",""127"",""404919""
""focus"",""127"",""418475""
","""event"",""trial"",""time""
""fullscreenenter"",""1"",""3228""
","""event"",""trial"",""time""
""fullscreenexit"",""127"",""394996""
","","","","","","840.6999998092651","images/chair3.png","","","memory_trial","4","definitely_new",""
"html-keyboard-response","168","474438","0.0-18.0-0.62","7815","approach_avoid_sv1","""event"",""trial"",""time""
""fullscreenenter"",""1"",""3228""
""fullscreenexit"",""127"",""394996""
""blur"",""127"",""402967""
""focus"",""127"",""404919""
""blur"",""127"",""413361""
""focus"",""127"",""418475""
","""event"",""trial"",""time""
""blur"",""127"",""402967""
""blur"",""127"",""413361""
","""event"",""trial"",""time""
""focus"",""127"",""404919""
""focus"",""127"",""418475""
","""event"",""trial"",""time""
""fullscreenenter"",""1"",""3228""
","""event"",""trial"",""time""
""fullscreenexit"",""127"",""394996""
","","","","","","null","<div style=""font-size:60px;"">+</div>","null","","fixation","","",""
"memory-trial","169","476314","0.0-18.0-1.62","7815","approach_avoid_sv1","""event"",""trial"",""time""
""fullscreenenter"",""1"",""3228""
""fullscreenexit"",""127"",""394996""
""blur"",""127"",""402967""
""focus"",""127"",""404919""
""blur"",""127"",""413361""
""focus"",""127"",""418475""
","""event"",""trial"",""time""
""blur"",""127"",""402967""
""blur"",""127"",""413361""
","""event"",""trial"",""time""
""focus"",""127"",""404919""
""focus"",""127"",""418475""
","""event"",""trial"",""time""
""fullscreenenter"",""1"",""3228""
","""event"",""trial"",""time""
""fullscreenexit"",""127"",""394996""
","","","","","","869.2000002861023","images/dog7.png","","","memory_trial","1","definitely_old",""
"html-keyboard-response","170","476823","0.0-18.0-0.63","7815","approach_avoid_sv1","""event"",""trial"",""time""
""fullscreenenter"",""1"",""3228""
""fullscreenexit"",""127"",""394996""
""blur"",""127"",""402967""
""focus"",""127"",""404919""
""blur"",""127"",""413361""
""focus"",""127"",""418475""
","""event"",""trial"",""time""
""blur"",""127"",""402967""
""blur"",""127"",""413361""
","""event"",""trial"",""time""
""focus"",""127"",""404919""
""focus"",""127"",""418475""
","""event"",""trial"",""time""
""fullscreenenter"",""1"",""3228""
","""event"",""trial"",""time""
""fullscreenexit"",""127"",""394996""
","","","","","","null","<div style=""font-size:60px;"">+</div>","null","","fixation","","",""
"memory-trial","171","478805","0.0-18.0-1.63","7815","approach_avoid_sv1","""event"",""trial"",""time""
""fullscreenenter"",""1"",""3228""
""fullscreenexit"",""127"",""394996""
""blur"",""127"",""402967""
""focus"",""127"",""404919""
""blur"",""127"",""413361""
""focus"",""127"",""418475""
","""event"",""trial"",""time""
""blur"",""127"",""402967""
""blur"",""127"",""413361""
","""event"",""trial"",""time""
""focus"",""127"",""404919""
""focus"",""127"",""418475""
","""event"",""trial"",""time""
""fullscreenenter"",""1"",""3228""
","""event"",""trial"",""time""
""fullscreenexit"",""127"",""394996""
","","","","","","970.6000003814697","images/orange7.png","","","memory_trial","4","definitely_new",""
"html-keyboard-response","172","479313","0.0-18.0-0.64","7815","approach_avoid_sv1","""event"",""trial"",""time""
""fullscreenenter"",""1"",""3228""
""fullscreenexit"",""127"",""394996""
""blur"",""127"",""402967""
""focus"",""127"",""404919""
""blur"",""127"",""413361""
""focus"",""127"",""418475""
","""event"",""trial"",""time""
""blur"",""127"",""402967""
""blur"",""127"",""413361""
","""event"",""trial"",""time""
""focus"",""127"",""404919""
""focus"",""127"",""418475""
","""event"",""trial"",""time""
""fullscreenenter"",""1"",""3228""
","""event"",""trial"",""time""
""fullscreenexit"",""127"",""394996""
","","","","","","null","<div style=""font-size:60px;"">+</div>","null","","fixation","","",""
"memory-trial","173","481679","0.0-18.0-1.64","7815","approach_avoid_sv1","""event"",""trial"",""time""
""fullscreenenter"",""1"",""3228""
""fullscreenexit"",""127"",""394996""
""blur"",""127"",""402967""
""focus"",""127"",""404919""
""blur"",""127"",""413361""
""focus"",""127"",""418475""
","""event"",""trial"",""time""
""blur"",""127"",""402967""
""blur"",""127"",""413361""
","""event"",""trial"",""time""
""focus"",""127"",""404919""
""focus"",""127"",""418475""
","""event"",""trial"",""time""
""fullscreenenter"",""1"",""3228""
","""event"",""trial"",""time""
""fullscreenexit"",""127"",""394996""
","","","","","","1360.2999997138977","images/apple5.png","","","memory_trial","2","maybe_old",""
"html-keyboard-response","174","482184","0.0-18.0-0.65","7815","approach_avoid_sv1","""event"",""trial"",""time""
""fullscreenenter"",""1"",""3228""
""fullscreenexit"",""127"",""394996""
""blur"",""127"",""402967""
""focus"",""127"",""404919""
""blur"",""127"",""413361""
""focus"",""127"",""418475""
","""event"",""trial"",""time""
""blur"",""127"",""402967""
""blur"",""127"",""413361""
","""event"",""trial"",""time""
""focus"",""127"",""404919""
""focus"",""127"",""418475""
","""event"",""trial"",""time""
""fullscreenenter"",""1"",""3228""
","""event"",""trial"",""time""
""fullscreenexit"",""127"",""394996""
","","","","","","null","<div style=""font-size:60px;"">+</div>","null","","fixation","","",""
"memory-trial","175","484359","0.0-18.0-1.65","7815","approach_avoid_sv1","""event"",""trial"",""time""
""fullscreenenter"",""1"",""3228""
""fullscreenexit"",""127"",""394996""
""blur"",""127"",""402967""
""focus"",""127"",""404919""
""blur"",""127"",""413361""
""focus"",""127"",""418475""
","""event"",""trial"",""time""
""blur"",""127"",""402967""
""blur"",""127"",""413361""
","""event"",""trial"",""time""
""focus"",""127"",""404919""
""focus"",""127"",""418475""
","""event"",""trial"",""time""
""fullscreenenter"",""1"",""3228""
","""event"",""trial"",""time""
""fullscreenexit"",""127"",""394996""
","","","","","","1170.7000002861023","images/apple7.png","","","memory_trial","2","maybe_old",""
"html-keyboard-response","176","484867","0.0-18.0-0.66","7815","approach_avoid_sv1","""event"",""trial"",""time""
""fullscreenenter"",""1"",""3228""
""fullscreenexit"",""127"",""394996""
""blur"",""127"",""402967""
""focus"",""127"",""404919""
""blur"",""127"",""413361""
""focus"",""127"",""418475""
","""event"",""trial"",""time""
""blur"",""127"",""402967""
""blur"",""127"",""413361""
","""event"",""trial"",""time""
""focus"",""127"",""404919""
""focus"",""127"",""418475""
","""event"",""trial"",""time""
""fullscreenenter"",""1"",""3228""
","""event"",""trial"",""time""
""fullscreenexit"",""127"",""394996""
","","","","","","null","<div style=""font-size:60px;"">+</div>","null","","fixation","","",""
"memory-trial","177","487178","0.0-18.0-1.66","7815","approach_avoid_sv1","""event"",""trial"",""time""
""fullscreenenter"",""1"",""3228""
""fullscreenexit"",""127"",""394996""
""blur"",""127"",""402967""
""focus"",""127"",""404919""
""blur"",""127"",""413361""
""focus"",""127"",""418475""
","""event"",""trial"",""time""
""blur"",""127"",""402967""
""blur"",""127"",""413361""
","""event"",""trial"",""time""
""focus"",""127"",""404919""
""focus"",""127"",""418475""
","""event"",""trial"",""time""
""fullscreenenter"",""1"",""3228""
","""event"",""trial"",""time""
""fullscreenexit"",""127"",""394996""
","","","","","","1306.2999997138977","images/truck8.png","","","memory_trial","4","definitely_new",""
"html-keyboard-response","178","487689","0.0-18.0-0.67","7815","approach_avoid_sv1","""event"",""trial"",""time""
""fullscreenenter"",""1"",""3228""
""fullscreenexit"",""127"",""394996""
""blur"",""127"",""402967""
""focus"",""127"",""404919""
""blur"",""127"",""413361""
""focus"",""127"",""418475""
","""event"",""trial"",""time""
""blur"",""127"",""402967""
""blur"",""127"",""413361""
","""event"",""trial"",""time""
""focus"",""127"",""404919""
""focus"",""127"",""418475""
","""event"",""trial"",""time""
""fullscreenenter"",""1"",""3228""
","""event"",""trial"",""time""
""fullscreenexit"",""127"",""394996""
","","","","","","null","<div style=""font-size:60px;"">+</div>","null","","fixation","","",""
"memory-trial","179","489985","0.0-18.0-1.67","7815","approach_avoid_sv1","""event"",""trial"",""time""
""fullscreenenter"",""1"",""3228""
""fullscreenexit"",""127"",""394996""
""blur"",""127"",""402967""
""focus"",""127"",""404919""
""blur"",""127"",""413361""
""focus"",""127"",""418475""
","""event"",""trial"",""time""
""blur"",""127"",""402967""
""blur"",""127"",""413361""
","""event"",""trial"",""time""
""focus"",""127"",""404919""
""focus"",""127"",""418475""
","""event"",""trial"",""time""
""fullscreenenter"",""1"",""3228""
","""event"",""trial"",""time""
""fullscreenexit"",""127"",""394996""
","","","","","","1291.5","images/horse7.png","","","memory_trial","4","definitely_new",""
"html-keyboard-response","180","490488","0.0-18.0-0.68","7815","approach_avoid_sv1","""event"",""trial"",""time""
""fullscreenenter"",""1"",""3228""
""fullscreenexit"",""127"",""394996""
""blur"",""127"",""402967""
""focus"",""127"",""404919""
""blur"",""127"",""413361""
""focus"",""127"",""418475""
","""event"",""trial"",""time""
""blur"",""127"",""402967""
""blur"",""127"",""413361""
","""event"",""trial"",""time""
""focus"",""127"",""404919""
""focus"",""127"",""418475""
","""event"",""trial"",""time""
""fullscreenenter"",""1"",""3228""
","""event"",""trial"",""time""
""fullscreenexit"",""127"",""394996""
","","","","","","null","<div style=""font-size:60px;"">+</div>","null","","fixation","","",""
"memory-trial","181","492766","0.0-18.0-1.68","7815","approach_avoid_sv1","""event"",""trial"",""time""
""fullscreenenter"",""1"",""3228""
""fullscreenexit"",""127"",""394996""
""blur"",""127"",""402967""
""focus"",""127"",""404919""
""blur"",""127"",""413361""
""focus"",""127"",""418475""
","""event"",""trial"",""time""
""blur"",""127"",""402967""
""blur"",""127"",""413361""
","""event"",""trial"",""time""
""focus"",""127"",""404919""
""focus"",""127"",""418475""
","""event"",""trial"",""time""
""fullscreenenter"",""1"",""3228""
","""event"",""trial"",""time""
""fullscreenexit"",""127"",""394996""
","","","","","","1269.1999998092651","images/dog5.png","","","memory_trial","1","definitely_old",""
"html-keyboard-response","182","493270","0.0-18.0-0.69","7815","approach_avoid_sv1","""event"",""trial"",""time""
""fullscreenenter"",""1"",""3228""
""fullscreenexit"",""127"",""394996""
""blur"",""127"",""402967""
""focus"",""127"",""404919""
""blur"",""127"",""413361""
""focus"",""127"",""418475""
","""event"",""trial"",""time""
""blur"",""127"",""402967""
""blur"",""127"",""413361""
","""event"",""trial"",""time""
""focus"",""127"",""404919""
""focus"",""127"",""418475""
","""event"",""trial"",""time""
""fullscreenenter"",""1"",""3228""
","""event"",""trial"",""time""
""fullscreenexit"",""127"",""394996""
","","","","","","null","<div style=""font-size:60px;"">+</div>","null","","fixation","","",""
"memory-trial","183","495370","0.0-18.0-1.69","7815","approach_avoid_sv1","""event"",""trial"",""time""
""fullscreenenter"",""1"",""3228""
""fullscreenexit"",""127"",""394996""
""blur"",""127"",""402967""
""focus"",""127"",""404919""
""blur"",""127"",""413361""
""focus"",""127"",""418475""
","""event"",""trial"",""time""
""blur"",""127"",""402967""
""blur"",""127"",""413361""
","""event"",""trial"",""time""
""focus"",""127"",""404919""
""focus"",""127"",""418475""
","""event"",""trial"",""time""
""fullscreenenter"",""1"",""3228""
","""event"",""trial"",""time""
""fullscreenexit"",""127"",""394996""
","","","","","","1091.5999999046326","images/rabbit3.png","","","memory_trial","4","definitely_new",""
"html-keyboard-response","184","495877","0.0-18.0-0.70","7815","approach_avoid_sv1","""event"",""trial"",""time""
""fullscreenenter"",""1"",""3228""
""fullscreenexit"",""127"",""394996""
""blur"",""127"",""402967""
""focus"",""127"",""404919""
""blur"",""127"",""413361""
""focus"",""127"",""418475""
","""event"",""trial"",""time""
""blur"",""127"",""402967""
""blur"",""127"",""413361""
","""event"",""trial"",""time""
""focus"",""127"",""404919""
""focus"",""127"",""418475""
","""event"",""trial"",""time""
""fullscreenenter"",""1"",""3228""
","""event"",""trial"",""time""
""fullscreenexit"",""127"",""394996""
","","","","","","null","<div style=""font-size:60px;"">+</div>","null","","fixation","","",""
"memory-trial","185","497885","0.0-18.0-1.70","7815","approach_avoid_sv1","""event"",""trial"",""time""
""fullscreenenter"",""1"",""3228""
""fullscreenexit"",""127"",""394996""
""blur"",""127"",""402967""
""focus"",""127"",""404919""
""blur"",""127"",""413361""
""focus"",""127"",""418475""
","""event"",""trial"",""time""
""blur"",""127"",""402967""
""blur"",""127"",""413361""
","""event"",""trial"",""time""
""focus"",""127"",""404919""
""focus"",""127"",""418475""
","""event"",""trial"",""time""
""fullscreenenter"",""1"",""3228""
","""event"",""trial"",""time""
""fullscreenexit"",""127"",""394996""
","","","","","","992.9000000953674","images/banana3.png","","","memory_trial","4","definitely_new",""
"html-keyboard-response","186","498387","0.0-18.0-0.71","7815","approach_avoid_sv1","""event"",""trial"",""time""
""fullscreenenter"",""1"",""3228""
""fullscreenexit"",""127"",""394996""
""blur"",""127"",""402967""
""focus"",""127"",""404919""
""blur"",""127"",""413361""
""focus"",""127"",""418475""
","""event"",""trial"",""time""
""blur"",""127"",""402967""
""blur"",""127"",""413361""
","""event"",""trial"",""time""
""focus"",""127"",""404919""
""focus"",""127"",""418475""
","""event"",""trial"",""time""
""fullscreenenter"",""1"",""3228""
","""event"",""trial"",""time""
""fullscreenexit"",""127"",""394996""
","","","","","","null","<div style=""font-size:60px;"">+</div>","null","","fixation","","",""
"memory-trial","187","500613","0.0-18.0-1.71","7815","approach_avoid_sv1","""event"",""trial"",""time""
""fullscreenenter"",""1"",""3228""
""fullscreenexit"",""127"",""394996""
""blur"",""127"",""402967""
""focus"",""127"",""404919""
""blur"",""127"",""413361""
""focus"",""127"",""418475""
","""event"",""trial"",""time""
""blur"",""127"",""402967""
""blur"",""127"",""413361""
","""event"",""trial"",""time""
""focus"",""127"",""404919""
""focus"",""127"",""418475""
","""event"",""trial"",""time""
""fullscreenenter"",""1"",""3228""
","""event"",""trial"",""time""
""fullscreenexit"",""127"",""394996""
","","","","","","1221.3000001907349","images/bush2.png","","","memory_trial","4","definitely_new",""
"html-keyboard-response","188","501114","0.0-18.0-0.72","7815","approach_avoid_sv1","""event"",""trial"",""time""
""fullscreenenter"",""1"",""3228""
""fullscreenexit"",""127"",""394996""
""blur"",""127"",""402967""
""focus"",""127"",""404919""
""blur"",""127"",""413361""
""focus"",""127"",""418475""
","""event"",""trial"",""time""
""blur"",""127"",""402967""
""blur"",""127"",""413361""
","""event"",""trial"",""time""
""focus"",""127"",""404919""
""focus"",""127"",""418475""
","""event"",""trial"",""time""
""fullscreenenter"",""1"",""3228""
","""event"",""trial"",""time""
""fullscreenexit"",""127"",""394996""
","","","","","","null","<div style=""font-size:60px;"">+</div>","null","","fixation","","",""
"memory-trial","189","503034","0.0-18.0-1.72","7815","approach_avoid_sv1","""event"",""trial"",""time""
""fullscreenenter"",""1"",""3228""
""fullscreenexit"",""127"",""394996""
""blur"",""127"",""402967""
""focus"",""127"",""404919""
""blur"",""127"",""413361""
""focus"",""127"",""418475""
","""event"",""trial"",""time""
""blur"",""127"",""402967""
""blur"",""127"",""413361""
","""event"",""trial"",""time""
""focus"",""127"",""404919""
""focus"",""127"",""418475""
","""event"",""trial"",""time""
""fullscreenenter"",""1"",""3228""
","""event"",""trial"",""time""
""fullscreenexit"",""127"",""394996""
","","","","","","914.6999998092651","images/bed7.png","","","memory_trial","4","definitely_new",""
"html-keyboard-response","190","503540","0.0-18.0-0.73","7815","approach_avoid_sv1","""event"",""trial"",""time""
""fullscreenenter"",""1"",""3228""
""fullscreenexit"",""127"",""394996""
""blur"",""127"",""402967""
""focus"",""127"",""404919""
""blur"",""127"",""413361""
""focus"",""127"",""418475""
","""event"",""trial"",""time""
""blur"",""127"",""402967""
""blur"",""127"",""413361""
","""event"",""trial"",""time""
""focus"",""127"",""404919""
""focus"",""127"",""418475""
","""event"",""trial"",""time""
""fullscreenenter"",""1"",""3228""
","""event"",""trial"",""time""
""fullscreenexit"",""127"",""394996""
","","","","","","null","<div style=""font-size:60px;"">+</div>","null","","fixation","","",""
"memory-trial","191","505398","0.0-18.0-1.73","7815","approach_avoid_sv1","""event"",""trial"",""time""
""fullscreenenter"",""1"",""3228""
""fullscreenexit"",""127"",""394996""
""blur"",""127"",""402967""
""focus"",""127"",""404919""
""blur"",""127"",""413361""
""focus"",""127"",""418475""
","""event"",""trial"",""time""
""blur"",""127"",""402967""
""blur"",""127"",""413361""
","""event"",""trial"",""time""
""focus"",""127"",""404919""
""focus"",""127"",""418475""
","""event"",""trial"",""time""
""fullscreenenter"",""1"",""3228""
","""event"",""trial"",""time""
""fullscreenexit"",""127"",""394996""
","","","","","","849.7000002861023","images/bed2.png","","","memory_trial","1","definitely_old",""
"html-keyboard-response","192","505903","0.0-18.0-0.74","7815","approach_avoid_sv1","""event"",""trial"",""time""
""fullscreenenter"",""1"",""3228""
""fullscreenexit"",""127"",""394996""
""blur"",""127"",""402967""
""focus"",""127"",""404919""
""blur"",""127"",""413361""
""focus"",""127"",""418475""
","""event"",""trial"",""time""
""blur"",""127"",""402967""
""blur"",""127"",""413361""
","""event"",""trial"",""time""
""focus"",""127"",""404919""
""focus"",""127"",""418475""
","""event"",""trial"",""time""
""fullscreenenter"",""1"",""3228""
","""event"",""trial"",""time""
""fullscreenexit"",""127"",""394996""
","","","","","","null","<div style=""font-size:60px;"">+</div>","null","","fixation","","",""
"memory-trial","193","508056","0.0-18.0-1.74","7815","approach_avoid_sv1","""event"",""trial"",""time""
""fullscreenenter"",""1"",""3228""
""fullscreenexit"",""127"",""394996""
""blur"",""127"",""402967""
""focus"",""127"",""404919""
""blur"",""127"",""413361""
""focus"",""127"",""418475""
","""event"",""trial"",""time""
""blur"",""127"",""402967""
""blur"",""127"",""413361""
","""event"",""trial"",""time""
""focus"",""127"",""404919""
""focus"",""127"",""418475""
","""event"",""trial"",""time""
""fullscreenenter"",""1"",""3228""
","""event"",""trial"",""time""
""fullscreenexit"",""127"",""394996""
","","","","","","1143.9000000953674","images/table6.png","","","memory_trial","1","definitely_old",""
"html-keyboard-response","194","508565","0.0-18.0-0.75","7815","approach_avoid_sv1","""event"",""trial"",""time""
""fullscreenenter"",""1"",""3228""
""fullscreenexit"",""127"",""394996""
""blur"",""127"",""402967""
""focus"",""127"",""404919""
""blur"",""127"",""413361""
""focus"",""127"",""418475""
","""event"",""trial"",""time""
""blur"",""127"",""402967""
""blur"",""127"",""413361""
","""event"",""trial"",""time""
""focus"",""127"",""404919""
""focus"",""127"",""418475""
","""event"",""trial"",""time""
""fullscreenenter"",""1"",""3228""
","""event"",""trial"",""time""
""fullscreenexit"",""127"",""394996""
","","","","","","null","<div style=""font-size:60px;"">+</div>","null","","fixation","","",""
"memory-trial","195","511001","0.0-18.0-1.75","7815","approach_avoid_sv1","""event"",""trial"",""time""
""fullscreenenter"",""1"",""3228""
""fullscreenexit"",""127"",""394996""
""blur"",""127"",""402967""
""focus"",""127"",""404919""
""blur"",""127"",""413361""
""focus"",""127"",""418475""
","""event"",""trial"",""time""
""blur"",""127"",""402967""
""blur"",""127"",""413361""
","""event"",""trial"",""time""
""focus"",""127"",""404919""
""focus"",""127"",""418475""
","""event"",""trial"",""time""
""fullscreenenter"",""1"",""3228""
","""event"",""trial"",""time""
""fullscreenexit"",""127"",""394996""
","","","","","","1430.4000000953674","images/flower5.png","","","memory_trial","1","definitely_old",""
"html-keyboard-response","196","511507","0.0-18.0-0.76","7815","approach_avoid_sv1","""event"",""trial"",""time""
""fullscreenenter"",""1"",""3228""
""fullscreenexit"",""127"",""394996""
""blur"",""127"",""402967""
""focus"",""127"",""404919""
""blur"",""127"",""413361""
""focus"",""127"",""418475""
","""event"",""trial"",""time""
""blur"",""127"",""402967""
""blur"",""127"",""413361""
","""event"",""trial"",""time""
""focus"",""127"",""404919""
""focus"",""127"",""418475""
","""event"",""trial"",""time""
""fullscreenenter"",""1"",""3228""
","""event"",""trial"",""time""
""fullscreenexit"",""127"",""394996""
","","","","","","null","<div style=""font-size:60px;"">+</div>","null","","fixation","","",""
"memory-trial","197","513190","0.0-18.0-1.76","7815","approach_avoid_sv1","""event"",""trial"",""time""
""fullscreenenter"",""1"",""3228""
""fullscreenexit"",""127"",""394996""
""blur"",""127"",""402967""
""focus"",""127"",""404919""
""blur"",""127"",""413361""
""focus"",""127"",""418475""
","""event"",""trial"",""time""
""blur"",""127"",""402967""
""blur"",""127"",""413361""
","""event"",""trial"",""time""
""focus"",""127"",""404919""
""focus"",""127"",""418475""
","""event"",""trial"",""time""
""fullscreenenter"",""1"",""3228""
","""event"",""trial"",""time""
""fullscreenexit"",""127"",""394996""
","","","","","","673.2000002861023","images/plane6.png","","","memory_trial","4","definitely_new",""
"html-keyboard-response","198","513697","0.0-18.0-0.77","7815","approach_avoid_sv1","""event"",""trial"",""time""
""fullscreenenter"",""1"",""3228""
""fullscreenexit"",""127"",""394996""
""blur"",""127"",""402967""
""focus"",""127"",""404919""
""blur"",""127"",""413361""
""focus"",""127"",""418475""
","""event"",""trial"",""time""
""blur"",""127"",""402967""
""blur"",""127"",""413361""
","""event"",""trial"",""time""
""focus"",""127"",""404919""
""focus"",""127"",""418475""
","""event"",""trial"",""time""
""fullscreenenter"",""1"",""3228""
","""event"",""trial"",""time""
""fullscreenexit"",""127"",""394996""
","","","","","","null","<div style=""font-size:60px;"">+</div>","null","","fixation","","",""
"memory-trial","199","515642","0.0-18.0-1.77","7815","approach_avoid_sv1","""event"",""trial"",""time""
""fullscreenenter"",""1"",""3228""
""fullscreenexit"",""127"",""394996""
""blur"",""127"",""402967""
""focus"",""127"",""404919""
""blur"",""127"",""413361""
""focus"",""127"",""418475""
","""event"",""trial"",""time""
""blur"",""127"",""402967""
""blur"",""127"",""413361""
","""event"",""trial"",""time""
""focus"",""127"",""404919""
""focus"",""127"",""418475""
","""event"",""trial"",""time""
""fullscreenenter"",""1"",""3228""
","""event"",""trial"",""time""
""fullscreenexit"",""127"",""394996""
","","","","","","943.9000000953674","images/cactus6.png","","","memory_trial","4","definitely_new",""
"html-keyboard-response","200","516145","0.0-18.0-0.78","7815","approach_avoid_sv1","""event"",""trial"",""time""
""fullscreenenter"",""1"",""3228""
""fullscreenexit"",""127"",""394996""
""blur"",""127"",""402967""
""focus"",""127"",""404919""
""blur"",""127"",""413361""
""focus"",""127"",""418475""
","""event"",""trial"",""time""
""blur"",""127"",""402967""
""blur"",""127"",""413361""
","""event"",""trial"",""time""
""focus"",""127"",""404919""
""focus"",""127"",""418475""
","""event"",""trial"",""time""
""fullscreenenter"",""1"",""3228""
","""event"",""trial"",""time""
""fullscreenexit"",""127"",""394996""
","","","","","","null","<div style=""font-size:60px;"">+</div>","null","","fixation","","",""
"memory-trial","201","518225","0.0-18.0-1.78","7815","approach_avoid_sv1","""event"",""trial"",""time""
""fullscreenenter"",""1"",""3228""
""fullscreenexit"",""127"",""394996""
""blur"",""127"",""402967""
""focus"",""127"",""404919""
""blur"",""127"",""413361""
""focus"",""127"",""418475""
","""event"",""trial"",""time""
""blur"",""127"",""402967""
""blur"",""127"",""413361""
","""event"",""trial"",""time""
""focus"",""127"",""404919""
""focus"",""127"",""418475""
","""event"",""trial"",""time""
""fullscreenenter"",""1"",""3228""
","""event"",""trial"",""time""
""fullscreenexit"",""127"",""394996""
","","","","","","1071.4000000953674","images/bed3.png","","","memory_trial","4","definitely_new",""
"html-keyboard-response","202","518727","0.0-18.0-0.79","7815","approach_avoid_sv1","""event"",""trial"",""time""
""fullscreenenter"",""1"",""3228""
""fullscreenexit"",""127"",""394996""
""blur"",""127"",""402967""
""focus"",""127"",""404919""
""blur"",""127"",""413361""
""focus"",""127"",""418475""
","""event"",""trial"",""time""
""blur"",""127"",""402967""
""blur"",""127"",""413361""
","""event"",""trial"",""time""
""focus"",""127"",""404919""
""focus"",""127"",""418475""
","""event"",""trial"",""time""
""fullscreenenter"",""1"",""3228""
","""event"",""trial"",""time""
""fullscreenexit"",""127"",""394996""
","","","","","","null","<div style=""font-size:60px;"">+</div>","null","","fixation","","",""
"memory-trial","203","520531","0.0-18.0-1.79","7815","approach_avoid_sv1","""event"",""trial"",""time""
""fullscreenenter"",""1"",""3228""
""fullscreenexit"",""127"",""394996""
""blur"",""127"",""402967""
""focus"",""127"",""404919""
""blur"",""127"",""413361""
""focus"",""127"",""418475""
","""event"",""trial"",""time""
""blur"",""127"",""402967""
