"trial_type","trial_index","time_elapsed","internal_node_id","subject_id","task_version","interactions","blur_events","focus_events","fullscreenenter_events","fullscreenexit_events","success","timeout","failed_images","failed_audio","failed_video","rt","stimulus","response","button_pressed","task_part","key_press","answer","correct"
"pavlovia","0","6","0.0-0.0","8859","approach_avoid_sv1","""event"",""trial"",""time""
""fullscreenenter"",""1"",""5177""
","
","
","""event"",""trial"",""time""
""fullscreenenter"",""1"",""5177""
","
","","","","","","","","","","","","",""
"fullscreen","1","6159","0.0-1.0","8859","approach_avoid_sv1","""event"",""trial"",""time""
""fullscreenenter"",""1"",""5177""
","
","
","""event"",""trial"",""time""
""fullscreenenter"",""1"",""5177""
","
","true","","","","","","","","","","","",""
"preload","2","18769","0.0-2.0","8859","approach_avoid_sv1","""event"",""trial"",""time""
""fullscreenenter"",""1"",""5177""
","
","
","""event"",""trial"",""time""
""fullscreenenter"",""1"",""5177""
","
","true","false","[]","[]","[]","","","","","","","",""
"preload","3","22689","0.0-3.0","8859","approach_avoid_sv1","""event"",""trial"",""time""
""fullscreenenter"",""1"",""5177""
","
","
","""event"",""trial"",""time""
""fullscreenenter"",""1"",""5177""
","
","true","false","[]","[]","[]","","","","","","","",""
"preload","4","22992","0.0-4.0","8859","approach_avoid_sv1","""event"",""trial"",""time""
""fullscreenenter"",""1"",""5177""
","
","
","""event"",""trial"",""time""
""fullscreenenter"",""1"",""5177""
","
","true","false","[]","[]","[]","","","","","","","",""
"audio-keyboard-response","5","32593","0.0-5.0","8859","approach_avoid_sv1","""event"",""trial"",""time""
""fullscreenenter"",""1"",""5177""
","
","
","""event"",""trial"",""time""
""fullscreenenter"",""1"",""5177""
","
","","","","","","9599.999999999998","audio/beep_loop.wav"," ","","","","",""
"audio-button-response","6","34175","0.0-6.0","8859","approach_avoid_sv1","""event"",""trial"",""time""
""fullscreenenter"",""1"",""5177""
","
","
","""event"",""trial"",""time""
""fullscreenenter"",""1"",""5177""
","
","","","","","","1579","audio/turtle.wav","3","","","","",""
"audio-button-response","7","36607","0.0-7.0","8859","approach_avoid_sv1","""event"",""trial"",""time""
""fullscreenenter"",""1"",""5177""
","
","
","""event"",""trial"",""time""
""fullscreenenter"",""1"",""5177""
","
","","","","","","1421","audio/shark.wav","2","","","","",""
"preload","8","42753","0.0-8.0","8859","approach_avoid_sv1","""event"",""trial"",""time""
""fullscreenenter"",""1"",""5177""
","
","
","""event"",""trial"",""time""
""fullscreenenter"",""1"",""5177""
","
","true","false","[]","[]","[]","","","","","","","",""
"learning-instructions","9","51918","0.0-9.0-0.0","8859","approach_avoid_sv1","""event"",""trial"",""time""
""fullscreenenter"",""1"",""5177""
","
","
","""event"",""trial"",""time""
""fullscreenenter"",""1"",""5177""
","
","","","","","","4681.599999904633","<p> Welcome back! </p><p> Last week, you had to make choices about lots of different items.  </p>","","0","instructions","","",""
"learning-instructions","10","59020","0.0-9.0-0.1","8859","approach_avoid_sv1","""event"",""trial"",""time""
""fullscreenenter"",""1"",""5177""
","
","
","""event"",""trial"",""time""
""fullscreenenter"",""1"",""5177""
","
","","","","","","2984.7999999523163","<p> Today, we are going to ask you to try to remember all the items. </p>","","0","instructions","","",""
"learning-instructions","11","71270","0.0-9.0-0.2","8859","approach_avoid_sv1","""event"",""trial"",""time""
""fullscreenenter"",""1"",""5177""
","
","
","""event"",""trial"",""time""
""fullscreenenter"",""1"",""5177""
","
","","","","","","2124.9000000953674","<p> On every trial, you will see an image. </p><p> The image may be an OLD image you saw during the games last week or it may be a NEW image that was not presented. </p>","","0","instructions","","",""
"learning-instructions","12","85062","0.0-9.0-0.3","8859","approach_avoid_sv1","""event"",""trial"",""time""
""fullscreenenter"",""1"",""5177""
","
","
","""event"",""trial"",""time""
""fullscreenenter"",""1"",""5177""
","
","","","","","","5296.199999809265","<p> You need to select whether the image is:  </p><p>  'Definitely old', 'Maybe old', 'Maybe new', or 'Definitely new.'  </p><div class=""mem-choice-instructions-grid""><div class=""choice-option"" id=""choice-option-1"" ><img src=""images/definitely_old_1.png"" id=""choice-option-img-1"" class=""choice-option-img"" stage=""1""></div><div class=""choice-option"" id=""choice-option-2"" ><img src=""images/maybe_old_1.png"" id=""choice-option-img-2"" class=""choice-option-img"" stage=""1""></div><div class=""choice-option"" id=""choice-option-3"" ><img src=""images/maybe_new_1.png"" id=""choice-option-img-3"" class=""choice-option-img"" stage=""1""></div><div class=""choice-option"" id=""choice-option-4"" > <img src=""images/definitely_new_1.png"" id=""choice-option-img-4"" class=""choice-option-img"" stage=""1""></div></div>","","0","instructions","","",""
"learning-instructions","13","93727","0.0-9.0-0.4","8859","approach_avoid_sv1","""event"",""trial"",""time""
""fullscreenenter"",""1"",""5177""
","
","
","""event"",""trial"",""time""
""fullscreenenter"",""1"",""5177""
","
","","","","","","2140","<p> You should use the 1, 2, 3, and 4 keys to make your responses.  </p><div class=""mem-choice-instructions-grid""><div class=""choice-option"" id=""choice-option-1"" ><img src=""images/definitely_old.png"" id=""choice-option-img-1"" class=""choice-option-img"" stage=""1""></div><div class=""choice-option"" id=""choice-option-2"" ><img src=""images/maybe_old.png"" id=""choice-option-img-2"" class=""choice-option-img"" stage=""1""></div><div class=""choice-option"" id=""choice-option-3"" ><img src=""images/maybe_new.png"" id=""choice-option-img-3"" class=""choice-option-img"" stage=""1""></div><div class=""choice-option"" id=""choice-option-4"" > <img src=""images/definitely_new.png"" id=""choice-option-img-4"" class=""choice-option-img"" stage=""1""></div></div>","","0","instructions","","",""
"learning-instructions","14","101137","0.0-9.0-0.5","8859","approach_avoid_sv1","""event"",""trial"",""time""
""fullscreenenter"",""1"",""5177""
","
","
","""event"",""trial"",""time""
""fullscreenenter"",""1"",""5177""
","
","","","","","","1081.6000001430511","<p> You will have 10 seconds to make each response.  </p><p>  Make sure to respond before time runs out! </p>","","0","instructions","","",""
"learning-instructions","15","109556","0.0-9.0-0.6","8859","approach_avoid_sv1","""event"",""trial"",""time""
""fullscreenenter"",""1"",""5177""
","
","
","""event"",""trial"",""time""
""fullscreenenter"",""1"",""5177""
","
","","","","","","1350.7000000476837","<p> Today, you will see each image ONCE only.  </p><p>  That means none of the images will repeat. </p>","","0","instructions","","",""
"learning-instructions","16","124052","0.0-9.0-0.7","8859","approach_avoid_sv1","""event"",""trial"",""time""
""fullscreenenter"",""1"",""5177""
","
","
","""event"",""trial"",""time""
""fullscreenenter"",""1"",""5177""
","
","","","","","","1816","<p> Before you play the real game, it is time to practice. </p><p>  Just like in the real game, some of the images in the practice will be ones you have seen before. </p><p>  Others will be entirely new. </p>","","0","instructions","","",""
"html-button-response","17","125477","0.0-10.0","8859","approach_avoid_sv1","""event"",""trial"",""time""
""fullscreenenter"",""1"",""5177""
","
","
","""event"",""trial"",""time""
""fullscreenenter"",""1"",""5177""
","
","","","","","","1313.3000001907349","<p> Ready to practice? </p><p> Remember, use the 1, 2, 3, and 4 keys to make your responses. </p>","0","","instructions","","",""
"html-keyboard-response","18","126082","0.0-11.0-0.0","8859","approach_avoid_sv1","""event"",""trial"",""time""
""fullscreenenter"",""1"",""5177""
","
","
","""event"",""trial"",""time""
""fullscreenenter"",""1"",""5177""
","
","","","","","","null","<div style=""font-size:60px;"">+</div>","null","","fixation","","",""
"memory-trial","19","129980","0.0-11.0-1.0","8859","approach_avoid_sv1","""event"",""trial"",""time""
""fullscreenenter"",""1"",""5177""
","
","
","""event"",""trial"",""time""
""fullscreenenter"",""1"",""5177""
","
","","","","","","2876.199999809265","images/ball1.png","","","practice","4","definitely_new",""
"html-keyboard-response","20","130495","0.0-11.0-0.1","8859","approach_avoid_sv1","""event"",""trial"",""time""
""fullscreenenter"",""1"",""5177""
","
","
","""event"",""trial"",""time""
""fullscreenenter"",""1"",""5177""
","
","","","","","","null","<div style=""font-size:60px;"">+</div>","null","","fixation","","",""
"memory-trial","21","132567","0.0-11.0-1.1","8859","approach_avoid_sv1","""event"",""trial"",""time""
""fullscreenenter"",""1"",""5177""
","
","
","""event"",""trial"",""time""
""fullscreenenter"",""1"",""5177""
","
","","","","","","1064.2000000476837","images/ball2.png","","","practice","4","definitely_new",""
"html-keyboard-response","22","133083","0.0-11.0-0.2","8859","approach_avoid_sv1","""event"",""trial"",""time""
""fullscreenenter"",""1"",""5177""
","
","
","""event"",""trial"",""time""
""fullscreenenter"",""1"",""5177""
","
","","","","","","null","<div style=""font-size:60px;"">+</div>","null","","fixation","","",""
"memory-trial","23","134676","0.0-11.0-1.2","8859","approach_avoid_sv1","""event"",""trial"",""time""
""fullscreenenter"",""1"",""5177""
","
","
","""event"",""trial"",""time""
""fullscreenenter"",""1"",""5177""
","
","","","","","","577.2999999523163","images/racket5.png","","","practice","4","definitely_new",""
"html-keyboard-response","24","135188","0.0-11.0-0.3","8859","approach_avoid_sv1","""event"",""trial"",""time""
""fullscreenenter"",""1"",""5177""
","
","
","""event"",""trial"",""time""
""fullscreenenter"",""1"",""5177""
","
","","","","","","null","<div style=""font-size:60px;"">+</div>","null","","fixation","","",""
"memory-trial","25","136795","0.0-11.0-1.3","8859","approach_avoid_sv1","""event"",""trial"",""time""
""fullscreenenter"",""1"",""5177""
","
","
","""event"",""trial"",""time""
""fullscreenenter"",""1"",""5177""
","
","","","","","","587.5","images/racket1.png","","","practice","4","definitely_new",""
"html-keyboard-response","26","137309","0.0-11.0-0.4","8859","approach_avoid_sv1","""event"",""trial"",""time""
""fullscreenenter"",""1"",""5177""
","
","
","""event"",""trial"",""time""
""fullscreenenter"",""1"",""5177""
","
","","","","","","null","<div style=""font-size:60px;"">+</div>","null","","fixation","","",""
"memory-trial","27","139446","0.0-11.0-1.4","8859","approach_avoid_sv1","""event"",""trial"",""time""
""fullscreenenter"",""1"",""5177""
","
","
","""event"",""trial"",""time""
""fullscreenenter"",""1"",""5177""
","
","","","","","","1128.0999999046326","images/ball3.png","","","practice","4","definitely_new",""
"html-keyboard-response","28","139961","0.0-11.0-0.5","8859","approach_avoid_sv1","""event"",""trial"",""time""
""fullscreenenter"",""1"",""5177""
","
","
","""event"",""trial"",""time""
""fullscreenenter"",""1"",""5177""
","
","","","","","","null","<div style=""font-size:60px;"">+</div>","null","","fixation","","",""
"memory-trial","29","141520","0.0-11.0-1.5","8859","approach_avoid_sv1","""event"",""trial"",""time""
""fullscreenenter"",""1"",""5177""
","
","
","""event"",""trial"",""time""
""fullscreenenter"",""1"",""5177""
","
","","","","","","551.2999999523163","images/racket3.png","","","practice","4","definitely_new",""
"html-keyboard-response","30","142035","0.0-11.0-0.6","8859","approach_avoid_sv1","""event"",""trial"",""time""
""fullscreenenter"",""1"",""5177""
","
","
","""event"",""trial"",""time""
""fullscreenenter"",""1"",""5177""
","
","","","","","","null","<div style=""font-size:60px;"">+</div>","null","","fixation","","",""
"memory-trial","31","143586","0.0-11.0-1.6","8859","approach_avoid_sv1","""event"",""trial"",""time""
""fullscreenenter"",""1"",""5177""
","
","
","""event"",""trial"",""time""
""fullscreenenter"",""1"",""5177""
","
","","","","","","541.9000000953674","images/racket2.png","","","practice","4","definitely_new",""
"html-keyboard-response","32","144100","0.0-11.0-0.7","8859","approach_avoid_sv1","""event"",""trial"",""time""
""fullscreenenter"",""1"",""5177""
","
","
","""event"",""trial"",""time""
""fullscreenenter"",""1"",""5177""
","
","","","","","","null","<div style=""font-size:60px;"">+</div>","null","","fixation","","",""
"memory-trial","33","145738","0.0-11.0-1.7","8859","approach_avoid_sv1","""event"",""trial"",""time""
""fullscreenenter"",""1"",""5177""
","
","
","""event"",""trial"",""time""
""fullscreenenter"",""1"",""5177""
","
","","","","","","620.3999998569489","images/ball5.png","","","practice","4","definitely_new",""
"learning-instructions","34","154476","0.0-12.0-0.0","8859","approach_avoid_sv1","""event"",""trial"",""time""
""fullscreenenter"",""1"",""5177""
","
","
","""event"",""trial"",""time""
""fullscreenenter"",""1"",""5177""
","
","","","","","","1430.5","<p> Great! You have completed the practice. </p><p> Before you start, we're going to ask you a few questions about how the game works.  </p>","","0","instructions","","",""
"preload","35","166599","0.0-13.0","8859","approach_avoid_sv1","""event"",""trial"",""time""
""fullscreenenter"",""1"",""5177""
","
","
","""event"",""trial"",""time""
""fullscreenenter"",""1"",""5177""
","
","true","false","[]","[]","[]","","","","","","","",""
"comp-q","36","174093","0.0-14.0-0.0","8859","approach_avoid_sv1","""event"",""trial"",""time""
""fullscreenenter"",""1"",""5177""
","
","
","""event"",""trial"",""time""
""fullscreenenter"",""1"",""5177""
","
","","","","","","1667","<p> <b> True or False? </b> </p><p> In this game, you will only see each image once. </p>","","1","comp_question","","","false"
"comp-q","37","181767","0.0-14.0-1.0","8859","approach_avoid_sv1","""event"",""trial"",""time""
""fullscreenenter"",""1"",""5177""
","
","
","""event"",""trial"",""time""
""fullscreenenter"",""1"",""5177""
","
","","","","","","1132.4000000953674","<p> <b>Incorrect.</b> You will see many different images <i> one time each </i> in this game. </p>","","0","comp_answer","","",""
"comp-q","38","188771","0.0-14.1-0.1","8859","approach_avoid_sv1","""event"",""trial"",""time""
""fullscreenenter"",""1"",""5177""
","
","
","""event"",""trial"",""time""
""fullscreenenter"",""1"",""5177""
","
","","","","","","1066.2000000476837","<p> <b> True or False? </b> </p><p> In this game, you will only see each image once. </p>","","1","comp_question","","","false"
"comp-q","39","196447","0.0-14.1-1.1","8859","approach_avoid_sv1","""event"",""trial"",""time""
""fullscreenenter"",""1"",""5177""
","
","
","""event"",""trial"",""time""
""fullscreenenter"",""1"",""5177""
","
","","","","","","1131.9000000953674","<p> <b>Incorrect.</b> You will see many different images <i> one time each </i> in this game. </p>","","0","comp_answer","","",""
"comp-q","40","203206","0.0-14.2-0.2","8859","approach_avoid_sv1","""event"",""trial"",""time""
""fullscreenenter"",""1"",""5177""
","
","
","""event"",""trial"",""time""
""fullscreenenter"",""1"",""5177""
","
","","","","","","822","<p> <b> True or False? </b> </p><p> In this game, you will only see each image once. </p>","","0","comp_question","","","true"
"comp-q","41","211608","0.0-14.2-1.2","8859","approach_avoid_sv1","""event"",""trial"",""time""
""fullscreenenter"",""1"",""5177""
","
","
","""event"",""trial"",""time""
""fullscreenenter"",""1"",""5177""
","
","","","","","","2053.7000000476837","<p> <b> That's right! </b> You will see many different images <i> one time each </i> in this game. </p>","","0","comp_answer","","",""
"comp-q","42","218127","0.0-15.0-0.0","8859","approach_avoid_sv1","""event"",""trial"",""time""
""fullscreenenter"",""1"",""5177""
","
","
","""event"",""trial"",""time""
""fullscreenenter"",""1"",""5177""
","
","","","","","","1502.3000001907349","<p> <b> True or False? </b> </p><p> You should use the mouse and click to make your response. </p>","","1","comp_question","","","true"
"comp-q","43","226363","0.0-15.0-1.0","8859","approach_avoid_sv1","""event"",""trial"",""time""
""fullscreenenter"",""1"",""5177""
","
","
","""event"",""trial"",""time""
""fullscreenenter"",""1"",""5177""
","
","","","","","","1737.3999998569489","<p><b> That's right! </b> You should use the '1', '2', '3', and '4' keys to make your response. </p>","","0","comp_answer","","",""
"comp-q","44","233155","0.0-16.0-0.0","8859","approach_avoid_sv1","""event"",""trial"",""time""
""fullscreenenter"",""1"",""5177""
","
","
","""event"",""trial"",""time""
""fullscreenenter"",""1"",""5177""
","
","","","","","","1119.6000001430511","<p> <b> True or False? </b> </p><p> You will have as much time as you want to make each choice. </p>","","1","comp_question","","","true"
"comp-q","45","239392","0.0-16.0-1.0","8859","approach_avoid_sv1","""event"",""trial"",""time""
""fullscreenenter"",""1"",""5177""
","
","
","""event"",""trial"",""time""
""fullscreenenter"",""1"",""5177""
","
","","","","","","1547.4000000953674","<p> <b> That's right! </b> You will only have 10 seconds to make each choice. </p>","","0","comp_answer","","",""
"learning-instructions","46","251616","0.0-17.0","8859","approach_avoid_sv1","""event"",""trial"",""time""
""fullscreenenter"",""1"",""5177""
","
","
","""event"",""trial"",""time""
""fullscreenenter"",""1"",""5177""
","
","","","","","","3551.2000000476837","<p> Great! You are now ready to begin the game. </p><p> Remember, use the 1, 2, 3, and 4 keys to make your responses. </p>","","0","instructions","","",""
"html-keyboard-response","47","252246","0.0-18.0-0.0","8859","approach_avoid_sv1","""event"",""trial"",""time""
""fullscreenenter"",""1"",""5177""
","
","
","""event"",""trial"",""time""
""fullscreenenter"",""1"",""5177""
","
","","","","","","null","<div style=""font-size:60px;"">+</div>","null","","fixation","","",""
"memory-trial","48","255019","0.0-18.0-1.0","8859","approach_avoid_sv1","""event"",""trial"",""time""
""fullscreenenter"",""1"",""5177""
","
","
","""event"",""trial"",""time""
""fullscreenenter"",""1"",""5177""
","
","","","","","","1755.9000000953674","images/straw5.png","","","memory_trial","4","definitely_new",""
"html-keyboard-response","49","255532","0.0-18.0-0.1","8859","approach_avoid_sv1","""event"",""trial"",""time""
""fullscreenenter"",""1"",""5177""
","
","
","""event"",""trial"",""time""
""fullscreenenter"",""1"",""5177""
","
","","","","","","null","<div style=""font-size:60px;"">+</div>","null","","fixation","","",""
"memory-trial","50","259058","0.0-18.0-1.1","8859","approach_avoid_sv1","""event"",""trial"",""time""
""fullscreenenter"",""1"",""5177""
","
","
","""event"",""trial"",""time""
""fullscreenenter"",""1"",""5177""
","
","","","","","","2522","images/plane3.png","","","memory_trial","2","maybe_old",""
"html-keyboard-response","51","259560","0.0-18.0-0.2","8859","approach_avoid_sv1","""event"",""trial"",""time""
""fullscreenenter"",""1"",""5177""
","
","
","""event"",""trial"",""time""
""fullscreenenter"",""1"",""5177""
","
","","","","","","null","<div style=""font-size:60px;"">+</div>","null","","fixation","","",""
"memory-trial","52","262368","0.0-18.0-1.2","8859","approach_avoid_sv1","""event"",""trial"",""time""
""fullscreenenter"",""1"",""5177""
","
","
","""event"",""trial"",""time""
""fullscreenenter"",""1"",""5177""
","
","","","","","","1794.2999999523163","images/rabbit3.png","","","memory_trial","4","definitely_new",""
"html-keyboard-response","53","262874","0.0-18.0-0.3","8859","approach_avoid_sv1","""event"",""trial"",""time""
""fullscreenenter"",""1"",""5177""
","
","
","""event"",""trial"",""time""
""fullscreenenter"",""1"",""5177""
","
","","","","","","null","<div style=""font-size:60px;"">+</div>","null","","fixation","","",""
"memory-trial","54","264958","0.0-18.0-1.3","8859","approach_avoid_sv1","""event"",""trial"",""time""
""fullscreenenter"",""1"",""5177""
","
","
","""event"",""trial"",""time""
""fullscreenenter"",""1"",""5177""
","
","","","","","","1069.9000000953674","images/orange2.png","","","memory_trial","4","definitely_new",""
"html-keyboard-response","55","265474","0.0-18.0-0.4","8859","approach_avoid_sv1","""event"",""trial"",""time""
""fullscreenenter"",""1"",""5177""
","
","
","""event"",""trial"",""time""
""fullscreenenter"",""1"",""5177""
","
","","","","","","null","<div style=""font-size:60px;"">+</div>","null","","fixation","","",""
"memory-trial","56","268607","0.0-18.0-1.4","8859","approach_avoid_sv1","""event"",""trial"",""time""
""fullscreenenter"",""1"",""5177""
","
","
","""event"",""trial"",""time""
""fullscreenenter"",""1"",""5177""
","
","","","","","","2114","images/flower6.png","","","memory_trial","4","definitely_new",""
"html-keyboard-response","57","269110","0.0-18.0-0.5","8859","approach_avoid_sv1","""event"",""trial"",""time""
""fullscreenenter"",""1"",""5177""
","
","
","""event"",""trial"",""time""
""fullscreenenter"",""1"",""5177""
","
","","","","","","null","<div style=""font-size:60px;"">+</div>","null","","fixation","","",""
"memory-trial","58","271506","0.0-18.0-1.5","8859","approach_avoid_sv1","""event"",""trial"",""time""
""fullscreenenter"",""1"",""5177""
","
","
","""event"",""trial"",""time""
""fullscreenenter"",""1"",""5177""
","
","","","","","","1380.7999999523163","images/horse6.png","","","memory_trial","3","maybe_new",""
"html-keyboard-response","59","272011","0.0-18.0-0.6","8859","approach_avoid_sv1","""event"",""trial"",""time""
""fullscreenenter"",""1"",""5177""
","
","
","""event"",""trial"",""time""
""fullscreenenter"",""1"",""5177""
","
","","","","","","null","<div style=""font-size:60px;"">+</div>","null","","fixation","","",""
"memory-trial","60","275505","0.0-18.0-1.6","8859","approach_avoid_sv1","""event"",""trial"",""time""
""fullscreenenter"",""1"",""5177""
","
","
","""event"",""trial"",""time""
""fullscreenenter"",""1"",""5177""
","
","","","","","","2479.5","images/dog1.png","","","memory_trial","4","definitely_new",""
"html-keyboard-response","61","276021","0.0-18.0-0.7","8859","approach_avoid_sv1","""event"",""trial"",""time""
""fullscreenenter"",""1"",""5177""
","
","
","""event"",""trial"",""time""
""fullscreenenter"",""1"",""5177""
","
","","","","","","null","<div style=""font-size:60px;"">+</div>","null","","fixation","","",""
"memory-trial","62","278206","0.0-18.0-1.7","8859","approach_avoid_sv1","""event"",""trial"",""time""
""fullscreenenter"",""1"",""5177""
","
","
","""event"",""trial"",""time""
""fullscreenenter"",""1"",""5177""
","
","","","","","","1179.1000001430511","images/straw7.png","","","memory_trial","4","definitely_new",""
"html-keyboard-response","63","278718","0.0-18.0-0.8","8859","approach_avoid_sv1","""event"",""trial"",""time""
""fullscreenenter"",""1"",""5177""
","
","
","""event"",""trial"",""time""
""fullscreenenter"",""1"",""5177""
","
","","","","","","null","<div style=""font-size:60px;"">+</div>","null","","fixation","","",""
"memory-trial","64","281123","0.0-18.0-1.8","8859","approach_avoid_sv1","""event"",""trial"",""time""
""fullscreenenter"",""1"",""5177""
","
","
","""event"",""trial"",""time""
""fullscreenenter"",""1"",""5177""
","
","","","","","","1399.5","images/truck4.png","","","memory_trial","4","definitely_new",""
"html-keyboard-response","65","281625","0.0-18.0-0.9","8859","approach_avoid_sv1","""event"",""trial"",""time""
""fullscreenenter"",""1"",""5177""
","
","
","""event"",""trial"",""time""
""fullscreenenter"",""1"",""5177""
","
","","","","","","null","<div style=""font-size:60px;"">+</div>","null","","fixation","","",""
"memory-trial","66","284418","0.0-18.0-1.9","8859","approach_avoid_sv1","""event"",""trial"",""time""
""fullscreenenter"",""1"",""5177""
","
","
","""event"",""trial"",""time""
""fullscreenenter"",""1"",""5177""
","
","","","","","","1790.7999999523163","images/apple3.png","","","memory_trial","3","maybe_new",""
"html-keyboard-response","67","284919","0.0-18.0-0.10","8859","approach_avoid_sv1","""event"",""trial"",""time""
""fullscreenenter"",""1"",""5177""
","
","
","""event"",""trial"",""time""
""fullscreenenter"",""1"",""5177""
","
","","","","","","null","<div style=""font-size:60px;"">+</div>","null","","fixation","","",""
"memory-trial","68","287766","0.0-18.0-1.10","8859","approach_avoid_sv1","""event"",""trial"",""time""
""fullscreenenter"",""1"",""5177""
","
","
","""event"",""trial"",""time""
""fullscreenenter"",""1"",""5177""
","
","","","","","","1841.2999999523163","images/sofa8.png","","","memory_trial","1","definitely_old",""
"html-keyboard-response","69","288267","0.0-18.0-0.11","8859","approach_avoid_sv1","""event"",""trial"",""time""
""fullscreenenter"",""1"",""5177""
","
","
","""event"",""trial"",""time""
""fullscreenenter"",""1"",""5177""
","
","","","","","","null","<div style=""font-size:60px;"">+</div>","null","","fixation","","",""
"memory-trial","70","290218","0.0-18.0-1.11","8859","approach_avoid_sv1","""event"",""trial"",""time""
""fullscreenenter"",""1"",""5177""
","
","
","""event"",""trial"",""time""
""fullscreenenter"",""1"",""5177""
","
","","","","","","946.2000000476837","images/sofa5.png","","","memory_trial","1","definitely_old",""
"html-keyboard-response","71","290730","0.0-18.0-0.12","8859","approach_avoid_sv1","""event"",""trial"",""time""
""fullscreenenter"",""1"",""5177""
","
","
","""event"",""trial"",""time""
""fullscreenenter"",""1"",""5177""
","
","","","","","","null","<div style=""font-size:60px;"">+</div>","null","","fixation","","",""
"memory-trial","72","293825","0.0-18.0-1.12","8859","approach_avoid_sv1","""event"",""trial"",""time""
""fullscreenenter"",""1"",""5177""
","
","
","""event"",""trial"",""time""
""fullscreenenter"",""1"",""5177""
","
","","","","","","2089.7999999523163","images/plane4.png","","","memory_trial","2","maybe_old",""
"html-keyboard-response","73","294327","0.0-18.0-0.13","8859","approach_avoid_sv1","""event"",""trial"",""time""
""fullscreenenter"",""1"",""5177""
","
","
","""event"",""trial"",""time""
""fullscreenenter"",""1"",""5177""
","
","","","","","","null","<div style=""font-size:60px;"">+</div>","null","","fixation","","",""
"memory-trial","74","296654","0.0-18.0-1.13","8859","approach_avoid_sv1","""event"",""trial"",""time""
""fullscreenenter"",""1"",""5177""
","
","
","""event"",""trial"",""time""
""fullscreenenter"",""1"",""5177""
","
","","","","","","1322.4000000953674","images/cat5.png","","","memory_trial","1","definitely_old",""
"html-keyboard-response","75","297156","0.0-18.0-0.14","8859","approach_avoid_sv1","""event"",""trial"",""time""
""fullscreenenter"",""1"",""5177""
","
","
","""event"",""trial"",""time""
""fullscreenenter"",""1"",""5177""
","
","","","","","","null","<div style=""font-size:60px;"">+</div>","null","","fixation","","",""
"memory-trial","76","299707","0.0-18.0-1.14","8859","approach_avoid_sv1","""event"",""trial"",""time""
""fullscreenenter"",""1"",""5177""
","
","
","""event"",""trial"",""time""
""fullscreenenter"",""1"",""5177""
","
","","","","","","1546.5","images/bed6.png","","","memory_trial","2","maybe_old",""
"html-keyboard-response","77","300209","0.0-18.0-0.15","8859","approach_avoid_sv1","""event"",""trial"",""time""
""fullscreenenter"",""1"",""5177""
","
","
","""event"",""trial"",""time""
""fullscreenenter"",""1"",""5177""
","
","","","","","","null","<div style=""font-size:60px;"">+</div>","null","","fixation","","",""
"memory-trial","78","302152","0.0-18.0-1.15","8859","approach_avoid_sv1","""event"",""trial"",""time""
""fullscreenenter"",""1"",""5177""
","
","
","""event"",""trial"",""time""
""fullscreenenter"",""1"",""5177""
","
","","","","","","939.6000001430511","images/sofa7.png","","","memory_trial","1","definitely_old",""
"html-keyboard-response","79","302654","0.0-18.0-0.16","8859","approach_avoid_sv1","""event"",""trial"",""time""
""fullscreenenter"",""1"",""5177""
","
","
","""event"",""trial"",""time""
""fullscreenenter"",""1"",""5177""
","
","","","","","","null","<div style=""font-size:60px;"">+</div>","null","","fixation","","",""
"memory-trial","80","304857","0.0-18.0-1.16","8859","approach_avoid_sv1","""event"",""trial"",""time""
""fullscreenenter"",""1"",""5177""
","
","
","""event"",""trial"",""time""
""fullscreenenter"",""1"",""5177""
","
","","","","","","1197.7000000476837","images/orange5.png","","","memory_trial","2","maybe_old",""
"html-keyboard-response","81","305360","0.0-18.0-0.17","8859","approach_avoid_sv1","""event"",""trial"",""time""
""fullscreenenter"",""1"",""5177""
","
","
","""event"",""trial"",""time""
""fullscreenenter"",""1"",""5177""
","
","","","","","","null","<div style=""font-size:60px;"">+</div>","null","","fixation","","",""
"memory-trial","82","307562","0.0-18.0-1.17","8859","approach_avoid_sv1","""event"",""trial"",""time""
""fullscreenenter"",""1"",""5177""
","
","
","""event"",""trial"",""time""
""fullscreenenter"",""1"",""5177""
","
","","","","","","1198.4000000953674","images/tree8.png","","","memory_trial","2","maybe_old",""
"html-keyboard-response","83","308064","0.0-18.0-0.18","8859","approach_avoid_sv1","""event"",""trial"",""time""
""fullscreenenter"",""1"",""5177""
","
","
","""event"",""trial"",""time""
""fullscreenenter"",""1"",""5177""
","
","","","","","","null","<div style=""font-size:60px;"">+</div>","null","","fixation","","",""
"memory-trial","84","310159","0.0-18.0-1.18","8859","approach_avoid_sv1","""event"",""trial"",""time""
""fullscreenenter"",""1"",""5177""
","
","
","""event"",""trial"",""time""
""fullscreenenter"",""1"",""5177""
","
","","","","","","1091.2000000476837","images/cactus6.png","","","memory_trial","1","definitely_old",""
"html-keyboard-response","85","310661","0.0-18.0-0.19","8859","approach_avoid_sv1","""event"",""trial"",""time""
""fullscreenenter"",""1"",""5177""
","
","
","""event"",""trial"",""time""
""fullscreenenter"",""1"",""5177""
","
","","","","","","null","<div style=""font-size:60px;"">+</div>","null","","fixation","","",""
"memory-trial","86","312480","0.0-18.0-1.19","8859","approach_avoid_sv1","""event"",""trial"",""time""
""fullscreenenter"",""1"",""5177""
","
","
","""event"",""trial"",""time""
""fullscreenenter"",""1"",""5177""
","
","","","","","","812.5999999046326","images/goat7.png","","","memory_trial","1","definitely_old",""
"html-keyboard-response","87","312982","0.0-18.0-0.20","8859","approach_avoid_sv1","""event"",""trial"",""time""
""fullscreenenter"",""1"",""5177""
","
","
","""event"",""trial"",""time""
""fullscreenenter"",""1"",""5177""
","
","","","","","","null","<div style=""font-size:60px;"">+</div>","null","","fixation","","",""
"memory-trial","88","315036","0.0-18.0-1.20","8859","approach_avoid_sv1","""event"",""trial"",""time""
""fullscreenenter"",""1"",""5177""
","
","
","""event"",""trial"",""time""
""fullscreenenter"",""1"",""5177""
","
","","","","","","1050.0999999046326","images/horse3.png","","","memory_trial","2","maybe_old",""
"html-keyboard-response","89","315537","0.0-18.0-0.21","8859","approach_avoid_sv1","""event"",""trial"",""time""
""fullscreenenter"",""1"",""5177""
","
","
","""event"",""trial"",""time""
""fullscreenenter"",""1"",""5177""
","
","","","","","","null","<div style=""font-size:60px;"">+</div>","null","","fixation","","",""
"memory-trial","90","318026","0.0-18.0-1.21","8859","approach_avoid_sv1","""event"",""trial"",""time""
""fullscreenenter"",""1"",""5177""
","
","
","""event"",""trial"",""time""
""fullscreenenter"",""1"",""5177""
","
","","","","","","1484.3999998569489","images/truck7.png","","","memory_trial","2","maybe_old",""
"html-keyboard-response","91","318528","0.0-18.0-0.22","8859","approach_avoid_sv1","""event"",""trial"",""time""
""fullscreenenter"",""1"",""5177""
","
","
","""event"",""trial"",""time""
""fullscreenenter"",""1"",""5177""
","
","","","","","","null","<div style=""font-size:60px;"">+</div>","null","","fixation","","",""
"memory-trial","92","320724","0.0-18.0-1.22","8859","approach_avoid_sv1","""event"",""trial"",""time""
""fullscreenenter"",""1"",""5177""
","
","
","""event"",""trial"",""time""
""fullscreenenter"",""1"",""5177""
","
","","","","","","1193.1000001430511","images/chair8.png","","","memory_trial","1","definitely_old",""
"html-keyboard-response","93","321227","0.0-18.0-0.23","8859","approach_avoid_sv1","""event"",""trial"",""time""
""fullscreenenter"",""1"",""5177""
","
","
","""event"",""trial"",""time""
""fullscreenenter"",""1"",""5177""
","
","","","","","","null","<div style=""font-size:60px;"">+</div>","null","","fixation","","",""
"memory-trial","94","323247","0.0-18.0-1.23","8859","approach_avoid_sv1","""event"",""trial"",""time""
""fullscreenenter"",""1"",""5177""
","
","
","""event"",""trial"",""time""
""fullscreenenter"",""1"",""5177""
","
","","","","","","1016","images/orange3.png","","","memory_trial","2","maybe_old",""
"html-keyboard-response","95","323749","0.0-18.0-0.24","8859","approach_avoid_sv1","""event"",""trial"",""time""
""fullscreenenter"",""1"",""5177""
","
","
","""event"",""trial"",""time""
""fullscreenenter"",""1"",""5177""
","
","","","","","","null","<div style=""font-size:60px;"">+</div>","null","","fixation","","",""
"memory-trial","96","325652","0.0-18.0-1.24","8859","approach_avoid_sv1","""event"",""trial"",""time""
""fullscreenenter"",""1"",""5177""
","
","
","""event"",""trial"",""time""
""fullscreenenter"",""1"",""5177""
","
","","","","","","899.2000000476837","images/sofa1.png","","","memory_trial","1","definitely_old",""
"html-keyboard-response","97","326154","0.0-18.0-0.25","8859","approach_avoid_sv1","""event"",""trial"",""time""
""fullscreenenter"",""1"",""5177""
","
","
","""event"",""trial"",""time""
""fullscreenenter"",""1"",""5177""
","
","","","","","","null","<div style=""font-size:60px;"">+</div>","null","","fixation","","",""
"memory-trial","98","328039","0.0-18.0-1.25","8859","approach_avoid_sv1","""event"",""trial"",""time""
""fullscreenenter"",""1"",""5177""
","
","
","""event"",""trial"",""time""
""fullscreenenter"",""1"",""5177""
","
","","","","","","880.7999999523163","images/banana3.png","","","memory_trial","1","definitely_old",""
"html-keyboard-response","99","328541","0.0-18.0-0.26","8859","approach_avoid_sv1","""event"",""trial"",""time""
""fullscreenenter"",""1"",""5177""
","
","
","""event"",""trial"",""time""
""fullscreenenter"",""1"",""5177""
","
","","","","","","null","<div style=""font-size:60px;"">+</div>","null","","fixation","","",""
"memory-trial","100","331010","0.0-18.0-1.26","8859","approach_avoid_sv1","""event"",""trial"",""time""
""fullscreenenter"",""1"",""5177""
","
","
","""event"",""trial"",""time""
""fullscreenenter"",""1"",""5177""
","
","","","","","","1463.6999998092651","images/tree5.png","","","memory_trial","3","maybe_new",""
"html-keyboard-response","101","331512","0.0-18.0-0.27","8859","approach_avoid_sv1","""event"",""trial"",""time""
""fullscreenenter"",""1"",""5177""
","
","
","""event"",""trial"",""time""
""fullscreenenter"",""1"",""5177""
","
","","","","","","null","<div style=""font-size:60px;"">+</div>","null","","fixation","","",""
"memory-trial","102","334001","0.0-18.0-1.27","8859","approach_avoid_sv1","""event"",""trial"",""time""
""fullscreenenter"",""1"",""5177""
","
","
","""event"",""trial"",""time""
""fullscreenenter"",""1"",""5177""
","
","","","","","","1485.1999998092651","images/orange4.png","","","memory_trial","1","definitely_old",""
"html-keyboard-response","103","334503","0.0-18.0-0.28","8859","approach_avoid_sv1","""event"",""trial"",""time""
""fullscreenenter"",""1"",""5177""
","
","
","""event"",""trial"",""time""
""fullscreenenter"",""1"",""5177""
","
","","","","","","null","<div style=""font-size:60px;"">+</div>","null","","fixation","","",""
"memory-trial","104","336284","0.0-18.0-1.28","8859","approach_avoid_sv1","""event"",""trial"",""time""
""fullscreenenter"",""1"",""5177""
","
","
","""event"",""trial"",""time""
""fullscreenenter"",""1"",""5177""
","
","","","","","","775.5999999046326","images/horse8.png","","","memory_trial","1","definitely_old",""
"html-keyboard-response","105","336786","0.0-18.0-0.29","8859","approach_avoid_sv1","""event"",""trial"",""time""
""fullscreenenter"",""1"",""5177""
","
","
","""event"",""trial"",""time""
""fullscreenenter"",""1"",""5177""
","
","","","","","","null","<div style=""font-size:60px;"">+</div>","null","","fixation","","",""
"memory-trial","106","339423","0.0-18.0-1.29","8859","approach_avoid_sv1","""event"",""trial"",""time""
""fullscreenenter"",""1"",""5177""
","
","
","""event"",""trial"",""time""
""fullscreenenter"",""1"",""5177""
","
","","","","","","1633.6000001430511","images/flower1.png","","","memory_trial","4","definitely_new",""
"html-keyboard-response","107","339926","0.0-18.0-0.30","8859","approach_avoid_sv1","""event"",""trial"",""time""
""fullscreenenter"",""1"",""5177""
","
","
","""event"",""trial"",""time""
""fullscreenenter"",""1"",""5177""
","
","","","","","","null","<div style=""font-size:60px;"">+</div>","null","","fixation","","",""
"memory-trial","108","341784","0.0-18.0-1.30","8859","approach_avoid_sv1","""event"",""trial"",""time""
""fullscreenenter"",""1"",""5177""
","
","
","""event"",""trial"",""time""
""fullscreenenter"",""1"",""5177""
","
","","","","","","855.5999999046326","images/banana1.png","","","memory_trial","1","definitely_old",""
"html-keyboard-response","109","342286","0.0-18.0-0.31","8859","approach_avoid_sv1","""event"",""trial"",""time""
""fullscreenenter"",""1"",""5177""
","
","
","""event"",""trial"",""time""
""fullscreenenter"",""1"",""5177""
","
","","","","","","null","<div style=""font-size:60px;"">+</div>","null","","fixation","","",""
"memory-trial","110","343891","0.0-18.0-1.31","8859","approach_avoid_sv1","""event"",""trial"",""time""
""fullscreenenter"",""1"",""5177""
","
","
","""event"",""trial"",""time""
""fullscreenenter"",""1"",""5177""
","
","","","","","","600.7000000476837","images/banana8.png","","","memory_trial","1","definitely_old",""
"html-keyboard-response","111","344394","0.0-18.0-0.32","8859","approach_avoid_sv1","""event"",""trial"",""time""
""fullscreenenter"",""1"",""5177""
","
","
","""event"",""trial"",""time""
""fullscreenenter"",""1"",""5177""
","
","","","","","","null","<div style=""font-size:60px;"">+</div>","null","","fixation","","",""
"memory-trial","112","346062","0.0-18.0-1.32","8859","approach_avoid_sv1","""event"",""trial"",""time""
""fullscreenenter"",""1"",""5177""
","
","
","""event"",""trial"",""time""
""fullscreenenter"",""1"",""5177""
","
","","","","","","661.5999999046326","images/horse4.png","","","memory_trial","1","definitely_old",""
"html-keyboard-response","113","346564","0.0-18.0-0.33","8859","approach_avoid_sv1","""event"",""trial"",""time""
""fullscreenenter"",""1"",""5177""
","
","
","""event"",""trial"",""time""
""fullscreenenter"",""1"",""5177""
","
","","","","","","null","<div style=""font-size:60px;"">+</div>","null","","fixation","","",""
"memory-trial","114","349518","0.0-18.0-1.33","8859","approach_avoid_sv1","""event"",""trial"",""time""
""fullscreenenter"",""1"",""5177""
","
","
","""event"",""trial"",""time""
""fullscreenenter"",""1"",""5177""
","
","","","","","","1951","images/rabbit6.png","","","memory_trial","3","maybe_new",""
"html-keyboard-response","115","350019","0.0-18.0-0.34","8859","approach_avoid_sv1","""event"",""trial"",""time""
""fullscreenenter"",""1"",""5177""
","
","
","""event"",""trial"",""time""
""fullscreenenter"",""1"",""5177""
","
","","","","","","null","<div style=""font-size:60px;"">+</div>","null","","fixation","","",""
"memory-trial","116","352182","0.0-18.0-1.34","8859","approach_avoid_sv1","""event"",""trial"",""time""
""fullscreenenter"",""1"",""5177""
","
","
","""event"",""trial"",""time""
""fullscreenenter"",""1"",""5177""
","
","","","","","","1160","images/flower3.png","","","memory_trial","4","definitely_new",""
"html-keyboard-response","117","352684","0.0-18.0-0.35","8859","approach_avoid_sv1","""event"",""trial"",""time""
""fullscreenenter"",""1"",""5177""
","
","
","""event"",""trial"",""time""
""fullscreenenter"",""1"",""5177""
","
","","","","","","null","<div style=""font-size:60px;"">+</div>","null","","fixation","","",""
"memory-trial","118","355461","0.0-18.0-1.35","8859","approach_avoid_sv1","""event"",""trial"",""time""
""fullscreenenter"",""1"",""5177""
","
","
","""event"",""trial"",""time""
""fullscreenenter"",""1"",""5177""
","
","","","","","","1774.2999999523163","images/banana2.png","","","memory_trial","3","maybe_new",""
"html-keyboard-response","119","355962","0.0-18.0-0.36","8859","approach_avoid_sv1","""event"",""trial"",""time""
""fullscreenenter"",""1"",""5177""
","
","
","""event"",""trial"",""time""
""fullscreenenter"",""1"",""5177""
","
","","","","","","null","<div style=""font-size:60px;"">+</div>","null","","fixation","","",""
"memory-trial","120","358106","0.0-18.0-1.36","8859","approach_avoid_sv1","""event"",""trial"",""time""
""fullscreenenter"",""1"",""5177""
","
","
","""event"",""trial"",""time""
""fullscreenenter"",""1"",""5177""
","
","","","","","","1140.7000000476837","images/rabbit5.png","","","memory_trial","3","maybe_new",""
"html-keyboard-response","121","358608","0.0-18.0-0.37","8859","approach_avoid_sv1","""event"",""trial"",""time""
""fullscreenenter"",""1"",""5177""
","
","
","""event"",""trial"",""time""
""fullscreenenter"",""1"",""5177""
","
","","","","","","null","<div style=""font-size:60px;"">+</div>","null","","fixation","","",""
"memory-trial","122","360502","0.0-18.0-1.37","8859","approach_avoid_sv1","""event"",""trial"",""time""
""fullscreenenter"",""1"",""5177""
","
","
","""event"",""trial"",""time""
""fullscreenenter"",""1"",""5177""
","
","","","","","","888.7000000476837","images/orange6.png","","","memory_trial","1","definitely_old",""
"html-keyboard-response","123","361004","0.0-18.0-0.38","8859","approach_avoid_sv1","""event"",""trial"",""time""
""fullscreenenter"",""1"",""5177""
","
","
","""event"",""trial"",""time""
""fullscreenenter"",""1"",""5177""
","
","","","","","","null","<div style=""font-size:60px;"">+</div>","null","","fixation","","",""
"memory-trial","124","362823","0.0-18.0-1.38","8859","approach_avoid_sv1","""event"",""trial"",""time""
""fullscreenenter"",""1"",""5177""
","
","
","""event"",""trial"",""time""
""fullscreenenter"",""1"",""5177""
","
","","","","","","815.5","images/truck6.png","","","memory_trial","1","definitely_old",""
"html-keyboard-response","125","363324","0.0-18.0-0.39","8859","approach_avoid_sv1","""event"",""trial"",""time""
""fullscreenenter"",""1"",""5177""
","
","
","""event"",""trial"",""time""
""fullscreenenter"",""1"",""5177""
","
","","","","","","null","<div style=""font-size:60px;"">+</div>","null","","fixation","","",""
"memory-trial","126","365003","0.0-18.0-1.39","8859","approach_avoid_sv1","""event"",""trial"",""time""
""fullscreenenter"",""1"",""5177""
","
","
","""event"",""trial"",""time""
""fullscreenenter"",""1"",""5177""
","
","","","","","","676.4000000953674","images/banana7.png","","","memory_trial","1","definitely_old",""
"html-keyboard-response","127","365505","0.0-18.0-0.40","8859","approach_avoid_sv1","""event"",""trial"",""time""
""fullscreenenter"",""1"",""5177""
","
","
","""event"",""trial"",""time""
""fullscreenenter"",""1"",""5177""
","
","","","","","","null","<div style=""font-size:60px;"">+</div>","null","","fixation","","",""
"memory-trial","128","367452","0.0-18.0-1.40","8859","approach_avoid_sv1","""event"",""trial"",""time""
""fullscreenenter"",""1"",""5177""
","
","
","""event"",""trial"",""time""
""fullscreenenter"",""1"",""5177""
","
","","","","","","943","images/dog3.png","","","memory_trial","1","definitely_old",""
"html-keyboard-response","129","367953","0.0-18.0-0.41","8859","approach_avoid_sv1","""event"",""trial"",""time""
""fullscreenenter"",""1"",""5177""
","
","
","""event"",""trial"",""time""
""fullscreenenter"",""1"",""5177""
","
","","","","","","null","<div style=""font-size:60px;"">+</div>","null","","fixation","","",""
"memory-trial","130","369905","0.0-18.0-1.41","8859","approach_avoid_sv1","""event"",""trial"",""time""
""fullscreenenter"",""1"",""5177""
","
","
","""event"",""trial"",""time""
""fullscreenenter"",""1"",""5177""
","
","","","","","","948.1000001430511","images/cow1.png","","","memory_trial","1","definitely_old",""
"html-button-response","131","373262","0.0-18.0-2.41-0.41","8859","approach_avoid_sv1","""event"",""trial"",""time""
""fullscreenenter"",""1"",""5177""
","
","
","""event"",""trial"",""time""
""fullscreenenter"",""1"",""5177""
","
","","","","","","3356.9000000953674","<p> Take a break! </p><p> Click the button to continue. </p>","0","","break","","",""
"html-keyboard-response","132","373765","0.0-18.0-0.42","8859","approach_avoid_sv1","""event"",""trial"",""time""
""fullscreenenter"",""1"",""5177""
","
","
","""event"",""trial"",""time""
""fullscreenenter"",""1"",""5177""
","
","","","","","","null","<div style=""font-size:60px;"">+</div>","null","","fixation","","",""
"memory-trial","133","376397","0.0-18.0-1.42","8859","approach_avoid_sv1","""event"",""trial"",""time""
""fullscreenenter"",""1"",""5177""
","
","
","""event"",""trial"",""time""
""fullscreenenter"",""1"",""5177""
","
","","","","","","1629.4000000953674","images/goat8.png","","","memory_trial","1","definitely_old",""
"html-keyboard-response","134","376900","0.0-18.0-0.43","8859","approach_avoid_sv1","""event"",""trial"",""time""
""fullscreenenter"",""1"",""5177""
","
","
","""event"",""trial"",""time""
""fullscreenenter"",""1"",""5177""
","
","","","","","","null","<div style=""font-size:60px;"">+</div>","null","","fixation","","",""
"memory-trial","135","379030","0.0-18.0-1.43","8859","approach_avoid_sv1","""event"",""trial"",""time""
""fullscreenenter"",""1"",""5177""
","
","
","""event"",""trial"",""time""
""fullscreenenter"",""1"",""5177""
","
","","","","","","1125.2000000476837","images/sheep8.png","","","memory_trial","1","definitely_old",""
"html-keyboard-response","136","379531","0.0-18.0-0.44","8859","approach_avoid_sv1","""event"",""trial"",""time""
""fullscreenenter"",""1"",""5177""
","
","
","""event"",""trial"",""time""
""fullscreenenter"",""1"",""5177""
","
","","","","","","null","<div style=""font-size:60px;"">+</div>","null","","fixation","","",""
"memory-trial","137","381303","0.0-18.0-1.44","8859","approach_avoid_sv1","""event"",""trial"",""time""
""fullscreenenter"",""1"",""5177""
","
","
","""event"",""trial"",""time""
""fullscreenenter"",""1"",""5177""
","
","","","","","","767.5","images/goat6.png","","","memory_trial","1","definitely_old",""
"html-keyboard-response","138","381805","0.0-18.0-0.45","8859","approach_avoid_sv1","""event"",""trial"",""time""
""fullscreenenter"",""1"",""5177""
","
","
","""event"",""trial"",""time""
""fullscreenenter"",""1"",""5177""
","
","","","","","","null","<div style=""font-size:60px;"">+</div>","null","","fixation","","",""
"memory-trial","139","383627","0.0-18.0-1.45","8859","approach_avoid_sv1","""event"",""trial"",""time""
""fullscreenenter"",""1"",""5177""
","
","
","""event"",""trial"",""time""
""fullscreenenter"",""1"",""5177""
","
","","","","","","817.3000001907349","images/rodent2.png","","","memory_trial","1","definitely_old",""
"html-keyboard-response","140","384128","0.0-18.0-0.46","8859","approach_avoid_sv1","""event"",""trial"",""time""
""fullscreenenter"",""1"",""5177""
","
","
","""event"",""trial"",""time""
""fullscreenenter"",""1"",""5177""
","
","","","","","","null","<div style=""font-size:60px;"">+</div>","null","","fixation","","",""
"memory-trial","141","386848","0.0-18.0-1.46","8859","approach_avoid_sv1","""event"",""trial"",""time""
""fullscreenenter"",""1"",""5177""
","
","
","""event"",""trial"",""time""
""fullscreenenter"",""1"",""5177""
","
","","","","","","1717","images/plane1.png","","","memory_trial","3","maybe_new",""
"html-keyboard-response","142","387351","0.0-18.0-0.47","8859","approach_avoid_sv1","""event"",""trial"",""time""
""fullscreenenter"",""1"",""5177""
","
","
","""event"",""trial"",""time""
""fullscreenenter"",""1"",""5177""
","
","","","","","","null","<div style=""font-size:60px;"">+</div>","null","","fixation","","",""
"memory-trial","143","389860","0.0-18.0-1.47","8859","approach_avoid_sv1","""event"",""trial"",""time""
""fullscreenenter"",""1"",""5177""
","
","
","""event"",""trial"",""time""
""fullscreenenter"",""1"",""5177""
","
","","","","","","1506","images/truck2.png","","","memory_trial","3","maybe_new",""
"html-keyboard-response","144","390362","0.0-18.0-0.48","8859","approach_avoid_sv1","""event"",""trial"",""time""
""fullscreenenter"",""1"",""5177""
","
","
","""event"",""trial"",""time""
""fullscreenenter"",""1"",""5177""
","
","","","","","","null","<div style=""font-size:60px;"">+</div>","null","","fixation","","",""
"memory-trial","145","392843","0.0-18.0-1.48","8859","approach_avoid_sv1","""event"",""trial"",""time""
""fullscreenenter"",""1"",""5177""
","
","
","""event"",""trial"",""time""
""fullscreenenter"",""1"",""5177""
","
","","","","","","1477.5","images/train7.png","","","memory_trial","1","definitely_old",""
"html-keyboard-response","146","393346","0.0-18.0-0.49","8859","approach_avoid_sv1","""event"",""trial"",""time""
""fullscreenenter"",""1"",""5177""
","
","
","""event"",""trial"",""time""
""fullscreenenter"",""1"",""5177""
","
","","","","","","null","<div style=""font-size:60px;"">+</div>","null","","fixation","","",""
"memory-trial","147","395253","0.0-18.0-1.49","8859","approach_avoid_sv1","""event"",""trial"",""time""
""fullscreenenter"",""1"",""5177""
","
","
","""event"",""trial"",""time""
""fullscreenenter"",""1"",""5177""
","
","","","","","","901.7999999523163","images/cow6.png","","","memory_trial","1","definitely_old",""
"html-keyboard-response","148","395755","0.0-18.0-0.50","8859","approach_avoid_sv1","""event"",""trial"",""time""
""fullscreenenter"",""1"",""5177""
","
","
","""event"",""trial"",""time""
""fullscreenenter"",""1"",""5177""
","
","","","","","","null","<div style=""font-size:60px;"">+</div>","null","","fixation","","",""
"memory-trial","149","398652","0.0-18.0-1.50","8859","approach_avoid_sv1","""event"",""trial"",""time""
""fullscreenenter"",""1"",""5177""
","
","
","""event"",""trial"",""time""
""fullscreenenter"",""1"",""5177""
","
","","","","","","1895.1000001430511","images/sheep5.png","","","memory_trial","2","maybe_old",""
"html-keyboard-response","150","399154","0.0-18.0-0.51","8859","approach_avoid_sv1","""event"",""trial"",""time""
""fullscreenenter"",""1"",""5177""
","
","
","""event"",""trial"",""time""
""fullscreenenter"",""1"",""5177""
","
","","","","","","null","<div style=""font-size:60px;"">+</div>","null","","fixation","","",""
"memory-trial","151","401761","0.0-18.0-1.51","8859","approach_avoid_sv1","""event"",""trial"",""time""
""fullscreenenter"",""1"",""5177""
","
","
","""event"",""trial"",""time""
""fullscreenenter"",""1"",""5177""
","
","","","","","","1600.7000000476837","images/boat5.png","","","memory_trial","4","definitely_new",""
"html-keyboard-response","152","402262","0.0-18.0-0.52","8859","approach_avoid_sv1","""event"",""trial"",""time""
""fullscreenenter"",""1"",""5177""
","
","
","""event"",""trial"",""time""
""fullscreenenter"",""1"",""5177""
","
","","","","","","null","<div style=""font-size:60px;"">+</div>","null","","fixation","","",""
"memory-trial","153","404387","0.0-18.0-1.52","8859","approach_avoid_sv1","""event"",""trial"",""time""
""fullscreenenter"",""1"",""5177""
","
","
","""event"",""trial"",""time""
""fullscreenenter"",""1"",""5177""
","
","","","","","","1120.6000001430511","images/rodent4.png","","","memory_trial","2","maybe_old",""
"html-keyboard-response","154","404889","0.0-18.0-0.53","8859","approach_avoid_sv1","""event"",""trial"",""time""
""fullscreenenter"",""1"",""5177""
","
","
","""event"",""trial"",""time""
""fullscreenenter"",""1"",""5177""
","
","","","","","","null","<div style=""font-size:60px;"">+</div>","null","","fixation","","",""
"memory-trial","155","406975","0.0-18.0-1.53","8859","approach_avoid_sv1","""event"",""trial"",""time""
""fullscreenenter"",""1"",""5177""
","
","
","""event"",""trial"",""time""
""fullscreenenter"",""1"",""5177""
","
","","","","","","1080.5999999046326","images/table8.png","","","memory_trial","1","definitely_old",""
"html-keyboard-response","156","407477","0.0-18.0-0.54","8859","approach_avoid_sv1","""event"",""trial"",""time""
""fullscreenenter"",""1"",""5177""
","
","
","""event"",""trial"",""time""
""fullscreenenter"",""1"",""5177""
","
","","","","","","null","<div style=""font-size:60px;"">+</div>","null","","fixation","","",""
"memory-trial","157","409380","0.0-18.0-1.54","8859","approach_avoid_sv1","""event"",""trial"",""time""
""fullscreenenter"",""1"",""5177""
","
","
","""event"",""trial"",""time""
""fullscreenenter"",""1"",""5177""
","
","","","","","","894.7000000476837","images/apple7.png","","","memory_trial","1","definitely_old",""
"html-keyboard-response","158","409882","0.0-18.0-0.55","8859","approach_avoid_sv1","""event"",""trial"",""time""
""fullscreenenter"",""1"",""5177""
","
","
","""event"",""trial"",""time""
""fullscreenenter"",""1"",""5177""
","
","","","","","","null","<div style=""font-size:60px;"">+</div>","null","","fixation","","",""
"memory-trial","159","411695","0.0-18.0-1.55","8859","approach_avoid_sv1","""event"",""trial"",""time""
""fullscreenenter"",""1"",""5177""
","
","
","""event"",""trial"",""time""
""fullscreenenter"",""1"",""5177""
","
","","","","","","809.5999999046326","images/train8.png","","","memory_trial","1","definitely_old",""
"html-keyboard-response","160","412197","0.0-18.0-0.56","8859","approach_avoid_sv1","""event"",""trial"",""time""
""fullscreenenter"",""1"",""5177""
","
","
","""event"",""trial"",""time""
""fullscreenenter"",""1"",""5177""
","
","","","","","","null","<div style=""font-size:60px;"">+</div>","null","","fixation","","",""
"memory-trial","161","414585","0.0-18.0-1.56","8859","approach_avoid_sv1","""event"",""trial"",""time""
""fullscreenenter"",""1"",""5177""
","
","
","""event"",""trial"",""time""
""fullscreenenter"",""1"",""5177""
","
","","","","","","1384.8000001907349","images/boat2.png","","","memory_trial","2","maybe_old",""
"html-keyboard-response","162","415087","0.0-18.0-0.57","8859","approach_avoid_sv1","""event"",""trial"",""time""
""fullscreenenter"",""1"",""5177""
","
","
","""event"",""trial"",""time""
""fullscreenenter"",""1"",""5177""
","
","","","","","","null","<div style=""font-size:60px;"">+</div>","null","","fixation","","",""
"memory-trial","163","416860","0.0-18.0-1.57","8859","approach_avoid_sv1","""event"",""trial"",""time""
""fullscreenenter"",""1"",""5177""
","
","
","""event"",""trial"",""time""
""fullscreenenter"",""1"",""5177""
","
","","","","","","768.9000000953674","images/apple8.png","","","memory_trial","1","definitely_old",""
"html-keyboard-response","164","417363","0.0-18.0-0.58","8859","approach_avoid_sv1","""event"",""trial"",""time""
""fullscreenenter"",""1"",""5177""
","
","
","""event"",""trial"",""time""
""fullscreenenter"",""1"",""5177""
","
","","","","","","null","<div style=""font-size:60px;"">+</div>","null","","fixation","","",""
"memory-trial","165","419110","0.0-18.0-1.58","8859","approach_avoid_sv1","""event"",""trial"",""time""
""fullscreenenter"",""1"",""5177""
","
","
","""event"",""trial"",""time""
""fullscreenenter"",""1"",""5177""
","
","","","","","","744.5999999046326","images/cat3.png","","","memory_trial","1","definitely_old",""
"html-keyboard-response","166","419612","0.0-18.0-0.59","8859","approach_avoid_sv1","""event"",""trial"",""time""
""fullscreenenter"",""1"",""5177""
","
","
","""event"",""trial"",""time""
""fullscreenenter"",""1"",""5177""
","
","","","","","","null","<div style=""font-size:60px;"">+</div>","null","","fixation","","",""
"memory-trial","167","421485","0.0-18.0-1.59","8859","approach_avoid_sv1","""event"",""trial"",""time""
""fullscreenenter"",""1"",""5177""
","
","
","""event"",""trial"",""time""
""fullscreenenter"",""1"",""5177""
","
","","","","","","869.6000001430511","images/cow5.png","","","memory_trial","1","definitely_old",""
"html-keyboard-response","168","421987","0.0-18.0-0.60","8859","approach_avoid_sv1","""event"",""trial"",""time""
""fullscreenenter"",""1"",""5177""
","
","
","""event"",""trial"",""time""
""fullscreenenter"",""1"",""5177""
","
","","","","","","null","<div style=""font-size:60px;"">+</div>","null","","fixation","","",""
"memory-trial","169","423745","0.0-18.0-1.60","8859","approach_avoid_sv1","""event"",""trial"",""time""
""fullscreenenter"",""1"",""5177""
","
","
","""event"",""trial"",""time""
""fullscreenenter"",""1"",""5177""
","
","","","","","","754","images/cat8.png","","","memory_trial","1","definitely_old",""
"html-keyboard-response","170","424260","0.0-18.0-0.61","8859","approach_avoid_sv1","""event"",""trial"",""time""
""fullscreenenter"",""1"",""5177""
","
","
","""event"",""trial"",""time""
""fullscreenenter"",""1"",""5177""
","
","","","","","","null","<div style=""font-size:60px;"">+</div>","null","","fixation","","",""
"memory-trial","171","426112","0.0-18.0-1.61","8859","approach_avoid_sv1","""event"",""trial"",""time""
""fullscreenenter"",""1"",""5177""
","
","
","""event"",""trial"",""time""
""fullscreenenter"",""1"",""5177""
","
","","","","","","848","images/straw6.png","","","memory_trial","1","definitely_old",""
"html-keyboard-response","172","426613","0.0-18.0-0.62","8859","approach_avoid_sv1","""event"",""trial"",""time""
""fullscreenenter"",""1"",""5177""
","
","
","""event"",""trial"",""time""
""fullscreenenter"",""1"",""5177""
","
","","","","","","null","<div style=""font-size:60px;"">+</div>","null","","fixation","","",""
"memory-trial","173","428379","0.0-18.0-1.62","8859","approach_avoid_sv1","""event"",""trial"",""time""
""fullscreenenter"",""1"",""5177""
","
","
","""event"",""trial"",""time""
""fullscreenenter"",""1"",""5177""
","
","","","","","","760.2999999523163","images/rodent7.png","","","memory_trial","1","definitely_old",""
"html-keyboard-response","174","428881","0.0-18.0-0.63","8859","approach_avoid_sv1","""event"",""trial"",""time""
""fullscreenenter"",""1"",""5177""
","
","
","""event"",""trial"",""time""
""fullscreenenter"",""1"",""5177""
","
","","","","","","null","<div style=""font-size:60px;"">+</div>","null","","fixation","","",""
"memory-trial","175","430639","0.0-18.0-1.63","8859","approach_avoid_sv1","""event"",""trial"",""time""
""fullscreenenter"",""1"",""5177""
","
","
","""event"",""trial"",""time""
""fullscreenenter"",""1"",""5177""
","
","","","","","","755.4000000953674","images/straw4.png","","","memory_trial","1","definitely_old",""
"html-keyboard-response","176","431142","0.0-18.0-0.64","8859","approach_avoid_sv1","""event"",""trial"",""time""
""fullscreenenter"",""1"",""5177""
","
","
","""event"",""trial"",""time""
""fullscreenenter"",""1"",""5177""
","
","","","","","","null","<div style=""font-size:60px;"">+</div>","null","","fixation","","",""
"memory-trial","177","432755","0.0-18.0-1.64","8859","approach_avoid_sv1","""event"",""trial"",""time""
""fullscreenenter"",""1"",""5177""
","
","
","""event"",""trial"",""time""
""fullscreenenter"",""1"",""5177""
","
","","","","","","610.3000001907349","images/chair2.png","","","memory_trial","1","definitely_old",""
"html-keyboard-response","178","433257","0.0-18.0-0.65","8859","approach_avoid_sv1","""event"",""trial"",""time""
""fullscreenenter"",""1"",""5177""
","
","
","""event"",""trial"",""time""
""fullscreenenter"",""1"",""5177""
","
","","","","","","null","<div style=""font-size:60px;"">+</div>","null","","fixation","","",""
"memory-trial","179","434932","0.0-18.0-1.65","8859","approach_avoid_sv1","""event"",""trial"",""time""
""fullscreenenter"",""1"",""5177""
","
","
","""event"",""trial"",""time""
""fullscreenenter"",""1"",""5177""
","
","","","","","","670.5999999046326","images/truck8.png","","","memory_trial","1","definitely_old",""
"html-keyboard-response","180","435434","0.0-18.0-0.66","8859","approach_avoid_sv1","""event"",""trial"",""time""
""fullscreenenter"",""1"",""5177""
","
","
","""event"",""trial"",""time""
""fullscreenenter"",""1"",""5177""
","
","","","","","","null","<div style=""font-size:60px;"">+</div>","null","","fixation","","",""
"memory-trial","181","437286","0.0-18.0-1.66","8859","approach_avoid_sv1","""event"",""trial"",""time""
""fullscreenenter"",""1"",""5177""
","
","
","""event"",""trial"",""time""
""fullscreenenter"",""1"",""5177""
","
","","","","","","847.2999999523163","images/tree4.png","","","memory_trial","1","definitely_old",""
"html-keyboard-response","182","437788","0.0-18.0-0.67","8859","approach_avoid_sv1","""event"",""trial"",""time""
""fullscreenenter"",""1"",""5177""
","
","
","""event"",""trial"",""time""
""fullscreenenter"",""1"",""5177""
","
","","","","","","null","<div style=""font-size:60px;"">+</div>","null","","fixation","","",""
"memory-trial","183","439985","0.0-18.0-1.67","8859","approach_avoid_sv1","""event"",""trial"",""time""
""fullscreenenter"",""1"",""5177""
","
","
","""event"",""trial"",""time""
""fullscreenenter"",""1"",""5177""
","
","","","","","","1193.2999999523163","images/chair4.png","","","memory_trial","2","maybe_old",""
"html-keyboard-response","184","440487","0.0-18.0-0.68","8859","approach_avoid_sv1","""event"",""trial"",""time""
""fullscreenenter"",""1"",""5177""
","
","
","""event"",""trial"",""time""
""fullscreenenter"",""1"",""5177""
","
","","","","","","null","<div style=""font-size:60px;"">+</div>","null","","fixation","","",""
"memory-trial","185","442550","0.0-18.0-1.68","8859","approach_avoid_sv1","""event"",""trial"",""time""
""fullscreenenter"",""1"",""5177""
","
","
","""event"",""trial"",""time""
""fullscreenenter"",""1"",""5177""
","
","","","","","","1057.4000000953674","images/bush8.png","","","memory_trial","2","maybe_old",""
"html-keyboard-response","186","443051","0.0-18.0-0.69","8859","approach_avoid_sv1","""event"",""trial"",""time""
""fullscreenenter"",""1"",""5177""
","
","
","""event"",""trial"",""time""
""fullscreenenter"",""1"",""5177""
","
","","","","","","null","<div style=""font-size:60px;"">+</div>","null","","fixation","","",""
"memory-trial","187","445226","0.0-18.0-1.69","8859","approach_avoid_sv1","""event"",""trial"",""time""
""fullscreenenter"",""1"",""5177""
","
","
","""event"",""trial"",""time""
""fullscreenenter"",""1"",""5177""
","
","","","","","","1172.0999999046326","images/goat1.png","","","memory_trial","2","maybe_old",""
"html-keyboard-response","188","445728","0.0-18.0-0.70","8859","approach_avoid_sv1","""event"",""trial"",""time""
""fullscreenenter"",""1"",""5177""
","
","
","""event"",""trial"",""time""
""fullscreenenter"",""1"",""5177""
","
","","","","","","null","<div style=""font-size:60px;"">+</div>","null","","fixation","","",""
"memory-trial","189","447872","0.0-18.0-1.70","8859","approach_avoid_sv1","""event"",""trial"",""time""
""fullscreenenter"",""1"",""5177""
","
","
","""event"",""trial"",""time""
""fullscreenenter"",""1"",""5177""
","
","","","","","","1139.9000000953674","images/table1.png","","","memory_trial","1","definitely_old",""
"html-keyboard-response","190","448374","0.0-18.0-0.71","8859","approach_avoid_sv1","""event"",""trial"",""time""
""fullscreenenter"",""1"",""5177""
","
","
","""event"",""trial"",""time""
""fullscreenenter"",""1"",""5177""
","
","","","","","","null","<div style=""font-size:60px;"">+</div>","null","","fixation","","",""
"memory-trial","191","450128","0.0-18.0-1.71","8859","approach_avoid_sv1","""event"",""trial"",""time""
""fullscreenenter"",""1"",""5177""
","
","
","""event"",""trial"",""time""
""fullscreenenter"",""1"",""5177""
","
","","","","","","750.5999999046326","images/cactus2.png","","","memory_trial","1","definitely_old",""
"html-keyboard-response","192","450630","0.0-18.0-0.72","8859","approach_avoid_sv1","""event"",""trial"",""time""
""fullscreenenter"",""1"",""5177""
","
","
","""event"",""trial"",""time""
""fullscreenenter"",""1"",""5177""
","
","","","","","","null","<div style=""font-size:60px;"">+</div>","null","","fixation","","",""
"memory-trial","193","452970","0.0-18.0-1.72","8859","approach_avoid_sv1","""event"",""trial"",""time""
""fullscreenenter"",""1"",""5177""
","
","
","""event"",""trial"",""time""
""fullscreenenter"",""1"",""5177""
","
","","","","","","1334.9000000953674","images/flower7.png","","","memory_trial","4","definitely_new",""
"html-keyboard-response","194","453473","0.0-18.0-0.73","8859","approach_avoid_sv1","""event"",""trial"",""time""
""fullscreenenter"",""1"",""5177""
","
","
","""event"",""trial"",""time""
""fullscreenenter"",""1"",""5177""
","
","","","","","","null","<div style=""font-size:60px;"">+</div>","null","","fixation","","",""
"memory-trial","195","455518","0.0-18.0-1.73","8859","approach_avoid_sv1","""event"",""trial"",""time""
""fullscreenenter"",""1"",""5177""
","
","
","""event"",""trial"",""time""
""fullscreenenter"",""1"",""5177""
","
","","","","","","1040.7999999523163","images/horse5.png","","","memory_trial","2","maybe_old",""
"html-keyboard-response","196","456020","0.0-18.0-0.74","8859","approach_avoid_sv1","""event"",""trial"",""time""
""fullscreenenter"",""1"",""5177""
","
","
","""event"",""trial"",""time""
""fullscreenenter"",""1"",""5177""
","
","","","","","","null","<div style=""font-size:60px;"">+</div>","null","","fixation","","",""
"memory-trial","197","458057","0.0-18.0-1.74","8859","approach_avoid_sv1","""event"",""trial"",""time""
""fullscreenenter"",""1"",""5177""
","
","
","""event"",""trial"",""time""
""fullscreenenter"",""1"",""5177""
","
","","","","","","1032.7000000476837","images/plane2.png","","","memory_trial","3","maybe_new",""
"html-keyboard-response","198","458560","0.0-18.0-0.75","8859","approach_avoid_sv1","""event"",""trial"",""time""
""fullscreenenter"",""1"",""5177""
","
","
","""event"",""trial"",""time""
""fullscreenenter"",""1"",""5177""
","
","","","","","","null","<div style=""font-size:60px;"">+</div>","null","","fixation","","",""
"memory-trial","199","460748","0.0-18.0-1.75","8859","approach_avoid_sv1","""event"",""trial"",""time""
""fullscreenenter"",""1"",""5177""
","
","
","""event"",""trial"",""time""
""fullscreenenter"",""1"",""5177""
","
","","","","","","1184","images/rodent8.png","","","memory_trial","3","maybe_new",""
"html-keyboard-response","200","461251","0.0-18.0-0.76","8859","approach_avoid_sv1","""event"",""trial"",""time""
""fullscreenenter"",""1"",""5177""
","
","
","""event"",""trial"",""time""
""fullscreenenter"",""1"",""5177""
","
","","","","","","null","<div style=""font-size:60px;"">+</div>","null","","fixation","","",""
"memory-trial","201","463133","0.0-18.0-1.76","8859","approach_avoid_sv1","""event"",""trial"",""time""
""fullscreenenter"",""1"",""5177""
","
","
","""event"",""trial"",""time""
""fullscreenenter"",""1"",""5177""
","
","","","","","","879.2999999523163","images/goat3.png","","","memory_trial","2","maybe_old",""
"html-keyboard-response","202","463636","0.0-18.0-0.77","8859","approach_avoid_sv1","""event"",""trial"",""time""
""fullscreenenter"",""1"",""5177""
","
","
","""event"",""trial"",""time""
""fullscreenenter"",""1"",""5177""
","
","","","","","","null","<div style=""font-size:60px;"">+</div>","null","","fixation","","",""
"memory-trial","203","465748","0.0-18.0-1.77","8859","approach_avoid_sv1","""event"",""trial"",""time""
""fullscreenenter"",""1"",""5177""
","
","
","""event"",""trial"",""time""
""fullscreenenter"",""1"",""5177""
","
","","","","","","1107.7999999523163","images/flower5.png","","","memory_trial","4","definitely_new",""
"html-keyboard-response","204","466250","0.0-18.0-0.78","8859","approach_avoid_sv1","""event"",""trial"",""time""
""fullscreenenter"",""1"",""5177""
","
","
","""event"",""trial"",""time""
""fullscreenenter"",""1"",""5177""
","
","","","","","","null","<div style=""font-size:60px;"">+</div>","null","","fixation","","",""
"memory-trial","205","468830","0.0-18.0-1.78","8859","approach_avoid_sv1","""event"",""trial"",""time""
""fullscreenenter"",""1"",""5177""
","
","
","""event"",""trial"",""time""
""fullscreenenter"",""1"",""5177""
","
","","","","","","1576.5999999046326","images/straw3.png","","","memory_trial","2","maybe_old",""
"html-keyboard-response","206","469343","0.0-18.0-0.79","8859","approach_avoid_sv1","""event"",""trial"",""time""
""fullscreenenter"",""1"",""5177""
","
","
","""event"",""trial"",""time""
""fullscreenenter"",""1"",""5177""
","
","","","","","","null","<div style=""font-size:60px;"">+</div>","null","","fixation","","",""
"memory-trial","207","471268","0.0-18.0-1.79","8859","approach_avoid_sv1","""event"",""trial"",""time""
""fullscreenenter"",""1"",""5177""
","
","
","""event"",""trial"",""time""
""fullscreenenter"",""1"",""5177""
","
","","","","","","920.7999999523163","images/bed5.png","","","memory_trial","1","definitely_old",""
"html-keyboard-response","208","471770","0.0-18.0-0.80","8859","approach_avoid_sv1","""event"",""trial"",""time""
""fullscreenenter"",""1"",""5177""
","
","
","""event"",""trial"",""time""
""fullscreenenter"",""1"",""5177""
","
","","","","","","null","<div style=""font-size:60px;"">+</div>","null","","fixation","","",""
"memory-trial","209","474343","0.0-18.0-1.80","8859","approach_avoid_sv1","""event"",""trial"",""time""
""fullscreenenter"",""1"",""5177""
","
","
","""event"",""trial"",""time""
""fullscreenenter"",""1"",""5177""
","
","","","","","","1569.7000000476837","images/dog2.png","","","memory_trial","1","definitely_old",""
"html-keyboard-response","210","474844","0.0-18.0-0.81","8859","approach_avoid_sv1","""event"",""trial"",""time""
""fullscreenenter"",""1"",""5177""
","
","
","""event"",""trial"",""time""
""fullscreenenter"",""1"",""5177""
","
","","","","","","null","<div style=""font-size:60px;"">+</div>","null","","fixation","","",""
"memory-trial","211","478883","0.0-18.0-1.81","8859","approach_avoid_sv1","""event"",""trial"",""time""
""fullscreenenter"",""1"",""5177""
","
","
","""event"",""trial"",""time""
""fullscreenenter"",""1"",""5177""
","
","","","","","","3034.2000000476837","images/bush6.png","","","memory_trial","1","definitely_old",""
"html-keyboard-response","212","479385","0.0-18.0-0.82","8859","approach_avoid_sv1","""event"",""trial"",""time""
""fullscreenenter"",""1"",""5177""
","
","
","""event"",""trial"",""time""
""fullscreenenter"",""1"",""5177""
","
","","","","","","null","<div style=""font-size:60px;"">+</div>","null","","fixation","","",""
"memory-trial","213","482184","0.0-18.0-1.82","8859","approach_avoid_sv1","""event"",""trial"",""time""
""fullscreenenter"",""1"",""5177""
","
","
","""event"",""trial"",""time""
""fullscreenenter"",""1"",""5177""
","
","","","","","","1793.5","images/chair3.png","","","memory_trial","2","maybe_old",""
"html-keyboard-response","214","482687","0.0-18.0-0.83","8859","approach_avoid_sv1","""event"",""trial"",""time""
""fullscreenenter"",""1"",""5177""
","
","
","""event"",""trial"",""time""
""fullscreenenter"",""1"",""5177""
","
","","","","","","null","<div style=""font-size:60px;"">+</div>","null","","fixation","","",""
"memory-trial","215","484760","0.0-18.0-1.83","8859","approach_avoid_sv1","""event"",""trial"",""time""
""fullscreenenter"",""1"",""5177""
","
","
","""event"",""trial"",""time""
""fullscreenenter"",""1"",""5177""
","
","","","","","","1068.1999998092651","images/chair7.png","","","memory_trial","1","definitely_old",""
"html-keyboard-response","216","485262","0.0-18.0-0.84","8859","approach_avoid_sv1","""event"",""trial"",""time""
""fullscreenenter"",""1"",""5177""
","
","
","""event"",""trial"",""time""
""fullscreenenter"",""1"",""5177""
","
","","","","","","null","<div style=""font-size:60px;"">+</div>","null","","fixation","","",""
"memory-trial","217","487441","0.0-18.0-1.84","8859","approach_avoid_sv1","""event"",""trial"",""time""
""fullscreenenter"",""1"",""5177""
","
","
","""event"",""trial"",""time""
""fullscreenenter"",""1"",""5177""
","
","","","","","","1175.5","images/apple2.png","","","memory_trial","3","maybe_new",""
"html-keyboard-response","218","487943","0.0-18.0-0.85","8859","approach_avoid_sv1","""event"",""trial"",""time""
""fullscreenenter"",""1"",""5177""
","
","
","""event"",""trial"",""time""
""fullscreenenter"",""1"",""5177""
","
","","","","","","null","<div style=""font-size:60px;"">+</div>","null","","fixation","","",""
"memory-trial","219","490146","0.0-18.0-1.85","8859","approach_avoid_sv1","""event"",""trial"",""time""
""fullscreenenter"",""1"",""5177""
","
","
","""event"",""trial"",""time""
""fullscreenenter"",""1"",""5177""
","
","","","","","","1198.3000001907349","images/chair1.png","","","memory_trial","1","definitely_old",""
"html-keyboard-response","220","490648","0.0-18.0-0.86","8859","approach_avoid_sv1","""event"",""trial"",""time""
""fullscreenenter"",""1"",""5177""
","
","
","""event"",""trial"",""time""
""fullscreenenter"",""1"",""5177""
","
","","","","","","null","<div style=""font-size:60px;"">+</div>","null","","fixation","","",""
"memory-trial","221","493847","0.0-18.0-1.86","8859","approach_avoid_sv1","""event"",""trial"",""time""
""fullscreenenter"",""1"",""5177""
","
","
","""event"",""trial"",""time""
""fullscreenenter"",""1"",""5177""
","
","","","","","","2194.7000000476837","images/goat4.png","","","memory_trial","1","definitely_old",""
"html-keyboard-response","222","494349","0.0-18.0-0.87","8859","approach_avoid_sv1","""event"",""trial"",""time""
""fullscreenenter"",""1"",""5177""
","
","
","""event"",""trial"",""time""
""fullscreenenter"",""1"",""5177""
","
","","","","","","null","<div style=""font-size:60px;"">+</div>","null","","fixation","","",""
"memory-trial","223","496676","0.0-18.0-1.87","8859","approach_avoid_sv1","""event"",""trial"",""time""
""fullscreenenter"",""1"",""5177""
","
","
","""event"",""trial"",""time""
""fullscreenenter"",""1"",""5177""
","
","","","","","","1322.7999999523163","images/apple6.png","","","memory_trial","2","maybe_old",""
"html-keyboard-response","224","497178","0.0-18.0-0.88","8859","approach_avoid_sv1","""event"",""trial"",""time""
""fullscreenenter"",""1"",""5177""
","
","
","""event"",""trial"",""time""
""fullscreenenter"",""1"",""5177""
","
","","","","","","null","<div style=""font-size:60px;"">+</div>","null","","fixation","","",""
"memory-trial","225","500861","0.0-18.0-1.88","8859","approach_avoid_sv1","""event"",""trial"",""time""
""fullscreenenter"",""1"",""5177""
","
","
","""event"",""trial"",""time""
""fullscreenenter"",""1"",""5177""
","
","","","","","","2678.399999856949","images/banana6.png","","","memory_trial","2","maybe_old",""
"html-keyboard-response","226","501363","0.0-18.0-0.89","8859","approach_avoid_sv1","""event"",""trial"",""time""
""fullscreenenter"",""1"",""5177""
","
","
","""event"",""trial"",""time""
""fullscreenenter"",""1"",""5177""
","
","","","","","","null","<div style=""font-size:60px;"">+</div>","null","","fixation","","",""
"memory-trial","227","504253","0.0-18.0-1.89","8859","approach_avoid_sv1","""event"",""trial"",""time""
""fullscreenenter"",""1"",""5177""
","
","
","""event"",""trial"",""time""
""fullscreenenter"",""1"",""5177""
","
","","","","","","1885.0999999046326","images/cactus7.png","","","memory_trial","1","definitely_old",""
"html-keyboard-response","228","504755","0.0-18.0-0.90","8859","approach_avoid_sv1","""event"",""trial"",""time""
""fullscreenenter"",""1"",""5177""
","
","
","""event"",""trial"",""time""
""fullscreenenter"",""1"",""5177""
","
","","","","","","null","<div style=""font-size:60px;"">+</div>","null","","fixation","","",""
"memory-trial","229","508190","0.0-18.0-1.90","8859","approach_avoid_sv1","""event"",""trial"",""time""
""fullscreenenter"",""1"",""5177""
","
","
","""event"",""trial"",""time""
""fullscreenenter"",""1"",""5177""
","
","","","","","","2430.600000143051","images/chair6.png","","","memory_trial","2","maybe_old",""
"html-keyboard-response","230","508692","0.0-18.0-0.91","8859","approach_avoid_sv1","""event"",""trial"",""time""
""fullscreenenter"",""1"",""5177""
","
","
","""event"",""trial"",""time""
""fullscreenenter"",""1"",""5177""
","
","","","","","","null","<div style=""font-size:60px;"">+</div>","null","","fixation","","",""
"memory-trial","231","511250","0.0-18.0-1.91","8859","approach_avoid_sv1","""event"",""trial"",""time""
""fullscreenenter"",""1"",""5177""
","
","
","""event"",""trial"",""time""
""fullscreenenter"",""1"",""5177""
","
","","","","","","1553.3000001907349","images/orange1.png","","","memory_trial","1","definitely_old",""
"html-button-response","232","539624","0.0-18.0-2.91-0.91","8859","approach_avoid_sv1","""event"",""trial"",""time""
""fullscreenenter"",""1"",""5177""
","
","
","""event"",""trial"",""time""
""fullscreenenter"",""1"",""5177""
","
","","","","","","28372.89999985695","<p> Take a break! </p><p> Click the button to continue. </p>","0","","break","","",""
"html-keyboard-response","233","540126","0.0-18.0-0.92","8859","approach_avoid_sv1","""event"",""trial"",""time""
""fullscreenenter"",""1"",""5177""
","
","
","""event"",""trial"",""time""
""fullscreenenter"",""1"",""5177""
","
","","","","","","null","<div style=""font-size:60px;"">+</div>","null","","fixation","","",""
"memory-trial","234","542914","0.0-18.0-1.92","8859","approach_avoid_sv1","""event"",""trial"",""time""
""fullscreenenter"",""1"",""5177""
","
","
","""event"",""trial"",""time""
""fullscreenenter"",""1"",""5177""
","
","","","","","","1783","images/rabbit1.png","","","memory_trial","2","maybe_old",""
"html-keyboard-response","235","543417","0.0-18.0-0.93","8859","approach_avoid_sv1","""event"",""trial"",""time""
""fullscreenenter"",""1"",""5177""
","
","
","""event"",""trial"",""time""
""fullscreenenter"",""1"",""5177""
","
","","","","","","null","<div style=""font-size:60px;"">+</div>","null","","fixation","","",""
"memory-trial","236","545137","0.0-18.0-1.93","8859","approach_avoid_sv1","""event"",""trial"",""time""
""fullscreenenter"",""1"",""5177""
","
","
","""event"",""trial"",""time""
""fullscreenenter"",""1"",""5177""
","
","","","","","","716.7000000476837","images/orange7.png","","","memory_trial","1","definitely_old",""
"html-keyboard-response","237","545639","0.0-18.0-0.94","8859","approach_avoid_sv1","""event"",""trial"",""time""
""fullscreenenter"",""1"",""5177""
","
","
","""event"",""trial"",""time""
""fullscreenenter"",""1"",""5177""
","
","","","","","","null","<div style=""font-size:60px;"">+</div>","null","","fixation","","",""
"memory-trial","238","547938","0.0-18.0-1.94","8859","approach_avoid_sv1","""event"",""trial"",""time""
""fullscreenenter"",""1"",""5177""
","
","
","""event"",""trial"",""time""
""fullscreenenter"",""1"",""5177""
","
","","","","","","1295.2999999523163","images/horse7.png","","","memory_trial","3","maybe_new",""
"html-keyboard-response","239","548440","0.0-18.0-0.95","8859","approach_avoid_sv1","""event"",""trial"",""time""
""fullscreenenter"",""1"",""5177""
","
","
","""event"",""trial"",""time""
""fullscreenenter"",""1"",""5177""
","
","","","","","","null","<div style=""font-size:60px;"">+</div>","null","","fixation","","",""
"memory-trial","240","550419","0.0-18.0-1.95","8859","approach_avoid_sv1","""event"",""trial"",""time""
""fullscreenenter"",""1"",""5177""
","
","
","""event"",""trial"",""time""
""fullscreenenter"",""1"",""5177""
","
","","","","","","974.7999999523163","images/sofa6.png","","","memory_trial","1","definitely_old",""
"html-keyboard-response","241","550920","0.0-18.0-0.96","8859","approach_avoid_sv1","""event"",""trial"",""time""
""fullscreenenter"",""1"",""5177""
","
","
","""event"",""trial"",""time""
""fullscreenenter"",""1"",""5177""
","
","","","","","","null","<div style=""font-size:60px;"">+</div>","null","","fixation","","",""
"memory-trial","242","553509","0.0-18.0-1.96","8859","approach_avoid_sv1","""event"",""trial"",""time""
""fullscreenenter"",""1"",""5177""
","
","
","""event"",""trial"",""time""
""fullscreenenter"",""1"",""5177""
","
","","","","","","1586.2999999523163","images/sheep7.png","","","memory_trial","4","definitely_new",""
"html-keyboard-response","243","554012","0.0-18.0-0.97","8859","approach_avoid_sv1","""event"",""trial"",""time""
""fullscreenenter"",""1"",""5177""
","
","
","""event"",""trial"",""time""
""fullscreenenter"",""1"",""5177""
","
","","","","","","null","<div style=""font-size:60px;"">+</div>","null","","fixation","","",""
"memory-trial","244","556012","0.0-18.0-1.97","8859","approach_avoid_sv1","""event"",""trial"",""time""
""fullscreenenter"",""1"",""5177""
","
","
","""event"",""trial"",""time""
""fullscreenenter"",""1"",""5177""
","
","","","","","","996.0999999046326","images/rodent1.png","","","memory_trial","1","definitely_old",""
"html-keyboard-response","245","556514","0.0-18.0-0.98","8859","approach_avoid_sv1","""event"",""trial"",""time""
""fullscreenenter"",""1"",""5177""
","
","
","""event"",""trial"",""time""
""fullscreenenter"",""1"",""5177""
","
","","","","","","null","<div style=""font-size:60px;"">+</div>","null","","fixation","","",""
"memory-trial","246","558536","0.0-18.0-1.98","8859","approach_avoid_sv1","""event"",""trial"",""time""
""fullscreenenter"",""1"",""5177""
","
","
","""event"",""trial"",""time""
""fullscreenenter"",""1"",""5177""
","
","","","","","","1016.8000001907349","images/sofa4.png","","","memory_trial","1","definitely_old",""
"html-keyboard-response","247","559039","0.0-18.0-0.99","8859","approach_avoid_sv1","""event"",""trial"",""time""
""fullscreenenter"",""1"",""5177""
","
","
","""event"",""trial"",""time""
""fullscreenenter"",""1"",""5177""
","
","","","","","","null","<div style=""font-size:60px;"">+</div>","null","","fixation","","",""
"memory-trial","248","561388","0.0-18.0-1.99","8859","approach_avoid_sv1","""event"",""trial"",""time""
""fullscreenenter"",""1"",""5177""
","
","
","""event"",""trial"",""time""
""fullscreenenter"",""1"",""5177""
","
","","","","","","1345.5999999046326","images/dog8.png","","","memory_trial","4","definitely_new",""
"html-keyboard-response","249","561891","0.0-18.0-0.100","8859","approach_avoid_sv1","""event"",""trial"",""time""
""fullscreenenter"",""1"",""5177""
","
","
","""event"",""trial"",""time""
""fullscreenenter"",""1"",""5177""
","
","","","","","","null","<div style=""font-size:60px;"">+</div>","null","","fixation","","",""
"memory-trial","250","564051","0.0-18.0-1.100","8859","approach_avoid_sv1","""event"",""trial"",""time""
""fullscreenenter"",""1"",""5177""
","
","
","""event"",""trial"",""time""
""fullscreenenter"",""1"",""5177""
","
","","","","","","1155.7999999523163","images/train4.png","","","memory_trial","1","definitely_old",""
"html-keyboard-response","251","564553","0.0-18.0-0.101","8859","approach_avoid_sv1","""event"",""trial"",""time""
""fullscreenenter"",""1"",""5177""
","
","
","""event"",""trial"",""time""
""fullscreenenter"",""1"",""5177""
","
","","","","","","null","<div style=""font-size:60px;"">+</div>","null","","fixation","","",""
"memory-trial","252","566391","0.0-18.0-1.101","8859","approach_avoid_sv1","""event"",""trial"",""time""
""fullscreenenter"",""1"",""5177""
","
","
","""event"",""trial"",""time""
""fullscreenenter"",""1"",""5177""
","
","","","","","","833.0999999046326","images/bed8.png","","","memory_trial","1","definitely_old",""
"html-keyboard-response","253","566893","0.0-18.0-0.102","8859","approach_avoid_sv1","""event"",""trial"",""time""
""fullscreenenter"",""1"",""5177""
","
","
","""event"",""trial"",""time""
""fullscreenenter"",""1"",""5177""
","
","","","","","","null","<div style=""font-size:60px;"">+</div>","null","","fixation","","",""
"memory-trial","254","568755","0.0-18.0-1.102","8859","approach_avoid_sv1","""event"",""trial"",""time""
""fullscreenenter"",""1"",""5177""
","
","
","""event"",""trial"",""time""
""fullscreenenter"",""1"",""5177""
","
","","","","","","858.5","images/bed4.png","","","memory_trial","1","definitely_old",""
"html-keyboard-response","255","569258","0.0-18.0-0.103","8859","approach_avoid_sv1","""event"",""trial"",""time""
""fullscreenenter"",""1"",""5177""
","
","
","""event"",""trial"",""time""
""fullscreenenter"",""1"",""5177""
","
","","","","","","null","<div style=""font-size:60px;"">+</div>","null","","fixation","","",""
"memory-trial","256","571053","0.0-18.0-1.103","8859","approach_avoid_sv1","""event"",""trial"",""time""
""fullscreenenter"",""1"",""5177""
","
","
","""event"",""trial"",""time""
""fullscreenenter"",""1"",""5177""
","
","","","","","","792.2999999523163","images/cow3.png","","","memory_trial","1","definitely_old",""
"html-keyboard-response","257","571555","0.0-18.0-0.104","8859","approach_avoid_sv1","""event"",""trial"",""time""
""fullscreenenter"",""1"",""5177""
","
","
","""event"",""trial"",""time""
""fullscreenenter"",""1"",""5177""
","
","","","","","","null","<div style=""font-size:60px;"">+</div>","null","","fixation","","",""
"memory-trial","258","573444","0.0-18.0-1.104","8859","approach_avoid_sv1","""event"",""trial"",""time""
""fullscreenenter"",""1"",""5177""
","
","
","""event"",""trial"",""time""
""fullscreenenter"",""1"",""5177""
","
","","","","","","884.5","images/straw2.png","","","memory_trial","1","definitely_old",""
"html-keyboard-response","259","573946","0.0-18.0-0.105","8859","approach_avoid_sv1","""event"",""trial"",""time""
""fullscreenenter"",""1"",""5177""
","
","
","""event"",""trial"",""time""
""fullscreenenter"",""1"",""5177""
","
","","","","","","null","<div style=""font-size:60px;"">+</div>","null","","fixation","","",""
"memory-trial","260","576084","0.0-18.0-1.105","8859","approach_avoid_sv1","""event"",""trial"",""time""
""fullscreenenter"",""1"",""5177""
","
","
","""event"",""trial"",""time""
""fullscreenenter"",""1"",""5177""
","
","","","","","","1134.5","images/straw1.png","","","memory_trial","1","definitely_old",""
"html-keyboard-response","261","576587","0.0-18.0-0.106","8859","approach_avoid_sv1","""event"",""trial"",""time""
""fullscreenenter"",""1"",""5177""
","
","
","""event"",""trial"",""time""
""fullscreenenter"",""1"",""5177""
","
","","","","","","null","<div style=""font-size:60px;"">+</div>","null","","fixation","","",""
"memory-trial","262","578490","0.0-18.0-1.106","8859","approach_avoid_sv1","""event"",""trial"",""time""
""fullscreenenter"",""1"",""5177""
","
","
","""event"",""trial"",""time""
""fullscreenenter"",""1"",""5177""
","
","","","","","","898.3999998569489","images/bed3.png","","","memory_trial","2","maybe_old",""
"html-keyboard-response","263","578992","0.0-18.0-0.107","8859","approach_avoid_sv1","""event"",""trial"",""time""
""fullscreenenter"",""1"",""5177""
","
","
","""event"",""trial"",""time""
""fullscreenenter"",""1"",""5177""
","
","","","","","","null","<div style=""font-size:60px;"">+</div>","null","","fixation","","",""
"memory-trial","264","581298","0.0-18.0-1.107","8859","approach_avoid_sv1","""event"",""trial"",""time""
""fullscreenenter"",""1"",""5177""
","
","
","""event"",""trial"",""time""
""fullscreenenter"",""1"",""5177""
","
","","","","","","1304.2999999523163","images/dog6.png","","","memory_trial","2","maybe_old",""
"html-keyboard-response","265","581805","0.0-18.0-0.108","8859","approach_avoid_sv1","""event"",""trial"",""time""
""fullscreenenter"",""1"",""5177""
","
","
","""event"",""trial"",""time""
""fullscreenenter"",""1"",""5177""
","
","","","","","","null","<div style=""font-size:60px;"">+</div>","null","","fixation","","",""
"memory-trial","266","583921","0.0-18.0-1.108","8859","approach_avoid_sv1","""event"",""trial"",""time""
""fullscreenenter"",""1"",""5177""
","
","
","""event"",""trial"",""time""
""fullscreenenter"",""1"",""5177""
","
","","","","","","1111.3999998569489","images/truck3.png","","","memory_trial","1","definitely_old",""
"html-keyboard-response","267","584423","0.0-18.0-0.109","8859","approach_avoid_sv1","""event"",""trial"",""time""
""fullscreenenter"",""1"",""5177""
","
","
","""event"",""trial"",""time""
""fullscreenenter"",""1"",""5177""
","
","","","","","","null","<div style=""font-size:60px;"">+</div>","null","","fixation","","",""
"memory-trial","268","586478","0.0-18.0-1.109","8859","approach_avoid_sv1","""event"",""trial"",""time""
""fullscreenenter"",""1"",""5177""
","
","
","""event"",""trial"",""time""
""fullscreenenter"",""1"",""5177""
","
","","","","","","1050.1000001430511","images/rabbit4.png","","","memory_trial","3","maybe_new",""
"html-keyboard-response","269","586980","0.0-18.0-0.110","8859","approach_avoid_sv1","""event"",""trial"",""time""
""fullscreenenter"",""1"",""5177""
","
","
","""event"",""trial"",""time""
""fullscreenenter"",""1"",""5177""
","
","","","","","","null","<div style=""font-size:60px;"">+</div>","null","","fixation","","",""
"memory-trial","270","589006","0.0-18.0-1.110","8859","approach_avoid_sv1","""event"",""trial"",""time""
""fullscreenenter"",""1"",""5177""
","
","
","""event"",""trial"",""time""
""fullscreenenter"",""1"",""5177""
","
","","","","","","1022.7000000476837","images/train5.png","","","memory_trial","3","maybe_new",""
"html-keyboard-response","271","589509","0.0-18.0-0.111","8859","approach_avoid_sv1","""event"",""trial"",""time""
""fullscreenenter"",""1"",""5177""
","
","
","""event"",""trial"",""time""
""fullscreenenter"",""1"",""5177""
","
","","","","","","null","<div style=""font-size:60px;"">+</div>","null","","fixation","","",""
"memory-trial","272","592736","0.0-18.0-1.111","8859","approach_avoid_sv1","""event"",""trial"",""time""
""fullscreenenter"",""1"",""5177""
","
","
","""event"",""trial"",""time""
""fullscreenenter"",""1"",""5177""
","
","","","","","","2223.5","images/flower8.png","","","memory_trial","2","maybe_old",""
"html-keyboard-response","273","593239","0.0-18.0-0.112","8859","approach_avoid_sv1","""event"",""trial"",""time""
""fullscreenenter"",""1"",""5177""
","
","
","""event"",""trial"",""time""
""fullscreenenter"",""1"",""5177""
","
","","","","","","null","<div style=""font-size:60px;"">+</div>","null","","fixation","","",""
"memory-trial","274","595461","0.0-18.0-1.112","8859","approach_avoid_sv1","""event"",""trial"",""time""
""fullscreenenter"",""1"",""5177""
","
","
","""event"",""trial"",""time""
""fullscreenenter"",""1"",""5177""
","
","","","","","","1216.7999999523163","images/table3.png","","","memory_trial","3","maybe_new",""
"html-keyboard-response","275","595963","0.0-18.0-0.113","8859","approach_avoid_sv1","""event"",""trial"",""time""
""fullscreenenter"",""1"",""5177""
","
","
","""event"",""trial"",""time""
""fullscreenenter"",""1"",""5177""
","
","","","","","","null","<div style=""font-size:60px;"">+</div>","null","","fixation","","",""
"memory-trial","276","598380","0.0-18.0-1.113","8859","approach_avoid_sv1","""event"",""trial"",""time""
""fullscreenenter"",""1"",""5177""
","
","
","""event"",""trial"",""time""
""fullscreenenter"",""1"",""5177""
","
","","","","","","1413.1000001430511","images/truck5.png","","","memory_trial","2","maybe_old",""
"html-keyboard-response","277","598886","0.0-18.0-0.114","8859","approach_avoid_sv1","""event"",""trial"",""time""
""fullscreenenter"",""1"",""5177""
","
","
","""event"",""trial"",""time""
""fullscreenenter"",""1"",""5177""
","
","","","","","","null","<div style=""font-size:60px;"">+</div>","null","","fixation","","",""
"memory-trial","278","600683","0.0-18.0-1.114","8859","approach_avoid_sv1","""event"",""trial"",""time""
""fullscreenenter"",""1"",""5177""
","
","
","""event"",""trial"",""time""
""fullscreenenter"",""1"",""5177""
","
","","","","","","793.9000000953674","images/table7.png","","","memory_trial","1","definitely_old",""
"html-keyboard-response","279","601186","0.0-18.0-0.115","8859","approach_avoid_sv1","""event"",""trial"",""time""
""fullscreenenter"",""1"",""5177""
","
","
","""event"",""trial"",""time""
""fullscreenenter"",""1"",""5177""
","
","","","","","","null","<div style=""font-size:60px;"">+</div>","null","","fixation","","",""
"memory-trial","280","603034","0.0-18.0-1.115","8859","approach_avoid_sv1","""event"",""trial"",""time""
""fullscreenenter"",""1"",""5177""
","
","
","""event"",""trial"",""time""
""fullscreenenter"",""1"",""5177""
","
","","","","","","844.2000000476837","images/sofa3.png","","","memory_trial","1","definitely_old",""
"html-keyboard-response","281","603536","0.0-18.0-0.116","8859","approach_avoid_sv1","""event"",""trial"",""time""
""fullscreenenter"",""1"",""5177""
","
","
","""event"",""trial"",""time""
""fullscreenenter"",""1"",""5177""
","
","","","","","","null","<div style=""font-size:60px;"">+</div>","null","","fixation","","",""
"memory-trial","282","606016","0.0-18.0-1.116","8859","approach_avoid_sv1","""event"",""trial"",""time""
""fullscreenenter"",""1"",""5177""
","
","
","""event"",""trial"",""time""
""fullscreenenter"",""1"",""5177""
","
","","","","","","1476.5999999046326","images/flower4.png","","","memory_trial","3","maybe_new",""
"html-keyboard-response","283","606533","0.0-18.0-0.117","8859","approach_avoid_sv1","""event"",""trial"",""time""
""fullscreenenter"",""1"",""5177""
","
","
","""event"",""trial"",""time""
""fullscreenenter"",""1"",""5177""
","
","","","","","","null","<div style=""font-size:60px;"">+</div>","null","","fixation","","",""
"memory-trial","284","608384","0.0-18.0-1.117","8859","approach_avoid_sv1","""event"",""trial"",""time""
""fullscreenenter"",""1"",""5177""
","
","
","""event"",""trial"",""time""
""fullscreenenter"",""1"",""5177""
","
","","","","","","844.0999999046326","images/rodent6.png","","","memory_trial","2","maybe_old",""
"html-keyboard-response","285","608887","0.0-18.0-0.118","8859","approach_avoid_sv1","""event"",""trial"",""time""
""fullscreenenter"",""1"",""5177""
","
","
","""event"",""trial"",""time""
""fullscreenenter"",""1"",""5177""
","
","","","","","","null","<div style=""font-size:60px;"">+</div>","null","","fixation","","",""
"memory-trial","286","610813","0.0-18.0-1.118","8859","approach_avoid_sv1","""event"",""trial"",""time""
""fullscreenenter"",""1"",""5177""
","
","
","""event"",""trial"",""time""
""fullscreenenter"",""1"",""5177""
","
","","","","","","924.9000000953674","images/bed2.png","","","memory_trial","2","maybe_old",""
"html-keyboard-response","287","611315","0.0-18.0-0.119","8859","approach_avoid_sv1","""event"",""trial"",""time""
""fullscreenenter"",""1"",""5177""
","
","
","""event"",""trial"",""time""
""fullscreenenter"",""1"",""5177""
","
","","","","","","null","<div style=""font-size:60px;"">+</div>","null","","fixation","","",""
"memory-trial","288","613340","0.0-18.0-1.119","8859","approach_avoid_sv1","""event"",""trial"",""time""
""fullscreenenter"",""1"",""5177""
","
","
","""event"",""trial"",""time""
""fullscreenenter"",""1"",""5177""
","
","","","","","","1021.9000000953674","images/cactus4.png","","","memory_trial","2","maybe_old",""
"html-keyboard-response","289","613841","0.0-18.0-0.120","8859","approach_avoid_sv1","""event"",""trial"",""time""
""fullscreenenter"",""1"",""5177""
","
","
","""event"",""trial"",""time""
""fullscreenenter"",""1"",""5177""
","
","","","","","","null","<div style=""font-size:60px;"">+</div>","null","","fixation","","",""
"memory-trial","290","615659","0.0-18.0-1.120","8859","approach_avoid_sv1","""event"",""trial"",""time""
""fullscreenenter"",""1"",""5177""
","
","
","""event"",""trial"",""time""
""fullscreenenter"",""1"",""5177""
","
","","","","","","814.8999998569489","images/sheep2.png","","","memory_trial","2","maybe_old",""
"html-keyboard-response","291","616160","0.0-18.0-0.121","8859","approach_avoid_sv1","""event"",""trial"",""time""
""fullscreenenter"",""1"",""5177""
","
","
","""event"",""trial"",""time""
""fullscreenenter"",""1"",""5177""
","
","","","","","","null","<div style=""font-size:60px;"">+</div>","null","","fixation","","",""
"memory-trial","292","618228","0.0-18.0-1.121","8859","approach_avoid_sv1","""event"",""trial"",""time""
""fullscreenenter"",""1"",""5177""
","
","
","""event"",""trial"",""time""
""fullscreenenter"",""1"",""5177""
","
","","","","","","1063.5","images/boat3.png","","","memory_trial","3","maybe_new",""
"html-keyboard-response","293","618730","0.0-18.0-0.122","8859","approach_avoid_sv1","""event"",""trial"",""time""
""fullscreenenter"",""1"",""5177""
","
","
","""event"",""trial"",""time""
""fullscreenenter"",""1"",""5177""
","
","","","","","","null","<div style=""font-size:60px;"">+</div>","null","","fixation","","",""
"memory-trial","294","620935","0.0-18.0-1.122","8859","approach_avoid_sv1","""event"",""trial"",""time""
""fullscreenenter"",""1"",""5177""
","
","
","""event"",""trial"",""time""
""fullscreenenter"",""1"",""5177""
","
","","","","","","1200.1000001430511","images/banana4.png","","","memory_trial","1","definitely_old",""
"html-keyboard-response","295","621437","0.0-18.0-0.123","8859","approach_avoid_sv1","""event"",""trial"",""time""
""fullscreenenter"",""1"",""5177""
","
","
","""event"",""trial"",""time""
""fullscreenenter"",""1"",""5177""
","
","","","","","","null","<div style=""font-size:60px;"">+</div>","null","","fixation","","",""
"memory-trial","296","623244","0.0-18.0-1.123","8859","approach_avoid_sv1","""event"",""trial"",""time""
""fullscreenenter"",""1"",""5177""
","
","
","""event"",""trial"",""time""
""fullscreenenter"",""1"",""5177""
","
