"trial_type","trial_index","time_elapsed","internal_node_id","subject_id","task_version","interactions","blur_events","focus_events","fullscreenenter_events","fullscreenexit_events","success","timeout","failed_images","failed_audio","failed_video","rt","stimulus","response","button_pressed","task_part","key_press","answer","correct"
"pavlovia","0","4","0.0-0.0","5736","approach_avoid_sv1","""event"",""trial"",""time""
""fullscreenenter"",""1"",""1396""
","
","
","""event"",""trial"",""time""
""fullscreenenter"",""1"",""1396""
","
","","","","","","","","","","","","",""
"fullscreen","1","2395","0.0-1.0","5736","approach_avoid_sv1","""event"",""trial"",""time""
""fullscreenenter"",""1"",""1396""
","
","
","""event"",""trial"",""time""
""fullscreenenter"",""1"",""1396""
","
","true","","","","","","","","","","","",""
"preload","2","14759","0.0-2.0","5736","approach_avoid_sv1","""event"",""trial"",""time""
""fullscreenenter"",""1"",""1396""
","
","
","""event"",""trial"",""time""
""fullscreenenter"",""1"",""1396""
","
","true","false","[]","[]","[]","","","","","","","",""
"preload","3","36523","0.0-3.0","5736","approach_avoid_sv1","""event"",""trial"",""time""
""fullscreenenter"",""1"",""1396""
","
","
","""event"",""trial"",""time""
""fullscreenenter"",""1"",""1396""
","
","true","false","[]","[]","[]","","","","","","","",""
"preload","4","38742","0.0-4.0","5736","approach_avoid_sv1","""event"",""trial"",""time""
""fullscreenenter"",""1"",""1396""
","
","
","""event"",""trial"",""time""
""fullscreenenter"",""1"",""1396""
","
","true","false","[]","[]","[]","","","","","","","",""
"audio-keyboard-response","5","41849","0.0-5.0","5736","approach_avoid_sv1","""event"",""trial"",""time""
""fullscreenenter"",""1"",""1396""
","
","
","""event"",""trial"",""time""
""fullscreenenter"",""1"",""1396""
","
","","","","","","3101.333333333333","audio/beep_loop.wav"," ","","","","",""
"audio-button-response","6","43379","0.0-6.0","5736","approach_avoid_sv1","""event"",""trial"",""time""
""fullscreenenter"",""1"",""1396""
","
","
","""event"",""trial"",""time""
""fullscreenenter"",""1"",""1396""
","
","","","","","","1520","audio/turtle.wav","3","","","","",""
"audio-button-response","7","45468","0.0-7.0","5736","approach_avoid_sv1","""event"",""trial"",""time""
""fullscreenenter"",""1"",""1396""
","
","
","""event"",""trial"",""time""
""fullscreenenter"",""1"",""1396""
","
","","","","","","1080","audio/shark.wav","2","","","","",""
"preload","8","79387","0.0-8.0","5736","approach_avoid_sv1","""event"",""trial"",""time""
""fullscreenenter"",""1"",""1396""
","
","
","""event"",""trial"",""time""
""fullscreenenter"",""1"",""1396""
","
","true","false","[]","[]","[]","","","","","","","",""
"learning-instructions","9","86580","0.0-9.0-0.0","5736","approach_avoid_sv1","""event"",""trial"",""time""
""fullscreenenter"",""1"",""1396""
","
","
","""event"",""trial"",""time""
""fullscreenenter"",""1"",""1396""
","
","","","","","","2723.899999976158","<p> Welcome back! </p><p> Last week, you had to make choices about lots of different items.  </p>","","0","instructions","","",""
"learning-instructions","10","91980","0.0-9.0-0.1","5736","approach_avoid_sv1","""event"",""trial"",""time""
""fullscreenenter"",""1"",""1396""
","
","
","""event"",""trial"",""time""
""fullscreenenter"",""1"",""1396""
","
","","","","","","1284.1000000238419","<p> Today, we are going to ask you to try to remember all the items. </p>","","0","instructions","","",""
"learning-instructions","11","103077","0.0-9.0-0.2","5736","approach_avoid_sv1","""event"",""trial"",""time""
""fullscreenenter"",""1"",""1396""
","
","
","""event"",""trial"",""time""
""fullscreenenter"",""1"",""1396""
","
","","","","","","960.8999999761581","<p> On every trial, you will see an image. </p><p> The image may be an OLD image you saw during the games last week or it may be a NEW image that was not presented. </p>","","0","instructions","","",""
"learning-instructions","12","112662","0.0-9.0-0.3","5736","approach_avoid_sv1","""event"",""trial"",""time""
""fullscreenenter"",""1"",""1396""
","
","
","""event"",""trial"",""time""
""fullscreenenter"",""1"",""1396""
","
","","","","","","1075","<p> You need to select whether the image is:  </p><p>  'Definitely old', 'Maybe old', 'Maybe new', or 'Definitely new.'  </p><div class=""mem-choice-instructions-grid""><div class=""choice-option"" id=""choice-option-1"" ><img src=""images/definitely_old_1.png"" id=""choice-option-img-1"" class=""choice-option-img"" stage=""1""></div><div class=""choice-option"" id=""choice-option-2"" ><img src=""images/maybe_old_1.png"" id=""choice-option-img-2"" class=""choice-option-img"" stage=""1""></div><div class=""choice-option"" id=""choice-option-3"" ><img src=""images/maybe_new_1.png"" id=""choice-option-img-3"" class=""choice-option-img"" stage=""1""></div><div class=""choice-option"" id=""choice-option-4"" > <img src=""images/definitely_new_1.png"" id=""choice-option-img-4"" class=""choice-option-img"" stage=""1""></div></div>","","0","instructions","","",""
"learning-instructions","13","120103","0.0-9.0-0.4","5736","approach_avoid_sv1","""event"",""trial"",""time""
""fullscreenenter"",""1"",""1396""
","
","
","""event"",""trial"",""time""
""fullscreenenter"",""1"",""1396""
","
","","","","","","916.2000000476837","<p> You should use the 1, 2, 3, and 4 keys to make your responses.  </p><div class=""mem-choice-instructions-grid""><div class=""choice-option"" id=""choice-option-1"" ><img src=""images/definitely_old.png"" id=""choice-option-img-1"" class=""choice-option-img"" stage=""1""></div><div class=""choice-option"" id=""choice-option-2"" ><img src=""images/maybe_old.png"" id=""choice-option-img-2"" class=""choice-option-img"" stage=""1""></div><div class=""choice-option"" id=""choice-option-3"" ><img src=""images/maybe_new.png"" id=""choice-option-img-3"" class=""choice-option-img"" stage=""1""></div><div class=""choice-option"" id=""choice-option-4"" > <img src=""images/definitely_new.png"" id=""choice-option-img-4"" class=""choice-option-img"" stage=""1""></div></div>","","0","instructions","","",""
"learning-instructions","14","127720","0.0-9.0-0.5","5736","approach_avoid_sv1","""event"",""trial"",""time""
""fullscreenenter"",""1"",""1396""
","
","
","""event"",""trial"",""time""
""fullscreenenter"",""1"",""1396""
","
","","","","","","1273.7999999523163","<p> You will have 10 seconds to make each response.  </p><p>  Make sure to respond before time runs out! </p>","","0","instructions","","",""
"learning-instructions","15","136826","0.0-9.0-0.6","5736","approach_avoid_sv1","""event"",""trial"",""time""
""fullscreenenter"",""1"",""1396""
","
","
","""event"",""trial"",""time""
""fullscreenenter"",""1"",""1396""
","
","","","","","","2039.7999999523163","<p> Today, you will see each image ONCE only.  </p><p>  That means none of the images will repeat. </p>","","0","instructions","","",""
"learning-instructions","16","149939","0.0-9.0-0.7","5736","approach_avoid_sv1","""event"",""trial"",""time""
""fullscreenenter"",""1"",""1396""
","
","
","""event"",""trial"",""time""
""fullscreenenter"",""1"",""1396""
","
","","","","","","433","<p> Before you play the real game, it is time to practice. </p><p>  Just like in the real game, some of the images in the practice will be ones you have seen before. </p><p>  Others will be entirely new. </p>","","0","instructions","","",""
"html-button-response","17","151395","0.0-10.0","5736","approach_avoid_sv1","""event"",""trial"",""time""
""fullscreenenter"",""1"",""1396""
","
","
","""event"",""trial"",""time""
""fullscreenenter"",""1"",""1396""
","
","","","","","","1348.5","<p> Ready to practice? </p><p> Remember, use the 1, 2, 3, and 4 keys to make your responses. </p>","0","","instructions","","",""
"html-keyboard-response","18","152027","0.0-11.0-0.0","5736","approach_avoid_sv1","""event"",""trial"",""time""
""fullscreenenter"",""1"",""1396""
","
","
","""event"",""trial"",""time""
""fullscreenenter"",""1"",""1396""
","
","","","","","","null","<div style=""font-size:60px;"">+</div>","null","","fixation","","",""
"memory-trial","19","155922","0.0-11.0-1.0","5736","approach_avoid_sv1","""event"",""trial"",""time""
""fullscreenenter"",""1"",""1396""
","
","
","""event"",""trial"",""time""
""fullscreenenter"",""1"",""1396""
","
","","","","","","2883.899999976158","images/racket2.png","","","practice","4","definitely_new",""
"html-keyboard-response","20","156443","0.0-11.0-0.1","5736","approach_avoid_sv1","""event"",""trial"",""time""
""fullscreenenter"",""1"",""1396""
","
","
","""event"",""trial"",""time""
""fullscreenenter"",""1"",""1396""
","
","","","","","","null","<div style=""font-size:60px;"">+</div>","null","","fixation","","",""
"memory-trial","21","159890","0.0-11.0-1.1","5736","approach_avoid_sv1","""event"",""trial"",""time""
""fullscreenenter"",""1"",""1396""
","
","
","""event"",""trial"",""time""
""fullscreenenter"",""1"",""1396""
","
","","","","","","2424.0999999046326","images/racket3.png","","","practice","1","definitely_old",""
"html-keyboard-response","22","160412","0.0-11.0-0.2","5736","approach_avoid_sv1","""event"",""trial"",""time""
""fullscreenenter"",""1"",""1396""
","
","
","""event"",""trial"",""time""
""fullscreenenter"",""1"",""1396""
","
","","","","","","null","<div style=""font-size:60px;"">+</div>","null","","fixation","","",""
"memory-trial","23","163529","0.0-11.0-1.2","5736","approach_avoid_sv1","""event"",""trial"",""time""
""fullscreenenter"",""1"",""1396""
","
","
","""event"",""trial"",""time""
""fullscreenenter"",""1"",""1396""
","
","","","","","","2106.5","images/ball5.png","","","practice","3","maybe_new",""
"html-keyboard-response","24","164046","0.0-11.0-0.3","5736","approach_avoid_sv1","""event"",""trial"",""time""
""fullscreenenter"",""1"",""1396""
","
","
","""event"",""trial"",""time""
""fullscreenenter"",""1"",""1396""
","
","","","","","","null","<div style=""font-size:60px;"">+</div>","null","","fixation","","",""
"memory-trial","25","166026","0.0-11.0-1.3","5736","approach_avoid_sv1","""event"",""trial"",""time""
""fullscreenenter"",""1"",""1396""
","
","
","""event"",""trial"",""time""
""fullscreenenter"",""1"",""1396""
","
","","","","","","958.6999999284744","images/ball3.png","","","practice","3","maybe_new",""
"html-keyboard-response","26","166544","0.0-11.0-0.4","5736","approach_avoid_sv1","""event"",""trial"",""time""
""fullscreenenter"",""1"",""1396""
","
","
","""event"",""trial"",""time""
""fullscreenenter"",""1"",""1396""
","
","","","","","","null","<div style=""font-size:60px;"">+</div>","null","","fixation","","",""
"memory-trial","27","169383","0.0-11.0-1.4","5736","approach_avoid_sv1","""event"",""trial"",""time""
""fullscreenenter"",""1"",""1396""
","
","
","""event"",""trial"",""time""
""fullscreenenter"",""1"",""1396""
","
","","","","","","1821.8000000715256","images/racket5.png","","","practice","2","maybe_old",""
"html-keyboard-response","28","169887","0.0-11.0-0.5","5736","approach_avoid_sv1","""event"",""trial"",""time""
""fullscreenenter"",""1"",""1396""
","
","
","""event"",""trial"",""time""
""fullscreenenter"",""1"",""1396""
","
","","","","","","null","<div style=""font-size:60px;"">+</div>","null","","fixation","","",""
"memory-trial","29","172529","0.0-11.0-1.5","5736","approach_avoid_sv1","""event"",""trial"",""time""
""fullscreenenter"",""1"",""1396""
","
","
","""event"",""trial"",""time""
""fullscreenenter"",""1"",""1396""
","
","","","","","","1625.1999999284744","images/ball2.png","","","practice","3","maybe_new",""
"html-keyboard-response","30","173043","0.0-11.0-0.6","5736","approach_avoid_sv1","""event"",""trial"",""time""
""fullscreenenter"",""1"",""1396""
","
","
","""event"",""trial"",""time""
""fullscreenenter"",""1"",""1396""
","
","","","","","","null","<div style=""font-size:60px;"">+</div>","null","","fixation","","",""
"memory-trial","31","174943","0.0-11.0-1.6","5736","approach_avoid_sv1","""event"",""trial"",""time""
""fullscreenenter"",""1"",""1396""
","
","
","""event"",""trial"",""time""
""fullscreenenter"",""1"",""1396""
","
","","","","","","884.8000000715256","images/ball1.png","","","practice","3","maybe_new",""
"html-keyboard-response","32","175459","0.0-11.0-0.7","5736","approach_avoid_sv1","""event"",""trial"",""time""
""fullscreenenter"",""1"",""1396""
","
","
","""event"",""trial"",""time""
""fullscreenenter"",""1"",""1396""
","
","","","","","","null","<div style=""font-size:60px;"">+</div>","null","","fixation","","",""
"memory-trial","33","178189","0.0-11.0-1.7","5736","approach_avoid_sv1","""event"",""trial"",""time""
""fullscreenenter"",""1"",""1396""
","
","
","""event"",""trial"",""time""
""fullscreenenter"",""1"",""1396""
","
","","","","","","1721.7000000476837","images/racket1.png","","","practice","2","maybe_old",""
"learning-instructions","34","186269","0.0-12.0-0.0","5736","approach_avoid_sv1","""event"",""trial"",""time""
""fullscreenenter"",""1"",""1396""
","
","
","""event"",""trial"",""time""
""fullscreenenter"",""1"",""1396""
","
","","","","","","773.5999999046326","<p> Great! You have completed the practice. </p><p> Before you start, we're going to ask you a few questions about how the game works.  </p>","","0","instructions","","",""
"preload","35","208170","0.0-13.0","5736","approach_avoid_sv1","""event"",""trial"",""time""
""fullscreenenter"",""1"",""1396""
","
","
","""event"",""trial"",""time""
""fullscreenenter"",""1"",""1396""
","
","true","false","[]","[]","[]","","","","","","","",""
"comp-q","36","215761","0.0-14.0-0.0","5736","approach_avoid_sv1","""event"",""trial"",""time""
""fullscreenenter"",""1"",""1396""
","
","
","""event"",""trial"",""time""
""fullscreenenter"",""1"",""1396""
","
","","","","","","1764.7000000476837","<p> <b> True or False? </b> </p><p> In this game, you will only see each image once. </p>","","1","comp_question","","","false"
"comp-q","37","223282","0.0-14.0-1.0","5736","approach_avoid_sv1","""event"",""trial"",""time""
""fullscreenenter"",""1"",""1396""
","
","
","""event"",""trial"",""time""
""fullscreenenter"",""1"",""1396""
","
","","","","","","995.5999999046326","<p> <b>Incorrect.</b> You will see many different images <i> one time each </i> in this game. </p>","","0","comp_answer","","",""
"comp-q","38","230042","0.0-14.1-0.1","5736","approach_avoid_sv1","""event"",""trial"",""time""
""fullscreenenter"",""1"",""1396""
","
","
","""event"",""trial"",""time""
""fullscreenenter"",""1"",""1396""
","
","","","","","","815.5","<p> <b> True or False? </b> </p><p> In this game, you will only see each image once. </p>","","0","comp_question","","","true"
"comp-q","39","237339","0.0-14.1-1.1","5736","approach_avoid_sv1","""event"",""trial"",""time""
""fullscreenenter"",""1"",""1396""
","
","
","""event"",""trial"",""time""
""fullscreenenter"",""1"",""1396""
","
","","","","","","952.6000000238419","<p> <b> That's right! </b> You will see many different images <i> one time each </i> in this game. </p>","","0","comp_answer","","",""
"comp-q","40","243197","0.0-15.0-0.0","5736","approach_avoid_sv1","""event"",""trial"",""time""
""fullscreenenter"",""1"",""1396""
","
","
","""event"",""trial"",""time""
""fullscreenenter"",""1"",""1396""
","
","","","","","","830.7999999523163","<p> <b> True or False? </b> </p><p> You should use the mouse and click to make your response. </p>","","1","comp_question","","","true"
"comp-q","41","250509","0.0-15.0-1.0","5736","approach_avoid_sv1","""event"",""trial"",""time""
""fullscreenenter"",""1"",""1396""
","
","
","""event"",""trial"",""time""
""fullscreenenter"",""1"",""1396""
","
","","","","","","802.5999999046326","<p><b> That's right! </b> You should use the '1', '2', '3', and '4' keys to make your response. </p>","","0","comp_answer","","",""
"comp-q","42","257374","0.0-16.0-0.0","5736","approach_avoid_sv1","""event"",""trial"",""time""
""fullscreenenter"",""1"",""1396""
","
","
","""event"",""trial"",""time""
""fullscreenenter"",""1"",""1396""
","
","","","","","","1187.5","<p> <b> True or False? </b> </p><p> You will have as much time as you want to make each choice. </p>","","1","comp_question","","","true"
"comp-q","43","265175","0.0-16.0-1.0","5736","approach_avoid_sv1","""event"",""trial"",""time""
""fullscreenenter"",""1"",""1396""
","
","
","""event"",""trial"",""time""
""fullscreenenter"",""1"",""1396""
","
","","","","","","3088.600000023842","<p> <b> That's right! </b> You will only have 10 seconds to make each choice. </p>","","0","comp_answer","","",""
"learning-instructions","44","276704","0.0-17.0","5736","approach_avoid_sv1","""event"",""trial"",""time""
""fullscreenenter"",""1"",""1396""
","
","
","""event"",""trial"",""time""
""fullscreenenter"",""1"",""1396""
","
","","","","","","2857.7000000476837","<p> Great! You are now ready to begin the game. </p><p> Remember, use the 1, 2, 3, and 4 keys to make your responses. </p>","","0","instructions","","",""
"html-keyboard-response","45","277327","0.0-18.0-0.0","5736","approach_avoid_sv1","""event"",""trial"",""time""
""fullscreenenter"",""1"",""1396""
","
","
","""event"",""trial"",""time""
""fullscreenenter"",""1"",""1396""
","
","","","","","","null","<div style=""font-size:60px;"">+</div>","null","","fixation","","",""
"memory-trial","46","280007","0.0-18.0-1.0","5736","approach_avoid_sv1","""event"",""trial"",""time""
""fullscreenenter"",""1"",""1396""
","
","
","""event"",""trial"",""time""
""fullscreenenter"",""1"",""1396""
","
","","","","","","1669.0999999046326","images/banana5.png","","","memory_trial","4","definitely_new",""
"html-keyboard-response","47","280511","0.0-18.0-0.1","5736","approach_avoid_sv1","""event"",""trial"",""time""
""fullscreenenter"",""1"",""1396""
","
","
","""event"",""trial"",""time""
""fullscreenenter"",""1"",""1396""
","
","","","","","","null","<div style=""font-size:60px;"">+</div>","null","","fixation","","",""
"memory-trial","48","284287","0.0-18.0-1.1","5736","approach_avoid_sv1","""event"",""trial"",""time""
""fullscreenenter"",""1"",""1396""
","
","
","""event"",""trial"",""time""
""fullscreenenter"",""1"",""1396""
","
","","","","","","2755.899999976158","images/chair8.png","","","memory_trial","3","maybe_new",""
"html-keyboard-response","49","284789","0.0-18.0-0.2","5736","approach_avoid_sv1","""event"",""trial"",""time""
""fullscreenenter"",""1"",""1396""
","
","
","""event"",""trial"",""time""
""fullscreenenter"",""1"",""1396""
","
","","","","","","null","<div style=""font-size:60px;"">+</div>","null","","fixation","","",""
"memory-trial","50","286957","0.0-18.0-1.2","5736","approach_avoid_sv1","""event"",""trial"",""time""
""fullscreenenter"",""1"",""1396""
","
","
","""event"",""trial"",""time""
""fullscreenenter"",""1"",""1396""
","
","","","","","","1153.3999999761581","images/tree2.png","","","memory_trial","4","definitely_new",""
"html-keyboard-response","51","287471","0.0-18.0-0.3","5736","approach_avoid_sv1","""event"",""trial"",""time""
""fullscreenenter"",""1"",""1396""
","
","
","""event"",""trial"",""time""
""fullscreenenter"",""1"",""1396""
","
","","","","","","null","<div style=""font-size:60px;"">+</div>","null","","fixation","","",""
"memory-trial","52","290212","0.0-18.0-1.3","5736","approach_avoid_sv1","""event"",""trial"",""time""
""fullscreenenter"",""1"",""1396""
","
","
","""event"",""trial"",""time""
""fullscreenenter"",""1"",""1396""
","
","","","","","","1722.5","images/cow2.png","","","memory_trial","2","maybe_old",""
"html-keyboard-response","53","290719","0.0-18.0-0.4","5736","approach_avoid_sv1","""event"",""trial"",""time""
""fullscreenenter"",""1"",""1396""
","
","
","""event"",""trial"",""time""
""fullscreenenter"",""1"",""1396""
","
","","","","","","null","<div style=""font-size:60px;"">+</div>","null","","fixation","","",""
"memory-trial","54","294748","0.0-18.0-1.4","5736","approach_avoid_sv1","""event"",""trial"",""time""
""fullscreenenter"",""1"",""1396""
","
","
","""event"",""trial"",""time""
""fullscreenenter"",""1"",""1396""
","
","","","","","","3011.600000023842","images/cat7.png","","","memory_trial","3","maybe_new",""
"html-keyboard-response","55","295264","0.0-18.0-0.5","5736","approach_avoid_sv1","""event"",""trial"",""time""
""fullscreenenter"",""1"",""1396""
","
","
","""event"",""trial"",""time""
""fullscreenenter"",""1"",""1396""
","
","","","","","","null","<div style=""font-size:60px;"">+</div>","null","","fixation","","",""
"memory-trial","56","297083","0.0-18.0-1.5","5736","approach_avoid_sv1","""event"",""trial"",""time""
""fullscreenenter"",""1"",""1396""
","
","
","""event"",""trial"",""time""
""fullscreenenter"",""1"",""1396""
","
","","","","","","805.6000000238419","images/straw6.png","","","memory_trial","1","definitely_old",""
"html-keyboard-response","57","297604","0.0-18.0-0.6","5736","approach_avoid_sv1","""event"",""trial"",""time""
""fullscreenenter"",""1"",""1396""
","
","
","""event"",""trial"",""time""
""fullscreenenter"",""1"",""1396""
","
","","","","","","null","<div style=""font-size:60px;"">+</div>","null","","fixation","","",""
"memory-trial","58","299636","0.0-18.0-1.6","5736","approach_avoid_sv1","""event"",""trial"",""time""
""fullscreenenter"",""1"",""1396""
","
","
","""event"",""trial"",""time""
""fullscreenenter"",""1"",""1396""
","
","","","","","","1016.2000000476837","images/cactus7.png","","","memory_trial","1","definitely_old",""
"html-keyboard-response","59","300150","0.0-18.0-0.7","5736","approach_avoid_sv1","""event"",""trial"",""time""
""fullscreenenter"",""1"",""1396""
","
","
","""event"",""trial"",""time""
""fullscreenenter"",""1"",""1396""
","
","","","","","","null","<div style=""font-size:60px;"">+</div>","null","","fixation","","",""
"memory-trial","60","303262","0.0-18.0-1.7","5736","approach_avoid_sv1","""event"",""trial"",""time""
""fullscreenenter"",""1"",""1396""
","
","
","""event"",""trial"",""time""
""fullscreenenter"",""1"",""1396""
","
","","","","","","2102.399999976158","images/table3.png","","","memory_trial","3","maybe_new",""
"html-keyboard-response","61","303779","0.0-18.0-0.8","5736","approach_avoid_sv1","""event"",""trial"",""time""
""fullscreenenter"",""1"",""1396""
","
","
","""event"",""trial"",""time""
""fullscreenenter"",""1"",""1396""
","
","","","","","","null","<div style=""font-size:60px;"">+</div>","null","","fixation","","",""
"memory-trial","62","306046","0.0-18.0-1.8","5736","approach_avoid_sv1","""event"",""trial"",""time""
""fullscreenenter"",""1"",""1396""
","
","
","""event"",""trial"",""time""
""fullscreenenter"",""1"",""1396""
","
","","","","","","1258.6000000238419","images/plane7.png","","","memory_trial","3","maybe_new",""
"html-keyboard-response","63","306549","0.0-18.0-0.9","5736","approach_avoid_sv1","""event"",""trial"",""time""
""fullscreenenter"",""1"",""1396""
","
","
","""event"",""trial"",""time""
""fullscreenenter"",""1"",""1396""
","
","","","","","","null","<div style=""font-size:60px;"">+</div>","null","","fixation","","",""
"memory-trial","64","308438","0.0-18.0-1.9","5736","approach_avoid_sv1","""event"",""trial"",""time""
""fullscreenenter"",""1"",""1396""
","
","
","""event"",""trial"",""time""
""fullscreenenter"",""1"",""1396""
","
","","","","","","884.6999999284744","images/goat6.png","","","memory_trial","1","definitely_old",""
"html-keyboard-response","65","308941","0.0-18.0-0.10","5736","approach_avoid_sv1","""event"",""trial"",""time""
""fullscreenenter"",""1"",""1396""
","
","
","""event"",""trial"",""time""
""fullscreenenter"",""1"",""1396""
","
","","","","","","null","<div style=""font-size:60px;"">+</div>","null","","fixation","","",""
"memory-trial","66","310702","0.0-18.0-1.10","5736","approach_avoid_sv1","""event"",""trial"",""time""
""fullscreenenter"",""1"",""1396""
","
","
","""event"",""trial"",""time""
""fullscreenenter"",""1"",""1396""
","
","","","","","","752.8999999761581","images/rabbit1.png","","","memory_trial","1","definitely_old",""
"html-keyboard-response","67","311205","0.0-18.0-0.11","5736","approach_avoid_sv1","""event"",""trial"",""time""
""fullscreenenter"",""1"",""1396""
","
","
","""event"",""trial"",""time""
""fullscreenenter"",""1"",""1396""
","
","","","","","","null","<div style=""font-size:60px;"">+</div>","null","","fixation","","",""
"memory-trial","68","314197","0.0-18.0-1.11","5736","approach_avoid_sv1","""event"",""trial"",""time""
""fullscreenenter"",""1"",""1396""
","
","
","""event"",""trial"",""time""
""fullscreenenter"",""1"",""1396""
","
","","","","","","1984.8999999761581","images/banana7.png","","","memory_trial","3","maybe_new",""
"html-keyboard-response","69","314702","0.0-18.0-0.12","5736","approach_avoid_sv1","""event"",""trial"",""time""
""fullscreenenter"",""1"",""1396""
","
","
","""event"",""trial"",""time""
""fullscreenenter"",""1"",""1396""
","
","","","","","","null","<div style=""font-size:60px;"">+</div>","null","","fixation","","",""
"memory-trial","70","316813","0.0-18.0-1.12","5736","approach_avoid_sv1","""event"",""trial"",""time""
""fullscreenenter"",""1"",""1396""
","
","
","""event"",""trial"",""time""
""fullscreenenter"",""1"",""1396""
","
","","","","","","1108.1000000238419","images/horse8.png","","","memory_trial","4","definitely_new",""
"html-keyboard-response","71","317317","0.0-18.0-0.13","5736","approach_avoid_sv1","""event"",""trial"",""time""
""fullscreenenter"",""1"",""1396""
","
","
","""event"",""trial"",""time""
""fullscreenenter"",""1"",""1396""
","
","","","","","","null","<div style=""font-size:60px;"">+</div>","null","","fixation","","",""
"memory-trial","72","319886","0.0-18.0-1.13","5736","approach_avoid_sv1","""event"",""trial"",""time""
""fullscreenenter"",""1"",""1396""
","
","
","""event"",""trial"",""time""
""fullscreenenter"",""1"",""1396""
","
","","","","","","1558.6000000238419","images/orange7.png","","","memory_trial","4","definitely_new",""
"html-keyboard-response","73","320389","0.0-18.0-0.14","5736","approach_avoid_sv1","""event"",""trial"",""time""
""fullscreenenter"",""1"",""1396""
","
","
","""event"",""trial"",""time""
""fullscreenenter"",""1"",""1396""
","
","","","","","","null","<div style=""font-size:60px;"">+</div>","null","","fixation","","",""
"memory-trial","74","322990","0.0-18.0-1.14","5736","approach_avoid_sv1","""event"",""trial"",""time""
""fullscreenenter"",""1"",""1396""
","
","
","""event"",""trial"",""time""
""fullscreenenter"",""1"",""1396""
","
","","","","","","1591.1999999284744","images/train5.png","","","memory_trial","2","maybe_old",""
"html-keyboard-response","75","323494","0.0-18.0-0.15","5736","approach_avoid_sv1","""event"",""trial"",""time""
""fullscreenenter"",""1"",""1396""
","
","
","""event"",""trial"",""time""
""fullscreenenter"",""1"",""1396""
","
","","","","","","null","<div style=""font-size:60px;"">+</div>","null","","fixation","","",""
"memory-trial","76","325974","0.0-18.0-1.15","5736","approach_avoid_sv1","""event"",""trial"",""time""
""fullscreenenter"",""1"",""1396""
","
","
","""event"",""trial"",""time""
""fullscreenenter"",""1"",""1396""
","
","","","","","","1469.2000000476837","images/tree3.png","","","memory_trial","3","maybe_new",""
"html-keyboard-response","77","326478","0.0-18.0-0.16","5736","approach_avoid_sv1","""event"",""trial"",""time""
""fullscreenenter"",""1"",""1396""
","
","
","""event"",""trial"",""time""
""fullscreenenter"",""1"",""1396""
","
","","","","","","null","<div style=""font-size:60px;"">+</div>","null","","fixation","","",""
"memory-trial","78","328526","0.0-18.0-1.16","5736","approach_avoid_sv1","""event"",""trial"",""time""
""fullscreenenter"",""1"",""1396""
","
","
","""event"",""trial"",""time""
""fullscreenenter"",""1"",""1396""
","
","","","","","","1039.6000000238419","images/bush3.png","","","memory_trial","4","definitely_new",""
"html-keyboard-response","79","329029","0.0-18.0-0.17","5736","approach_avoid_sv1","""event"",""trial"",""time""
""fullscreenenter"",""1"",""1396""
","
","
","""event"",""trial"",""time""
""fullscreenenter"",""1"",""1396""
","
","","","","","","null","<div style=""font-size:60px;"">+</div>","null","","fixation","","",""
"memory-trial","80","331437","0.0-18.0-1.17","5736","approach_avoid_sv1","""event"",""trial"",""time""
""fullscreenenter"",""1"",""1396""
","
","
","""event"",""trial"",""time""
""fullscreenenter"",""1"",""1396""
","
","","","","","","1399.5","images/train8.png","","","memory_trial","3","maybe_new",""
"html-keyboard-response","81","331941","0.0-18.0-0.18","5736","approach_avoid_sv1","""event"",""trial"",""time""
""fullscreenenter"",""1"",""1396""
","
","
","""event"",""trial"",""time""
""fullscreenenter"",""1"",""1396""
","
","","","","","","null","<div style=""font-size:60px;"">+</div>","null","","fixation","","",""
"memory-trial","82","334214","0.0-18.0-1.18","5736","approach_avoid_sv1","""event"",""trial"",""time""
""fullscreenenter"",""1"",""1396""
","
","
","""event"",""trial"",""time""
""fullscreenenter"",""1"",""1396""
","
","","","","","","1263.1999999284744","images/plane5.png","","","memory_trial","2","maybe_old",""
"html-keyboard-response","83","334718","0.0-18.0-0.19","5736","approach_avoid_sv1","""event"",""trial"",""time""
""fullscreenenter"",""1"",""1396""
","
","
","""event"",""trial"",""time""
""fullscreenenter"",""1"",""1396""
","
","","","","","","null","<div style=""font-size:60px;"">+</div>","null","","fixation","","",""
"memory-trial","84","336949","0.0-18.0-1.19","5736","approach_avoid_sv1","""event"",""trial"",""time""
""fullscreenenter"",""1"",""1396""
","
","
","""event"",""trial"",""time""
""fullscreenenter"",""1"",""1396""
","
","","","","","","1227.6999999284744","images/boat8.png","","","memory_trial","2","maybe_old",""
"html-keyboard-response","85","337453","0.0-18.0-0.20","5736","approach_avoid_sv1","""event"",""trial"",""time""
""fullscreenenter"",""1"",""1396""
","
","
","""event"",""trial"",""time""
""fullscreenenter"",""1"",""1396""
","
","","","","","","null","<div style=""font-size:60px;"">+</div>","null","","fixation","","",""
"memory-trial","86","339221","0.0-18.0-1.20","5736","approach_avoid_sv1","""event"",""trial"",""time""
""fullscreenenter"",""1"",""1396""
","
","
","""event"",""trial"",""time""
""fullscreenenter"",""1"",""1396""
","
","","","","","","762.6000000238419","images/orange8.png","","","memory_trial","1","definitely_old",""
"html-keyboard-response","87","339726","0.0-18.0-0.21","5736","approach_avoid_sv1","""event"",""trial"",""time""
""fullscreenenter"",""1"",""1396""
","
","
","""event"",""trial"",""time""
""fullscreenenter"",""1"",""1396""
","
","","","","","","null","<div style=""font-size:60px;"">+</div>","null","","fixation","","",""
"memory-trial","88","341813","0.0-18.0-1.21","5736","approach_avoid_sv1","""event"",""trial"",""time""
""fullscreenenter"",""1"",""1396""
","
","
","""event"",""trial"",""time""
""fullscreenenter"",""1"",""1396""
","
","","","","","","1079.2000000476837","images/dog2.png","","","memory_trial","4","definitely_new",""
"html-keyboard-response","89","342317","0.0-18.0-0.22","5736","approach_avoid_sv1","""event"",""trial"",""time""
""fullscreenenter"",""1"",""1396""
","
","
","""event"",""trial"",""time""
""fullscreenenter"",""1"",""1396""
","
","","","","","","null","<div style=""font-size:60px;"">+</div>","null","","fixation","","",""
"memory-trial","90","344077","0.0-18.0-1.22","5736","approach_avoid_sv1","""event"",""trial"",""time""
""fullscreenenter"",""1"",""1396""
","
","
","""event"",""trial"",""time""
""fullscreenenter"",""1"",""1396""
","
","","","","","","754.6999999284744","images/dog3.png","","","memory_trial","4","definitely_new",""
"html-keyboard-response","91","344582","0.0-18.0-0.23","5736","approach_avoid_sv1","""event"",""trial"",""time""
""fullscreenenter"",""1"",""1396""
","
","
","""event"",""trial"",""time""
""fullscreenenter"",""1"",""1396""
","
","","","","","","null","<div style=""font-size:60px;"">+</div>","null","","fixation","","",""
"memory-trial","92","346422","0.0-18.0-1.23","5736","approach_avoid_sv1","""event"",""trial"",""time""
""fullscreenenter"",""1"",""1396""
","
","
","""event"",""trial"",""time""
""fullscreenenter"",""1"",""1396""
","
","","","","","","831.1000000238419","images/rabbit6.png","","","memory_trial","1","definitely_old",""
"html-keyboard-response","93","346925","0.0-18.0-0.24","5736","approach_avoid_sv1","""event"",""trial"",""time""
""fullscreenenter"",""1"",""1396""
","
","
","""event"",""trial"",""time""
""fullscreenenter"",""1"",""1396""
","
","","","","","","null","<div style=""font-size:60px;"">+</div>","null","","fixation","","",""
"memory-trial","94","348709","0.0-18.0-1.24","5736","approach_avoid_sv1","""event"",""trial"",""time""
""fullscreenenter"",""1"",""1396""
","
","
","""event"",""trial"",""time""
""fullscreenenter"",""1"",""1396""
","
","","","","","","774.3999999761581","images/straw8.png","","","memory_trial","1","definitely_old",""
"html-keyboard-response","95","349213","0.0-18.0-0.25","5736","approach_avoid_sv1","""event"",""trial"",""time""
""fullscreenenter"",""1"",""1396""
","
","
","""event"",""trial"",""time""
""fullscreenenter"",""1"",""1396""
","
","","","","","","null","<div style=""font-size:60px;"">+</div>","null","","fixation","","",""
"memory-trial","96","351312","0.0-18.0-1.25","5736","approach_avoid_sv1","""event"",""trial"",""time""
""fullscreenenter"",""1"",""1396""
","
","
","""event"",""trial"",""time""
""fullscreenenter"",""1"",""1396""
","
","","","","","","1086.3999999761581","images/plane8.png","","","memory_trial","2","maybe_old",""
"html-keyboard-response","97","351822","0.0-18.0-0.26","5736","approach_avoid_sv1","""event"",""trial"",""time""
""fullscreenenter"",""1"",""1396""
","
","
","""event"",""trial"",""time""
""fullscreenenter"",""1"",""1396""
","
","","","","","","null","<div style=""font-size:60px;"">+</div>","null","","fixation","","",""
"memory-trial","98","353830","0.0-18.0-1.26","5736","approach_avoid_sv1","""event"",""trial"",""time""
""fullscreenenter"",""1"",""1396""
","
","
","""event"",""trial"",""time""
""fullscreenenter"",""1"",""1396""
","
","","","","","","996.7999999523163","images/cactus3.png","","","memory_trial","2","maybe_old",""
"html-keyboard-response","99","354333","0.0-18.0-0.27","5736","approach_avoid_sv1","""event"",""trial"",""time""
""fullscreenenter"",""1"",""1396""
","
","
","""event"",""trial"",""time""
""fullscreenenter"",""1"",""1396""
","
","","","","","","null","<div style=""font-size:60px;"">+</div>","null","","fixation","","",""
"memory-trial","100","356534","0.0-18.0-1.27","5736","approach_avoid_sv1","""event"",""trial"",""time""
""fullscreenenter"",""1"",""1396""
","
","
","""event"",""trial"",""time""
""fullscreenenter"",""1"",""1396""
","
","","","","","","1197.6999999284744","images/boat3.png","","","memory_trial","3","maybe_new",""
"html-keyboard-response","101","357036","0.0-18.0-0.28","5736","approach_avoid_sv1","""event"",""trial"",""time""
""fullscreenenter"",""1"",""1396""
","
","
","""event"",""trial"",""time""
""fullscreenenter"",""1"",""1396""
","
","","","","","","null","<div style=""font-size:60px;"">+</div>","null","","fixation","","",""
"memory-trial","102","359077","0.0-18.0-1.28","5736","approach_avoid_sv1","""event"",""trial"",""time""
""fullscreenenter"",""1"",""1396""
","
","
","""event"",""trial"",""time""
""fullscreenenter"",""1"",""1396""
","
","","","","","","1035.5","images/cow7.png","","","memory_trial","2","maybe_old",""
"html-keyboard-response","103","359581","0.0-18.0-0.29","5736","approach_avoid_sv1","""event"",""trial"",""time""
""fullscreenenter"",""1"",""1396""
","
","
","""event"",""trial"",""time""
""fullscreenenter"",""1"",""1396""
","
","","","","","","null","<div style=""font-size:60px;"">+</div>","null","","fixation","","",""
"memory-trial","104","362517","0.0-18.0-1.29","5736","approach_avoid_sv1","""event"",""trial"",""time""
""fullscreenenter"",""1"",""1396""
","
","
","""event"",""trial"",""time""
""fullscreenenter"",""1"",""1396""
","
","","","","","","1930.6000000238419","images/train2.png","","","memory_trial","2","maybe_old",""
"html-keyboard-response","105","363021","0.0-18.0-0.30","5736","approach_avoid_sv1","""event"",""trial"",""time""
""fullscreenenter"",""1"",""1396""
","
","
","""event"",""trial"",""time""
""fullscreenenter"",""1"",""1396""
","
","","","","","","null","<div style=""font-size:60px;"">+</div>","null","","fixation","","",""
"memory-trial","106","365997","0.0-18.0-1.30","5736","approach_avoid_sv1","""event"",""trial"",""time""
""fullscreenenter"",""1"",""1396""
","
","
","""event"",""trial"",""time""
""fullscreenenter"",""1"",""1396""
","
","","","","","","1966.7000000476837","images/goat1.png","","","memory_trial","3","maybe_new",""
"html-keyboard-response","107","366501","0.0-18.0-0.31","5736","approach_avoid_sv1","""event"",""trial"",""time""
""fullscreenenter"",""1"",""1396""
","
","
","""event"",""trial"",""time""
""fullscreenenter"",""1"",""1396""
","
","","","","","","null","<div style=""font-size:60px;"">+</div>","null","","fixation","","",""
"memory-trial","108","368876","0.0-18.0-1.31","5736","approach_avoid_sv1","""event"",""trial"",""time""
""fullscreenenter"",""1"",""1396""
","
","
","""event"",""trial"",""time""
""fullscreenenter"",""1"",""1396""
","
","","","","","","1372.1999999284744","images/straw1.png","","","memory_trial","3","maybe_new",""
"html-keyboard-response","109","369381","0.0-18.0-0.32","5736","approach_avoid_sv1","""event"",""trial"",""time""
""fullscreenenter"",""1"",""1396""
","
","
","""event"",""trial"",""time""
""fullscreenenter"",""1"",""1396""
","
","","","","","","null","<div style=""font-size:60px;"">+</div>","null","","fixation","","",""
"memory-trial","110","372694","0.0-18.0-1.32","5736","approach_avoid_sv1","""event"",""trial"",""time""
""fullscreenenter"",""1"",""1396""
","
","
","""event"",""trial"",""time""
""fullscreenenter"",""1"",""1396""
","
","","","","","","2306.5","images/apple6.png","","","memory_trial","2","maybe_old",""
"html-keyboard-response","111","373197","0.0-18.0-0.33","5736","approach_avoid_sv1","""event"",""trial"",""time""
""fullscreenenter"",""1"",""1396""
","
","
","""event"",""trial"",""time""
""fullscreenenter"",""1"",""1396""
","
","","","","","","null","<div style=""font-size:60px;"">+</div>","null","","fixation","","",""
"memory-trial","112","375269","0.0-18.0-1.33","5736","approach_avoid_sv1","""event"",""trial"",""time""
""fullscreenenter"",""1"",""1396""
","
","
","""event"",""trial"",""time""
""fullscreenenter"",""1"",""1396""
","
","","","","","","1068.1000000238419","images/train1.png","","","memory_trial","1","definitely_old",""
"html-keyboard-response","113","375773","0.0-18.0-0.34","5736","approach_avoid_sv1","""event"",""trial"",""time""
""fullscreenenter"",""1"",""1396""
","
","
","""event"",""trial"",""time""
""fullscreenenter"",""1"",""1396""
","
","","","","","","null","<div style=""font-size:60px;"">+</div>","null","","fixation","","",""
"memory-trial","114","377797","0.0-18.0-1.34","5736","approach_avoid_sv1","""event"",""trial"",""time""
""fullscreenenter"",""1"",""1396""
","
","
","""event"",""trial"",""time""
""fullscreenenter"",""1"",""1396""
","
","","","","","","1017.2999999523163","images/sofa6.png","","","memory_trial","4","definitely_new",""
"html-keyboard-response","115","378301","0.0-18.0-0.35","5736","approach_avoid_sv1","""event"",""trial"",""time""
""fullscreenenter"",""1"",""1396""
","
","
","""event"",""trial"",""time""
""fullscreenenter"",""1"",""1396""
","
","","","","","","null","<div style=""font-size:60px;"">+</div>","null","","fixation","","",""
"memory-trial","116","380453","0.0-18.0-1.35","5736","approach_avoid_sv1","""event"",""trial"",""time""
""fullscreenenter"",""1"",""1396""
","
","
","""event"",""trial"",""time""
""fullscreenenter"",""1"",""1396""
","
","","","","","","1146.2999999523163","images/banana1.png","","","memory_trial","4","definitely_new",""
"html-keyboard-response","117","380957","0.0-18.0-0.36","5736","approach_avoid_sv1","""event"",""trial"",""time""
""fullscreenenter"",""1"",""1396""
","
","
","""event"",""trial"",""time""
""fullscreenenter"",""1"",""1396""
","
","","","","","","null","<div style=""font-size:60px;"">+</div>","null","","fixation","","",""
"memory-trial","118","382925","0.0-18.0-1.36","5736","approach_avoid_sv1","""event"",""trial"",""time""
""fullscreenenter"",""1"",""1396""
","
","
","""event"",""trial"",""time""
""fullscreenenter"",""1"",""1396""
","
","","","","","","961.1999999284744","images/bed3.png","","","memory_trial","4","definitely_new",""
"html-keyboard-response","119","383429","0.0-18.0-0.37","5736","approach_avoid_sv1","""event"",""trial"",""time""
""fullscreenenter"",""1"",""1396""
","
","
","""event"",""trial"",""time""
""fullscreenenter"",""1"",""1396""
","
","","","","","","null","<div style=""font-size:60px;"">+</div>","null","","fixation","","",""
"memory-trial","120","385949","0.0-18.0-1.37","5736","approach_avoid_sv1","""event"",""trial"",""time""
""fullscreenenter"",""1"",""1396""
","
","
","""event"",""trial"",""time""
""fullscreenenter"",""1"",""1396""
","
","","","","","","1514.7000000476837","images/goat4.png","","","memory_trial","3","maybe_new",""
"html-keyboard-response","121","386453","0.0-18.0-0.38","5736","approach_avoid_sv1","""event"",""trial"",""time""
""fullscreenenter"",""1"",""1396""
","
","
","""event"",""trial"",""time""
""fullscreenenter"",""1"",""1396""
","
","","","","","","null","<div style=""font-size:60px;"">+</div>","null","","fixation","","",""
"memory-trial","122","388274","0.0-18.0-1.38","5736","approach_avoid_sv1","""event"",""trial"",""time""
""fullscreenenter"",""1"",""1396""
","
","
","""event"",""trial"",""time""
""fullscreenenter"",""1"",""1396""
","
","","","","","","811.3999999761581","images/goat2.png","","","memory_trial","3","maybe_new",""
"html-keyboard-response","123","388782","0.0-18.0-0.39","5736","approach_avoid_sv1","""event"",""trial"",""time""
""fullscreenenter"",""1"",""1396""
","
","
","""event"",""trial"",""time""
""fullscreenenter"",""1"",""1396""
","
","","","","","","null","<div style=""font-size:60px;"">+</div>","null","","fixation","","",""
"memory-trial","124","391114","0.0-18.0-1.39","5736","approach_avoid_sv1","""event"",""trial"",""time""
""fullscreenenter"",""1"",""1396""
","
","
","""event"",""trial"",""time""
""fullscreenenter"",""1"",""1396""
","
","","","","","","1318.8000000715256","images/orange3.png","","","memory_trial","2","maybe_old",""
"html-keyboard-response","125","391621","0.0-18.0-0.40","5736","approach_avoid_sv1","""event"",""trial"",""time""
""fullscreenenter"",""1"",""1396""
","
","
","""event"",""trial"",""time""
""fullscreenenter"",""1"",""1396""
","
","","","","","","null","<div style=""font-size:60px;"">+</div>","null","","fixation","","",""
"memory-trial","126","393805","0.0-18.0-1.40","5736","approach_avoid_sv1","""event"",""trial"",""time""
""fullscreenenter"",""1"",""1396""
","
","
","""event"",""trial"",""time""
""fullscreenenter"",""1"",""1396""
","
","","","","","","1181.1999999284744","images/orange6.png","","","memory_trial","1","definitely_old",""
"html-keyboard-response","127","394309","0.0-18.0-0.41","5736","approach_avoid_sv1","""event"",""trial"",""time""
""fullscreenenter"",""1"",""1396""
","
","
","""event"",""trial"",""time""
""fullscreenenter"",""1"",""1396""
","
","","","","","","null","<div style=""font-size:60px;"">+</div>","null","","fixation","","",""
"memory-trial","128","396469","0.0-18.0-1.41","5736","approach_avoid_sv1","""event"",""trial"",""time""
""fullscreenenter"",""1"",""1396""
","
","
","""event"",""trial"",""time""
""fullscreenenter"",""1"",""1396""
","
","","","","","","1154.6000000238419","images/horse5.png","","","memory_trial","4","definitely_new",""
"html-button-response","129","405024","0.0-18.0-2.41-0.41","5736","approach_avoid_sv1","""event"",""trial"",""time""
""fullscreenenter"",""1"",""1396""
","
","
","""event"",""trial"",""time""
""fullscreenenter"",""1"",""1396""
","
","","","","","","8553.300000071526","<p> Take a break! </p><p> Click the button to continue. </p>","0","","break","","",""
"html-keyboard-response","130","405525","0.0-18.0-0.42","5736","approach_avoid_sv1","""event"",""trial"",""time""
""fullscreenenter"",""1"",""1396""
","
","
","""event"",""trial"",""time""
""fullscreenenter"",""1"",""1396""
","
","","","","","","null","<div style=""font-size:60px;"">+</div>","null","","fixation","","",""
"memory-trial","131","408349","0.0-18.0-1.42","5736","approach_avoid_sv1","""event"",""trial"",""time""
""fullscreenenter"",""1"",""1396""
","
","
","""event"",""trial"",""time""
""fullscreenenter"",""1"",""1396""
","
","","","","","","1818.8000000715256","images/dog6.png","","","memory_trial","3","maybe_new",""
"html-keyboard-response","132","408853","0.0-18.0-0.43","5736","approach_avoid_sv1","""event"",""trial"",""time""
""fullscreenenter"",""1"",""1396""
","
","
","""event"",""trial"",""time""
""fullscreenenter"",""1"",""1396""
","
","","","","","","null","<div style=""font-size:60px;"">+</div>","null","","fixation","","",""
"memory-trial","133","410949","0.0-18.0-1.43","5736","approach_avoid_sv1","""event"",""trial"",""time""
""fullscreenenter"",""1"",""1396""
","
","
","""event"",""trial"",""time""
""fullscreenenter"",""1"",""1396""
","
","","","","","","1092.5","images/rabbit7.png","","","memory_trial","1","definitely_old",""
"html-keyboard-response","134","411453","0.0-18.0-0.44","5736","approach_avoid_sv1","""event"",""trial"",""time""
""fullscreenenter"",""1"",""1396""
","
","
","""event"",""trial"",""time""
""fullscreenenter"",""1"",""1396""
","
","","","","","","null","<div style=""font-size:60px;"">+</div>","null","","fixation","","",""
"memory-trial","135","413389","0.0-18.0-1.44","5736","approach_avoid_sv1","""event"",""trial"",""time""
""fullscreenenter"",""1"",""1396""
","
","
","""event"",""trial"",""time""
""fullscreenenter"",""1"",""1396""
","
","","","","","","932.8999999761581","images/rabbit3.png","","","memory_trial","4","definitely_new",""
"html-keyboard-response","136","413893","0.0-18.0-0.45","5736","approach_avoid_sv1","""event"",""trial"",""time""
""fullscreenenter"",""1"",""1396""
","
","
","""event"",""trial"",""time""
""fullscreenenter"",""1"",""1396""
","
","","","","","","null","<div style=""font-size:60px;"">+</div>","null","","fixation","","",""
"memory-trial","137","416077","0.0-18.0-1.45","5736","approach_avoid_sv1","""event"",""trial"",""time""
""fullscreenenter"",""1"",""1396""
","
","
","""event"",""trial"",""time""
""fullscreenenter"",""1"",""1396""
","
","","","","","","1173.8999999761581","images/goat5.png","","","memory_trial","3","maybe_new",""
"html-keyboard-response","138","416581","0.0-18.0-0.46","5736","approach_avoid_sv1","""event"",""trial"",""time""
""fullscreenenter"",""1"",""1396""
","
","
","""event"",""trial"",""time""
""fullscreenenter"",""1"",""1396""
","
","","","","","","null","<div style=""font-size:60px;"">+</div>","null","","fixation","","",""
"memory-trial","139","419237","0.0-18.0-1.46","5736","approach_avoid_sv1","""event"",""trial"",""time""
""fullscreenenter"",""1"",""1396""
","
","
","""event"",""trial"",""time""
""fullscreenenter"",""1"",""1396""
","
","","","","","","1652.3000000715256","images/banana3.png","","","memory_trial","2","maybe_old",""
"html-keyboard-response","140","419742","0.0-18.0-0.47","5736","approach_avoid_sv1","""event"",""trial"",""time""
""fullscreenenter"",""1"",""1396""
","
","
","""event"",""trial"",""time""
""fullscreenenter"",""1"",""1396""
","
","","","","","","null","<div style=""font-size:60px;"">+</div>","null","","fixation","","",""
"memory-trial","141","422365","0.0-18.0-1.47","5736","approach_avoid_sv1","""event"",""trial"",""time""
""fullscreenenter"",""1"",""1396""
","
","
","""event"",""trial"",""time""
""fullscreenenter"",""1"",""1396""
","
","","","","","","1616.2000000476837","images/cow5.png","","","memory_trial","2","maybe_old",""
"html-keyboard-response","142","422869","0.0-18.0-0.48","5736","approach_avoid_sv1","""event"",""trial"",""time""
""fullscreenenter"",""1"",""1396""
","
","
","""event"",""trial"",""time""
""fullscreenenter"",""1"",""1396""
","
","","","","","","null","<div style=""font-size:60px;"">+</div>","null","","fixation","","",""
"memory-trial","143","424844","0.0-18.0-1.48","5736","approach_avoid_sv1","""event"",""trial"",""time""
""fullscreenenter"",""1"",""1396""
","
","
","""event"",""trial"",""time""
""fullscreenenter"",""1"",""1396""
","
","","","","","","966.2000000476837","images/tree8.png","","","memory_trial","4","definitely_new",""
"html-keyboard-response","144","425350","0.0-18.0-0.49","5736","approach_avoid_sv1","""event"",""trial"",""time""
""fullscreenenter"",""1"",""1396""
","
","
","""event"",""trial"",""time""
""fullscreenenter"",""1"",""1396""
","
","","","","","","null","<div style=""font-size:60px;"">+</div>","null","","fixation","","",""
"memory-trial","145","427110","0.0-18.0-1.49","5736","approach_avoid_sv1","""event"",""trial"",""time""
""fullscreenenter"",""1"",""1396""
","
","
","""event"",""trial"",""time""
""fullscreenenter"",""1"",""1396""
","
","","","","","","755.6999999284744","images/cat1.png","","","memory_trial","4","definitely_new",""
"html-keyboard-response","146","427613","0.0-18.0-0.50","5736","approach_avoid_sv1","""event"",""trial"",""time""
""fullscreenenter"",""1"",""1396""
","
","
","""event"",""trial"",""time""
""fullscreenenter"",""1"",""1396""
","
","","","","","","null","<div style=""font-size:60px;"">+</div>","null","","fixation","","",""
"memory-trial","147","429293","0.0-18.0-1.50","5736","approach_avoid_sv1","""event"",""trial"",""time""
""fullscreenenter"",""1"",""1396""
","
","
","""event"",""trial"",""time""
""fullscreenenter"",""1"",""1396""
","
","","","","","","672","images/rodent1.png","","","memory_trial","4","definitely_new",""
"html-keyboard-response","148","429798","0.0-18.0-0.51","5736","approach_avoid_sv1","""event"",""trial"",""time""
""fullscreenenter"",""1"",""1396""
","
","
","""event"",""trial"",""time""
""fullscreenenter"",""1"",""1396""
","
","","","","","","null","<div style=""font-size:60px;"">+</div>","null","","fixation","","",""
"memory-trial","149","431804","0.0-18.0-1.51","5736","approach_avoid_sv1","""event"",""trial"",""time""
""fullscreenenter"",""1"",""1396""
","
","
","""event"",""trial"",""time""
""fullscreenenter"",""1"",""1396""
","
","","","","","","998.7999999523163","images/banana8.png","","","memory_trial","4","definitely_new",""
"html-keyboard-response","150","432309","0.0-18.0-0.52","5736","approach_avoid_sv1","""event"",""trial"",""time""
""fullscreenenter"",""1"",""1396""
","
","
","""event"",""trial"",""time""
""fullscreenenter"",""1"",""1396""
","
","","","","","","null","<div style=""font-size:60px;"">+</div>","null","","fixation","","",""
"memory-trial","151","433934","0.0-18.0-1.52","5736","approach_avoid_sv1","""event"",""trial"",""time""
""fullscreenenter"",""1"",""1396""
","
","
","""event"",""trial"",""time""
""fullscreenenter"",""1"",""1396""
","
","","","","","","617","images/bush8.png","","","memory_trial","4","definitely_new",""
"html-keyboard-response","152","434437","0.0-18.0-0.53","5736","approach_avoid_sv1","""event"",""trial"",""time""
""fullscreenenter"",""1"",""1396""
","
","
","""event"",""trial"",""time""
""fullscreenenter"",""1"",""1396""
","
","","","","","","null","<div style=""font-size:60px;"">+</div>","null","","fixation","","",""
"memory-trial","153","436709","0.0-18.0-1.53","5736","approach_avoid_sv1","""event"",""trial"",""time""
""fullscreenenter"",""1"",""1396""
","
","
","""event"",""trial"",""time""
""fullscreenenter"",""1"",""1396""
","
","","","","","","1267.1999999284744","images/truck1.png","","","memory_trial","3","maybe_new",""
"html-keyboard-response","154","437213","0.0-18.0-0.54","5736","approach_avoid_sv1","""event"",""trial"",""time""
""fullscreenenter"",""1"",""1396""
","
","
","""event"",""trial"",""time""
""fullscreenenter"",""1"",""1396""
","
","","","","","","null","<div style=""font-size:60px;"">+</div>","null","","fixation","","",""
"memory-trial","155","439532","0.0-18.0-1.54","5736","approach_avoid_sv1","""event"",""trial"",""time""
""fullscreenenter"",""1"",""1396""
","
","
","""event"",""trial"",""time""
""fullscreenenter"",""1"",""1396""
","
","","","","","","1310.5","images/cow3.png","","","memory_trial","2","maybe_old",""
"html-keyboard-response","156","440037","0.0-18.0-0.55","5736","approach_avoid_sv1","""event"",""trial"",""time""
""fullscreenenter"",""1"",""1396""
","
","
","""event"",""trial"",""time""
""fullscreenenter"",""1"",""1396""
","
","","","","","","null","<div style=""font-size:60px;"">+</div>","null","","fixation","","",""
"memory-trial","157","442630","0.0-18.0-1.55","5736","approach_avoid_sv1","""event"",""trial"",""time""
""fullscreenenter"",""1"",""1396""
","
","
","""event"",""trial"",""time""
""fullscreenenter"",""1"",""1396""
","
","","","","","","1586","images/table6.png","","","memory_trial","1","definitely_old",""
"html-keyboard-response","158","443133","0.0-18.0-0.56","5736","approach_avoid_sv1","""event"",""trial"",""time""
""fullscreenenter"",""1"",""1396""
","
","
","""event"",""trial"",""time""
""fullscreenenter"",""1"",""1396""
","
","","","","","","null","<div style=""font-size:60px;"">+</div>","null","","fixation","","",""
"memory-trial","159","445157","0.0-18.0-1.56","5736","approach_avoid_sv1","""event"",""trial"",""time""
""fullscreenenter"",""1"",""1396""
","
","
","""event"",""trial"",""time""
""fullscreenenter"",""1"",""1396""
","
","","","","","","1019.8999999761581","images/flower5.png","","","memory_trial","1","definitely_old",""
"html-keyboard-response","160","445661","0.0-18.0-0.57","5736","approach_avoid_sv1","""event"",""trial"",""time""
""fullscreenenter"",""1"",""1396""
","
","
","""event"",""trial"",""time""
""fullscreenenter"",""1"",""1396""
","
","","","","","","null","<div style=""font-size:60px;"">+</div>","null","","fixation","","",""
"memory-trial","161","448157","0.0-18.0-1.57","5736","approach_avoid_sv1","""event"",""trial"",""time""
""fullscreenenter"",""1"",""1396""
","
","
","""event"",""trial"",""time""
""fullscreenenter"",""1"",""1396""
","
","","","","","","1493.1000000238419","images/sheep2.png","","","memory_trial","4","definitely_new",""
"html-keyboard-response","162","448661","0.0-18.0-0.58","5736","approach_avoid_sv1","""event"",""trial"",""time""
""fullscreenenter"",""1"",""1396""
","
","
","""event"",""trial"",""time""
""fullscreenenter"",""1"",""1396""
","
","","","","","","null","<div style=""font-size:60px;"">+</div>","null","","fixation","","",""
"memory-trial","163","450973","0.0-18.0-1.58","5736","approach_avoid_sv1","""event"",""trial"",""time""
""fullscreenenter"",""1"",""1396""
","
","
","""event"",""trial"",""time""
""fullscreenenter"",""1"",""1396""
","
","","","","","","1303.8999999761581","images/banana4.png","","","memory_trial","4","definitely_new",""
"html-keyboard-response","164","451477","0.0-18.0-0.59","5736","approach_avoid_sv1","""event"",""trial"",""time""
""fullscreenenter"",""1"",""1396""
","
","
","""event"",""trial"",""time""
""fullscreenenter"",""1"",""1396""
","
","","","","","","null","<div style=""font-size:60px;"">+</div>","null","","fixation","","",""
"memory-trial","165","454213","0.0-18.0-1.59","5736","approach_avoid_sv1","""event"",""trial"",""time""
""fullscreenenter"",""1"",""1396""
","
","
","""event"",""trial"",""time""
""fullscreenenter"",""1"",""1396""
","
","","","","","","1727.3000000715256","images/apple4.png","","","memory_trial","1","definitely_old",""
"html-keyboard-response","166","454719","0.0-18.0-0.60","5736","approach_avoid_sv1","""event"",""trial"",""time""
""fullscreenenter"",""1"",""1396""
","
","
","""event"",""trial"",""time""
""fullscreenenter"",""1"",""1396""
","
","","","","","","null","<div style=""font-size:60px;"">+</div>","null","","fixation","","",""
"memory-trial","167","457165","0.0-18.0-1.60","5736","approach_avoid_sv1","""event"",""trial"",""time""
""fullscreenenter"",""1"",""1396""
","
","
","""event"",""trial"",""time""
""fullscreenenter"",""1"",""1396""
","
","","","","","","1435.6000000238419","images/sofa5.png","","","memory_trial","3","maybe_new",""
"html-keyboard-response","168","457669","0.0-18.0-0.61","5736","approach_avoid_sv1","""event"",""trial"",""time""
""fullscreenenter"",""1"",""1396""
","
","
","""event"",""trial"",""time""
""fullscreenenter"",""1"",""1396""
","
","","","","","","null","<div style=""font-size:60px;"">+</div>","null","","fixation","","",""
"memory-trial","169","459309","0.0-18.0-1.61","5736","approach_avoid_sv1","""event"",""trial"",""time""
""fullscreenenter"",""1"",""1396""
","
","
","""event"",""trial"",""time""
""fullscreenenter"",""1"",""1396""
","
","","","","","","637.1999999284744","images/sofa3.png","","","memory_trial","4","definitely_new",""
"html-keyboard-response","170","459813","0.0-18.0-0.62","5736","approach_avoid_sv1","""event"",""trial"",""time""
""fullscreenenter"",""1"",""1396""
","
","
","""event"",""trial"",""time""
""fullscreenenter"",""1"",""1396""
","
","","","","","","null","<div style=""font-size:60px;"">+</div>","null","","fixation","","",""
"memory-trial","171","462181","0.0-18.0-1.62","5736","approach_avoid_sv1","""event"",""trial"",""time""
""fullscreenenter"",""1"",""1396""
","
","
","""event"",""trial"",""time""
""fullscreenenter"",""1"",""1396""
","
","","","","","","1365.2000000476837","images/tree6.png","","","memory_trial","2","maybe_old",""
"html-keyboard-response","172","462686","0.0-18.0-0.63","5736","approach_avoid_sv1","""event"",""trial"",""time""
""fullscreenenter"",""1"",""1396""
","
","
","""event"",""trial"",""time""
""fullscreenenter"",""1"",""1396""
","
","","","","","","null","<div style=""font-size:60px;"">+</div>","null","","fixation","","",""
"memory-trial","173","464518","0.0-18.0-1.63","5736","approach_avoid_sv1","""event"",""trial"",""time""
""fullscreenenter"",""1"",""1396""
","
","
","""event"",""trial"",""time""
""fullscreenenter"",""1"",""1396""
","
","","","","","","821.7000000476837","images/boat6.png","","","memory_trial","2","maybe_old",""
"html-keyboard-response","174","465022","0.0-18.0-0.64","5736","approach_avoid_sv1","""event"",""trial"",""time""
""fullscreenenter"",""1"",""1396""
","
","
","""event"",""trial"",""time""
""fullscreenenter"",""1"",""1396""
","
","","","","","","null","<div style=""font-size:60px;"">+</div>","null","","fixation","","",""
"memory-trial","175","467742","0.0-18.0-1.64","5736","approach_avoid_sv1","""event"",""trial"",""time""
""fullscreenenter"",""1"",""1396""
","
","
","""event"",""trial"",""time""
""fullscreenenter"",""1"",""1396""
","
","","","","","","1712.3999999761581","images/chair3.png","","","memory_trial","3","maybe_new",""
"html-keyboard-response","176","468246","0.0-18.0-0.65","5736","approach_avoid_sv1","""event"",""trial"",""time""
""fullscreenenter"",""1"",""1396""
","
","
","""event"",""trial"",""time""
""fullscreenenter"",""1"",""1396""
","
","","","","","","null","<div style=""font-size:60px;"">+</div>","null","","fixation","","",""
"memory-trial","177","470238","0.0-18.0-1.65","5736","approach_avoid_sv1","""event"",""trial"",""time""
""fullscreenenter"",""1"",""1396""
","
","
","""event"",""trial"",""time""
""fullscreenenter"",""1"",""1396""
","
","","","","","","981.3000000715256","images/cat2.png","","","memory_trial","1","definitely_old",""
"html-keyboard-response","178","470741","0.0-18.0-0.66","5736","approach_avoid_sv1","""event"",""trial"",""time""
""fullscreenenter"",""1"",""1396""
","
","
","""event"",""trial"",""time""
""fullscreenenter"",""1"",""1396""
","
","","","","","","null","<div style=""font-size:60px;"">+</div>","null","","fixation","","",""
"memory-trial","179","472757","0.0-18.0-1.66","5736","approach_avoid_sv1","""event"",""trial"",""time""
""fullscreenenter"",""1"",""1396""
","
","
","""event"",""trial"",""time""
""fullscreenenter"",""1"",""1396""
","
","","","","","","1013.7999999523163","images/dog7.png","","","memory_trial","4","definitely_new",""
"html-keyboard-response","180","473262","0.0-18.0-0.67","5736","approach_avoid_sv1","""event"",""trial"",""time""
""fullscreenenter"",""1"",""1396""
","
","
","""event"",""trial"",""time""
""fullscreenenter"",""1"",""1396""
","
","","","","","","null","<div style=""font-size:60px;"">+</div>","null","","fixation","","",""
"memory-trial","181","476590","0.0-18.0-1.67","5736","approach_avoid_sv1","""event"",""trial"",""time""
""fullscreenenter"",""1"",""1396""
","
","
","""event"",""trial"",""time""
""fullscreenenter"",""1"",""1396""
","
","","","","","","2322.399999976158","images/apple7.png","","","memory_trial","3","maybe_new",""
"html-keyboard-response","182","477094","0.0-18.0-0.68","5736","approach_avoid_sv1","""event"",""trial"",""time""
""fullscreenenter"",""1"",""1396""
","
","
","""event"",""trial"",""time""
""fullscreenenter"",""1"",""1396""
","
","","","","","","null","<div style=""font-size:60px;"">+</div>","null","","fixation","","",""
"memory-trial","183","479077","0.0-18.0-1.68","5736","approach_avoid_sv1","""event"",""trial"",""time""
""fullscreenenter"",""1"",""1396""
","
","
","""event"",""trial"",""time""
""fullscreenenter"",""1"",""1396""
","
","","","","","","974.2000000476837","images/train6.png","","","memory_trial","1","definitely_old",""
"html-keyboard-response","184","479582","0.0-18.0-0.69","5736","approach_avoid_sv1","""event"",""trial"",""time""
""fullscreenenter"",""1"",""1396""
","
","
","""event"",""trial"",""time""
""fullscreenenter"",""1"",""1396""
","
","","","","","","null","<div style=""font-size:60px;"">+</div>","null","","fixation","","",""
"memory-trial","185","481510","0.0-18.0-1.69","5736","approach_avoid_sv1","""event"",""trial"",""time""
""fullscreenenter"",""1"",""1396""
","
","
","""event"",""trial"",""time""
""fullscreenenter"",""1"",""1396""
","
","","","","","","917.5","images/truck3.png","","","memory_trial","4","definitely_new",""
"html-keyboard-response","186","482014","0.0-18.0-0.70","5736","approach_avoid_sv1","""event"",""trial"",""time""
""fullscreenenter"",""1"",""1396""
","
","
","""event"",""trial"",""time""
""fullscreenenter"",""1"",""1396""
","
","","","","","","null","<div style=""font-size:60px;"">+</div>","null","","fixation","","",""
"memory-trial","187","485635","0.0-18.0-1.70","5736","approach_avoid_sv1","""event"",""trial"",""time""
""fullscreenenter"",""1"",""1396""
","
","
","""event"",""trial"",""time""
""fullscreenenter"",""1"",""1396""
","
","","","","","","2605.399999976158","images/chair4.png","","","memory_trial","3","maybe_new",""
"html-keyboard-response","188","486142","0.0-18.0-0.71","5736","approach_avoid_sv1","""event"",""trial"",""time""
""fullscreenenter"",""1"",""1396""
","
","
","""event"",""trial"",""time""
""fullscreenenter"",""1"",""1396""
","
","","","","","","null","<div style=""font-size:60px;"">+</div>","null","","fixation","","",""
"memory-trial","189","488366","0.0-18.0-1.71","5736","approach_avoid_sv1","""event"",""trial"",""time""
""fullscreenenter"",""1"",""1396""
","
","
","""event"",""trial"",""time""
""fullscreenenter"",""1"",""1396""
","
","","","","","","1216.6000000238419","images/straw3.png","","","memory_trial","3","maybe_new",""
"html-keyboard-response","190","488870","0.0-18.0-0.72","5736","approach_avoid_sv1","""event"",""trial"",""time""
""fullscreenenter"",""1"",""1396""
","
","
","""event"",""trial"",""time""
""fullscreenenter"",""1"",""1396""
","
","","","","","","null","<div style=""font-size:60px;"">+</div>","null","","fixation","","",""
"memory-trial","191","490885","0.0-18.0-1.72","5736","approach_avoid_sv1","""event"",""trial"",""time""
""fullscreenenter"",""1"",""1396""
","
","
","""event"",""trial"",""time""
""fullscreenenter"",""1"",""1396""
","
","","","","","","1010.1000000238419","images/tree7.png","","","memory_trial","2","maybe_old",""
"html-keyboard-response","192","491389","0.0-18.0-0.73","5736","approach_avoid_sv1","""event"",""trial"",""time""
""fullscreenenter"",""1"",""1396""
","
","
","""event"",""trial"",""time""
""fullscreenenter"",""1"",""1396""
","
","","","","","","null","<div style=""font-size:60px;"">+</div>","null","","fixation","","",""
"memory-trial","193","493862","0.0-18.0-1.73","5736","approach_avoid_sv1","""event"",""trial"",""time""
""fullscreenenter"",""1"",""1396""
","
","
","""event"",""trial"",""time""
""fullscreenenter"",""1"",""1396""
","
","","","","","","1465.8999999761581","images/table1.png","","","memory_trial","3","maybe_new",""
"html-keyboard-response","194","494366","0.0-18.0-0.74","5736","approach_avoid_sv1","""event"",""trial"",""time""
""fullscreenenter"",""1"",""1396""
","
","
","""event"",""trial"",""time""
""fullscreenenter"",""1"",""1396""
","
","","","","","","null","<div style=""font-size:60px;"">+</div>","null","","fixation","","",""
"memory-trial","195","496926","0.0-18.0-1.74","5736","approach_avoid_sv1","""event"",""trial"",""time""
""fullscreenenter"",""1"",""1396""
","
","
","""event"",""trial"",""time""
""fullscreenenter"",""1"",""1396""
","
","","","","","","1552.8000000715256","images/banana6.png","","","memory_trial","4","definitely_new",""
"html-keyboard-response","196","497430","0.0-18.0-0.75","5736","approach_avoid_sv1","""event"",""trial"",""time""
""fullscreenenter"",""1"",""1396""
","
","
","""event"",""trial"",""time""
""fullscreenenter"",""1"",""1396""
","
","","","","","","null","<div style=""font-size:60px;"">+</div>","null","","fixation","","",""
"memory-trial","197","499230","0.0-18.0-1.75","5736","approach_avoid_sv1","""event"",""trial"",""time""
""fullscreenenter"",""1"",""1396""
","
","
","""event"",""trial"",""time""
""fullscreenenter"",""1"",""1396""
","
","","","","","","795.5999999046326","images/cactus4.png","","","memory_trial","1","definitely_old",""
"html-keyboard-response","198","499733","0.0-18.0-0.76","5736","approach_avoid_sv1","""event"",""trial"",""time""
""fullscreenenter"",""1"",""1396""
","
","
","""event"",""trial"",""time""
""fullscreenenter"",""1"",""1396""
","
","","","","","","null","<div style=""font-size:60px;"">+</div>","null","","fixation","","",""
"memory-trial","199","501550","0.0-18.0-1.76","5736","approach_avoid_sv1","""event"",""trial"",""time""
""fullscreenenter"",""1"",""1396""
","
","
","""event"",""trial"",""time""
""fullscreenenter"",""1"",""1396""
","
","","","","","","806.7999999523163","images/goat3.png","","","memory_trial","1","definitely_old",""
"html-keyboard-response","200","502061","0.0-18.0-0.77","5736","approach_avoid_sv1","""event"",""trial"",""time""
""fullscreenenter"",""1"",""1396""
","
","
","""event"",""trial"",""time""
""fullscreenenter"",""1"",""1396""
","
","","","","","","null","<div style=""font-size:60px;"">+</div>","null","","fixation","","",""
"memory-trial","201","503886","0.0-18.0-1.77","5736","approach_avoid_sv1","""event"",""trial"",""time""
""fullscreenenter"",""1"",""1396""
","
","
","""event"",""trial"",""time""
""fullscreenenter"",""1"",""1396""
","
","","","","","","819.2000000476837","images/cactus5.png","","","memory_trial","1","definitely_old",""
"html-keyboard-response","202","504389","0.0-18.0-0.78","5736","approach_avoid_sv1","""event"",""trial"",""time""
""fullscreenenter"",""1"",""1396""
","
","
","""event"",""trial"",""time""
""fullscreenenter"",""1"",""1396""
","
","","","","","","null","<div style=""font-size:60px;"">+</div>","null","","fixation","","",""
"memory-trial","203","506966","0.0-18.0-1.78","5736","approach_avoid_sv1","""event"",""trial"",""time""
""fullscreenenter"",""1"",""1396""
","
","
","""event"",""trial"",""time""
""fullscreenenter"",""1"",""1396""
","
","","","","","","1570.6999999284744","images/boat5.png","","","memory_trial","4","definitely_new",""
"html-keyboard-response","204","507470","0.0-18.0-0.79","5736","approach_avoid_sv1","""event"",""trial"",""time""
""fullscreenenter"",""1"",""1396""
","
","
","""event"",""trial"",""time""
""fullscreenenter"",""1"",""1396""
","
","","","","","","null","<div style=""font-size:60px;"">+</div>","null","","fixation","","",""
"memory-trial","205","510567","0.0-18.0-1.79","5736","approach_avoid_sv1","""event"",""trial"",""time""
""fullscreenenter"",""1"",""1396""
","
","
","""event"",""trial"",""time""
""fullscreenenter"",""1"",""1396""
","
","","","","","","2090.2000000476837","images/flower6.png","","","memory_trial","3","maybe_new",""
"html-keyboard-response","206","511069","0.0-18.0-0.80","5736","approach_avoid_sv1","""event"",""trial"",""time""
""fullscreenenter"",""1"",""1396""
","
","
","""event"",""trial"",""time""
""fullscreenenter"",""1"",""1396""
","
","","","","","","null","<div style=""font-size:60px;"">+</div>","null","","fixation","","",""
"memory-trial","207","513189","0.0-18.0-1.80","5736","approach_avoid_sv1","""event"",""trial"",""time""
""fullscreenenter"",""1"",""1396""
","
","
","""event"",""trial"",""time""
""fullscreenenter"",""1"",""1396""
","
","","","","","","1115.5","images/tree5.png","","","memory_trial","3","maybe_new",""
"html-keyboard-response","208","513694","0.0-18.0-0.81","5736","approach_avoid_sv1","""event"",""trial"",""time""
""fullscreenenter"",""1"",""1396""
","
","
","""event"",""trial"",""time""
""fullscreenenter"",""1"",""1396""
","
","","","","","","null","<div style=""font-size:60px;"">+</div>","null","","fixation","","",""
"memory-trial","209","515438","0.0-18.0-1.81","5736","approach_avoid_sv1","""event"",""trial"",""time""
""fullscreenenter"",""1"",""1396""
","
","
","""event"",""trial"",""time""
""fullscreenenter"",""1"",""1396""
","
","","","","","","736.1000000238419","images/sofa1.png","","","memory_trial","4","definitely_new",""
"html-keyboard-response","210","515942","0.0-18.0-0.82","5736","approach_avoid_sv1","""event"",""trial"",""time""
""fullscreenenter"",""1"",""1396""
","
","
","""event"",""trial"",""time""
""fullscreenenter"",""1"",""1396""
","
","","","","","","null","<div style=""font-size:60px;"">+</div>","null","","fixation","","",""
"memory-trial","211","517822","0.0-18.0-1.82","5736","approach_avoid_sv1","""event"",""trial"",""time""
""fullscreenenter"",""1"",""1396""
","
","
","""event"",""trial"",""time""
""fullscreenenter"",""1"",""1396""
","
","","","","","","872.5","images/horse2.png","","","memory_trial","4","definitely_new",""
"html-keyboard-response","212","518329","0.0-18.0-0.83","5736","approach_avoid_sv1","""event"",""trial"",""time""
""fullscreenenter"",""1"",""1396""
","
","
","""event"",""trial"",""time""
""fullscreenenter"",""1"",""1396""
","
","","","","","","null","<div style=""font-size:60px;"">+</div>","null","","fixation","","",""
"memory-trial","213","520246","0.0-18.0-1.83","5736","approach_avoid_sv1","""event"",""trial"",""time""
""fullscreenenter"",""1"",""1396""
","
","
","""event"",""trial"",""time""
""fullscreenenter"",""1"",""1396""
","
","","","","","","910.8999999761581","images/banana2.png","","","memory_trial","4","definitely_new",""
"html-keyboard-response","214","520750","0.0-18.0-0.84","5736","approach_avoid_sv1","""event"",""trial"",""time""
""fullscreenenter"",""1"",""1396""
","
","
","""event"",""trial"",""time""
""fullscreenenter"",""1"",""1396""
","
","","","","","","null","<div style=""font-size:60px;"">+</div>","null","","fixation","","",""
"memory-trial","215","522574","0.0-18.0-1.84","5736","approach_avoid_sv1","""event"",""trial"",""time""
""fullscreenenter"",""1"",""1396""
","
","
","""event"",""trial"",""time""
""fullscreenenter"",""1"",""1396""
","
","","","","","","820.2000000476837","images/flower1.png","","","memory_trial","4","definitely_new",""
"html-keyboard-response","216","523078","0.0-18.0-0.85","5736","approach_avoid_sv1","""event"",""trial"",""time""
""fullscreenenter"",""1"",""1396""
","
","
","""event"",""trial"",""time""
""fullscreenenter"",""1"",""1396""
","
","","","","","","null","<div style=""font-size:60px;"">+</div>","null","","fixation","","",""
"memory-trial","217","526110","0.0-18.0-1.85","5736","approach_avoid_sv1","""event"",""trial"",""time""
""fullscreenenter"",""1"",""1396""
","
","
","""event"",""trial"",""time""
""fullscreenenter"",""1"",""1396""
","
","","","","","","2021.5999999046326","images/cat6.png","","","memory_trial","3","maybe_new",""
"html-keyboard-response","218","526614","0.0-18.0-0.86","5736","approach_avoid_sv1","""event"",""trial"",""time""
""fullscreenenter"",""1"",""1396""
","
","
","""event"",""trial"",""time""
""fullscreenenter"",""1"",""1396""
","
","","","","","","null","<div style=""font-size:60px;"">+</div>","null","","fixation","","",""
"memory-trial","219","528613","0.0-18.0-1.86","5736","approach_avoid_sv1","""event"",""trial"",""time""
""fullscreenenter"",""1"",""1396""
","
","
","""event"",""trial"",""time""
""fullscreenenter"",""1"",""1396""
","
","","","","","","994.7000000476837","images/rabbit4.png","","","memory_trial","3","maybe_new",""
"html-keyboard-response","220","529118","0.0-18.0-0.87","5736","approach_avoid_sv1","""event"",""trial"",""time""
""fullscreenenter"",""1"",""1396""
","
","
","""event"",""trial"",""time""
""fullscreenenter"",""1"",""1396""
","
","","","","","","null","<div style=""font-size:60px;"">+</div>","null","","fixation","","",""
"memory-trial","221","530942","0.0-18.0-1.87","5736","approach_avoid_sv1","""event"",""trial"",""time""
""fullscreenenter"",""1"",""1396""
","
","
","""event"",""trial"",""time""
""fullscreenenter"",""1"",""1396""
","
","","","","","","816.1000000238419","images/dog8.png","","","memory_trial","4","definitely_new",""
"html-keyboard-response","222","531446","0.0-18.0-0.88","5736","approach_avoid_sv1","""event"",""trial"",""time""
""fullscreenenter"",""1"",""1396""
","
","
","""event"",""trial"",""time""
""fullscreenenter"",""1"",""1396""
","
","","","","","","null","<div style=""font-size:60px;"">+</div>","null","","fixation","","",""
"memory-trial","223","534166","0.0-18.0-1.88","5736","approach_avoid_sv1","""event"",""trial"",""time""
""fullscreenenter"",""1"",""1396""
","
","
","""event"",""trial"",""time""
""fullscreenenter"",""1"",""1396""
","
","","","","","","1713.8999999761581","images/plane6.png","","","memory_trial","1","definitely_old",""
"html-keyboard-response","224","534669","0.0-18.0-0.89","5736","approach_avoid_sv1","""event"",""trial"",""time""
""fullscreenenter"",""1"",""1396""
","
","
","""event"",""trial"",""time""
""fullscreenenter"",""1"",""1396""
","
","","","","","","null","<div style=""font-size:60px;"">+</div>","null","","fixation","","",""
"memory-trial","225","537038","0.0-18.0-1.89","5736","approach_avoid_sv1","""event"",""trial"",""time""
""fullscreenenter"",""1"",""1396""
","
","
","""event"",""trial"",""time""
""fullscreenenter"",""1"",""1396""
","
","","","","","","1364.4000000953674","images/chair6.png","","","memory_trial","3","maybe_new",""
"html-keyboard-response","226","537541","0.0-18.0-0.90","5736","approach_avoid_sv1","""event"",""trial"",""time""
""fullscreenenter"",""1"",""1396""
","
","
","""event"",""trial"",""time""
""fullscreenenter"",""1"",""1396""
","
","","","","","","null","<div style=""font-size:60px;"">+</div>","null","","fixation","","",""
"memory-trial","227","539357","0.0-18.0-1.90","5736","approach_avoid_sv1","""event"",""trial"",""time""
""fullscreenenter"",""1"",""1396""
","
","
","""event"",""trial"",""time""
""fullscreenenter"",""1"",""1396""
","
","","","","","","808","images/orange1.png","","","memory_trial","1","definitely_old",""
"html-keyboard-response","228","539861","0.0-18.0-0.91","5736","approach_avoid_sv1","""event"",""trial"",""time""
""fullscreenenter"",""1"",""1396""
","
","
","""event"",""trial"",""time""
""fullscreenenter"",""1"",""1396""
","
","","","","","","null","<div style=""font-size:60px;"">+</div>","null","","fixation","","",""
"memory-trial","229","542686","0.0-18.0-1.91","5736","approach_avoid_sv1","""event"",""trial"",""time""
""fullscreenenter"",""1"",""1396""
","
","
","""event"",""trial"",""time""
""fullscreenenter"",""1"",""1396""
","
","","","","","","1818.1000000238419","images/cat3.png","","","memory_trial","3","maybe_new",""
"html-button-response","230","546803","0.0-18.0-2.91-0.91","5736","approach_avoid_sv1","""event"",""trial"",""time""
""fullscreenenter"",""1"",""1396""
","
","
","""event"",""trial"",""time""
""fullscreenenter"",""1"",""1396""
","
","","","","","","4116.199999928474","<p> Take a break! </p><p> Click the button to continue. </p>","0","","break","","",""
"html-keyboard-response","231","547309","0.0-18.0-0.92","5736","approach_avoid_sv1","""event"",""trial"",""time""
""fullscreenenter"",""1"",""1396""
","
","
","""event"",""trial"",""time""
""fullscreenenter"",""1"",""1396""
","
","","","","","","null","<div style=""font-size:60px;"">+</div>","null","","fixation","","",""
"memory-trial","232","549430","0.0-18.0-1.92","5736","approach_avoid_sv1","""event"",""trial"",""time""
""fullscreenenter"",""1"",""1396""
","
","
","""event"",""trial"",""time""
""fullscreenenter"",""1"",""1396""
","
","","","","","","1113.8999999761581","images/cow4.png","","","memory_trial","1","definitely_old",""
"html-keyboard-response","233","549934","0.0-18.0-0.93","5736","approach_avoid_sv1","""event"",""trial"",""time""
""fullscreenenter"",""1"",""1396""
","
","
","""event"",""trial"",""time""
""fullscreenenter"",""1"",""1396""
","
","","","","","","null","<div style=""font-size:60px;"">+</div>","null","","fixation","","",""
"memory-trial","234","552477","0.0-18.0-1.93","5736","approach_avoid_sv1","""event"",""trial"",""time""
""fullscreenenter"",""1"",""1396""
","
","
","""event"",""trial"",""time""
""fullscreenenter"",""1"",""1396""
","
","","","","","","1535.2000000476837","images/orange2.png","","","memory_trial","4","definitely_new",""
"html-keyboard-response","235","552982","0.0-18.0-0.94","5736","approach_avoid_sv1","""event"",""trial"",""time""
""fullscreenenter"",""1"",""1396""
","
","
","""event"",""trial"",""time""
""fullscreenenter"",""1"",""1396""
","
","","","","","","null","<div style=""font-size:60px;"">+</div>","null","","fixation","","",""
"memory-trial","236","554614","0.0-18.0-1.94","5736","approach_avoid_sv1","""event"",""trial"",""time""
""fullscreenenter"",""1"",""1396""
","
","
","""event"",""trial"",""time""
""fullscreenenter"",""1"",""1396""
","
","","","","","","620.5999999046326","images/sofa2.png","","","memory_trial","4","definitely_new",""
"html-keyboard-response","237","555118","0.0-18.0-0.95","5736","approach_avoid_sv1","""event"",""trial"",""time""
""fullscreenenter"",""1"",""1396""
","
","
","""event"",""trial"",""time""
""fullscreenenter"",""1"",""1396""
","
","","","","","","null","<div style=""font-size:60px;"">+</div>","null","","fixation","","",""
"memory-trial","238","557325","0.0-18.0-1.95","5736","approach_avoid_sv1","""event"",""trial"",""time""
""fullscreenenter"",""1"",""1396""
","
","
","""event"",""trial"",""time""
""fullscreenenter"",""1"",""1396""
","
","","","","","","1200","images/bed4.png","","","memory_trial","3","maybe_new",""
"html-keyboard-response","239","557829","0.0-18.0-0.96","5736","approach_avoid_sv1","""event"",""trial"",""time""
""fullscreenenter"",""1"",""1396""
","
","
","""event"",""trial"",""time""
""fullscreenenter"",""1"",""1396""
","
","","","","","","null","<div style=""font-size:60px;"">+</div>","null","","fixation","","",""
"memory-trial","240","560085","0.0-18.0-1.96","5736","approach_avoid_sv1","""event"",""trial"",""time""
""fullscreenenter"",""1"",""1396""
","
","
","""event"",""trial"",""time""
""fullscreenenter"",""1"",""1396""
","
","","","","","","1248.6000000238419","images/train3.png","","","memory_trial","2","maybe_old",""
"html-keyboard-response","241","560590","0.0-18.0-0.97","5736","approach_avoid_sv1","""event"",""trial"",""time""
""fullscreenenter"",""1"",""1396""
","
","
","""event"",""trial"",""time""
""fullscreenenter"",""1"",""1396""
","
","","","","","","null","<div style=""font-size:60px;"">+</div>","null","","fixation","","",""
"memory-trial","242","563030","0.0-18.0-1.97","5736","approach_avoid_sv1","""event"",""trial"",""time""
""fullscreenenter"",""1"",""1396""
","
","
","""event"",""trial"",""time""
""fullscreenenter"",""1"",""1396""
","
","","","","","","1433","images/rodent3.png","","","memory_trial","3","maybe_new",""
"html-keyboard-response","243","563533","0.0-18.0-0.98","5736","approach_avoid_sv1","""event"",""trial"",""time""
""fullscreenenter"",""1"",""1396""
","
","
","""event"",""trial"",""time""
""fullscreenenter"",""1"",""1396""
","
","","","","","","null","<div style=""font-size:60px;"">+</div>","null","","fixation","","",""
"memory-trial","244","565486","0.0-18.0-1.98","5736","approach_avoid_sv1","""event"",""trial"",""time""
""fullscreenenter"",""1"",""1396""
","
","
","""event"",""trial"",""time""
""fullscreenenter"",""1"",""1396""
","
","","","","","","946.1999999284744","images/table8.png","","","memory_trial","4","definitely_new",""
"html-keyboard-response","245","565989","0.0-18.0-0.99","5736","approach_avoid_sv1","""event"",""trial"",""time""
""fullscreenenter"",""1"",""1396""
","
","
","""event"",""trial"",""time""
""fullscreenenter"",""1"",""1396""
","
","","","","","","null","<div style=""font-size:60px;"">+</div>","null","","fixation","","",""
"memory-trial","246","568157","0.0-18.0-1.99","5736","approach_avoid_sv1","""event"",""trial"",""time""
""fullscreenenter"",""1"",""1396""
","
","
","""event"",""trial"",""time""
""fullscreenenter"",""1"",""1396""
","
","","","","","","1163.6999999284744","images/rodent7.png","","","memory_trial","3","maybe_new",""
"html-keyboard-response","247","568661","0.0-18.0-0.100","5736","approach_avoid_sv1","""event"",""trial"",""time""
""fullscreenenter"",""1"",""1396""
","
","
","""event"",""trial"",""time""
""fullscreenenter"",""1"",""1396""
","
","","","","","","null","<div style=""font-size:60px;"">+</div>","null","","fixation","","",""
"memory-trial","248","570549","0.0-18.0-1.100","5736","approach_avoid_sv1","""event"",""trial"",""time""
""fullscreenenter"",""1"",""1396""
","
","
","""event"",""trial"",""time""
""fullscreenenter"",""1"",""1396""
","
","","","","","","876.8999999761581","images/rabbit2.png","","","memory_trial","2","maybe_old",""
"html-keyboard-response","249","571054","0.0-18.0-0.101","5736","approach_avoid_sv1","""event"",""trial"",""time""
""fullscreenenter"",""1"",""1396""
","
","
","""event"",""trial"",""time""
""fullscreenenter"",""1"",""1396""
","
","","","","","","null","<div style=""font-size:60px;"">+</div>","null","","fixation","","",""
"memory-trial","250","573421","0.0-18.0-1.101","5736","approach_avoid_sv1","""event"",""trial"",""time""
""fullscreenenter"",""1"",""1396""
","
","
","""event"",""trial"",""time""
""fullscreenenter"",""1"",""1396""
","
","","","","","","1358.5","images/chair2.png","","","memory_trial","2","maybe_old",""
"html-keyboard-response","251","573925","0.0-18.0-0.102","5736","approach_avoid_sv1","""event"",""trial"",""time""
""fullscreenenter"",""1"",""1396""
","
","
","""event"",""trial"",""time""
""fullscreenenter"",""1"",""1396""
","
","","","","","","null","<div style=""font-size:60px;"">+</div>","null","","fixation","","",""
"memory-trial","252","576222","0.0-18.0-1.102","5736","approach_avoid_sv1","""event"",""trial"",""time""
""fullscreenenter"",""1"",""1396""
","
","
","""event"",""trial"",""time""
""fullscreenenter"",""1"",""1396""
","
","","","","","","1288.6000000238419","images/rodent6.png","","","memory_trial","3","maybe_new",""
"html-keyboard-response","253","576726","0.0-18.0-0.103","5736","approach_avoid_sv1","""event"",""trial"",""time""
""fullscreenenter"",""1"",""1396""
","
","
","""event"",""trial"",""time""
""fullscreenenter"",""1"",""1396""
","
","","","","","","null","<div style=""font-size:60px;"">+</div>","null","","fixation","","",""
"memory-trial","254","578614","0.0-18.0-1.103","5736","approach_avoid_sv1","""event"",""trial"",""time""
""fullscreenenter"",""1"",""1396""
","
","
","""event"",""trial"",""time""
""fullscreenenter"",""1"",""1396""
","
","","","","","","876.2999999523163","images/apple3.png","","","memory_trial","4","definitely_new",""
"html-keyboard-response","255","579118","0.0-18.0-0.104","5736","approach_avoid_sv1","""event"",""trial"",""time""
""fullscreenenter"",""1"",""1396""
","
","
","""event"",""trial"",""time""
""fullscreenenter"",""1"",""1396""
","
","","","","","","null","<div style=""font-size:60px;"">+</div>","null","","fixation","","",""
"memory-trial","256","580966","0.0-18.0-1.104","5736","approach_avoid_sv1","""event"",""trial"",""time""
""fullscreenenter"",""1"",""1396""
","
","
","""event"",""trial"",""time""
""fullscreenenter"",""1"",""1396""
","
","","","","","","841","images/horse6.png","","","memory_trial","4","definitely_new",""
"html-keyboard-response","257","581470","0.0-18.0-0.105","5736","approach_avoid_sv1","""event"",""trial"",""time""
""fullscreenenter"",""1"",""1396""
","
","
","""event"",""trial"",""time""
""fullscreenenter"",""1"",""1396""
","
","","","","","","null","<div style=""font-size:60px;"">+</div>","null","","fixation","","",""
"memory-trial","258","585149","0.0-18.0-1.105","5736","approach_avoid_sv1","""event"",""trial"",""time""
""fullscreenenter"",""1"",""1396""
","
","
","""event"",""trial"",""time""
""fullscreenenter"",""1"",""1396""
","
","","","","","","2673","images/train4.png","","","memory_trial","3","maybe_new",""
"html-keyboard-response","259","585654","0.0-18.0-0.106","5736","approach_avoid_sv1","""event"",""trial"",""time""
""fullscreenenter"",""1"",""1396""
","
","
","""event"",""trial"",""time""
""fullscreenenter"",""1"",""1396""
","
","","","","","","null","<div style=""font-size:60px;"">+</div>","null","","fixation","","",""
"memory-trial","260","587709","0.0-18.0-1.106","5736","approach_avoid_sv1","""event"",""trial"",""time""
""fullscreenenter"",""1"",""1396""
","
","
","""event"",""trial"",""time""
""fullscreenenter"",""1"",""1396""
","
","","","","","","1044.3999999761581","images/orange5.png","","","memory_trial","3","maybe_new",""
"html-keyboard-response","261","588213","0.0-18.0-0.107","5736","approach_avoid_sv1","""event"",""trial"",""time""
""fullscreenenter"",""1"",""1396""
","
","
","""event"",""trial"",""time""
""fullscreenenter"",""1"",""1396""
","
","","","","","","null","<div style=""font-size:60px;"">+</div>","null","","fixation","","",""
"memory-trial","262","590309","0.0-18.0-1.107","5736","approach_avoid_sv1","""event"",""trial"",""time""
""fullscreenenter"",""1"",""1396""
","
","
","""event"",""trial"",""time""
""fullscreenenter"",""1"",""1396""
","
","","","","","","1088.8999999761581","images/tree1.png","","","memory_trial","1","definitely_old",""
"html-keyboard-response","263","590813","0.0-18.0-0.108","5736","approach_avoid_sv1","""event"",""trial"",""time""
""fullscreenenter"",""1"",""1396""
","
","
","""event"",""trial"",""time""
""fullscreenenter"",""1"",""1396""
","
","","","","","","null","<div style=""font-size:60px;"">+</div>","null","","fixation","","",""
"memory-trial","264","593509","0.0-18.0-1.108","5736","approach_avoid_sv1","""event"",""trial"",""time""
""fullscreenenter"",""1"",""1396""
","
","
","""event"",""trial"",""time""
""fullscreenenter"",""1"",""1396""
","
","","","","","","1689.5999999046326","images/cactus6.png","","","memory_trial","4","definitely_new",""
"html-keyboard-response","265","594013","0.0-18.0-0.109","5736","approach_avoid_sv1","""event"",""trial"",""time""
""fullscreenenter"",""1"",""1396""
","
","
","""event"",""trial"",""time""
""fullscreenenter"",""1"",""1396""
","
","","","","","","null","<div style=""font-size:60px;"">+</div>","null","","fixation","","",""
"memory-trial","266","596149","0.0-18.0-1.109","5736","approach_avoid_sv1","""event"",""trial"",""time""
""fullscreenenter"",""1"",""1396""
","
","
","""event"",""trial"",""time""
""fullscreenenter"",""1"",""1396""
","
","","","","","","1129.7999999523163","images/bed1.png","","","memory_trial","2","maybe_old",""
"html-keyboard-response","267","596653","0.0-18.0-0.110","5736","approach_avoid_sv1","""event"",""trial"",""time""
""fullscreenenter"",""1"",""1396""
","
","
","""event"",""trial"",""time""
""fullscreenenter"",""1"",""1396""
","
","","","","","","null","<div style=""font-size:60px;"">+</div>","null","","fixation","","",""
"memory-trial","268","598533","0.0-18.0-1.110","5736","approach_avoid_sv1","""event"",""trial"",""time""
""fullscreenenter"",""1"",""1396""
","
","
","""event"",""trial"",""time""
""fullscreenenter"",""1"",""1396""
","
","","","","","","869.3999999761581","images/truck6.png","","","memory_trial","4","definitely_new",""
"html-keyboard-response","269","599037","0.0-18.0-0.111","5736","approach_avoid_sv1","""event"",""trial"",""time""
""fullscreenenter"",""1"",""1396""
","
","
","""event"",""trial"",""time""
""fullscreenenter"",""1"",""1396""
","
","","","","","","null","<div style=""font-size:60px;"">+</div>","null","","fixation","","",""
"memory-trial","270","601374","0.0-18.0-1.111","5736","approach_avoid_sv1","""event"",""trial"",""time""
""fullscreenenter"",""1"",""1396""
","
","
","""event"",""trial"",""time""
""fullscreenenter"",""1"",""1396""
","
","","","","","","1329.8999999761581","images/straw5.png","","","memory_trial","3","maybe_new",""
"html-keyboard-response","271","601876","0.0-18.0-0.112","5736","approach_avoid_sv1","""event"",""trial"",""time""
""fullscreenenter"",""1"",""1396""
","
","
","""event"",""trial"",""time""
""fullscreenenter"",""1"",""1396""
","
","","","","","","null","<div style=""font-size:60px;"">+</div>","null","","fixation","","",""
"memory-trial","272","604565","0.0-18.0-1.112","5736","approach_avoid_sv1","""event"",""trial"",""time""
""fullscreenenter"",""1"",""1396""
","
","
","""event"",""trial"",""time""
""fullscreenenter"",""1"",""1396""
","
","","","","","","1685.8000000715256","images/rabbit8.png","","","memory_trial","3","maybe_new",""
"html-keyboard-response","273","605069","0.0-18.0-0.113","5736","approach_avoid_sv1","""event"",""trial"",""time""
""fullscreenenter"",""1"",""1396""
","
","
","""event"",""trial"",""time""
""fullscreenenter"",""1"",""1396""
","
","","","","","","null","<div style=""font-size:60px;"">+</div>","null","","fixation","","",""
"memory-trial","274","607950","0.0-18.0-1.113","5736","approach_avoid_sv1","""event"",""trial"",""time""
""fullscreenenter"",""1"",""1396""
","
","
","""event"",""trial"",""time""
""fullscreenenter"",""1"",""1396""
","
","","","","","","1877.3000000715256","images/rodent5.png","","","memory_trial","3","maybe_new",""
"html-keyboard-response","275","608453","0.0-18.0-0.114","5736","approach_avoid_sv1","""event"",""trial"",""time""
""fullscreenenter"",""1"",""1396""
","
","
","""event"",""trial"",""time""
""fullscreenenter"",""1"",""1396""
","
","","","","","","null","<div style=""font-size:60px;"">+</div>","null","","fixation","","",""
"memory-trial","276","610233","0.0-18.0-1.114","5736","approach_avoid_sv1","""event"",""trial"",""time""
""fullscreenenter"",""1"",""1396""
","
","
","""event"",""trial"",""time""
""fullscreenenter"",""1"",""1396""
","
","","","","","","757.3999999761581","images/bush1.png","","","memory_trial","4","definitely_new",""
"html-keyboard-response","277","610742","0.0-18.0-0.115","5736","approach_avoid_sv1","""event"",""trial"",""time""
""fullscreenenter"",""1"",""1396""
","
","
","""event"",""trial"",""time""
""fullscreenenter"",""1"",""1396""
","
","","","","","","null","<div style=""font-size:60px;"">+</div>","null","","fixation","","",""
"memory-trial","278","612886","0.0-18.0-1.115","5736","approach_avoid_sv1","""event"",""trial"",""time""
""fullscreenenter"",""1"",""1396""
","
","
","""event"",""trial"",""time""
""fullscreenenter"",""1"",""1396""
","
","","","","","","1136.1999999284744","images/sheep1.png","","","memory_trial","4","definitely_new",""
"html-keyboard-response","279","613389","0.0-18.0-0.116","5736","approach_avoid_sv1","""event"",""trial"",""time""
""fullscreenenter"",""1"",""1396""
","
","
","""event"",""trial"",""time""
""fullscreenenter"",""1"",""1396""
","
","","","","","","null","<div style=""font-size:60px;"">+</div>","null","","fixation","","",""
"memory-trial","280","615326","0.0-18.0-1.116","5736","approach_avoid_sv1","""event"",""trial"",""time""
""fullscreenenter"",""1"",""1396""
","
","
","""event"",""trial"",""time""
""fullscreenenter"",""1"",""1396""
","
","","","","","","932.7000000476837","images/table5.png","","","memory_trial","4","definitely_new",""
"html-keyboard-response","281","615829","0.0-18.0-0.117","5736","approach_avoid_sv1","""event"",""trial"",""time""
""fullscreenenter"",""1"",""1396""
","
","
","""event"",""trial"",""time""
""fullscreenenter"",""1"",""1396""
","
","","","","","","null","<div style=""font-size:60px;"">+</div>","null","","fixation","","",""
"memory-trial","282","618110","0.0-18.0-1.117","5736","approach_avoid_sv1","""event"",""trial"",""time""
""fullscreenenter"",""1"",""1396""
","
","
","""event"",""trial"",""time""
""fullscreenenter"",""1"",""1396""
","
","","","","","","1276.8999999761581","images/bed6.png","","","memory_trial","3","maybe_new",""
"html-keyboard-response","283","618613","0.0-18.0-0.118","5736","approach_avoid_sv1","""event"",""trial"",""time""
""fullscreenenter"",""1"",""1396""
","
","
","""event"",""trial"",""time""
""fullscreenenter"",""1"",""1396""
","
","","","","","","null","<div style=""font-size:60px;"">+</div>","null","","fixation","","",""
"memory-trial","284","620597","0.0-18.0-1.118","5736","approach_avoid_sv1","""event"",""trial"",""time""
""fullscreenenter"",""1"",""1396""
","
","
","""event"",""trial"",""time""
""fullscreenenter"",""1"",""1396""
","
","","","","","","978.2000000476837","images/table2.png","","","memory_trial","4","definitely_new",""
"html-keyboard-response","285","621102","0.0-18.0-0.119","5736","approach_avoid_sv1","""event"",""trial"",""time""
""fullscreenenter"",""1"",""1396""
","
","
","""event"",""trial"",""time""
""fullscreenenter"",""1"",""1396""
","
","","","","","","null","<div style=""font-size:60px;"">+</div>","null","","fixation","","",""
"memory-trial","286","623094","0.0-18.0-1.119","5736","approach_avoid_sv1","""event"",""trial"",""time""
""fullscreenenter"",""1"",""1396""
","
","
","""event"",""trial"",""time""
""fullscreenenter"",""1"",""1396""
","
","","","","","","988.8999999761581","images/bed7.png","","","memory_trial","3","maybe_new",""
"html-keyboard-response","287","623597","0.0-18.0-0.120","5736","approach_avoid_sv1","""event"",""trial"",""time""
""fullscreenenter"",""1"",""1396""
","
","
","""event"",""trial"",""time""
""fullscreenenter"",""1"",""1396""
","
","","","","","","null","<div style=""font-size:60px;"">+</div>","null","","fixation","","",""
"memory-trial","288","625621","0.0-18.0-1.120","5736","approach_avoid_sv1","""event"",""trial"",""time""
""fullscreenenter"",""1"",""1396""
","
","
","""event"",""trial"",""time""
""fullscreenenter"",""1"",""1396""
","
","","","","","","1013.8999999761581","images/train7.png","","","memory_trial","2","maybe_old",""
"html-keyboard-response","289","626125","0.0-18.0-0.121","5736","approach_avoid_sv1","""event"",""trial"",""time""
""fullscreenenter"",""1"",""1396""
","
","
","""event"",""trial"",""time""
""fullscreenenter"",""1"",""1396""
","
","","","","","","null","<div style=""font-size:60px;"">+</div>","null","","fixation","","",""
"memory-trial","290","628189","0.0-18.0-1.121","5736","approach_avoid_sv1","""event"",""trial"",""time""
""fullscreenenter"",""1"",""1396""
","
","
","""event"",""trial"",""time""
""fullscreenenter"",""1"",""1396""
","
","","","","","","1060.5","images/apple1.png","","","memory_trial","4","definitely_new",""
"html-keyboard-response","291","628693","0.0-18.0-0.122","5736","approach_avoid_sv1","""event"",""trial"",""time""
""fullscreenenter"",""1"",""1396""
","
","
","""event"",""trial"",""time""
""fullscreenenter"",""1"",""1396""
","
","","","","","","null","<div style=""font-size:60px;"">+</div>","null","","fixation","","",""
"memory-trial","292","630309","0.0-18.0-1.122","5736","approach_avoid_sv1","""event"",""trial"",""time""
""fullscreenenter"",""1"",""1396""
","
","
","""event"",""trial"",""time""
""fullscreenenter"",""1"",""1396""
","
","","","","","","612","images/sofa4.png","","","memory_trial","4","definitely_new",""
"html-keyboard-response","293","630813","0.0-18.0-0.123","5736","approach_avoid_sv1","""event"",""trial"",""time""
""fullscreenenter"",""1"",""1396""
","
","
","""event"",""trial"",""time""
""fullscreenenter"",""1"",""1396""
","
","","","","","","null","<div style=""font-size:60px;"">+</div>","null","","fixation","","",""
"memory-trial","294","634854","0.0-18.0-1.123","5736","approach_avoid_sv1","""event"",""trial"",""time""
""fullscreenenter"",""1"",""1396""
","
","
","""event"",""trial"",""time""
""fullscreenenter"",""1"",""1396""
","
","","","","","","3037","images/boat7.png","","","memory_trial","3","maybe_new",""
"html-keyboard-response","295","635357","0.0-18.0-0.124","5736","approach_avoid_sv1","""event"",""trial"",""time""
""fullscreenenter"",""1"",""1396""
","
","
","""event"",""trial"",""time""
""fullscreenenter"",""1"",""1396""
","
","","","","","","null","<div style=""font-size:60px;"">+</div>","null","","fixation","","",""
"memory-trial","296","637094","0.0-18.0-1.124","5736","approach_avoid_sv1","""event"",""trial"",""time""
""fullscreenenter"",""1"",""1396""
","
","
","""event"",""trial"",""time""
""fullscreenenter"",""1"",""1396""
","
","","","","","","728","images/horse3.png","","","memory_trial","4","definitely_new",""
"html-keyboard-response","297","637597","0.0-18.0-0.125","5736","approach_avoid_sv1","""event"",""trial"",""time""
