"trial_type","trial_index","time_elapsed","internal_node_id","subject_id","task_version","interactions","blur_events","focus_events","fullscreenenter_events","fullscreenexit_events","success","timeout","failed_images","failed_audio","failed_video","rt","stimulus","response","button_pressed","task_part","key_press","answer","correct"
"pavlovia","0","3","0.0-0.0","4162","approach_avoid_sv1","""event"",""trial"",""time""
""fullscreenenter"",""1"",""3621""
","
","
","""event"",""trial"",""time""
""fullscreenenter"",""1"",""3621""
","
","","","","","","","","","","","","",""
"fullscreen","1","4621","0.0-1.0","4162","approach_avoid_sv1","""event"",""trial"",""time""
""fullscreenenter"",""1"",""3621""
","
","
","""event"",""trial"",""time""
""fullscreenenter"",""1"",""3621""
","
","true","","","","","","","","","","","",""
"preload","2","6090","0.0-2.0","4162","approach_avoid_sv1","""event"",""trial"",""time""
""fullscreenenter"",""1"",""3621""
","
","
","""event"",""trial"",""time""
""fullscreenenter"",""1"",""3621""
","
","true","false","[]","[]","[]","","","","","","","",""
"preload","3","6722","0.0-3.0","4162","approach_avoid_sv1","""event"",""trial"",""time""
""fullscreenenter"",""1"",""3621""
","
","
","""event"",""trial"",""time""
""fullscreenenter"",""1"",""3621""
","
","true","false","[]","[]","[]","","","","","","","",""
"preload","4","6968","0.0-4.0","4162","approach_avoid_sv1","""event"",""trial"",""time""
""fullscreenenter"",""1"",""3621""
","
","
","""event"",""trial"",""time""
""fullscreenenter"",""1"",""3621""
","
","true","false","[]","[]","[]","","","","","","","",""
"audio-keyboard-response","5","9230","0.0-5.0","4162","approach_avoid_sv1","""event"",""trial"",""time""
""fullscreenenter"",""1"",""3621""
","
","
","""event"",""trial"",""time""
""fullscreenenter"",""1"",""3621""
","
","","","","","","2263.9455782312925","audio/beep_loop.wav"," ","","","","",""
"audio-button-response","6","11312","0.0-6.0","4162","approach_avoid_sv1","""event"",""trial"",""time""
""fullscreenenter"",""1"",""3621""
","
","
","""event"",""trial"",""time""
""fullscreenenter"",""1"",""3621""
","
","","","","","","2078","audio/turtle.wav","3","","","","",""
"audio-button-response","7","13612","0.0-7.0","4162","approach_avoid_sv1","""event"",""trial"",""time""
""fullscreenenter"",""1"",""3621""
","
","
","""event"",""trial"",""time""
""fullscreenenter"",""1"",""3621""
","
","","","","","","1289","audio/shark.wav","2","","","","",""
"preload","8","16159","0.0-8.0","4162","approach_avoid_sv1","""event"",""trial"",""time""
""fullscreenenter"",""1"",""3621""
","
","
","""event"",""trial"",""time""
""fullscreenenter"",""1"",""3621""
","
","true","false","[]","[]","[]","","","","","","","",""
"learning-instructions","9","23362","0.0-9.0-0.0","4162","approach_avoid_sv1","""event"",""trial"",""time""
""fullscreenenter"",""1"",""3621""
","
","
","""event"",""trial"",""time""
""fullscreenenter"",""1"",""3621""
","
","","","","","","2725.4000000059605","<p> Welcome back! </p><p> Last week, you had to make choices about lots of different items.  </p>","","0","instructions","","",""
"learning-instructions","10","28745","0.0-9.0-0.1","4162","approach_avoid_sv1","""event"",""trial"",""time""
""fullscreenenter"",""1"",""3621""
","
","
","""event"",""trial"",""time""
""fullscreenenter"",""1"",""3621""
","
","","","","","","1264.7000000029802","<p> Today, we are going to ask you to try to remember all the items. </p>","","0","instructions","","",""
"learning-instructions","11","39679","0.0-9.0-0.2","4162","approach_avoid_sv1","""event"",""trial"",""time""
""fullscreenenter"",""1"",""3621""
","
","
","""event"",""trial"",""time""
""fullscreenenter"",""1"",""3621""
","
","","","","","","797.5999999940395","<p> On every trial, you will see an image. </p><p> The image may be an OLD image you saw during the games last week or it may be a NEW image that was not presented. </p>","","0","instructions","","",""
"learning-instructions","12","50562","0.0-9.0-0.3","4162","approach_avoid_sv1","""event"",""trial"",""time""
""fullscreenenter"",""1"",""3621""
","
","
","""event"",""trial"",""time""
""fullscreenenter"",""1"",""3621""
","
","","","","","","2379.7000000029802","<p> You need to select whether the image is:  </p><p>  'Definitely old', 'Maybe old', 'Maybe new', or 'Definitely new.'  </p><div class=""mem-choice-instructions-grid""><div class=""choice-option"" id=""choice-option-1"" ><img src=""images/definitely_old_1.png"" id=""choice-option-img-1"" class=""choice-option-img"" stage=""1""></div><div class=""choice-option"" id=""choice-option-2"" ><img src=""images/maybe_old_1.png"" id=""choice-option-img-2"" class=""choice-option-img"" stage=""1""></div><div class=""choice-option"" id=""choice-option-3"" ><img src=""images/maybe_new_1.png"" id=""choice-option-img-3"" class=""choice-option-img"" stage=""1""></div><div class=""choice-option"" id=""choice-option-4"" > <img src=""images/definitely_new_1.png"" id=""choice-option-img-4"" class=""choice-option-img"" stage=""1""></div></div>","","0","instructions","","",""
"learning-instructions","13","58495","0.0-9.0-0.4","4162","approach_avoid_sv1","""event"",""trial"",""time""
""fullscreenenter"",""1"",""3621""
","
","
","""event"",""trial"",""time""
""fullscreenenter"",""1"",""3621""
","
","","","","","","1414.199999988079","<p> You should use the 1, 2, 3, and 4 keys to make your responses.  </p><div class=""mem-choice-instructions-grid""><div class=""choice-option"" id=""choice-option-1"" ><img src=""images/definitely_old.png"" id=""choice-option-img-1"" class=""choice-option-img"" stage=""1""></div><div class=""choice-option"" id=""choice-option-2"" ><img src=""images/maybe_old.png"" id=""choice-option-img-2"" class=""choice-option-img"" stage=""1""></div><div class=""choice-option"" id=""choice-option-3"" ><img src=""images/maybe_new.png"" id=""choice-option-img-3"" class=""choice-option-img"" stage=""1""></div><div class=""choice-option"" id=""choice-option-4"" > <img src=""images/definitely_new.png"" id=""choice-option-img-4"" class=""choice-option-img"" stage=""1""></div></div>","","0","instructions","","",""
"learning-instructions","14","65727","0.0-9.0-0.5","4162","approach_avoid_sv1","""event"",""trial"",""time""
""fullscreenenter"",""1"",""3621""
","
","
","""event"",""trial"",""time""
""fullscreenenter"",""1"",""3621""
","
","","","","","","897.7999999970198","<p> You will have 10 seconds to make each response.  </p><p>  Make sure to respond before time runs out! </p>","","0","instructions","","",""
"learning-instructions","15","73295","0.0-9.0-0.6","4162","approach_avoid_sv1","""event"",""trial"",""time""
""fullscreenenter"",""1"",""3621""
","
","
","""event"",""trial"",""time""
""fullscreenenter"",""1"",""3621""
","
","","","","","","483.20000000298023","<p> Today, you will see each image ONCE only.  </p><p>  That means none of the images will repeat. </p>","","0","instructions","","",""
"learning-instructions","16","86611","0.0-9.0-0.7","4162","approach_avoid_sv1","""event"",""trial"",""time""
""fullscreenenter"",""1"",""3621""
","
","
","""event"",""trial"",""time""
""fullscreenenter"",""1"",""3621""
","
","","","","","","640","<p> Before you play the real game, it is time to practice. </p><p>  Just like in the real game, some of the images in the practice will be ones you have seen before. </p><p>  Others will be entirely new. </p>","","0","instructions","","",""
"html-button-response","17","88162","0.0-10.0","4162","approach_avoid_sv1","""event"",""trial"",""time""
""fullscreenenter"",""1"",""3621""
","
","
","""event"",""trial"",""time""
""fullscreenenter"",""1"",""3621""
","
","","","","","","1441.0999999940395","<p> Ready to practice? </p><p> Remember, use the 1, 2, 3, and 4 keys to make your responses. </p>","0","","instructions","","",""
"html-keyboard-response","18","88782","0.0-11.0-0.0","4162","approach_avoid_sv1","""event"",""trial"",""time""
""fullscreenenter"",""1"",""3621""
","
","
","""event"",""trial"",""time""
""fullscreenenter"",""1"",""3621""
","
","","","","","","null","<div style=""font-size:60px;"">+</div>","null","","fixation","","",""
"memory-trial","19","92082","0.0-11.0-1.0","4162","approach_avoid_sv1","""event"",""trial"",""time""
""fullscreenenter"",""1"",""3621""
","
","
","""event"",""trial"",""time""
""fullscreenenter"",""1"",""3621""
","
","","","","","","2286.7999999970198","images/racket1.png","","","practice","4","definitely_new",""
"html-keyboard-response","20","92586","0.0-11.0-0.1","4162","approach_avoid_sv1","""event"",""trial"",""time""
""fullscreenenter"",""1"",""3621""
","
","
","""event"",""trial"",""time""
""fullscreenenter"",""1"",""3621""
","
","","","","","","null","<div style=""font-size:60px;"">+</div>","null","","fixation","","",""
"memory-trial","21","97238","0.0-11.0-1.1","4162","approach_avoid_sv1","""event"",""trial"",""time""
""fullscreenenter"",""1"",""3621""
","
","
","""event"",""trial"",""time""
""fullscreenenter"",""1"",""3621""
","
","","","","","","3640.5","images/ball2.png","","","practice","2","maybe_old",""
"html-keyboard-response","22","97750","0.0-11.0-0.2","4162","approach_avoid_sv1","""event"",""trial"",""time""
""fullscreenenter"",""1"",""3621""
","
","
","""event"",""trial"",""time""
""fullscreenenter"",""1"",""3621""
","
","","","","","","null","<div style=""font-size:60px;"">+</div>","null","","fixation","","",""
"memory-trial","23","104098","0.0-11.0-1.2","4162","approach_avoid_sv1","""event"",""trial"",""time""
""fullscreenenter"",""1"",""3621""
","
","
","""event"",""trial"",""time""
""fullscreenenter"",""1"",""3621""
","
","","","","","","5343.199999988079","images/ball1.png","","","practice","2","maybe_old",""
"html-keyboard-response","24","104602","0.0-11.0-0.3","4162","approach_avoid_sv1","""event"",""trial"",""time""
""fullscreenenter"",""1"",""3621""
","
","
","""event"",""trial"",""time""
""fullscreenenter"",""1"",""3621""
","
","","","","","","null","<div style=""font-size:60px;"">+</div>","null","","fixation","","",""
"memory-trial","25","107598","0.0-11.0-1.3","4162","approach_avoid_sv1","""event"",""trial"",""time""
""fullscreenenter"",""1"",""3621""
","
","
","""event"",""trial"",""time""
""fullscreenenter"",""1"",""3621""
","
","","","","","","1982.2999999970198","images/racket2.png","","","practice","1","definitely_old",""
"html-keyboard-response","26","108109","0.0-11.0-0.4","4162","approach_avoid_sv1","""event"",""trial"",""time""
""fullscreenenter"",""1"",""3621""
","
","
","""event"",""trial"",""time""
""fullscreenenter"",""1"",""3621""
","
","","","","","","null","<div style=""font-size:60px;"">+</div>","null","","fixation","","",""
"memory-trial","27","110073","0.0-11.0-1.4","4162","approach_avoid_sv1","""event"",""trial"",""time""
""fullscreenenter"",""1"",""3621""
","
","
","""event"",""trial"",""time""
""fullscreenenter"",""1"",""3621""
","
","","","","","","952","images/racket3.png","","","practice","1","definitely_old",""
"html-keyboard-response","28","110577","0.0-11.0-0.5","4162","approach_avoid_sv1","""event"",""trial"",""time""
""fullscreenenter"",""1"",""3621""
","
","
","""event"",""trial"",""time""
""fullscreenenter"",""1"",""3621""
","
","","","","","","null","<div style=""font-size:60px;"">+</div>","null","","fixation","","",""
"memory-trial","29","113513","0.0-11.0-1.5","4162","approach_avoid_sv1","""event"",""trial"",""time""
""fullscreenenter"",""1"",""3621""
","
","
","""event"",""trial"",""time""
""fullscreenenter"",""1"",""3621""
","
","","","","","","1927.4000000059605","images/ball5.png","","","practice","2","maybe_old",""
"html-keyboard-response","30","114021","0.0-11.0-0.6","4162","approach_avoid_sv1","""event"",""trial"",""time""
""fullscreenenter"",""1"",""3621""
","
","
","""event"",""trial"",""time""
""fullscreenenter"",""1"",""3621""
","
","","","","","","null","<div style=""font-size:60px;"">+</div>","null","","fixation","","",""
"memory-trial","31","116225","0.0-11.0-1.6","4162","approach_avoid_sv1","""event"",""trial"",""time""
""fullscreenenter"",""1"",""3621""
","
","
","""event"",""trial"",""time""
""fullscreenenter"",""1"",""3621""
","
","","","","","","1193.2000000029802","images/racket5.png","","","practice","2","maybe_old",""
"html-keyboard-response","32","116729","0.0-11.0-0.7","4162","approach_avoid_sv1","""event"",""trial"",""time""
""fullscreenenter"",""1"",""3621""
","
","
","""event"",""trial"",""time""
""fullscreenenter"",""1"",""3621""
","
","","","","","","null","<div style=""font-size:60px;"">+</div>","null","","fixation","","",""
"memory-trial","33","120689","0.0-11.0-1.7","4162","approach_avoid_sv1","""event"",""trial"",""time""
""fullscreenenter"",""1"",""3621""
","
","
","""event"",""trial"",""time""
""fullscreenenter"",""1"",""3621""
","
","","","","","","2949.199999988079","images/ball3.png","","","practice","3","maybe_new",""
"learning-instructions","34","129727","0.0-12.0-0.0","4162","approach_avoid_sv1","""event"",""trial"",""time""
""fullscreenenter"",""1"",""3621""
","
","
","""event"",""trial"",""time""
""fullscreenenter"",""1"",""3621""
","
","","","","","","1695.2999999970198","<p> Great! You have completed the practice. </p><p> Before you start, we're going to ask you a few questions about how the game works.  </p>","","0","instructions","","",""
"preload","35","130924","0.0-13.0","4162","approach_avoid_sv1","""event"",""trial"",""time""
""fullscreenenter"",""1"",""3621""
","
","
","""event"",""trial"",""time""
""fullscreenenter"",""1"",""3621""
","
","true","false","[]","[]","[]","","","","","","","",""
"comp-q","36","137795","0.0-14.0-0.0","4162","approach_avoid_sv1","""event"",""trial"",""time""
""fullscreenenter"",""1"",""3621""
","
","
","""event"",""trial"",""time""
""fullscreenenter"",""1"",""3621""
","
","","","","","","1044","<p> <b> True or False? </b> </p><p> In this game, you will only see each image once. </p>","","0","comp_question","","","true"
"comp-q","37","146278","0.0-14.0-1.0","4162","approach_avoid_sv1","""event"",""trial"",""time""
""fullscreenenter"",""1"",""3621""
","
","
","""event"",""trial"",""time""
""fullscreenenter"",""1"",""3621""
","
","","","","","","2143.6000000089407","<p> <b> That's right! </b> You will see many different images <i> one time each </i> in this game. </p>","","0","comp_answer","","",""
"comp-q","38","152045","0.0-15.0-0.0","4162","approach_avoid_sv1","""event"",""trial"",""time""
""fullscreenenter"",""1"",""3621""
","
","
","""event"",""trial"",""time""
""fullscreenenter"",""1"",""3621""
","
","","","","","","752.1000000089407","<p> <b> True or False? </b> </p><p> You should use the mouse and click to make your response. </p>","","1","comp_question","","","true"
"comp-q","39","159295","0.0-15.0-1.0","4162","approach_avoid_sv1","""event"",""trial"",""time""
""fullscreenenter"",""1"",""3621""
","
","
","""event"",""trial"",""time""
""fullscreenenter"",""1"",""3621""
","
","","","","","","747","<p><b> That's right! </b> You should use the '1', '2', '3', and '4' keys to make your response. </p>","","0","comp_answer","","",""
"comp-q","40","166694","0.0-16.0-0.0","4162","approach_avoid_sv1","""event"",""trial"",""time""
""fullscreenenter"",""1"",""3621""
","
","
","""event"",""trial"",""time""
""fullscreenenter"",""1"",""3621""
","
","","","","","","1720.1000000089407","<p> <b> True or False? </b> </p><p> You will have as much time as you want to make each choice. </p>","","1","comp_question","","","true"
"comp-q","41","173361","0.0-16.0-1.0","4162","approach_avoid_sv1","""event"",""trial"",""time""
""fullscreenenter"",""1"",""3621""
","
","
","""event"",""trial"",""time""
""fullscreenenter"",""1"",""3621""
","
","","","","","","1966","<p> <b> That's right! </b> You will only have 10 seconds to make each choice. </p>","","0","comp_answer","","",""
"learning-instructions","42","183727","0.0-17.0","4162","approach_avoid_sv1","""event"",""trial"",""time""
""fullscreenenter"",""1"",""3621""
","
","
","""event"",""trial"",""time""
""fullscreenenter"",""1"",""3621""
","
","","","","","","1691.5999999940395","<p> Great! You are now ready to begin the game. </p><p> Remember, use the 1, 2, 3, and 4 keys to make your responses. </p>","","0","instructions","","",""
"html-keyboard-response","43","184335","0.0-18.0-0.0","4162","approach_avoid_sv1","""event"",""trial"",""time""
""fullscreenenter"",""1"",""3621""
","
","
","""event"",""trial"",""time""
""fullscreenenter"",""1"",""3621""
","
","","","","","","null","<div style=""font-size:60px;"">+</div>","null","","fixation","","",""
"memory-trial","44","188154","0.0-18.0-1.0","4162","approach_avoid_sv1","""event"",""trial"",""time""
""fullscreenenter"",""1"",""3621""
","
","
","""event"",""trial"",""time""
""fullscreenenter"",""1"",""3621""
","
","","","","","","2802.9000000059605","images/banana8.png","","","memory_trial","3","maybe_new",""
"html-keyboard-response","45","188663","0.0-18.0-0.1","4162","approach_avoid_sv1","""event"",""trial"",""time""
""fullscreenenter"",""1"",""3621""
","
","
","""event"",""trial"",""time""
""fullscreenenter"",""1"",""3621""
","
","","","","","","null","<div style=""font-size:60px;"">+</div>","null","","fixation","","",""
"memory-trial","46","191898","0.0-18.0-1.1","4162","approach_avoid_sv1","""event"",""trial"",""time""
""fullscreenenter"",""1"",""3621""
","
","
","""event"",""trial"",""time""
""fullscreenenter"",""1"",""3621""
","
","","","","","","2220.9000000059605","images/boat7.png","","","memory_trial","4","definitely_new",""
"html-keyboard-response","47","192406","0.0-18.0-0.2","4162","approach_avoid_sv1","""event"",""trial"",""time""
""fullscreenenter"",""1"",""3621""
","
","
","""event"",""trial"",""time""
""fullscreenenter"",""1"",""3621""
","
","","","","","","null","<div style=""font-size:60px;"">+</div>","null","","fixation","","",""
"memory-trial","48","195678","0.0-18.0-1.2","4162","approach_avoid_sv1","""event"",""trial"",""time""
""fullscreenenter"",""1"",""3621""
","
","
","""event"",""trial"",""time""
""fullscreenenter"",""1"",""3621""
","
","","","","","","2260.5","images/rabbit5.png","","","memory_trial","2","maybe_old",""
"html-keyboard-response","49","196182","0.0-18.0-0.3","4162","approach_avoid_sv1","""event"",""trial"",""time""
""fullscreenenter"",""1"",""3621""
","
","
","""event"",""trial"",""time""
""fullscreenenter"",""1"",""3621""
","
","","","","","","null","<div style=""font-size:60px;"">+</div>","null","","fixation","","",""
"memory-trial","50","198746","0.0-18.0-1.3","4162","approach_avoid_sv1","""event"",""trial"",""time""
""fullscreenenter"",""1"",""3621""
","
","
","""event"",""trial"",""time""
""fullscreenenter"",""1"",""3621""
","
","","","","","","1549.8999999910593","images/cactus2.png","","","memory_trial","1","definitely_old",""
"html-keyboard-response","51","199257","0.0-18.0-0.4","4162","approach_avoid_sv1","""event"",""trial"",""time""
""fullscreenenter"",""1"",""3621""
","
","
","""event"",""trial"",""time""
""fullscreenenter"",""1"",""3621""
","
","","","","","","null","<div style=""font-size:60px;"">+</div>","null","","fixation","","",""
"memory-trial","52","203071","0.0-18.0-1.4","4162","approach_avoid_sv1","""event"",""trial"",""time""
""fullscreenenter"",""1"",""3621""
","
","
","""event"",""trial"",""time""
""fullscreenenter"",""1"",""3621""
","
","","","","","","2804.8999999910593","images/cat4.png","","","memory_trial","4","definitely_new",""
"html-keyboard-response","53","203574","0.0-18.0-0.5","4162","approach_avoid_sv1","""event"",""trial"",""time""
""fullscreenenter"",""1"",""3621""
","
","
","""event"",""trial"",""time""
""fullscreenenter"",""1"",""3621""
","
","","","","","","null","<div style=""font-size:60px;"">+</div>","null","","fixation","","",""
"memory-trial","54","205985","0.0-18.0-1.5","4162","approach_avoid_sv1","""event"",""trial"",""time""
""fullscreenenter"",""1"",""3621""
","
","
","""event"",""trial"",""time""
""fullscreenenter"",""1"",""3621""
","
","","","","","","1403","images/flower5.png","","","memory_trial","1","definitely_old",""
"html-keyboard-response","55","206498","0.0-18.0-0.6","4162","approach_avoid_sv1","""event"",""trial"",""time""
""fullscreenenter"",""1"",""3621""
","
","
","""event"",""trial"",""time""
""fullscreenenter"",""1"",""3621""
","
","","","","","","null","<div style=""font-size:60px;"">+</div>","null","","fixation","","",""
"memory-trial","56","209122","0.0-18.0-1.6","4162","approach_avoid_sv1","""event"",""trial"",""time""
""fullscreenenter"",""1"",""3621""
","
","
","""event"",""trial"",""time""
""fullscreenenter"",""1"",""3621""
","
","","","","","","1615.7000000029802","images/table4.png","","","memory_trial","4","definitely_new",""
"html-keyboard-response","57","209634","0.0-18.0-0.7","4162","approach_avoid_sv1","""event"",""trial"",""time""
""fullscreenenter"",""1"",""3621""
","
","
","""event"",""trial"",""time""
""fullscreenenter"",""1"",""3621""
","
","","","","","","null","<div style=""font-size:60px;"">+</div>","null","","fixation","","",""
"memory-trial","58","212006","0.0-18.0-1.7","4162","approach_avoid_sv1","""event"",""trial"",""time""
""fullscreenenter"",""1"",""3621""
","
","
","""event"",""trial"",""time""
""fullscreenenter"",""1"",""3621""
","
","","","","","","1365.7999999970198","images/train6.png","","","memory_trial","1","definitely_old",""
"html-keyboard-response","59","212509","0.0-18.0-0.8","4162","approach_avoid_sv1","""event"",""trial"",""time""
""fullscreenenter"",""1"",""3621""
","
","
","""event"",""trial"",""time""
""fullscreenenter"",""1"",""3621""
","
","","","","","","null","<div style=""font-size:60px;"">+</div>","null","","fixation","","",""
"memory-trial","60","215037","0.0-18.0-1.8","4162","approach_avoid_sv1","""event"",""trial"",""time""
""fullscreenenter"",""1"",""3621""
","
","
","""event"",""trial"",""time""
""fullscreenenter"",""1"",""3621""
","
","","","","","","1523.3999999910593","images/straw4.png","","","memory_trial","1","definitely_old",""
"html-keyboard-response","61","215541","0.0-18.0-0.9","4162","approach_avoid_sv1","""event"",""trial"",""time""
""fullscreenenter"",""1"",""3621""
","
","
","""event"",""trial"",""time""
""fullscreenenter"",""1"",""3621""
","
","","","","","","null","<div style=""font-size:60px;"">+</div>","null","","fixation","","",""
"memory-trial","62","218877","0.0-18.0-1.9","4162","approach_avoid_sv1","""event"",""trial"",""time""
""fullscreenenter"",""1"",""3621""
","
","
","""event"",""trial"",""time""
""fullscreenenter"",""1"",""3621""
","
","","","","","","2332","images/horse2.png","","","memory_trial","3","maybe_new",""
"html-keyboard-response","63","219381","0.0-18.0-0.10","4162","approach_avoid_sv1","""event"",""trial"",""time""
""fullscreenenter"",""1"",""3621""
","
","
","""event"",""trial"",""time""
""fullscreenenter"",""1"",""3621""
","
","","","","","","null","<div style=""font-size:60px;"">+</div>","null","","fixation","","",""
"memory-trial","64","221753","0.0-18.0-1.10","4162","approach_avoid_sv1","""event"",""trial"",""time""
""fullscreenenter"",""1"",""3621""
","
","
","""event"",""trial"",""time""
""fullscreenenter"",""1"",""3621""
","
","","","","","","1359.2999999970198","images/sheep3.png","","","memory_trial","4","definitely_new",""
"html-keyboard-response","65","222261","0.0-18.0-0.11","4162","approach_avoid_sv1","""event"",""trial"",""time""
""fullscreenenter"",""1"",""3621""
","
","
","""event"",""trial"",""time""
""fullscreenenter"",""1"",""3621""
","
","","","","","","null","<div style=""font-size:60px;"">+</div>","null","","fixation","","",""
"memory-trial","66","225173","0.0-18.0-1.11","4162","approach_avoid_sv1","""event"",""trial"",""time""
""fullscreenenter"",""1"",""3621""
","
","
","""event"",""trial"",""time""
""fullscreenenter"",""1"",""3621""
","
","","","","","","1907.6000000089407","images/rodent8.png","","","memory_trial","1","definitely_old",""
"html-keyboard-response","67","225677","0.0-18.0-0.12","4162","approach_avoid_sv1","""event"",""trial"",""time""
""fullscreenenter"",""1"",""3621""
","
","
","""event"",""trial"",""time""
""fullscreenenter"",""1"",""3621""
","
","","","","","","null","<div style=""font-size:60px;"">+</div>","null","","fixation","","",""
"memory-trial","68","229973","0.0-18.0-1.12","4162","approach_avoid_sv1","""event"",""trial"",""time""
""fullscreenenter"",""1"",""3621""
","
","
","""event"",""trial"",""time""
""fullscreenenter"",""1"",""3621""
","
","","","","","","3290.5999999940395","images/orange4.png","","","memory_trial","4","definitely_new",""
"html-keyboard-response","69","230477","0.0-18.0-0.13","4162","approach_avoid_sv1","""event"",""trial"",""time""
""fullscreenenter"",""1"",""3621""
","
","
","""event"",""trial"",""time""
""fullscreenenter"",""1"",""3621""
","
","","","","","","null","<div style=""font-size:60px;"">+</div>","null","","fixation","","",""
"memory-trial","70","233037","0.0-18.0-1.13","4162","approach_avoid_sv1","""event"",""trial"",""time""
""fullscreenenter"",""1"",""3621""
","
","
","""event"",""trial"",""time""
""fullscreenenter"",""1"",""3621""
","
","","","","","","1550.699999988079","images/boat1.png","","","memory_trial","4","definitely_new",""
"html-keyboard-response","71","233541","0.0-18.0-0.14","4162","approach_avoid_sv1","""event"",""trial"",""time""
""fullscreenenter"",""1"",""3621""
","
","
","""event"",""trial"",""time""
""fullscreenenter"",""1"",""3621""
","
","","","","","","null","<div style=""font-size:60px;"">+</div>","null","","fixation","","",""
"memory-trial","72","236077","0.0-18.0-1.14","4162","approach_avoid_sv1","""event"",""trial"",""time""
""fullscreenenter"",""1"",""3621""
","
","
","""event"",""trial"",""time""
""fullscreenenter"",""1"",""3621""
","
","","","","","","1528.4000000059605","images/goat3.png","","","memory_trial","1","definitely_old",""
"html-keyboard-response","73","236580","0.0-18.0-0.15","4162","approach_avoid_sv1","""event"",""trial"",""time""
""fullscreenenter"",""1"",""3621""
","
","
","""event"",""trial"",""time""
""fullscreenenter"",""1"",""3621""
","
","","","","","","null","<div style=""font-size:60px;"">+</div>","null","","fixation","","",""
"memory-trial","74","239620","0.0-18.0-1.15","4162","approach_avoid_sv1","""event"",""trial"",""time""
""fullscreenenter"",""1"",""3621""
","
","
","""event"",""trial"",""time""
""fullscreenenter"",""1"",""3621""
","
","","","","","","2031","images/horse8.png","","","memory_trial","3","maybe_new",""
"html-keyboard-response","75","240125","0.0-18.0-0.16","4162","approach_avoid_sv1","""event"",""trial"",""time""
""fullscreenenter"",""1"",""3621""
","
","
","""event"",""trial"",""time""
""fullscreenenter"",""1"",""3621""
","
","","","","","","null","<div style=""font-size:60px;"">+</div>","null","","fixation","","",""
"memory-trial","76","243996","0.0-18.0-1.16","4162","approach_avoid_sv1","""event"",""trial"",""time""
""fullscreenenter"",""1"",""3621""
","
","
","""event"",""trial"",""time""
""fullscreenenter"",""1"",""3621""
","
","","","","","","2866.6000000089407","images/straw8.png","","","memory_trial","3","maybe_new",""
"html-keyboard-response","77","244500","0.0-18.0-0.17","4162","approach_avoid_sv1","""event"",""trial"",""time""
""fullscreenenter"",""1"",""3621""
","
","
","""event"",""trial"",""time""
""fullscreenenter"",""1"",""3621""
","
","","","","","","null","<div style=""font-size:60px;"">+</div>","null","","fixation","","",""
"memory-trial","78","247580","0.0-18.0-1.17","4162","approach_avoid_sv1","""event"",""trial"",""time""
""fullscreenenter"",""1"",""3621""
","
","
","""event"",""trial"",""time""
""fullscreenenter"",""1"",""3621""
","
","","","","","","2075.5","images/cat2.png","","","memory_trial","3","maybe_new",""
"html-keyboard-response","79","248084","0.0-18.0-0.18","4162","approach_avoid_sv1","""event"",""trial"",""time""
""fullscreenenter"",""1"",""3621""
","
","
","""event"",""trial"",""time""
""fullscreenenter"",""1"",""3621""
","
","","","","","","null","<div style=""font-size:60px;"">+</div>","null","","fixation","","",""
"memory-trial","80","250244","0.0-18.0-1.18","4162","approach_avoid_sv1","""event"",""trial"",""time""
""fullscreenenter"",""1"",""3621""
","
","
","""event"",""trial"",""time""
""fullscreenenter"",""1"",""3621""
","
","","","","","","1148.0999999940395","images/boat8.png","","","memory_trial","4","definitely_new",""
"html-keyboard-response","81","250748","0.0-18.0-0.19","4162","approach_avoid_sv1","""event"",""trial"",""time""
""fullscreenenter"",""1"",""3621""
","
","
","""event"",""trial"",""time""
""fullscreenenter"",""1"",""3621""
","
","","","","","","null","<div style=""font-size:60px;"">+</div>","null","","fixation","","",""
"memory-trial","82","253332","0.0-18.0-1.19","4162","approach_avoid_sv1","""event"",""trial"",""time""
""fullscreenenter"",""1"",""3621""
","
","
","""event"",""trial"",""time""
""fullscreenenter"",""1"",""3621""
","
","","","","","","1576.7999999970198","images/flower3.png","","","memory_trial","4","definitely_new",""
"html-keyboard-response","83","253836","0.0-18.0-0.20","4162","approach_avoid_sv1","""event"",""trial"",""time""
""fullscreenenter"",""1"",""3621""
","
","
","""event"",""trial"",""time""
""fullscreenenter"",""1"",""3621""
","
","","","","","","null","<div style=""font-size:60px;"">+</div>","null","","fixation","","",""
"memory-trial","84","255884","0.0-18.0-1.20","4162","approach_avoid_sv1","""event"",""trial"",""time""
""fullscreenenter"",""1"",""3621""
","
","
","""event"",""trial"",""time""
""fullscreenenter"",""1"",""3621""
","
","","","","","","1044.2999999970198","images/sofa6.png","","","memory_trial","4","definitely_new",""
"html-keyboard-response","85","256388","0.0-18.0-0.21","4162","approach_avoid_sv1","""event"",""trial"",""time""
""fullscreenenter"",""1"",""3621""
","
","
","""event"",""trial"",""time""
""fullscreenenter"",""1"",""3621""
","
","","","","","","null","<div style=""font-size:60px;"">+</div>","null","","fixation","","",""
"memory-trial","86","259452","0.0-18.0-1.21","4162","approach_avoid_sv1","""event"",""trial"",""time""
""fullscreenenter"",""1"",""3621""
","
","
","""event"",""trial"",""time""
""fullscreenenter"",""1"",""3621""
","
","","","","","","2058.2000000029802","images/apple4.png","","","memory_trial","1","definitely_old",""
"html-keyboard-response","87","259956","0.0-18.0-0.22","4162","approach_avoid_sv1","""event"",""trial"",""time""
""fullscreenenter"",""1"",""3621""
","
","
","""event"",""trial"",""time""
""fullscreenenter"",""1"",""3621""
","
","","","","","","null","<div style=""font-size:60px;"">+</div>","null","","fixation","","",""
"memory-trial","88","262948","0.0-18.0-1.22","4162","approach_avoid_sv1","""event"",""trial"",""time""
""fullscreenenter"",""1"",""3621""
","
","
","""event"",""trial"",""time""
""fullscreenenter"",""1"",""3621""
","
","","","","","","1984.4000000059605","images/rodent7.png","","","memory_trial","3","maybe_new",""
"html-keyboard-response","89","263452","0.0-18.0-0.23","4162","approach_avoid_sv1","""event"",""trial"",""time""
""fullscreenenter"",""1"",""3621""
","
","
","""event"",""trial"",""time""
""fullscreenenter"",""1"",""3621""
","
","","","","","","null","<div style=""font-size:60px;"">+</div>","null","","fixation","","",""
"memory-trial","90","266535","0.0-18.0-1.23","4162","approach_avoid_sv1","""event"",""trial"",""time""
""fullscreenenter"",""1"",""3621""
","
","
","""event"",""trial"",""time""
""fullscreenenter"",""1"",""3621""
","
","","","","","","2068","images/truck5.png","","","memory_trial","2","maybe_old",""
"html-keyboard-response","91","267043","0.0-18.0-0.24","4162","approach_avoid_sv1","""event"",""trial"",""time""
""fullscreenenter"",""1"",""3621""
","
","
","""event"",""trial"",""time""
""fullscreenenter"",""1"",""3621""
","
","","","","","","null","<div style=""font-size:60px;"">+</div>","null","","fixation","","",""
"memory-trial","92","271919","0.0-18.0-1.24","4162","approach_avoid_sv1","""event"",""trial"",""time""
""fullscreenenter"",""1"",""3621""
","
","
","""event"",""trial"",""time""
""fullscreenenter"",""1"",""3621""
","
","","","","","","3864.0999999940395","images/bed1.png","","","memory_trial","2","maybe_old",""
"html-keyboard-response","93","272427","0.0-18.0-0.25","4162","approach_avoid_sv1","""event"",""trial"",""time""
""fullscreenenter"",""1"",""3621""
","
","
","""event"",""trial"",""time""
""fullscreenenter"",""1"",""3621""
","
","","","","","","null","<div style=""font-size:60px;"">+</div>","null","","fixation","","",""
"memory-trial","94","275163","0.0-18.0-1.25","4162","approach_avoid_sv1","""event"",""trial"",""time""
""fullscreenenter"",""1"",""3621""
","
","
","""event"",""trial"",""time""
""fullscreenenter"",""1"",""3621""
","
","","","","","","1728.7999999970198","images/straw1.png","","","memory_trial","2","maybe_old",""
"html-keyboard-response","95","275667","0.0-18.0-0.26","4162","approach_avoid_sv1","""event"",""trial"",""time""
""fullscreenenter"",""1"",""3621""
","
","
","""event"",""trial"",""time""
""fullscreenenter"",""1"",""3621""
","
","","","","","","null","<div style=""font-size:60px;"">+</div>","null","","fixation","","",""
"memory-trial","96","279075","0.0-18.0-1.26","4162","approach_avoid_sv1","""event"",""trial"",""time""
""fullscreenenter"",""1"",""3621""
","
","
","""event"",""trial"",""time""
""fullscreenenter"",""1"",""3621""
","
","","","","","","2403.9000000059605","images/goat4.png","","","memory_trial","1","definitely_old",""
"html-keyboard-response","97","279579","0.0-18.0-0.27","4162","approach_avoid_sv1","""event"",""trial"",""time""
""fullscreenenter"",""1"",""3621""
","
","
","""event"",""trial"",""time""
""fullscreenenter"",""1"",""3621""
","
","","","","","","null","<div style=""font-size:60px;"">+</div>","null","","fixation","","",""
"memory-trial","98","282491","0.0-18.0-1.27","4162","approach_avoid_sv1","""event"",""trial"",""time""
""fullscreenenter"",""1"",""3621""
","
","
","""event"",""trial"",""time""
""fullscreenenter"",""1"",""3621""
","
","","","","","","1902.5","images/sofa7.png","","","memory_trial","4","definitely_new",""
"html-keyboard-response","99","282995","0.0-18.0-0.28","4162","approach_avoid_sv1","""event"",""trial"",""time""
""fullscreenenter"",""1"",""3621""
","
","
","""event"",""trial"",""time""
""fullscreenenter"",""1"",""3621""
","
","","","","","","null","<div style=""font-size:60px;"">+</div>","null","","fixation","","",""
"memory-trial","100","287115","0.0-18.0-1.28","4162","approach_avoid_sv1","""event"",""trial"",""time""
""fullscreenenter"",""1"",""3621""
","
","
","""event"",""trial"",""time""
""fullscreenenter"",""1"",""3621""
","
","","","","","","3110.2999999970198","images/cactus6.png","","","memory_trial","3","maybe_new",""
"html-keyboard-response","101","287619","0.0-18.0-0.29","4162","approach_avoid_sv1","""event"",""trial"",""time""
""fullscreenenter"",""1"",""3621""
","
","
","""event"",""trial"",""time""
""fullscreenenter"",""1"",""3621""
","
","","","","","","null","<div style=""font-size:60px;"">+</div>","null","","fixation","","",""
"memory-trial","102","290739","0.0-18.0-1.29","4162","approach_avoid_sv1","""event"",""trial"",""time""
""fullscreenenter"",""1"",""3621""
","
","
","""event"",""trial"",""time""
""fullscreenenter"",""1"",""3621""
","
","","","","","","2111.2000000029802","images/apple7.png","","","memory_trial","2","maybe_old",""
"html-keyboard-response","103","291243","0.0-18.0-0.30","4162","approach_avoid_sv1","""event"",""trial"",""time""
""fullscreenenter"",""1"",""3621""
","
","
","""event"",""trial"",""time""
""fullscreenenter"",""1"",""3621""
","
","","","","","","null","<div style=""font-size:60px;"">+</div>","null","","fixation","","",""
"memory-trial","104","293995","0.0-18.0-1.30","4162","approach_avoid_sv1","""event"",""trial"",""time""
""fullscreenenter"",""1"",""3621""
","
","
","""event"",""trial"",""time""
""fullscreenenter"",""1"",""3621""
","
","","","","","","1745.5999999940395","images/horse6.png","","","memory_trial","2","maybe_old",""
"html-keyboard-response","105","294499","0.0-18.0-0.31","4162","approach_avoid_sv1","""event"",""trial"",""time""
""fullscreenenter"",""1"",""3621""
","
","
","""event"",""trial"",""time""
""fullscreenenter"",""1"",""3621""
","
","","","","","","null","<div style=""font-size:60px;"">+</div>","null","","fixation","","",""
"memory-trial","106","298074","0.0-18.0-1.31","4162","approach_avoid_sv1","""event"",""trial"",""time""
""fullscreenenter"",""1"",""3621""
","
","
","""event"",""trial"",""time""
""fullscreenenter"",""1"",""3621""
","
","","","","","","2570.2999999970198","images/straw7.png","","","memory_trial","1","definitely_old",""
"html-keyboard-response","107","298578","0.0-18.0-0.32","4162","approach_avoid_sv1","""event"",""trial"",""time""
""fullscreenenter"",""1"",""3621""
","
","
","""event"",""trial"",""time""
""fullscreenenter"",""1"",""3621""
","
","","","","","","null","<div style=""font-size:60px;"">+</div>","null","","fixation","","",""
"memory-trial","108","301859","0.0-18.0-1.32","4162","approach_avoid_sv1","""event"",""trial"",""time""
""fullscreenenter"",""1"",""3621""
","
","
","""event"",""trial"",""time""
""fullscreenenter"",""1"",""3621""
","
","","","","","","2269.5999999940395","images/sofa4.png","","","memory_trial","4","definitely_new",""
"html-keyboard-response","109","302362","0.0-18.0-0.33","4162","approach_avoid_sv1","""event"",""trial"",""time""
""fullscreenenter"",""1"",""3621""
","
","
","""event"",""trial"",""time""
""fullscreenenter"",""1"",""3621""
","
","","","","","","null","<div style=""font-size:60px;"">+</div>","null","","fixation","","",""
"memory-trial","110","305386","0.0-18.0-1.33","4162","approach_avoid_sv1","""event"",""trial"",""time""
""fullscreenenter"",""1"",""3621""
","
","
","""event"",""trial"",""time""
""fullscreenenter"",""1"",""3621""
","
","","","","","","2016.2000000029802","images/apple6.png","","","memory_trial","3","maybe_new",""
"html-keyboard-response","111","305890","0.0-18.0-0.34","4162","approach_avoid_sv1","""event"",""trial"",""time""
""fullscreenenter"",""1"",""3621""
","
","
","""event"",""trial"",""time""
""fullscreenenter"",""1"",""3621""
","
","","","","","","null","<div style=""font-size:60px;"">+</div>","null","","fixation","","",""
"memory-trial","112","308202","0.0-18.0-1.34","4162","approach_avoid_sv1","""event"",""trial"",""time""
""fullscreenenter"",""1"",""3621""
","
","
","""event"",""trial"",""time""
""fullscreenenter"",""1"",""3621""
","
","","","","","","1302.5","images/cow3.png","","","memory_trial","1","definitely_old",""
"html-keyboard-response","113","308706","0.0-18.0-0.35","4162","approach_avoid_sv1","""event"",""trial"",""time""
""fullscreenenter"",""1"",""3621""
","
","
","""event"",""trial"",""time""
""fullscreenenter"",""1"",""3621""
","
","","","","","","null","<div style=""font-size:60px;"">+</div>","null","","fixation","","",""
"memory-trial","114","310754","0.0-18.0-1.35","4162","approach_avoid_sv1","""event"",""trial"",""time""
""fullscreenenter"",""1"",""3621""
","
","
","""event"",""trial"",""time""
""fullscreenenter"",""1"",""3621""
","
","","","","","","1043.6000000089407","images/goat8.png","","","memory_trial","1","definitely_old",""
"html-keyboard-response","115","311258","0.0-18.0-0.36","4162","approach_avoid_sv1","""event"",""trial"",""time""
""fullscreenenter"",""1"",""3621""
","
","
","""event"",""trial"",""time""
""fullscreenenter"",""1"",""3621""
","
","","","","","","null","<div style=""font-size:60px;"">+</div>","null","","fixation","","",""
"memory-trial","116","314986","0.0-18.0-1.36","4162","approach_avoid_sv1","""event"",""trial"",""time""
""fullscreenenter"",""1"",""3621""
","
","
","""event"",""trial"",""time""
""fullscreenenter"",""1"",""3621""
","
","","","","","","2720.2999999970198","images/table5.png","","","memory_trial","3","maybe_new",""
"html-keyboard-response","117","315494","0.0-18.0-0.37","4162","approach_avoid_sv1","""event"",""trial"",""time""
""fullscreenenter"",""1"",""3621""
","
","
","""event"",""trial"",""time""
""fullscreenenter"",""1"",""3621""
","
","","","","","","null","<div style=""font-size:60px;"">+</div>","null","","fixation","","",""
"memory-trial","118","317690","0.0-18.0-1.37","4162","approach_avoid_sv1","""event"",""trial"",""time""
""fullscreenenter"",""1"",""3621""
","
","
","""event"",""trial"",""time""
""fullscreenenter"",""1"",""3621""
","
","","","","","","1186","images/chair7.png","","","memory_trial","4","definitely_new",""
"html-keyboard-response","119","318194","0.0-18.0-0.38","4162","approach_avoid_sv1","""event"",""trial"",""time""
""fullscreenenter"",""1"",""3621""
","
","
","""event"",""trial"",""time""
""fullscreenenter"",""1"",""3621""
","
","","","","","","null","<div style=""font-size:60px;"">+</div>","null","","fixation","","",""
"memory-trial","120","320242","0.0-18.0-1.38","4162","approach_avoid_sv1","""event"",""trial"",""time""
""fullscreenenter"",""1"",""3621""
","
","
","""event"",""trial"",""time""
""fullscreenenter"",""1"",""3621""
","
","","","","","","1040","images/table8.png","","","memory_trial","4","definitely_new",""
"html-keyboard-response","121","320746","0.0-18.0-0.39","4162","approach_avoid_sv1","""event"",""trial"",""time""
""fullscreenenter"",""1"",""3621""
","
","
","""event"",""trial"",""time""
""fullscreenenter"",""1"",""3621""
","
","","","","","","null","<div style=""font-size:60px;"">+</div>","null","","fixation","","",""
"memory-trial","122","322866","0.0-18.0-1.39","4162","approach_avoid_sv1","""event"",""trial"",""time""
""fullscreenenter"",""1"",""3621""
","
","
","""event"",""trial"",""time""
""fullscreenenter"",""1"",""3621""
","
","","","","","","1110.3999999910593","images/dog8.png","","","memory_trial","4","definitely_new",""
"html-keyboard-response","123","323370","0.0-18.0-0.40","4162","approach_avoid_sv1","""event"",""trial"",""time""
""fullscreenenter"",""1"",""3621""
","
","
","""event"",""trial"",""time""
""fullscreenenter"",""1"",""3621""
","
","","","","","","null","<div style=""font-size:60px;"">+</div>","null","","fixation","","",""
"memory-trial","124","325426","0.0-18.0-1.40","4162","approach_avoid_sv1","""event"",""trial"",""time""
""fullscreenenter"",""1"",""3621""
","
","
","""event"",""trial"",""time""
""fullscreenenter"",""1"",""3621""
","
","","","","","","1049.5","images/train3.png","","","memory_trial","1","definitely_old",""
"html-keyboard-response","125","325930","0.0-18.0-0.41","4162","approach_avoid_sv1","""event"",""trial"",""time""
""fullscreenenter"",""1"",""3621""
","
","
","""event"",""trial"",""time""
""fullscreenenter"",""1"",""3621""
","
","","","","","","null","<div style=""font-size:60px;"">+</div>","null","","fixation","","",""
"memory-trial","126","328530","0.0-18.0-1.41","4162","approach_avoid_sv1","""event"",""trial"",""time""
""fullscreenenter"",""1"",""3621""
","
","
","""event"",""trial"",""time""
""fullscreenenter"",""1"",""3621""
","
","","","","","","1591.5","images/bush2.png","","","memory_trial","4","definitely_new",""
"html-button-response","127","330026","0.0-18.0-2.41-0.41","4162","approach_avoid_sv1","""event"",""trial"",""time""
""fullscreenenter"",""1"",""3621""
","
","
","""event"",""trial"",""time""
""fullscreenenter"",""1"",""3621""
","
","","","","","","1494.7000000029802","<p> Take a break! </p><p> Click the button to continue. </p>","0","","break","","",""
"html-keyboard-response","128","330529","0.0-18.0-0.42","4162","approach_avoid_sv1","""event"",""trial"",""time""
""fullscreenenter"",""1"",""3621""
","
","
","""event"",""trial"",""time""
""fullscreenenter"",""1"",""3621""
","
","","","","","","null","<div style=""font-size:60px;"">+</div>","null","","fixation","","",""
"memory-trial","129","334577","0.0-18.0-1.42","4162","approach_avoid_sv1","""event"",""trial"",""time""
""fullscreenenter"",""1"",""3621""
","
","
","""event"",""trial"",""time""
""fullscreenenter"",""1"",""3621""
","
","","","","","","3042.800000011921","images/cow1.png","","","memory_trial","3","maybe_new",""
"html-keyboard-response","130","335081","0.0-18.0-0.43","4162","approach_avoid_sv1","""event"",""trial"",""time""
""fullscreenenter"",""1"",""3621""
","
","
","""event"",""trial"",""time""
""fullscreenenter"",""1"",""3621""
","
","","","","","","null","<div style=""font-size:60px;"">+</div>","null","","fixation","","",""
"memory-trial","131","337097","0.0-18.0-1.43","4162","approach_avoid_sv1","""event"",""trial"",""time""
""fullscreenenter"",""1"",""3621""
","
","
","""event"",""trial"",""time""
""fullscreenenter"",""1"",""3621""
","
","","","","","","1006.3999999910593","images/chair2.png","","","memory_trial","4","definitely_new",""
"html-keyboard-response","132","337601","0.0-18.0-0.44","4162","approach_avoid_sv1","""event"",""trial"",""time""
""fullscreenenter"",""1"",""3621""
","
","
","""event"",""trial"",""time""
""fullscreenenter"",""1"",""3621""
","
","","","","","","null","<div style=""font-size:60px;"">+</div>","null","","fixation","","",""
"memory-trial","133","339905","0.0-18.0-1.44","4162","approach_avoid_sv1","""event"",""trial"",""time""
""fullscreenenter"",""1"",""3621""
","
","
","""event"",""trial"",""time""
""fullscreenenter"",""1"",""3621""
","
","","","","","","1297.7999999970198","images/banana3.png","","","memory_trial","2","maybe_old",""
"html-keyboard-response","134","340409","0.0-18.0-0.45","4162","approach_avoid_sv1","""event"",""trial"",""time""
""fullscreenenter"",""1"",""3621""
","
","
","""event"",""trial"",""time""
""fullscreenenter"",""1"",""3621""
","
","","","","","","null","<div style=""font-size:60px;"">+</div>","null","","fixation","","",""
"memory-trial","135","342825","0.0-18.0-1.45","4162","approach_avoid_sv1","""event"",""trial"",""time""
""fullscreenenter"",""1"",""3621""
","
","
","""event"",""trial"",""time""
""fullscreenenter"",""1"",""3621""
","
","","","","","","1410.9000000059605","images/bed4.png","","","memory_trial","2","maybe_old",""
"html-keyboard-response","136","343329","0.0-18.0-0.46","4162","approach_avoid_sv1","""event"",""trial"",""time""
""fullscreenenter"",""1"",""3621""
","
","
","""event"",""trial"",""time""
""fullscreenenter"",""1"",""3621""
","
","","","","","","null","<div style=""font-size:60px;"">+</div>","null","","fixation","","",""
"memory-trial","137","345769","0.0-18.0-1.46","4162","approach_avoid_sv1","""event"",""trial"",""time""
""fullscreenenter"",""1"",""3621""
","
","
","""event"",""trial"",""time""
""fullscreenenter"",""1"",""3621""
","
","","","","","","1428.1000000089407","images/apple8.png","","","memory_trial","2","maybe_old",""
"html-keyboard-response","138","346273","0.0-18.0-0.47","4162","approach_avoid_sv1","""event"",""trial"",""time""
""fullscreenenter"",""1"",""3621""
","
","
","""event"",""trial"",""time""
""fullscreenenter"",""1"",""3621""
","
","","","","","","null","<div style=""font-size:60px;"">+</div>","null","","fixation","","",""
"memory-trial","139","349025","0.0-18.0-1.47","4162","approach_avoid_sv1","""event"",""trial"",""time""
""fullscreenenter"",""1"",""3621""
","
","
","""event"",""trial"",""time""
""fullscreenenter"",""1"",""3621""
","
","","","","","","1747","images/plane3.png","","","memory_trial","2","maybe_old",""
"html-keyboard-response","140","349529","0.0-18.0-0.48","4162","approach_avoid_sv1","""event"",""trial"",""time""
""fullscreenenter"",""1"",""3621""
","
","
","""event"",""trial"",""time""
""fullscreenenter"",""1"",""3621""
","
","","","","","","null","<div style=""font-size:60px;"">+</div>","null","","fixation","","",""
"memory-trial","141","351913","0.0-18.0-1.48","4162","approach_avoid_sv1","""event"",""trial"",""time""
""fullscreenenter"",""1"",""3621""
","
","
","""event"",""trial"",""time""
""fullscreenenter"",""1"",""3621""
","
","","","","","","1373.800000011921","images/cat7.png","","","memory_trial","2","maybe_old",""
"html-keyboard-response","142","352419","0.0-18.0-0.49","4162","approach_avoid_sv1","""event"",""trial"",""time""
""fullscreenenter"",""1"",""3621""
","
","
","""event"",""trial"",""time""
""fullscreenenter"",""1"",""3621""
","
","","","","","","null","<div style=""font-size:60px;"">+</div>","null","","fixation","","",""
"memory-trial","143","355449","0.0-18.0-1.49","4162","approach_avoid_sv1","""event"",""trial"",""time""
""fullscreenenter"",""1"",""3621""
","
","
","""event"",""trial"",""time""
""fullscreenenter"",""1"",""3621""
","
","","","","","","2019.8999999910593","images/banana2.png","","","memory_trial","3","maybe_new",""
"html-keyboard-response","144","355952","0.0-18.0-0.50","4162","approach_avoid_sv1","""event"",""trial"",""time""
""fullscreenenter"",""1"",""3621""
","
","
","""event"",""trial"",""time""
""fullscreenenter"",""1"",""3621""
","
","","","","","","null","<div style=""font-size:60px;"">+</div>","null","","fixation","","",""
"memory-trial","145","358537","0.0-18.0-1.50","4162","approach_avoid_sv1","""event"",""trial"",""time""
""fullscreenenter"",""1"",""3621""
","
","
","""event"",""trial"",""time""
""fullscreenenter"",""1"",""3621""
","
","","","","","","1579.1000000089407","images/rabbit7.png","","","memory_trial","2","maybe_old",""
"html-keyboard-response","146","359040","0.0-18.0-0.51","4162","approach_avoid_sv1","""event"",""trial"",""time""
""fullscreenenter"",""1"",""3621""
","
","
","""event"",""trial"",""time""
""fullscreenenter"",""1"",""3621""
","
","","","","","","null","<div style=""font-size:60px;"">+</div>","null","","fixation","","",""
"memory-trial","147","361544","0.0-18.0-1.51","4162","approach_avoid_sv1","""event"",""trial"",""time""
""fullscreenenter"",""1"",""3621""
","
","
","""event"",""trial"",""time""
""fullscreenenter"",""1"",""3621""
","
","","","","","","1493.5","images/orange3.png","","","memory_trial","4","definitely_new",""
"html-keyboard-response","148","362048","0.0-18.0-0.52","4162","approach_avoid_sv1","""event"",""trial"",""time""
""fullscreenenter"",""1"",""3621""
","
","
","""event"",""trial"",""time""
""fullscreenenter"",""1"",""3621""
","
","","","","","","null","<div style=""font-size:60px;"">+</div>","null","","fixation","","",""
"memory-trial","149","363888","0.0-18.0-1.52","4162","approach_avoid_sv1","""event"",""trial"",""time""
""fullscreenenter"",""1"",""3621""
","
","
","""event"",""trial"",""time""
""fullscreenenter"",""1"",""3621""
","
","","","","","","829.7999999970198","images/orange7.png","","","memory_trial","4","definitely_new",""
"html-keyboard-response","150","364392","0.0-18.0-0.53","4162","approach_avoid_sv1","""event"",""trial"",""time""
""fullscreenenter"",""1"",""3621""
","
","
","""event"",""trial"",""time""
""fullscreenenter"",""1"",""3621""
","
","","","","","","null","<div style=""font-size:60px;"">+</div>","null","","fixation","","",""
"memory-trial","151","366064","0.0-18.0-1.53","4162","approach_avoid_sv1","""event"",""trial"",""time""
""fullscreenenter"",""1"",""3621""
","
","
","""event"",""trial"",""time""
""fullscreenenter"",""1"",""3621""
","
","","","","","","662","images/orange5.png","","","memory_trial","4","definitely_new",""
"html-keyboard-response","152","366568","0.0-18.0-0.54","4162","approach_avoid_sv1","""event"",""trial"",""time""
""fullscreenenter"",""1"",""3621""
","
","
","""event"",""trial"",""time""
""fullscreenenter"",""1"",""3621""
","
","","","","","","null","<div style=""font-size:60px;"">+</div>","null","","fixation","","",""
"memory-trial","153","369128","0.0-18.0-1.54","4162","approach_avoid_sv1","""event"",""trial"",""time""
""fullscreenenter"",""1"",""3621""
","
","
","""event"",""trial"",""time""
""fullscreenenter"",""1"",""3621""
","
","","","","","","1553.3999999910593","images/rabbit6.png","","","memory_trial","4","definitely_new",""
"html-keyboard-response","154","369632","0.0-18.0-0.55","4162","approach_avoid_sv1","""event"",""trial"",""time""
""fullscreenenter"",""1"",""3621""
","
","
","""event"",""trial"",""time""
""fullscreenenter"",""1"",""3621""
","
","","","","","","null","<div style=""font-size:60px;"">+</div>","null","","fixation","","",""
"memory-trial","155","372912","0.0-18.0-1.55","4162","approach_avoid_sv1","""event"",""trial"",""time""
""fullscreenenter"",""1"",""3621""
","
","
","""event"",""trial"",""time""
""fullscreenenter"",""1"",""3621""
","
","","","","","","2272.7000000029802","images/tree7.png","","","memory_trial","2","maybe_old",""
"html-keyboard-response","156","373416","0.0-18.0-0.56","4162","approach_avoid_sv1","""event"",""trial"",""time""
""fullscreenenter"",""1"",""3621""
","
","
","""event"",""trial"",""time""
""fullscreenenter"",""1"",""3621""
","
","","","","","","null","<div style=""font-size:60px;"">+</div>","null","","fixation","","",""
"memory-trial","157","375912","0.0-18.0-1.56","4162","approach_avoid_sv1","""event"",""trial"",""time""
""fullscreenenter"",""1"",""3621""
","
","
","""event"",""trial"",""time""
""fullscreenenter"",""1"",""3621""
","
","","","","","","1487.2999999970198","images/rodent2.png","","","memory_trial","4","definitely_new",""
"html-keyboard-response","158","376416","0.0-18.0-0.57","4162","approach_avoid_sv1","""event"",""trial"",""time""
""fullscreenenter"",""1"",""3621""
","
","
","""event"",""trial"",""time""
""fullscreenenter"",""1"",""3621""
","
","","","","","","null","<div style=""font-size:60px;"">+</div>","null","","fixation","","",""
"memory-trial","159","379488","0.0-18.0-1.57","4162","approach_avoid_sv1","""event"",""trial"",""time""
""fullscreenenter"",""1"",""3621""
","
","
","""event"",""trial"",""time""
""fullscreenenter"",""1"",""3621""
","
","","","","","","2066.6000000089407","images/sheep2.png","","","memory_trial","3","maybe_new",""
"html-keyboard-response","160","379992","0.0-18.0-0.58","4162","approach_avoid_sv1","""event"",""trial"",""time""
""fullscreenenter"",""1"",""3621""
","
","
","""event"",""trial"",""time""
""fullscreenenter"",""1"",""3621""
","
","","","","","","null","<div style=""font-size:60px;"">+</div>","null","","fixation","","",""
"memory-trial","161","382296","0.0-18.0-1.58","4162","approach_avoid_sv1","""event"",""trial"",""time""
""fullscreenenter"",""1"",""3621""
","
","
","""event"",""trial"",""time""
""fullscreenenter"",""1"",""3621""
","
","","","","","","1295.2000000029802","images/rabbit8.png","","","memory_trial","3","maybe_new",""
"html-keyboard-response","162","382800","0.0-18.0-0.59","4162","approach_avoid_sv1","""event"",""trial"",""time""
""fullscreenenter"",""1"",""3621""
","
","
","""event"",""trial"",""time""
""fullscreenenter"",""1"",""3621""
","
","","","","","","null","<div style=""font-size:60px;"">+</div>","null","","fixation","","",""
"memory-trial","163","384711","0.0-18.0-1.59","4162","approach_avoid_sv1","""event"",""trial"",""time""
""fullscreenenter"",""1"",""3621""
","
","
","""event"",""trial"",""time""
""fullscreenenter"",""1"",""3621""
","
","","","","","","905.6000000089407","images/orange2.png","","","memory_trial","4","definitely_new",""
"html-keyboard-response","164","385215","0.0-18.0-0.60","4162","approach_avoid_sv1","""event"",""trial"",""time""
""fullscreenenter"",""1"",""3621""
","
","
","""event"",""trial"",""time""
""fullscreenenter"",""1"",""3621""
","
","","","","","","null","<div style=""font-size:60px;"">+</div>","null","","fixation","","",""
"memory-trial","165","387736","0.0-18.0-1.60","4162","approach_avoid_sv1","""event"",""trial"",""time""
""fullscreenenter"",""1"",""3621""
","
","
","""event"",""trial"",""time""
""fullscreenenter"",""1"",""3621""
","
","","","","","","1510","images/plane5.png","","","memory_trial","2","maybe_old",""
"html-keyboard-response","166","388240","0.0-18.0-0.61","4162","approach_avoid_sv1","""event"",""trial"",""time""
""fullscreenenter"",""1"",""3621""
","
","
","""event"",""trial"",""time""
""fullscreenenter"",""1"",""3621""
","
","","","","","","null","<div style=""font-size:60px;"">+</div>","null","","fixation","","",""
"memory-trial","167","391064","0.0-18.0-1.61","4162","approach_avoid_sv1","""event"",""trial"",""time""
""fullscreenenter"",""1"",""3621""
","
","
","""event"",""trial"",""time""
""fullscreenenter"",""1"",""3621""
","
","","","","","","1819.7999999970198","images/bed8.png","","","memory_trial","3","maybe_new",""
"html-keyboard-response","168","391567","0.0-18.0-0.62","4162","approach_avoid_sv1","""event"",""trial"",""time""
""fullscreenenter"",""1"",""3621""
","
","
","""event"",""trial"",""time""
""fullscreenenter"",""1"",""3621""
","
","","","","","","null","<div style=""font-size:60px;"">+</div>","null","","fixation","","",""
"memory-trial","169","394471","0.0-18.0-1.62","4162","approach_avoid_sv1","""event"",""trial"",""time""
""fullscreenenter"",""1"",""3621""
","
","
","""event"",""trial"",""time""
""fullscreenenter"",""1"",""3621""
","
","","","","","","1899.2000000029802","images/train7.png","","","memory_trial","3","maybe_new",""
"html-keyboard-response","170","394975","0.0-18.0-0.63","4162","approach_avoid_sv1","""event"",""trial"",""time""
""fullscreenenter"",""1"",""3621""
","
","
","""event"",""trial"",""time""
""fullscreenenter"",""1"",""3621""
","
","","","","","","null","<div style=""font-size:60px;"">+</div>","null","","fixation","","",""
"memory-trial","171","397247","0.0-18.0-1.63","4162","approach_avoid_sv1","""event"",""trial"",""time""
""fullscreenenter"",""1"",""3621""
","
","
","""event"",""trial"",""time""
""fullscreenenter"",""1"",""3621""
","
","","","","","","1263","images/truck8.png","","","memory_trial","2","maybe_old",""
"html-keyboard-response","172","397750","0.0-18.0-0.64","4162","approach_avoid_sv1","""event"",""trial"",""time""
""fullscreenenter"",""1"",""3621""
","
","
","""event"",""trial"",""time""
""fullscreenenter"",""1"",""3621""
","
","","","","","","null","<div style=""font-size:60px;"">+</div>","null","","fixation","","",""
"memory-trial","173","399847","0.0-18.0-1.64","4162","approach_avoid_sv1","""event"",""trial"",""time""
""fullscreenenter"",""1"",""3621""
","
","
","""event"",""trial"",""time""
""fullscreenenter"",""1"",""3621""
","
","","","","","","1091","images/train1.png","","","memory_trial","1","definitely_old",""
"html-keyboard-response","174","400351","0.0-18.0-0.65","4162","approach_avoid_sv1","""event"",""trial"",""time""
""fullscreenenter"",""1"",""3621""
","
","
","""event"",""trial"",""time""
""fullscreenenter"",""1"",""3621""
","
","","","","","","null","<div style=""font-size:60px;"">+</div>","null","","fixation","","",""
"memory-trial","175","402183","0.0-18.0-1.65","4162","approach_avoid_sv1","""event"",""trial"",""time""
""fullscreenenter"",""1"",""3621""
","
","
","""event"",""trial"",""time""
""fullscreenenter"",""1"",""3621""
","
","","","","","","827.5","images/train8.png","","","memory_trial","1","definitely_old",""
"html-keyboard-response","176","402687","0.0-18.0-0.66","4162","approach_avoid_sv1","""event"",""trial"",""time""
""fullscreenenter"",""1"",""3621""
","
","
","""event"",""trial"",""time""
""fullscreenenter"",""1"",""3621""
","
","","","","","","null","<div style=""font-size:60px;"">+</div>","null","","fixation","","",""
"memory-trial","177","405439","0.0-18.0-1.66","4162","approach_avoid_sv1","""event"",""trial"",""time""
""fullscreenenter"",""1"",""3621""
","
","
","""event"",""trial"",""time""
""fullscreenenter"",""1"",""3621""
","
","","","","","","1748","images/banana7.png","","","memory_trial","4","definitely_new",""
"html-keyboard-response","178","405943","0.0-18.0-0.67","4162","approach_avoid_sv1","""event"",""trial"",""time""
""fullscreenenter"",""1"",""3621""
","
","
","""event"",""trial"",""time""
""fullscreenenter"",""1"",""3621""
","
","","","","","","null","<div style=""font-size:60px;"">+</div>","null","","fixation","","",""
"memory-trial","179","410391","0.0-18.0-1.67","4162","approach_avoid_sv1","""event"",""trial"",""time""
""fullscreenenter"",""1"",""3621""
","
","
","""event"",""trial"",""time""
""fullscreenenter"",""1"",""3621""
","
","","","","","","3436.800000011921","images/apple5.png","","","memory_trial","2","maybe_old",""
"html-keyboard-response","180","410895","0.0-18.0-0.68","4162","approach_avoid_sv1","""event"",""trial"",""time""
""fullscreenenter"",""1"",""3621""
","
","
","""event"",""trial"",""time""
""fullscreenenter"",""1"",""3621""
","
","","","","","","null","<div style=""font-size:60px;"">+</div>","null","","fixation","","",""
"memory-trial","181","413383","0.0-18.0-1.68","4162","approach_avoid_sv1","""event"",""trial"",""time""
""fullscreenenter"",""1"",""3621""
","
","
","""event"",""trial"",""time""
""fullscreenenter"",""1"",""3621""
","
","","","","","","1479","images/cactus3.png","","","memory_trial","3","maybe_new",""
"html-keyboard-response","182","413887","0.0-18.0-0.69","4162","approach_avoid_sv1","""event"",""trial"",""time""
""fullscreenenter"",""1"",""3621""
","
","
","""event"",""trial"",""time""
""fullscreenenter"",""1"",""3621""
","
","","","","","","null","<div style=""font-size:60px;"">+</div>","null","","fixation","","",""
"memory-trial","183","415959","0.0-18.0-1.69","4162","approach_avoid_sv1","""event"",""trial"",""time""
""fullscreenenter"",""1"",""3621""
","
","
","""event"",""trial"",""time""
""fullscreenenter"",""1"",""3621""
","
","","","","","","1061","images/chair3.png","","","memory_trial","4","definitely_new",""
"html-keyboard-response","184","416462","0.0-18.0-0.70","4162","approach_avoid_sv1","""event"",""trial"",""time""
""fullscreenenter"",""1"",""3621""
","
","
","""event"",""trial"",""time""
""fullscreenenter"",""1"",""3621""
","
","","","","","","null","<div style=""font-size:60px;"">+</div>","null","","fixation","","",""
"memory-trial","185","418702","0.0-18.0-1.70","4162","approach_avoid_sv1","""event"",""trial"",""time""
""fullscreenenter"",""1"",""3621""
","
","
","""event"",""trial"",""time""
""fullscreenenter"",""1"",""3621""
","
","","","","","","1233.9000000059605","images/banana5.png","","","memory_trial","4","definitely_new",""
"html-keyboard-response","186","419209","0.0-18.0-0.71","4162","approach_avoid_sv1","""event"",""trial"",""time""
""fullscreenenter"",""1"",""3621""
","
","
","""event"",""trial"",""time""
""fullscreenenter"",""1"",""3621""
","
","","","","","","null","<div style=""font-size:60px;"">+</div>","null","","fixation","","",""
"memory-trial","187","422254","0.0-18.0-1.71","4162","approach_avoid_sv1","""event"",""trial"",""time""
""fullscreenenter"",""1"",""3621""
","
","
","""event"",""trial"",""time""
""fullscreenenter"",""1"",""3621""
","
","","","","","","2035.7000000029802","images/bed3.png","","","memory_trial","3","maybe_new",""
"html-keyboard-response","188","422758","0.0-18.0-0.72","4162","approach_avoid_sv1","""event"",""trial"",""time""
""fullscreenenter"",""1"",""3621""
","
","
","""event"",""trial"",""time""
""fullscreenenter"",""1"",""3621""
","
","","","","","","null","<div style=""font-size:60px;"">+</div>","null","","fixation","","",""
"memory-trial","189","425127","0.0-18.0-1.72","4162","approach_avoid_sv1","""event"",""trial"",""time""
""fullscreenenter"",""1"",""3621""
","
","
","""event"",""trial"",""time""
""fullscreenenter"",""1"",""3621""
","
","","","","","","1363.0999999940395","images/truck1.png","","","memory_trial","2","maybe_old",""
"html-keyboard-response","190","425630","0.0-18.0-0.73","4162","approach_avoid_sv1","""event"",""trial"",""time""
""fullscreenenter"",""1"",""3621""
","
","
","""event"",""trial"",""time""
""fullscreenenter"",""1"",""3621""
","
","","","","","","null","<div style=""font-size:60px;"">+</div>","null","","fixation","","",""
"memory-trial","191","427726","0.0-18.0-1.73","4162","approach_avoid_sv1","""event"",""trial"",""time""
""fullscreenenter"",""1"",""3621""
","
","
","""event"",""trial"",""time""
""fullscreenenter"",""1"",""3621""
","
","","","","","","1090.7000000029802","images/rodent5.png","","","memory_trial","2","maybe_old",""
"html-keyboard-response","192","428230","0.0-18.0-0.74","4162","approach_avoid_sv1","""event"",""trial"",""time""
""fullscreenenter"",""1"",""3621""
","
","
","""event"",""trial"",""time""
""fullscreenenter"",""1"",""3621""
","
","","","","","","null","<div style=""font-size:60px;"">+</div>","null","","fixation","","",""
"memory-trial","193","430278","0.0-18.0-1.74","4162","approach_avoid_sv1","""event"",""trial"",""time""
""fullscreenenter"",""1"",""3621""
","
","
","""event"",""trial"",""time""
""fullscreenenter"",""1"",""3621""
","
","","","","","","1041.5","images/flower2.png","","","memory_trial","1","definitely_old",""
"html-keyboard-response","194","430782","0.0-18.0-0.75","4162","approach_avoid_sv1","""event"",""trial"",""time""
""fullscreenenter"",""1"",""3621""
","
","
","""event"",""trial"",""time""
""fullscreenenter"",""1"",""3621""
","
","","","","","","null","<div style=""font-size:60px;"">+</div>","null","","fixation","","",""
"memory-trial","195","433086","0.0-18.0-1.75","4162","approach_avoid_sv1","""event"",""trial"",""time""
""fullscreenenter"",""1"",""3621""
","
","
","""event"",""trial"",""time""
""fullscreenenter"",""1"",""3621""
","
","","","","","","1293.2999999970198","images/boat3.png","","","memory_trial","4","definitely_new",""
"html-keyboard-response","196","433590","0.0-18.0-0.76","4162","approach_avoid_sv1","""event"",""trial"",""time""
""fullscreenenter"",""1"",""3621""
","
","
","""event"",""trial"",""time""
""fullscreenenter"",""1"",""3621""
","
","","","","","","null","<div style=""font-size:60px;"">+</div>","null","","fixation","","",""
"memory-trial","197","435385","0.0-18.0-1.76","4162","approach_avoid_sv1","""event"",""trial"",""time""
""fullscreenenter"",""1"",""3621""
","
","
","""event"",""trial"",""time""
""fullscreenenter"",""1"",""3621""
","
","","","","","","780.9000000059605","images/chair5.png","","","memory_trial","4","definitely_new",""
"html-keyboard-response","198","435894","0.0-18.0-0.77","4162","approach_avoid_sv1","""event"",""trial"",""time""
""fullscreenenter"",""1"",""3621""
","
","
","""event"",""trial"",""time""
""fullscreenenter"",""1"",""3621""
","
","","","","","","null","<div style=""font-size:60px;"">+</div>","null","","fixation","","",""
"memory-trial","199","437638","0.0-18.0-1.77","4162","approach_avoid_sv1","""event"",""trial"",""time""
""fullscreenenter"",""1"",""3621""
","
","
","""event"",""trial"",""time""
""fullscreenenter"",""1"",""3621""
","
","","","","","","735.2000000029802","images/table7.png","","","memory_trial","4","definitely_new",""
"html-keyboard-response","200","438142","0.0-18.0-0.78","4162","approach_avoid_sv1","""event"",""trial"",""time""
""fullscreenenter"",""1"",""3621""
","
","
","""event"",""trial"",""time""
""fullscreenenter"",""1"",""3621""
","
","","","","","","null","<div style=""font-size:60px;"">+</div>","null","","fixation","","",""
"memory-trial","201","440286","0.0-18.0-1.78","4162","approach_avoid_sv1","""event"",""trial"",""time""
""fullscreenenter"",""1"",""3621""
","
","
","""event"",""trial"",""time""
""fullscreenenter"",""1"",""3621""
","
","","","","","","1139.7999999970198","images/rodent3.png","","","memory_trial","3","maybe_new",""
"html-keyboard-response","202","440790","0.0-18.0-0.79","4162","approach_avoid_sv1","""event"",""trial"",""time""
""fullscreenenter"",""1"",""3621""
","
","
","""event"",""trial"",""time""
""fullscreenenter"",""1"",""3621""
","
","","","","","","null","<div style=""font-size:60px;"">+</div>","null","","fixation","","",""
"memory-trial","203","442950","0.0-18.0-1.79","4162","approach_avoid_sv1","""event"",""trial"",""time""
""fullscreenenter"",""1"",""3621""
","
","
","""event"",""trial"",""time""
""fullscreenenter"",""1"",""3621""
","
","","","","","","1153.5999999940395","images/flower6.png","","","memory_trial","3","maybe_new",""
"html-keyboard-response","204","443454","0.0-18.0-0.80","4162","approach_avoid_sv1","""event"",""trial"",""time""
""fullscreenenter"",""1"",""3621""
","
","
","""event"",""trial"",""time""
""fullscreenenter"",""1"",""3621""
","
","","","","","","null","<div style=""font-size:60px;"">+</div>","null","","fixation","","",""
"memory-trial","205","445294","0.0-18.0-1.80","4162","approach_avoid_sv1","""event"",""trial"",""time""
""fullscreenenter"",""1"",""3621""
","
","
","""event"",""trial"",""time""
""fullscreenenter"",""1"",""3621""
","
","","","","","","834.5999999940395","images/tree6.png","","","memory_trial","3","maybe_new",""
"html-keyboard-response","206","445797","0.0-18.0-0.81","4162","approach_avoid_sv1","""event"",""trial"",""time""
""fullscreenenter"",""1"",""3621""
","
","
","""event"",""trial"",""time""
""fullscreenenter"",""1"",""3621""
","
","","","","","","null","<div style=""font-size:60px;"">+</div>","null","","fixation","","",""
"memory-trial","207","448422","0.0-18.0-1.81","4162","approach_avoid_sv1","""event"",""trial"",""time""
""fullscreenenter"",""1"",""3621""
","
","
","""event"",""trial"",""time""
""fullscreenenter"",""1"",""3621""
","
","","","","","","1614.5","images/cow7.png","","","memory_trial","3","maybe_new",""
"html-keyboard-response","208","448925","0.0-18.0-0.82","4162","approach_avoid_sv1","""event"",""trial"",""time""
""fullscreenenter"",""1"",""3621""
","
","
","""event"",""trial"",""time""
""fullscreenenter"",""1"",""3621""
","
","","","","","","null","<div style=""font-size:60px;"">+</div>","null","","fixation","","",""
"memory-trial","209","450838","0.0-18.0-1.82","4162","approach_avoid_sv1","""event"",""trial"",""time""
""fullscreenenter"",""1"",""3621""
","
","
","""event"",""trial"",""time""
""fullscreenenter"",""1"",""3621""
","
","","","","","","903","images/sofa5.png","","","memory_trial","4","definitely_new",""
"html-keyboard-response","210","451341","0.0-18.0-0.83","4162","approach_avoid_sv1","""event"",""trial"",""time""
""fullscreenenter"",""1"",""3621""
","
","
","""event"",""trial"",""time""
""fullscreenenter"",""1"",""3621""
","
","","","","","","null","<div style=""font-size:60px;"">+</div>","null","","fixation","","",""
"memory-trial","211","453589","0.0-18.0-1.83","4162","approach_avoid_sv1","""event"",""trial"",""time""
""fullscreenenter"",""1"",""3621""
","
","
","""event"",""trial"",""time""
""fullscreenenter"",""1"",""3621""
","
","","","","","","1238","images/sheep5.png","","","memory_trial","3","maybe_new",""
"html-keyboard-response","212","454093","0.0-18.0-0.84","4162","approach_avoid_sv1","""event"",""trial"",""time""
""fullscreenenter"",""1"",""3621""
","
","
","""event"",""trial"",""time""
""fullscreenenter"",""1"",""3621""
","
","","","","","","null","<div style=""font-size:60px;"">+</div>","null","","fixation","","",""
"memory-trial","213","456709","0.0-18.0-1.84","4162","approach_avoid_sv1","""event"",""trial"",""time""
""fullscreenenter"",""1"",""3621""
","
","
","""event"",""trial"",""time""
""fullscreenenter"",""1"",""3621""
","
","","","","","","1610.5","images/tree4.png","","","memory_trial","4","definitely_new",""
"html-keyboard-response","214","457213","0.0-18.0-0.85","4162","approach_avoid_sv1","""event"",""trial"",""time""
""fullscreenenter"",""1"",""3621""
","
","
","""event"",""trial"",""time""
""fullscreenenter"",""1"",""3621""
","
","","","","","","null","<div style=""font-size:60px;"">+</div>","null","","fixation","","",""
"memory-trial","215","458869","0.0-18.0-1.85","4162","approach_avoid_sv1","""event"",""trial"",""time""
""fullscreenenter"",""1"",""3621""
","
","
","""event"",""trial"",""time""
""fullscreenenter"",""1"",""3621""
","
","","","","","","646.7999999970198","images/sofa8.png","","","memory_trial","4","definitely_new",""
"html-keyboard-response","216","459373","0.0-18.0-0.86","4162","approach_avoid_sv1","""event"",""trial"",""time""
""fullscreenenter"",""1"",""3621""
","
","
","""event"",""trial"",""time""
""fullscreenenter"",""1"",""3621""
","
","","","","","","null","<div style=""font-size:60px;"">+</div>","null","","fixation","","",""
"memory-trial","217","461101","0.0-18.0-1.86","4162","approach_avoid_sv1","""event"",""trial"",""time""
""fullscreenenter"",""1"",""3621""
","
","
","""event"",""trial"",""time""
""fullscreenenter"",""1"",""3621""
","
","","","","","","719.0999999940395","images/cat3.png","","","memory_trial","4","definitely_new",""
"html-keyboard-response","218","461605","0.0-18.0-0.87","4162","approach_avoid_sv1","""event"",""trial"",""time""
""fullscreenenter"",""1"",""3621""
","
","
","""event"",""trial"",""time""
""fullscreenenter"",""1"",""3621""
","
","","","","","","null","<div style=""font-size:60px;"">+</div>","null","","fixation","","",""
"memory-trial","219","463717","0.0-18.0-1.87","4162","approach_avoid_sv1","""event"",""trial"",""time""
""fullscreenenter"",""1"",""3621""
","
","
","""event"",""trial"",""time""
""fullscreenenter"",""1"",""3621""
","
","","","","","","1106.5999999940395","images/horse1.png","","","memory_trial","1","definitely_old",""
"html-keyboard-response","220","464221","0.0-18.0-0.88","4162","approach_avoid_sv1","""event"",""trial"",""time""
""fullscreenenter"",""1"",""3621""
","
","
","""event"",""trial"",""time""
""fullscreenenter"",""1"",""3621""
","
","","","","","","null","<div style=""font-size:60px;"">+</div>","null","","fixation","","",""
"memory-trial","221","468237","0.0-18.0-1.88","4162","approach_avoid_sv1","""event"",""trial"",""time""
""fullscreenenter"",""1"",""3621""
","
","
","""event"",""trial"",""time""
""fullscreenenter"",""1"",""3621""
","
","","","","","","3007.8999999910593","images/sheep6.png","","","memory_trial","4","definitely_new",""
"html-keyboard-response","222","468741","0.0-18.0-0.89","4162","approach_avoid_sv1","""event"",""trial"",""time""
""fullscreenenter"",""1"",""3621""
","
","
","""event"",""trial"",""time""
""fullscreenenter"",""1"",""3621""
","
","","","","","","null","<div style=""font-size:60px;"">+</div>","null","","fixation","","",""
"memory-trial","223","473197","0.0-18.0-1.89","4162","approach_avoid_sv1","""event"",""trial"",""time""
""fullscreenenter"",""1"",""3621""
","
","
","""event"",""trial"",""time""
""fullscreenenter"",""1"",""3621""
","
","","","","","","3444.2999999970198","images/cow2.png","","","memory_trial","3","maybe_new",""
"html-keyboard-response","224","473701","0.0-18.0-0.90","4162","approach_avoid_sv1","""event"",""trial"",""time""
""fullscreenenter"",""1"",""3621""
","
","
","""event"",""trial"",""time""
""fullscreenenter"",""1"",""3621""
","
","","","","","","null","<div style=""font-size:60px;"">+</div>","null","","fixation","","",""
"memory-trial","225","477373","0.0-18.0-1.90","4162","approach_avoid_sv1","""event"",""trial"",""time""
""fullscreenenter"",""1"",""3621""
","
","
","""event"",""trial"",""time""
""fullscreenenter"",""1"",""3621""
","
","","","","","","2665.0999999940395","images/bed7.png","","","memory_trial","3","maybe_new",""
"html-keyboard-response","226","477876","0.0-18.0-0.91","4162","approach_avoid_sv1","""event"",""trial"",""time""
""fullscreenenter"",""1"",""3621""
","
","
","""event"",""trial"",""time""
""fullscreenenter"",""1"",""3621""
","
","","","","","","null","<div style=""font-size:60px;"">+</div>","null","","fixation","","",""
"memory-trial","227","480988","0.0-18.0-1.91","4162","approach_avoid_sv1","""event"",""trial"",""time""
""fullscreenenter"",""1"",""3621""
","
","
","""event"",""trial"",""time""
""fullscreenenter"",""1"",""3621""
","
","","","","","","2107.2999999970198","images/dog5.png","","","memory_trial","3","maybe_new",""
"html-button-response","228","482041","0.0-18.0-2.91-0.91","4162","approach_avoid_sv1","""event"",""trial"",""time""
""fullscreenenter"",""1"",""3621""
","
","
","""event"",""trial"",""time""
""fullscreenenter"",""1"",""3621""
","
","","","","","","1050.7999999970198","<p> Take a break! </p><p> Click the button to continue. </p>","0","","break","","",""
"html-keyboard-response","229","482548","0.0-18.0-0.92","4162","approach_avoid_sv1","""event"",""trial"",""time""
""fullscreenenter"",""1"",""3621""
","
","
","""event"",""trial"",""time""
""fullscreenenter"",""1"",""3621""
","
","","","","","","null","<div style=""font-size:60px;"">+</div>","null","","fixation","","",""
"memory-trial","230","486900","0.0-18.0-1.92","4162","approach_avoid_sv1","""event"",""trial"",""time""
""fullscreenenter"",""1"",""3621""
","
","
","""event"",""trial"",""time""
""fullscreenenter"",""1"",""3621""
","
","","","","","","3347.1000000089407","images/plane2.png","","","memory_trial","1","definitely_old",""
"html-keyboard-response","231","487404","0.0-18.0-0.93","4162","approach_avoid_sv1","""event"",""trial"",""time""
""fullscreenenter"",""1"",""3621""
","
","
","""event"",""trial"",""time""
""fullscreenenter"",""1"",""3621""
","
","","","","","","null","<div style=""font-size:60px;"">+</div>","null","","fixation","","",""
"memory-trial","232","489335","0.0-18.0-1.93","4162","approach_avoid_sv1","""event"",""trial"",""time""
""fullscreenenter"",""1"",""3621""
","
","
","""event"",""trial"",""time""
""fullscreenenter"",""1"",""3621""
","
","","","","","","919.1000000089407","images/sofa3.png","","","memory_trial","4","definitely_new",""
"html-keyboard-response","233","489844","0.0-18.0-0.94","4162","approach_avoid_sv1","""event"",""trial"",""time""
""fullscreenenter"",""1"",""3621""
","
","
","""event"",""trial"",""time""
""fullscreenenter"",""1"",""3621""
","
","","","","","","null","<div style=""font-size:60px;"">+</div>","null","","fixation","","",""
"memory-trial","234","493044","0.0-18.0-1.94","4162","approach_avoid_sv1","""event"",""trial"",""time""
""fullscreenenter"",""1"",""3621""
","
","
","""event"",""trial"",""time""
""fullscreenenter"",""1"",""3621""
","
","","","","","","2194.3999999910593","images/tree8.png","","","memory_trial","3","maybe_new",""
"html-keyboard-response","235","493548","0.0-18.0-0.95","4162","approach_avoid_sv1","""event"",""trial"",""time""
""fullscreenenter"",""1"",""3621""
","
","
","""event"",""trial"",""time""
""fullscreenenter"",""1"",""3621""
","
","","","","","","null","<div style=""font-size:60px;"">+</div>","null","","fixation","","",""
"memory-trial","236","496068","0.0-18.0-1.95","4162","approach_avoid_sv1","""event"",""trial"",""time""
""fullscreenenter"",""1"",""3621""
","
","
","""event"",""trial"",""time""
""fullscreenenter"",""1"",""3621""
","
","","","","","","1508.7000000029802","images/boat2.png","","","memory_trial","4","definitely_new",""
"html-keyboard-response","237","496572","0.0-18.0-0.96","4162","approach_avoid_sv1","""event"",""trial"",""time""
""fullscreenenter"",""1"",""3621""
","
","
","""event"",""trial"",""time""
""fullscreenenter"",""1"",""3621""
","
","","","","","","null","<div style=""font-size:60px;"">+</div>","null","","fixation","","",""
"memory-trial","238","499500","0.0-18.0-1.96","4162","approach_avoid_sv1","""event"",""trial"",""time""
""fullscreenenter"",""1"",""3621""
","
","
","""event"",""trial"",""time""
""fullscreenenter"",""1"",""3621""
","
","","","","","","1916.7000000029802","images/flower8.png","","","memory_trial","2","maybe_old",""
"html-keyboard-response","239","500004","0.0-18.0-0.97","4162","approach_avoid_sv1","""event"",""trial"",""time""
""fullscreenenter"",""1"",""3621""
","
","
","""event"",""trial"",""time""
""fullscreenenter"",""1"",""3621""
","
","","","","","","null","<div style=""font-size:60px;"">+</div>","null","","fixation","","",""
"memory-trial","240","502187","0.0-18.0-1.97","4162","approach_avoid_sv1","""event"",""trial"",""time""
""fullscreenenter"",""1"",""3621""
","
","
","""event"",""trial"",""time""
""fullscreenenter"",""1"",""3621""
","
","","","","","","1175.300000011921","images/boat5.png","","","memory_trial","3","maybe_new",""
"html-keyboard-response","241","502692","0.0-18.0-0.98","4162","approach_avoid_sv1","""event"",""trial"",""time""
""fullscreenenter"",""1"",""3621""
","
","
","""event"",""trial"",""time""
""fullscreenenter"",""1"",""3621""
","
","","","","","","null","<div style=""font-size:60px;"">+</div>","null","","fixation","","",""
"memory-trial","242","506012","0.0-18.0-1.98","4162","approach_avoid_sv1","""event"",""trial"",""time""
""fullscreenenter"",""1"",""3621""
","
","
","""event"",""trial"",""time""
""fullscreenenter"",""1"",""3621""
","
","","","","","","2309.7999999970198","images/truck7.png","","","memory_trial","3","maybe_new",""
"html-keyboard-response","243","506516","0.0-18.0-0.99","4162","approach_avoid_sv1","""event"",""trial"",""time""
""fullscreenenter"",""1"",""3621""
","
","
","""event"",""trial"",""time""
""fullscreenenter"",""1"",""3621""
","
","","","","","","null","<div style=""font-size:60px;"">+</div>","null","","fixation","","",""
"memory-trial","244","509044","0.0-18.0-1.99","4162","approach_avoid_sv1","""event"",""trial"",""time""
""fullscreenenter"",""1"",""3621""
","
","
","""event"",""trial"",""time""
""fullscreenenter"",""1"",""3621""
","
","","","","","","1518.3999999910593","images/horse7.png","","","memory_trial","3","maybe_new",""
"html-keyboard-response","245","509547","0.0-18.0-0.100","4162","approach_avoid_sv1","""event"",""trial"",""time""
""fullscreenenter"",""1"",""3621""
","
","
","""event"",""trial"",""time""
""fullscreenenter"",""1"",""3621""
","
","","","","","","null","<div style=""font-size:60px;"">+</div>","null","","fixation","","",""
"memory-trial","246","512364","0.0-18.0-1.100","4162","approach_avoid_sv1","""event"",""trial"",""time""
""fullscreenenter"",""1"",""3621""
","
","
","""event"",""trial"",""time""
""fullscreenenter"",""1"",""3621""
","
","","","","","","1812.0999999940395","images/plane6.png","","","memory_trial","2","maybe_old",""
"html-keyboard-response","247","512867","0.0-18.0-0.101","4162","approach_avoid_sv1","""event"",""trial"",""time""
""fullscreenenter"",""1"",""3621""
","
","
","""event"",""trial"",""time""
""fullscreenenter"",""1"",""3621""
","
","","","","","","null","<div style=""font-size:60px;"">+</div>","null","","fixation","","",""
"memory-trial","248","516083","0.0-18.0-1.101","4162","approach_avoid_sv1","""event"",""trial"",""time""
""fullscreenenter"",""1"",""3621""
","
","
","""event"",""trial"",""time""
""fullscreenenter"",""1"",""3621""
","
","","","","","","2204.2000000029802","images/sheep4.png","","","memory_trial","4","definitely_new",""
"html-keyboard-response","249","516587","0.0-18.0-0.102","4162","approach_avoid_sv1","""event"",""trial"",""time""
""fullscreenenter"",""1"",""3621""
","
","
","""event"",""trial"",""time""
""fullscreenenter"",""1"",""3621""
","
","","","","","","null","<div style=""font-size:60px;"">+</div>","null","","fixation","","",""
"memory-trial","250","519011","0.0-18.0-1.102","4162","approach_avoid_sv1","""event"",""trial"",""time""
""fullscreenenter"",""1"",""3621""
","
","
","""event"",""trial"",""time""
""fullscreenenter"",""1"",""3621""
","
","","","","","","1413.1000000089407","images/cactus5.png","","","memory_trial","3","maybe_new",""
"html-keyboard-response","251","519515","0.0-18.0-0.103","4162","approach_avoid_sv1","""event"",""trial"",""time""
""fullscreenenter"",""1"",""3621""
","
","
","""event"",""trial"",""time""
""fullscreenenter"",""1"",""3621""
","
","","","","","","null","<div style=""font-size:60px;"">+</div>","null","","fixation","","",""
"memory-trial","252","521451","0.0-18.0-1.103","4162","approach_avoid_sv1","""event"",""trial"",""time""
""fullscreenenter"",""1"",""3621""
","
","
","""event"",""trial"",""time""
""fullscreenenter"",""1"",""3621""
","
","","","","","","926","images/cactus4.png","","","memory_trial","2","maybe_old",""
"html-keyboard-response","253","521955","0.0-18.0-0.104","4162","approach_avoid_sv1","""event"",""trial"",""time""
""fullscreenenter"",""1"",""3621""
","
","
","""event"",""trial"",""time""
""fullscreenenter"",""1"",""3621""
","
","","","","","","null","<div style=""font-size:60px;"">+</div>","null","","fixation","","",""
"memory-trial","254","523955","0.0-18.0-1.104","4162","approach_avoid_sv1","""event"",""trial"",""time""
""fullscreenenter"",""1"",""3621""
","
","
","""event"",""trial"",""time""
""fullscreenenter"",""1"",""3621""
","
","","","","","","995","images/truck2.png","","","memory_trial","2","maybe_old",""
"html-keyboard-response","255","524459","0.0-18.0-0.105","4162","approach_avoid_sv1","""event"",""trial"",""time""
""fullscreenenter"",""1"",""3621""
","
","
","""event"",""trial"",""time""
""fullscreenenter"",""1"",""3621""
","
","","","","","","null","<div style=""font-size:60px;"">+</div>","null","","fixation","","",""
"memory-trial","256","526427","0.0-18.0-1.105","4162","approach_avoid_sv1","""event"",""trial"",""time""
""fullscreenenter"",""1"",""3621""
","
","
","""event"",""trial"",""time""
""fullscreenenter"",""1"",""3621""
","
","","","","","","959.5","images/bush6.png","","","memory_trial","4","definitely_new",""
"html-keyboard-response","257","526931","0.0-18.0-0.106","4162","approach_avoid_sv1","""event"",""trial"",""time""
""fullscreenenter"",""1"",""3621""
","
","
","""event"",""trial"",""time""
""fullscreenenter"",""1"",""3621""
","
","","","","","","null","<div style=""font-size:60px;"">+</div>","null","","fixation","","",""
"memory-trial","258","528787","0.0-18.0-1.106","4162","approach_avoid_sv1","""event"",""trial"",""time""
""fullscreenenter"",""1"",""3621""
","
","
","""event"",""trial"",""time""
""fullscreenenter"",""1"",""3621""
","
","","","","","","850.3999999910593","images/tree2.png","","","memory_trial","4","definitely_new",""
"html-keyboard-response","259","529291","0.0-18.0-0.107","4162","approach_avoid_sv1","""event"",""trial"",""time""
""fullscreenenter"",""1"",""3621""
","
","
","""event"",""trial"",""time""
""fullscreenenter"",""1"",""3621""
","
","","","","","","null","<div style=""font-size:60px;"">+</div>","null","","fixation","","",""
"memory-trial","260","532427","0.0-18.0-1.107","4162","approach_avoid_sv1","""event"",""trial"",""time""
""fullscreenenter"",""1"",""3621""
","
","
","""event"",""trial"",""time""
""fullscreenenter"",""1"",""3621""
","
","","","","","","2129.7999999970198","images/straw3.png","","","memory_trial","2","maybe_old",""
"html-keyboard-response","261","532931","0.0-18.0-0.108","4162","approach_avoid_sv1","""event"",""trial"",""time""
""fullscreenenter"",""1"",""3621""
","
","
","""event"",""trial"",""time""
""fullscreenenter"",""1"",""3621""
","
","","","","","","null","<div style=""font-size:60px;"">+</div>","null","","fixation","","",""
"memory-trial","262","535475","0.0-18.0-1.108","4162","approach_avoid_sv1","""event"",""trial"",""time""
""fullscreenenter"",""1"",""3621""
","
","
","""event"",""trial"",""time""
""fullscreenenter"",""1"",""3621""
","
","","","","","","1536.9000000059605","images/tree1.png","","","memory_trial","3","maybe_new",""
"html-keyboard-response","263","535979","0.0-18.0-0.109","4162","approach_avoid_sv1","""event"",""trial"",""time""
""fullscreenenter"",""1"",""3621""
","
","
","""event"",""trial"",""time""
""fullscreenenter"",""1"",""3621""
","
","","","","","","null","<div style=""font-size:60px;"">+</div>","null","","fixation","","",""
"memory-trial","264","538722","0.0-18.0-1.109","4162","approach_avoid_sv1","""event"",""trial"",""time""
""fullscreenenter"",""1"",""3621""
","
","
","""event"",""trial"",""time""
""fullscreenenter"",""1"",""3621""
","
","","","","","","1735.5","images/rabbit4.png","","","memory_trial","1","definitely_old",""
"html-keyboard-response","265","539226","0.0-18.0-0.110","4162","approach_avoid_sv1","""event"",""trial"",""time""
""fullscreenenter"",""1"",""3621""
","
","
","""event"",""trial"",""time""
""fullscreenenter"",""1"",""3621""
","
","","","","","","null","<div style=""font-size:60px;"">+</div>","null","","fixation","","",""
"memory-trial","266","541658","0.0-18.0-1.110","4162","approach_avoid_sv1","""event"",""trial"",""time""
""fullscreenenter"",""1"",""3621""
","
","
","""event"",""trial"",""time""
""fullscreenenter"",""1"",""3621""
","
","","","","","","1427.7999999970198","images/cat8.png","","","memory_trial","2","maybe_old",""
"html-keyboard-response","267","542162","0.0-18.0-0.111","4162","approach_avoid_sv1","""event"",""trial"",""time""
""fullscreenenter"",""1"",""3621""
","
","
","""event"",""trial"",""time""
""fullscreenenter"",""1"",""3621""
","
","","","","","","null","<div style=""font-size:60px;"">+</div>","null","","fixation","","",""
"memory-trial","268","544602","0.0-18.0-1.111","4162","approach_avoid_sv1","""event"",""trial"",""time""
""fullscreenenter"",""1"",""3621""
","
","
","""event"",""trial"",""time""
""fullscreenenter"",""1"",""3621""
","
","","","","","","1431.2999999970198","images/dog7.png","","","memory_trial","4","definitely_new",""
"html-keyboard-response","269","545106","0.0-18.0-0.112","4162","approach_avoid_sv1","""event"",""trial"",""time""
""fullscreenenter"",""1"",""3621""
","
","
","""event"",""trial"",""time""
""fullscreenenter"",""1"",""3621""
","
","","","","","","null","<div style=""font-size:60px;"">+</div>","null","","fixation","","",""
"memory-trial","270","547562","0.0-18.0-1.112","4162","approach_avoid_sv1","""event"",""trial"",""time""
""fullscreenenter"",""1"",""3621""
","
","
","""event"",""trial"",""time""
""fullscreenenter"",""1"",""3621""
","
","","","","","","1450.6000000089407","images/apple2.png","","","memory_trial","2","maybe_old",""
"html-keyboard-response","271","548068","0.0-18.0-0.113","4162","approach_avoid_sv1","""event"",""trial"",""time""
""fullscreenenter"",""1"",""3621""
","
","
","""event"",""trial"",""time""
""fullscreenenter"",""1"",""3621""
","
","","","","","","null","<div style=""font-size:60px;"">+</div>","null","","fixation","","",""
"memory-trial","272","551114","0.0-18.0-1.113","4162","approach_avoid_sv1","""event"",""trial"",""time""
""fullscreenenter"",""1"",""3621""
","
","
","""event"",""trial"",""time""
""fullscreenenter"",""1"",""3621""
","
","","","","","","2036.2000000029802","images/dog4.png","","","memory_trial","4","definitely_new",""
"html-keyboard-response","273","551618","0.0-18.0-0.114","4162","approach_avoid_sv1","""event"",""trial"",""time""
""fullscreenenter"",""1"",""3621""
","
","
","""event"",""trial"",""time""
""fullscreenenter"",""1"",""3621""
","
","","","","","","null","<div style=""font-size:60px;"">+</div>","null","","fixation","","",""
"memory-trial","274","553484","0.0-18.0-1.114","4162","approach_avoid_sv1","""event"",""trial"",""time""
""fullscreenenter"",""1"",""3621""
","
","
","""event"",""trial"",""time""
""fullscreenenter"",""1"",""3621""
","
","","","","","","856.0999999940395","images/orange6.png","","","memory_trial","4","definitely_new",""
"html-keyboard-response","275","553994","0.0-18.0-0.115","4162","approach_avoid_sv1","""event"",""trial"",""time""
""fullscreenenter"",""1"",""3621""
","
","
","""event"",""trial"",""time""
""fullscreenenter"",""1"",""3621""
","
","","","","","","null","<div style=""font-size:60px;"">+</div>","null","","fixation","","",""
"memory-trial","276","556450","0.0-18.0-1.115","4162","approach_avoid_sv1","""event"",""trial"",""time""
""fullscreenenter"",""1"",""3621""
","
","
","""event"",""trial"",""time""
""fullscreenenter"",""1"",""3621""
","
","","","","","","1450.2999999970198","images/tree5.png","","","memory_trial","3","maybe_new",""
"html-keyboard-response","277","556954","0.0-18.0-0.116","4162","approach_avoid_sv1","""event"",""trial"",""time""
""fullscreenenter"",""1"",""3621""
","
","
","""event"",""trial"",""time""
""fullscreenenter"",""1"",""3621""
","
","","","","","","null","<div style=""font-size:60px;"">+</div>","null","","fixation","","",""
"memory-trial","278","558698","0.0-18.0-1.116","4162","approach_avoid_sv1","""event"",""trial"",""time""
""fullscreenenter"",""1"",""3621""
","
","
","""event"",""trial"",""time""
""fullscreenenter"",""1"",""3621""
","
","","","","","","739.2000000029802","images/bush8.png","","","memory_trial","3","maybe_new",""
"html-keyboard-response","279","559202","0.0-18.0-0.117","4162","approach_avoid_sv1","""event"",""trial"",""time""
""fullscreenenter"",""1"",""3621""
","
","
","""event"",""trial"",""time""
""fullscreenenter"",""1"",""3621""
","
","","","","","","null","<div style=""font-size:60px;"">+</div>","null","","fixation","","",""
"memory-trial","280","561330","0.0-18.0-1.117","4162","approach_avoid_sv1","""event"",""trial"",""time""
""fullscreenenter"",""1"",""3621""
","
","
","""event"",""trial"",""time""
""fullscreenenter"",""1"",""3621""
","
","","","","","","1122.5999999940395","images/dog2.png","","","memory_trial","4","definitely_new",""
"html-keyboard-response","281","561834","0.0-18.0-0.118","4162","approach_avoid_sv1","""event"",""trial"",""time""
""fullscreenenter"",""1"",""3621""
","
","
","""event"",""trial"",""time""
""fullscreenenter"",""1"",""3621""
","
","","","","","","null","<div style=""font-size:60px;"">+</div>","null","","fixation","","",""
"memory-trial","282","564234","0.0-18.0-1.118","4162","approach_avoid_sv1","""event"",""trial"",""time""
""fullscreenenter"",""1"",""3621""
","
","
","""event"",""trial"",""time""
""fullscreenenter"",""1"",""3621""
","
","","","","","","1393.2000000029802","images/rabbit2.png","","","memory_trial","2","maybe_old",""
"html-keyboard-response","283","564738","0.0-18.0-0.119","4162","approach_avoid_sv1","""event"",""trial"",""time""
""fullscreenenter"",""1"",""3621""
","
","
","""event"",""trial"",""time""
""fullscreenenter"",""1"",""3621""
","
","","","","","","null","<div style=""font-size:60px;"">+</div>","null","","fixation","","",""
"memory-trial","284","566498","0.0-18.0-1.119","4162","approach_avoid_sv1","""event"",""trial"",""time""
""fullscreenenter"",""1"",""3621""
","
","
","""event"",""trial"",""time""
""fullscreenenter"",""1"",""3621""
","
","","","","","","752.8000000119209","images/bush1.png","","","memory_trial","4","definitely_new",""
"html-keyboard-response","285","567001","0.0-18.0-0.120","4162","approach_avoid_sv1","""event"",""trial"",""time""
""fullscreenenter"",""1"",""3621""
","
","
","""event"",""trial"",""time""
""fullscreenenter"",""1"",""3621""
","
","","","","","","null","<div style=""font-size:60px;"">+</div>","null","","fixation","","",""
"memory-trial","286","569754","0.0-18.0-1.120","4162","approach_avoid_sv1","""event"",""trial"",""time""
""fullscreenenter"",""1"",""3621""
","
","
","""event"",""trial"",""time""
""fullscreenenter"",""1"",""3621""
","
","","","","","","1747.2000000029802","images/cow6.png","","","memory_trial","2","maybe_old",""
"html-keyboard-response","287","570257","0.0-18.0-0.121","4162","approach_avoid_sv1","""event"",""trial"",""time""
""fullscreenenter"",""1"",""3621""
","
","
","""event"",""trial"",""time""
""fullscreenenter"",""1"",""3621""
","
","","","","","","null","<div style=""font-size:60px;"">+</div>","null","","fixation","","",""
"memory-trial","288","572321","0.0-18.0-1.121","4162","approach_avoid_sv1","""event"",""trial"",""time""
""fullscreenenter"",""1"",""3621""
","
","
","""event"",""trial"",""time""
""fullscreenenter"",""1"",""3621""
","
","","","","","","1056","images/rodent4.png","","","memory_trial","2","maybe_old",""
"html-keyboard-response","289","572825","0.0-18.0-0.122","4162","approach_avoid_sv1","""event"",""trial"",""time""
""fullscreenenter"",""1"",""3621""
","
","
","""event"",""trial"",""time""
""fullscreenenter"",""1"",""3621""
","
","","","","","","null","<div style=""font-size:60px;"">+</div>","null","","fixation","","",""
"memory-trial","290","574913","0.0-18.0-1.122","4162","approach_avoid_sv1","""event"",""trial"",""time""
""fullscreenenter"",""1"",""3621""
","
","
","""event"",""trial"",""time""
""fullscreenenter"",""1"",""3621""
","
","","","","","","1078.9000000059605","images/sheep7.png","","","memory_trial","4","definitely_new",""
"html-keyboard-response","291","575417","0.0-18.0-0.123","4162","approach_avoid_sv1","""event"",""trial"",""time""
""fullscreenenter"",""1"",""3621""
","
","
","""event"",""trial"",""time""
""fullscreenenter"",""1"",""3621""
","
","","","","","","null","<div style=""font-size:60px;"">+</div>","null","","fixation","","",""
"memory-trial","292","577049","0.0-18.0-1.123","4162","approach_avoid_sv1","""event"",""trial"",""time""
""fullscreenenter"",""1"",""3621""
","
","
","""event"",""trial"",""time""
""fullscreenenter"",""1"",""3621""
","
","","","","","","627.9000000059605","images/chair1.png","","","memory_trial","4","definitely_new",""
"html-keyboard-response","293","577553","0.0-18.0-0.124","4162","approach_avoid_sv1","""event"",""trial"",""time""
""fullscreenenter"",""1"",""3621""
","
","
","""event"",""trial"",""time""
""fullscreenenter"",""1"",""3621""
","
","","","","","","null","<div style=""font-size:60px;"">+</div>","null","","fixation","","",""
"memory-trial","294","579361","0.0-18.0-1.124","4162","approach_avoid_sv1","""event"",""trial"",""time""
""fullscreenenter"",""1"",""3621""
","
","
","""event"",""trial"",""time""
""fullscreenenter"",""1"",""3621""
","
","","","","","","801","images/dog1.png","","","memory_trial","4","definitely_new",""
"html-keyboard-response","295","579865","0.0-18.0-0.125","4162","approach_avoid_sv1","""event"",""trial"",""time""
""fullscreenenter"",""1"",""3621""
","
","
","""event"",""trial"",""time""
""fullscreenenter"",""1"",""3621""
","
","","","","","","null","<div style=""font-size:60px;"">+</div>","null","","fixation","","",""
"memory-trial","296","582664","0.0-18.0-1.125","4162","approach_avoid_sv1","""event"",""trial"",""time""
""fullscreenenter"",""1"",""3621""
","
","
","""event"",""trial"",""time""
""fullscreenenter"",""1"",""3621""
","
","","","","","","1789.0999999940395","images/flower4.png","","","memory_trial","3","maybe_new",""
"html-keyboard-response","297","583169","0.0-18.0-0.126","4162","approach_avoid_sv1","""event"",""trial"",""time""
""fullscreenenter"",""1"",""3621""
","
","
","""event"",""trial"",""time""
""fullscreenenter"",""1"",""3621""
","
","","","","","","null","<div style=""font-size:60px;"">+</div>","null","","fixation","","",""
