"trial_type","trial_index","time_elapsed","internal_node_id","subject_id","task_version","interactions","blur_events","focus_events","fullscreenenter_events","fullscreenexit_events","success","timeout","failed_images","failed_audio","failed_video","rt","stimulus","response","button_pressed","task_part","key_press","answer","correct"
"pavlovia","0","3","0.0-0.0","4663","approach_avoid_sv1","""event"",""trial"",""time""
""fullscreenenter"",""1"",""1867""
","
","
","""event"",""trial"",""time""
""fullscreenenter"",""1"",""1867""
","
","","","","","","","","","","","","",""
"fullscreen","1","2853","0.0-1.0","4663","approach_avoid_sv1","""event"",""trial"",""time""
""fullscreenenter"",""1"",""1867""
","
","
","""event"",""trial"",""time""
""fullscreenenter"",""1"",""1867""
","
","true","","","","","","","","","","","",""
"preload","2","5053","0.0-2.0","4663","approach_avoid_sv1","""event"",""trial"",""time""
""fullscreenenter"",""1"",""1867""
","
","
","""event"",""trial"",""time""
""fullscreenenter"",""1"",""1867""
","
","true","false","[]","[]","[]","","","","","","","",""
"preload","3","6202","0.0-3.0","4663","approach_avoid_sv1","""event"",""trial"",""time""
""fullscreenenter"",""1"",""1867""
","
","
","""event"",""trial"",""time""
""fullscreenenter"",""1"",""1867""
","
","true","false","[]","[]","[]","","","","","","","",""
"preload","4","6412","0.0-4.0","4663","approach_avoid_sv1","""event"",""trial"",""time""
""fullscreenenter"",""1"",""1867""
","
","
","""event"",""trial"",""time""
""fullscreenenter"",""1"",""1867""
","
","true","false","[]","[]","[]","","","","","","","",""
"audio-keyboard-response","5","9118","0.0-5.0","4663","approach_avoid_sv1","""event"",""trial"",""time""
""fullscreenenter"",""1"",""1867""
","
","
","""event"",""trial"",""time""
""fullscreenenter"",""1"",""1867""
","
","","","","","","2240","audio/beep_loop.wav"," ","","","","",""
"audio-button-response","6","10451","0.0-6.0","4663","approach_avoid_sv1","""event"",""trial"",""time""
""fullscreenenter"",""1"",""1867""
","
","
","""event"",""trial"",""time""
""fullscreenenter"",""1"",""1867""
","
","","","","","","1331","audio/turtle.wav","3","","","","",""
"audio-button-response","7","12619","0.0-7.0","4663","approach_avoid_sv1","""event"",""trial"",""time""
""fullscreenenter"",""1"",""1867""
","
","
","""event"",""trial"",""time""
""fullscreenenter"",""1"",""1867""
","
","","","","","","1152","audio/shark.wav","2","","","","",""
"preload","8","15681","0.0-8.0","4663","approach_avoid_sv1","""event"",""trial"",""time""
""fullscreenenter"",""1"",""1867""
","
","
","""event"",""trial"",""time""
""fullscreenenter"",""1"",""1867""
","
","true","false","[]","[]","[]","","","","","","","",""
"learning-instructions","9","23558","0.0-9.0-0.0","4663","approach_avoid_sv1","""event"",""trial"",""time""
""fullscreenenter"",""1"",""1867""
","
","
","""event"",""trial"",""time""
""fullscreenenter"",""1"",""1867""
","
","","","","","","3402.7999999523163","<p> Welcome back! </p><p> Last week, you had to make choices about lots of different items.  </p>","","0","instructions","","",""
"learning-instructions","10","28904","0.0-9.0-0.1","4663","approach_avoid_sv1","""event"",""trial"",""time""
""fullscreenenter"",""1"",""1867""
","
","
","""event"",""trial"",""time""
""fullscreenenter"",""1"",""1867""
","
","","","","","","1228.5","<p> Today, we are going to ask you to try to remember all the items. </p>","","0","instructions","","",""
"learning-instructions","11","39439","0.0-9.0-0.2","4663","approach_avoid_sv1","""event"",""trial"",""time""
""fullscreenenter"",""1"",""1867""
","
","
","""event"",""trial"",""time""
""fullscreenenter"",""1"",""1867""
","
","","","","","","394.59999990463257","<p> On every trial, you will see an image. </p><p> The image may be an OLD image you saw during the games last week or it may be a NEW image that was not presented. </p>","","0","instructions","","",""
"learning-instructions","12","48330","0.0-9.0-0.3","4663","approach_avoid_sv1","""event"",""trial"",""time""
""fullscreenenter"",""1"",""1867""
","
","
","""event"",""trial"",""time""
""fullscreenenter"",""1"",""1867""
","
","","","","","","391.59999990463257","<p> You need to select whether the image is:  </p><p>  'Definitely old', 'Maybe old', 'Maybe new', or 'Definitely new.'  </p><div class=""mem-choice-instructions-grid""><div class=""choice-option"" id=""choice-option-1"" ><img src=""images/definitely_old_1.png"" id=""choice-option-img-1"" class=""choice-option-img"" stage=""1""></div><div class=""choice-option"" id=""choice-option-2"" ><img src=""images/maybe_old_1.png"" id=""choice-option-img-2"" class=""choice-option-img"" stage=""1""></div><div class=""choice-option"" id=""choice-option-3"" ><img src=""images/maybe_new_1.png"" id=""choice-option-img-3"" class=""choice-option-img"" stage=""1""></div><div class=""choice-option"" id=""choice-option-4"" > <img src=""images/definitely_new_1.png"" id=""choice-option-img-4"" class=""choice-option-img"" stage=""1""></div></div>","","0","instructions","","",""
"learning-instructions","13","55233","0.0-9.0-0.4","4663","approach_avoid_sv1","""event"",""trial"",""time""
""fullscreenenter"",""1"",""1867""
","
","
","""event"",""trial"",""time""
""fullscreenenter"",""1"",""1867""
","
","","","","","","384.2000000476837","<p> You should use the 1, 2, 3, and 4 keys to make your responses.  </p><div class=""mem-choice-instructions-grid""><div class=""choice-option"" id=""choice-option-1"" ><img src=""images/definitely_old.png"" id=""choice-option-img-1"" class=""choice-option-img"" stage=""1""></div><div class=""choice-option"" id=""choice-option-2"" ><img src=""images/maybe_old.png"" id=""choice-option-img-2"" class=""choice-option-img"" stage=""1""></div><div class=""choice-option"" id=""choice-option-3"" ><img src=""images/maybe_new.png"" id=""choice-option-img-3"" class=""choice-option-img"" stage=""1""></div><div class=""choice-option"" id=""choice-option-4"" > <img src=""images/definitely_new.png"" id=""choice-option-img-4"" class=""choice-option-img"" stage=""1""></div></div>","","0","instructions","","",""
"learning-instructions","14","61930","0.0-9.0-0.5","4663","approach_avoid_sv1","""event"",""trial"",""time""
""fullscreenenter"",""1"",""1867""
","
","
","""event"",""trial"",""time""
""fullscreenenter"",""1"",""1867""
","
","","","","","","351.10000014305115","<p> You will have 10 seconds to make each response.  </p><p>  Make sure to respond before time runs out! </p>","","0","instructions","","",""
"learning-instructions","15","69423","0.0-9.0-0.6","4663","approach_avoid_sv1","""event"",""trial"",""time""
""fullscreenenter"",""1"",""1867""
","
","
","""event"",""trial"",""time""
""fullscreenenter"",""1"",""1867""
","
","","","","","","414.2999999523163","<p> Today, you will see each image ONCE only.  </p><p>  That means none of the images will repeat. </p>","","0","instructions","","",""
"learning-instructions","16","82721","0.0-9.0-0.7","4663","approach_avoid_sv1","""event"",""trial"",""time""
""fullscreenenter"",""1"",""1867""
","
","
","""event"",""trial"",""time""
""fullscreenenter"",""1"",""1867""
","
","","","","","","601.7000000476837","<p> Before you play the real game, it is time to practice. </p><p>  Just like in the real game, some of the images in the practice will be ones you have seen before. </p><p>  Others will be entirely new. </p>","","0","instructions","","",""
"html-button-response","17","84114","0.0-10.0","4663","approach_avoid_sv1","""event"",""trial"",""time""
""fullscreenenter"",""1"",""1867""
","
","
","""event"",""trial"",""time""
""fullscreenenter"",""1"",""1867""
","
","","","","","","1285.7999999523163","<p> Ready to practice? </p><p> Remember, use the 1, 2, 3, and 4 keys to make your responses. </p>","0","","instructions","","",""
"html-keyboard-response","18","84737","0.0-11.0-0.0","4663","approach_avoid_sv1","""event"",""trial"",""time""
""fullscreenenter"",""1"",""1867""
","
","
","""event"",""trial"",""time""
""fullscreenenter"",""1"",""1867""
","
","","","","","","null","<div style=""font-size:60px;"">+</div>","null","","fixation","","",""
"memory-trial","19","87987","0.0-11.0-1.0","4663","approach_avoid_sv1","""event"",""trial"",""time""
""fullscreenenter"",""1"",""1867""
","
","
","""event"",""trial"",""time""
""fullscreenenter"",""1"",""1867""
","
","","","","","","2243.9000000953674","images/racket5.png","","","practice","4","definitely_new",""
"html-keyboard-response","20","88506","0.0-11.0-0.1","4663","approach_avoid_sv1","""event"",""trial"",""time""
""fullscreenenter"",""1"",""1867""
","
","
","""event"",""trial"",""time""
""fullscreenenter"",""1"",""1867""
","
","","","","","","null","<div style=""font-size:60px;"">+</div>","null","","fixation","","",""
"memory-trial","21","91687","0.0-11.0-1.1","4663","approach_avoid_sv1","""event"",""trial"",""time""
""fullscreenenter"",""1"",""1867""
","
","
","""event"",""trial"",""time""
""fullscreenenter"",""1"",""1867""
","
","","","","","","2162.2999999523163","images/ball2.png","","","practice","2","maybe_old",""
"html-keyboard-response","22","92197","0.0-11.0-0.2","4663","approach_avoid_sv1","""event"",""trial"",""time""
""fullscreenenter"",""1"",""1867""
","
","
","""event"",""trial"",""time""
""fullscreenenter"",""1"",""1867""
","
","","","","","","null","<div style=""font-size:60px;"">+</div>","null","","fixation","","",""
"memory-trial","23","95037","0.0-11.0-1.2","4663","approach_avoid_sv1","""event"",""trial"",""time""
""fullscreenenter"",""1"",""1867""
","
","
","""event"",""trial"",""time""
""fullscreenenter"",""1"",""1867""
","
","","","","","","1812.2000000476837","images/ball3.png","","","practice","2","maybe_old",""
"html-keyboard-response","24","95557","0.0-11.0-0.3","4663","approach_avoid_sv1","""event"",""trial"",""time""
""fullscreenenter"",""1"",""1867""
","
","
","""event"",""trial"",""time""
""fullscreenenter"",""1"",""1867""
","
","","","","","","null","<div style=""font-size:60px;"">+</div>","null","","fixation","","",""
"memory-trial","25","99137","0.0-11.0-1.3","4663","approach_avoid_sv1","""event"",""trial"",""time""
""fullscreenenter"",""1"",""1867""
","
","
","""event"",""trial"",""time""
""fullscreenenter"",""1"",""1867""
","
","","","","","","2562.2999999523163","images/ball1.png","","","practice","1","definitely_old",""
"html-keyboard-response","26","99647","0.0-11.0-0.4","4663","approach_avoid_sv1","""event"",""trial"",""time""
""fullscreenenter"",""1"",""1867""
","
","
","""event"",""trial"",""time""
""fullscreenenter"",""1"",""1867""
","
","","","","","","null","<div style=""font-size:60px;"">+</div>","null","","fixation","","",""
"memory-trial","27","102667","0.0-11.0-1.4","4663","approach_avoid_sv1","""event"",""trial"",""time""
""fullscreenenter"",""1"",""1867""
","
","
","""event"",""trial"",""time""
""fullscreenenter"",""1"",""1867""
","
","","","","","","2003.2999999523163","images/racket3.png","","","practice","3","maybe_new",""
"html-keyboard-response","28","103187","0.0-11.0-0.5","4663","approach_avoid_sv1","""event"",""trial"",""time""
""fullscreenenter"",""1"",""1867""
","
","
","""event"",""trial"",""time""
""fullscreenenter"",""1"",""1867""
","
","","","","","","null","<div style=""font-size:60px;"">+</div>","null","","fixation","","",""
"memory-trial","29","106267","0.0-11.0-1.5","4663","approach_avoid_sv1","""event"",""trial"",""time""
""fullscreenenter"",""1"",""1867""
","
","
","""event"",""trial"",""time""
""fullscreenenter"",""1"",""1867""
","
","","","","","","2061.4000000953674","images/ball5.png","","","practice","2","maybe_old",""
"html-keyboard-response","30","106783","0.0-11.0-0.6","4663","approach_avoid_sv1","""event"",""trial"",""time""
""fullscreenenter"",""1"",""1867""
","
","
","""event"",""trial"",""time""
""fullscreenenter"",""1"",""1867""
","
","","","","","","null","<div style=""font-size:60px;"">+</div>","null","","fixation","","",""
"memory-trial","31","109648","0.0-11.0-1.6","4663","approach_avoid_sv1","""event"",""trial"",""time""
""fullscreenenter"",""1"",""1867""
","
","
","""event"",""trial"",""time""
""fullscreenenter"",""1"",""1867""
","
","","","","","","1847.7999999523163","images/racket1.png","","","practice","2","maybe_old",""
"html-keyboard-response","32","110168","0.0-11.0-0.7","4663","approach_avoid_sv1","""event"",""trial"",""time""
""fullscreenenter"",""1"",""1867""
","
","
","""event"",""trial"",""time""
""fullscreenenter"",""1"",""1867""
","
","","","","","","null","<div style=""font-size:60px;"">+</div>","null","","fixation","","",""
"memory-trial","33","112939","0.0-11.0-1.7","4663","approach_avoid_sv1","""event"",""trial"",""time""
""fullscreenenter"",""1"",""1867""
","
","
","""event"",""trial"",""time""
""fullscreenenter"",""1"",""1867""
","
","","","","","","1764.0999999046326","images/racket2.png","","","practice","3","maybe_new",""
"learning-instructions","34","121466","0.0-12.0-0.0","4663","approach_avoid_sv1","""event"",""trial"",""time""
""fullscreenenter"",""1"",""1867""
","
","
","""event"",""trial"",""time""
""fullscreenenter"",""1"",""1867""
","
","","","","","","1219.9000000953674","<p> Great! You have completed the practice. </p><p> Before you start, we're going to ask you a few questions about how the game works.  </p>","","0","instructions","","",""
"preload","35","123088","0.0-13.0","4663","approach_avoid_sv1","""event"",""trial"",""time""
""fullscreenenter"",""1"",""1867""
","
","
","""event"",""trial"",""time""
""fullscreenenter"",""1"",""1867""
","
","true","false","[]","[]","[]","","","","","","","",""
"comp-q","36","129968","0.0-14.0-0.0","4663","approach_avoid_sv1","""event"",""trial"",""time""
""fullscreenenter"",""1"",""1867""
","
","
","""event"",""trial"",""time""
""fullscreenenter"",""1"",""1867""
","
","","","","","","1052.0999999046326","<p> <b> True or False? </b> </p><p> In this game, you will only see each image once. </p>","","0","comp_question","","","true"
"comp-q","37","138386","0.0-14.0-1.0","4663","approach_avoid_sv1","""event"",""trial"",""time""
""fullscreenenter"",""1"",""1867""
","
","
","""event"",""trial"",""time""
""fullscreenenter"",""1"",""1867""
","
","","","","","","2059.5","<p> <b> That's right! </b> You will see many different images <i> one time each </i> in this game. </p>","","0","comp_answer","","",""
"comp-q","38","144029","0.0-15.0-0.0","4663","approach_avoid_sv1","""event"",""trial"",""time""
""fullscreenenter"",""1"",""1867""
","
","
","""event"",""trial"",""time""
""fullscreenenter"",""1"",""1867""
","
","","","","","","633.5999999046326","<p> <b> True or False? </b> </p><p> You should use the mouse and click to make your response. </p>","","1","comp_question","","","true"
"comp-q","39","151326","0.0-15.0-1.0","4663","approach_avoid_sv1","""event"",""trial"",""time""
""fullscreenenter"",""1"",""1867""
","
","
","""event"",""trial"",""time""
""fullscreenenter"",""1"",""1867""
","
","","","","","","791.4000000953674","<p><b> That's right! </b> You should use the '1', '2', '3', and '4' keys to make your response. </p>","","0","comp_answer","","",""
"comp-q","40","157622","0.0-16.0-0.0","4663","approach_avoid_sv1","""event"",""trial"",""time""
""fullscreenenter"",""1"",""1867""
","
","
","""event"",""trial"",""time""
""fullscreenenter"",""1"",""1867""
","
","","","","","","616.1000001430511","<p> <b> True or False? </b> </p><p> You will have as much time as you want to make each choice. </p>","","1","comp_question","","","true"
"comp-q","41","163414","0.0-16.0-1.0","4663","approach_avoid_sv1","""event"",""trial"",""time""
""fullscreenenter"",""1"",""1867""
","
","
","""event"",""trial"",""time""
""fullscreenenter"",""1"",""1867""
","
","","","","","","1087.7999999523163","<p> <b> That's right! </b> You will only have 10 seconds to make each choice. </p>","","0","comp_answer","","",""
"learning-instructions","42","173589","0.0-17.0","4663","approach_avoid_sv1","""event"",""trial"",""time""
""fullscreenenter"",""1"",""1867""
","
","
","""event"",""trial"",""time""
""fullscreenenter"",""1"",""1867""
","
","","","","","","1484.9000000953674","<p> Great! You are now ready to begin the game. </p><p> Remember, use the 1, 2, 3, and 4 keys to make your responses. </p>","","0","instructions","","",""
"html-keyboard-response","43","174213","0.0-18.0-0.0","4663","approach_avoid_sv1","""event"",""trial"",""time""
""fullscreenenter"",""1"",""1867""
","
","
","""event"",""trial"",""time""
""fullscreenenter"",""1"",""1867""
","
","","","","","","null","<div style=""font-size:60px;"">+</div>","null","","fixation","","",""
"memory-trial","44","177793","0.0-18.0-1.0","4663","approach_avoid_sv1","""event"",""trial"",""time""
""fullscreenenter"",""1"",""1867""
","
","
","""event"",""trial"",""time""
""fullscreenenter"",""1"",""1867""
","
","","","","","","2560.2000000476837","images/rodent2.png","","","memory_trial","3","maybe_new",""
"html-keyboard-response","45","178303","0.0-18.0-0.1","4663","approach_avoid_sv1","""event"",""trial"",""time""
""fullscreenenter"",""1"",""1867""
","
","
","""event"",""trial"",""time""
""fullscreenenter"",""1"",""1867""
","
","","","","","","null","<div style=""font-size:60px;"">+</div>","null","","fixation","","",""
"memory-trial","46","181613","0.0-18.0-1.1","4663","approach_avoid_sv1","""event"",""trial"",""time""
""fullscreenenter"",""1"",""1867""
","
","
","""event"",""trial"",""time""
""fullscreenenter"",""1"",""1867""
","
","","","","","","2287.7000000476837","images/flower6.png","","","memory_trial","2","maybe_old",""
"html-keyboard-response","47","182122","0.0-18.0-0.2","4663","approach_avoid_sv1","""event"",""trial"",""time""
""fullscreenenter"",""1"",""1867""
","
","
","""event"",""trial"",""time""
""fullscreenenter"",""1"",""1867""
","
","","","","","","null","<div style=""font-size:60px;"">+</div>","null","","fixation","","",""
"memory-trial","48","185034","0.0-18.0-1.2","4663","approach_avoid_sv1","""event"",""trial"",""time""
""fullscreenenter"",""1"",""1867""
","
","
","""event"",""trial"",""time""
""fullscreenenter"",""1"",""1867""
","
","","","","","","1899.0999999046326","images/truck5.png","","","memory_trial","1","definitely_old",""
"html-keyboard-response","49","185543","0.0-18.0-0.3","4663","approach_avoid_sv1","""event"",""trial"",""time""
""fullscreenenter"",""1"",""1867""
","
","
","""event"",""trial"",""time""
""fullscreenenter"",""1"",""1867""
","
","","","","","","null","<div style=""font-size:60px;"">+</div>","null","","fixation","","",""
"memory-trial","50","187923","0.0-18.0-1.3","4663","approach_avoid_sv1","""event"",""trial"",""time""
""fullscreenenter"",""1"",""1867""
","
","
","""event"",""trial"",""time""
""fullscreenenter"",""1"",""1867""
","
","","","","","","1352","images/horse3.png","","","memory_trial","1","definitely_old",""
"html-keyboard-response","51","188443","0.0-18.0-0.4","4663","approach_avoid_sv1","""event"",""trial"",""time""
""fullscreenenter"",""1"",""1867""
","
","
","""event"",""trial"",""time""
""fullscreenenter"",""1"",""1867""
","
","","","","","","null","<div style=""font-size:60px;"">+</div>","null","","fixation","","",""
"memory-trial","52","191343","0.0-18.0-1.4","4663","approach_avoid_sv1","""event"",""trial"",""time""
""fullscreenenter"",""1"",""1867""
","
","
","""event"",""trial"",""time""
""fullscreenenter"",""1"",""1867""
","
","","","","","","1889.8000001907349","images/plane8.png","","","memory_trial","1","definitely_old",""
"html-keyboard-response","53","191853","0.0-18.0-0.5","4663","approach_avoid_sv1","""event"",""trial"",""time""
""fullscreenenter"",""1"",""1867""
","
","
","""event"",""trial"",""time""
""fullscreenenter"",""1"",""1867""
","
","","","","","","null","<div style=""font-size:60px;"">+</div>","null","","fixation","","",""
"memory-trial","54","194853","0.0-18.0-1.5","4663","approach_avoid_sv1","""event"",""trial"",""time""
""fullscreenenter"",""1"",""1867""
","
","
","""event"",""trial"",""time""
""fullscreenenter"",""1"",""1867""
","
","","","","","","1975.5999999046326","images/goat3.png","","","memory_trial","2","maybe_old",""
"html-keyboard-response","55","195354","0.0-18.0-0.6","4663","approach_avoid_sv1","""event"",""trial"",""time""
""fullscreenenter"",""1"",""1867""
","
","
","""event"",""trial"",""time""
""fullscreenenter"",""1"",""1867""
","
","","","","","","null","<div style=""font-size:60px;"">+</div>","null","","fixation","","",""
"memory-trial","56","198823","0.0-18.0-1.6","4663","approach_avoid_sv1","""event"",""trial"",""time""
""fullscreenenter"",""1"",""1867""
","
","
","""event"",""trial"",""time""
""fullscreenenter"",""1"",""1867""
","
","","","","","","2447.9000000953674","images/table7.png","","","memory_trial","3","maybe_new",""
"html-keyboard-response","57","199343","0.0-18.0-0.7","4663","approach_avoid_sv1","""event"",""trial"",""time""
""fullscreenenter"",""1"",""1867""
","
","
","""event"",""trial"",""time""
""fullscreenenter"",""1"",""1867""
","
","","","","","","null","<div style=""font-size:60px;"">+</div>","null","","fixation","","",""
"memory-trial","58","202733","0.0-18.0-1.7","4663","approach_avoid_sv1","""event"",""trial"",""time""
""fullscreenenter"",""1"",""1867""
","
","
","""event"",""trial"",""time""
""fullscreenenter"",""1"",""1867""
","
","","","","","","2382.5","images/rodent7.png","","","memory_trial","4","definitely_new",""
"html-keyboard-response","59","203254","0.0-18.0-0.8","4663","approach_avoid_sv1","""event"",""trial"",""time""
""fullscreenenter"",""1"",""1867""
","
","
","""event"",""trial"",""time""
""fullscreenenter"",""1"",""1867""
","
","","","","","","null","<div style=""font-size:60px;"">+</div>","null","","fixation","","",""
"memory-trial","60","205933","0.0-18.0-1.8","4663","approach_avoid_sv1","""event"",""trial"",""time""
""fullscreenenter"",""1"",""1867""
","
","
","""event"",""trial"",""time""
""fullscreenenter"",""1"",""1867""
","
","","","","","","1659","images/orange8.png","","","memory_trial","4","definitely_new",""
"html-keyboard-response","61","206442","0.0-18.0-0.9","4663","approach_avoid_sv1","""event"",""trial"",""time""
""fullscreenenter"",""1"",""1867""
","
","
","""event"",""trial"",""time""
""fullscreenenter"",""1"",""1867""
","
","","","","","","null","<div style=""font-size:60px;"">+</div>","null","","fixation","","",""
"memory-trial","62","209918","0.0-18.0-1.9","4663","approach_avoid_sv1","""event"",""trial"",""time""
""fullscreenenter"",""1"",""1867""
","
","
","""event"",""trial"",""time""
""fullscreenenter"",""1"",""1867""
","
","","","","","","2468.7999999523163","images/chair2.png","","","memory_trial","2","maybe_old",""
"html-keyboard-response","63","210431","0.0-18.0-0.10","4663","approach_avoid_sv1","""event"",""trial"",""time""
""fullscreenenter"",""1"",""1867""
","
","
","""event"",""trial"",""time""
""fullscreenenter"",""1"",""1867""
","
","","","","","","null","<div style=""font-size:60px;"">+</div>","null","","fixation","","",""
"memory-trial","64","213873","0.0-18.0-1.10","4663","approach_avoid_sv1","""event"",""trial"",""time""
""fullscreenenter"",""1"",""1867""
","
","
","""event"",""trial"",""time""
""fullscreenenter"",""1"",""1867""
","
","","","","","","2427.800000190735","images/train6.png","","","memory_trial","1","definitely_old",""
"html-keyboard-response","65","214380","0.0-18.0-0.11","4663","approach_avoid_sv1","""event"",""trial"",""time""
""fullscreenenter"",""1"",""1867""
","
","
","""event"",""trial"",""time""
""fullscreenenter"",""1"",""1867""
","
","","","","","","null","<div style=""font-size:60px;"">+</div>","null","","fixation","","",""
"memory-trial","66","217749","0.0-18.0-1.11","4663","approach_avoid_sv1","""event"",""trial"",""time""
""fullscreenenter"",""1"",""1867""
","
","
","""event"",""trial"",""time""
""fullscreenenter"",""1"",""1867""
","
","","","","","","2360.2999999523163","images/cow1.png","","","memory_trial","4","definitely_new",""
"html-keyboard-response","67","218273","0.0-18.0-0.12","4663","approach_avoid_sv1","""event"",""trial"",""time""
""fullscreenenter"",""1"",""1867""
","
","
","""event"",""trial"",""time""
""fullscreenenter"",""1"",""1867""
","
","","","","","","null","<div style=""font-size:60px;"">+</div>","null","","fixation","","",""
"memory-trial","68","221731","0.0-18.0-1.12","4663","approach_avoid_sv1","""event"",""trial"",""time""
""fullscreenenter"",""1"",""1867""
","
","
","""event"",""trial"",""time""
""fullscreenenter"",""1"",""1867""
","
","","","","","","2443.100000143051","images/sheep1.png","","","memory_trial","1","definitely_old",""
"html-keyboard-response","69","222236","0.0-18.0-0.13","4663","approach_avoid_sv1","""event"",""trial"",""time""
""fullscreenenter"",""1"",""1867""
","
","
","""event"",""trial"",""time""
""fullscreenenter"",""1"",""1867""
","
","","","","","","null","<div style=""font-size:60px;"">+</div>","null","","fixation","","",""
"memory-trial","70","226492","0.0-18.0-1.13","4663","approach_avoid_sv1","""event"",""trial"",""time""
""fullscreenenter"",""1"",""1867""
","
","
","""event"",""trial"",""time""
""fullscreenenter"",""1"",""1867""
","
","","","","","","3244.5","images/flower5.png","","","memory_trial","4","definitely_new",""
"html-keyboard-response","71","226996","0.0-18.0-0.14","4663","approach_avoid_sv1","""event"",""trial"",""time""
""fullscreenenter"",""1"",""1867""
","
","
","""event"",""trial"",""time""
""fullscreenenter"",""1"",""1867""
","
","","","","","","null","<div style=""font-size:60px;"">+</div>","null","","fixation","","",""
"memory-trial","72","230603","0.0-18.0-1.14","4663","approach_avoid_sv1","""event"",""trial"",""time""
""fullscreenenter"",""1"",""1867""
","
","
","""event"",""trial"",""time""
""fullscreenenter"",""1"",""1867""
","
","","","","","","2602.600000143051","images/cactus4.png","","","memory_trial","4","definitely_new",""
"html-keyboard-response","73","231115","0.0-18.0-0.15","4663","approach_avoid_sv1","""event"",""trial"",""time""
""fullscreenenter"",""1"",""1867""
","
","
","""event"",""trial"",""time""
""fullscreenenter"",""1"",""1867""
","
","","","","","","null","<div style=""font-size:60px;"">+</div>","null","","fixation","","",""
"memory-trial","74","235802","0.0-18.0-1.15","4663","approach_avoid_sv1","""event"",""trial"",""time""
""fullscreenenter"",""1"",""1867""
","
","
","""event"",""trial"",""time""
""fullscreenenter"",""1"",""1867""
","
","","","","","","3683.4000000953674","images/tree6.png","","","memory_trial","3","maybe_new",""
"html-keyboard-response","75","236318","0.0-18.0-0.16","4663","approach_avoid_sv1","""event"",""trial"",""time""
""fullscreenenter"",""1"",""1867""
","
","
","""event"",""trial"",""time""
""fullscreenenter"",""1"",""1867""
","
","","","","","","null","<div style=""font-size:60px;"">+</div>","null","","fixation","","",""
"memory-trial","76","240098","0.0-18.0-1.16","4663","approach_avoid_sv1","""event"",""trial"",""time""
""fullscreenenter"",""1"",""1867""
","
","
","""event"",""trial"",""time""
""fullscreenenter"",""1"",""1867""
","
","","","","","","2762.0999999046326","images/train3.png","","","memory_trial","1","definitely_old",""
"html-keyboard-response","77","240613","0.0-18.0-0.17","4663","approach_avoid_sv1","""event"",""trial"",""time""
""fullscreenenter"",""1"",""1867""
","
","
","""event"",""trial"",""time""
""fullscreenenter"",""1"",""1867""
","
","","","","","","null","<div style=""font-size:60px;"">+</div>","null","","fixation","","",""
"memory-trial","78","245128","0.0-18.0-1.17","4663","approach_avoid_sv1","""event"",""trial"",""time""
""fullscreenenter"",""1"",""1867""
","
","
","""event"",""trial"",""time""
""fullscreenenter"",""1"",""1867""
","
","","","","","","3499.2000000476837","images/apple6.png","","","memory_trial","3","maybe_new",""
"html-keyboard-response","79","245638","0.0-18.0-0.18","4663","approach_avoid_sv1","""event"",""trial"",""time""
""fullscreenenter"",""1"",""1867""
","
","
","""event"",""trial"",""time""
""fullscreenenter"",""1"",""1867""
","
","","","","","","null","<div style=""font-size:60px;"">+</div>","null","","fixation","","",""
"memory-trial","80","249118","0.0-18.0-1.18","4663","approach_avoid_sv1","""event"",""trial"",""time""
""fullscreenenter"",""1"",""1867""
","
","
","""event"",""trial"",""time""
""fullscreenenter"",""1"",""1867""
","
","","","","","","2471.5","images/chair3.png","","","memory_trial","4","definitely_new",""
"html-keyboard-response","81","249634","0.0-18.0-0.19","4663","approach_avoid_sv1","""event"",""trial"",""time""
""fullscreenenter"",""1"",""1867""
","
","
","""event"",""trial"",""time""
""fullscreenenter"",""1"",""1867""
","
","","","","","","null","<div style=""font-size:60px;"">+</div>","null","","fixation","","",""
"memory-trial","82","253170","0.0-18.0-1.19","4663","approach_avoid_sv1","""event"",""trial"",""time""
""fullscreenenter"",""1"",""1867""
","
","
","""event"",""trial"",""time""
""fullscreenenter"",""1"",""1867""
","
","","","","","","2526.899999856949","images/sofa2.png","","","memory_trial","2","maybe_old",""
"html-keyboard-response","83","253681","0.0-18.0-0.20","4663","approach_avoid_sv1","""event"",""trial"",""time""
""fullscreenenter"",""1"",""1867""
","
","
","""event"",""trial"",""time""
""fullscreenenter"",""1"",""1867""
","
","","","","","","null","<div style=""font-size:60px;"">+</div>","null","","fixation","","",""
"memory-trial","84","257612","0.0-18.0-1.20","4663","approach_avoid_sv1","""event"",""trial"",""time""
""fullscreenenter"",""1"",""1867""
","
","
","""event"",""trial"",""time""
""fullscreenenter"",""1"",""1867""
","
","","","","","","2917.100000143051","images/tree7.png","","","memory_trial","2","maybe_old",""
"html-keyboard-response","85","258121","0.0-18.0-0.21","4663","approach_avoid_sv1","""event"",""trial"",""time""
""fullscreenenter"",""1"",""1867""
","
","
","""event"",""trial"",""time""
""fullscreenenter"",""1"",""1867""
","
","","","","","","null","<div style=""font-size:60px;"">+</div>","null","","fixation","","",""
"memory-trial","86","262124","0.0-18.0-1.21","4663","approach_avoid_sv1","""event"",""trial"",""time""
""fullscreenenter"",""1"",""1867""
","
","
","""event"",""trial"",""time""
""fullscreenenter"",""1"",""1867""
","
","","","","","","2986.0999999046326","images/dog3.png","","","memory_trial","2","maybe_old",""
"html-keyboard-response","87","262638","0.0-18.0-0.22","4663","approach_avoid_sv1","""event"",""trial"",""time""
""fullscreenenter"",""1"",""1867""
","
","
","""event"",""trial"",""time""
""fullscreenenter"",""1"",""1867""
","
","","","","","","null","<div style=""font-size:60px;"">+</div>","null","","fixation","","",""
"memory-trial","88","265609","0.0-18.0-1.22","4663","approach_avoid_sv1","""event"",""trial"",""time""
""fullscreenenter"",""1"",""1867""
","
","
","""event"",""trial"",""time""
""fullscreenenter"",""1"",""1867""
","
","","","","","","1964.7999999523163","images/sofa8.png","","","memory_trial","4","definitely_new",""
"html-keyboard-response","89","266116","0.0-18.0-0.23","4663","approach_avoid_sv1","""event"",""trial"",""time""
""fullscreenenter"",""1"",""1867""
","
","
","""event"",""trial"",""time""
""fullscreenenter"",""1"",""1867""
","
","","","","","","null","<div style=""font-size:60px;"">+</div>","null","","fixation","","",""
"memory-trial","90","270053","0.0-18.0-1.23","4663","approach_avoid_sv1","""event"",""trial"",""time""
""fullscreenenter"",""1"",""1867""
","
","
","""event"",""trial"",""time""
""fullscreenenter"",""1"",""1867""
","
","","","","","","2919.4000000953674","images/bush1.png","","","memory_trial","2","maybe_old",""
"html-keyboard-response","91","270568","0.0-18.0-0.24","4663","approach_avoid_sv1","""event"",""trial"",""time""
""fullscreenenter"",""1"",""1867""
","
","
","""event"",""trial"",""time""
""fullscreenenter"",""1"",""1867""
","
","","","","","","null","<div style=""font-size:60px;"">+</div>","null","","fixation","","",""
"memory-trial","92","274769","0.0-18.0-1.24","4663","approach_avoid_sv1","""event"",""trial"",""time""
""fullscreenenter"",""1"",""1867""
","
","
","""event"",""trial"",""time""
""fullscreenenter"",""1"",""1867""
","
","","","","","","3194.2999999523163","images/table2.png","","","memory_trial","2","maybe_old",""
"html-keyboard-response","93","275276","0.0-18.0-0.25","4663","approach_avoid_sv1","""event"",""trial"",""time""
""fullscreenenter"",""1"",""1867""
","
","
","""event"",""trial"",""time""
""fullscreenenter"",""1"",""1867""
","
","","","","","","null","<div style=""font-size:60px;"">+</div>","null","","fixation","","",""
"memory-trial","94","277707","0.0-18.0-1.25","4663","approach_avoid_sv1","""event"",""trial"",""time""
""fullscreenenter"",""1"",""1867""
","
","
","""event"",""trial"",""time""
""fullscreenenter"",""1"",""1867""
","
","","","","","","1423.7999999523163","images/banana7.png","","","memory_trial","4","definitely_new",""
"html-keyboard-response","95","278222","0.0-18.0-0.26","4663","approach_avoid_sv1","""event"",""trial"",""time""
""fullscreenenter"",""1"",""1867""
","
","
","""event"",""trial"",""time""
""fullscreenenter"",""1"",""1867""
","
","","","","","","null","<div style=""font-size:60px;"">+</div>","null","","fixation","","",""
"memory-trial","96","282090","0.0-18.0-1.26","4663","approach_avoid_sv1","""event"",""trial"",""time""
""fullscreenenter"",""1"",""1867""
","
","
","""event"",""trial"",""time""
""fullscreenenter"",""1"",""1867""
","
","","","","","","2856.5999999046326","images/tree8.png","","","memory_trial","2","maybe_old",""
"html-keyboard-response","97","282598","0.0-18.0-0.27","4663","approach_avoid_sv1","""event"",""trial"",""time""
""fullscreenenter"",""1"",""1867""
","
","
","""event"",""trial"",""time""
""fullscreenenter"",""1"",""1867""
","
","","","","","","null","<div style=""font-size:60px;"">+</div>","null","","fixation","","",""
"memory-trial","98","284922","0.0-18.0-1.27","4663","approach_avoid_sv1","""event"",""trial"",""time""
""fullscreenenter"",""1"",""1867""
","
","
","""event"",""trial"",""time""
""fullscreenenter"",""1"",""1867""
","
","","","","","","1312.2000000476837","images/rabbit5.png","","","memory_trial","4","definitely_new",""
"html-keyboard-response","99","285426","0.0-18.0-0.28","4663","approach_avoid_sv1","""event"",""trial"",""time""
""fullscreenenter"",""1"",""1867""
","
","
","""event"",""trial"",""time""
""fullscreenenter"",""1"",""1867""
","
","","","","","","null","<div style=""font-size:60px;"">+</div>","null","","fixation","","",""
"memory-trial","100","289333","0.0-18.0-1.28","4663","approach_avoid_sv1","""event"",""trial"",""time""
""fullscreenenter"",""1"",""1867""
","
","
","""event"",""trial"",""time""
""fullscreenenter"",""1"",""1867""
","
","","","","","","2893.2999999523163","images/goat5.png","","","memory_trial","3","maybe_new",""
"html-keyboard-response","101","289849","0.0-18.0-0.29","4663","approach_avoid_sv1","""event"",""trial"",""time""
""fullscreenenter"",""1"",""1867""
","
","
","""event"",""trial"",""time""
""fullscreenenter"",""1"",""1867""
","
","","","","","","null","<div style=""font-size:60px;"">+</div>","null","","fixation","","",""
"memory-trial","102","295008","0.0-18.0-1.29","4663","approach_avoid_sv1","""event"",""trial"",""time""
""fullscreenenter"",""1"",""1867""
","
","
","""event"",""trial"",""time""
""fullscreenenter"",""1"",""1867""
","
","","","","","","4144.600000143051","images/rodent6.png","","","memory_trial","2","maybe_old",""
"html-keyboard-response","103","295521","0.0-18.0-0.30","4663","approach_avoid_sv1","""event"",""trial"",""time""
""fullscreenenter"",""1"",""1867""
","
","
","""event"",""trial"",""time""
""fullscreenenter"",""1"",""1867""
","
","","","","","","null","<div style=""font-size:60px;"">+</div>","null","","fixation","","",""
"memory-trial","104","298841","0.0-18.0-1.30","4663","approach_avoid_sv1","""event"",""trial"",""time""
""fullscreenenter"",""1"",""1867""
","
","
","""event"",""trial"",""time""
""fullscreenenter"",""1"",""1867""
","
","","","","","","2305.800000190735","images/bed1.png","","","memory_trial","3","maybe_new",""
"html-keyboard-response","105","299349","0.0-18.0-0.31","4663","approach_avoid_sv1","""event"",""trial"",""time""
""fullscreenenter"",""1"",""1867""
","
","
","""event"",""trial"",""time""
""fullscreenenter"",""1"",""1867""
","
","","","","","","null","<div style=""font-size:60px;"">+</div>","null","","fixation","","",""
"memory-trial","106","304612","0.0-18.0-1.31","4663","approach_avoid_sv1","""event"",""trial"",""time""
""fullscreenenter"",""1"",""1867""
","
","
","""event"",""trial"",""time""
""fullscreenenter"",""1"",""1867""
","
","","","","","","4248.599999904633","images/banana8.png","","","memory_trial","1","definitely_old",""
"html-keyboard-response","107","305121","0.0-18.0-0.32","4663","approach_avoid_sv1","""event"",""trial"",""time""
""fullscreenenter"",""1"",""1867""
","
","
","""event"",""trial"",""time""
""fullscreenenter"",""1"",""1867""
","
","","","","","","null","<div style=""font-size:60px;"">+</div>","null","","fixation","","",""
"memory-trial","108","307892","0.0-18.0-1.32","4663","approach_avoid_sv1","""event"",""trial"",""time""
""fullscreenenter"",""1"",""1867""
","
","
","""event"",""trial"",""time""
""fullscreenenter"",""1"",""1867""
","
","","","","","","1762.9000000953674","images/orange6.png","","","memory_trial","3","maybe_new",""
"html-keyboard-response","109","308399","0.0-18.0-0.33","4663","approach_avoid_sv1","""event"",""trial"",""time""
""fullscreenenter"",""1"",""1867""
","
","
","""event"",""trial"",""time""
""fullscreenenter"",""1"",""1867""
","
","","","","","","null","<div style=""font-size:60px;"">+</div>","null","","fixation","","",""
"memory-trial","110","312367","0.0-18.0-1.33","4663","approach_avoid_sv1","""event"",""trial"",""time""
""fullscreenenter"",""1"",""1867""
","
","
","""event"",""trial"",""time""
""fullscreenenter"",""1"",""1867""
","
","","","","","","2956.2999999523163","images/dog7.png","","","memory_trial","1","definitely_old",""
"html-keyboard-response","111","312879","0.0-18.0-0.34","4663","approach_avoid_sv1","""event"",""trial"",""time""
""fullscreenenter"",""1"",""1867""
","
","
","""event"",""trial"",""time""
""fullscreenenter"",""1"",""1867""
","
","","","","","","null","<div style=""font-size:60px;"">+</div>","null","","fixation","","",""
"memory-trial","112","315880","0.0-18.0-1.34","4663","approach_avoid_sv1","""event"",""trial"",""time""
""fullscreenenter"",""1"",""1867""
","
","
","""event"",""trial"",""time""
""fullscreenenter"",""1"",""1867""
","
","","","","","","1992.5999999046326","images/bush8.png","","","memory_trial","3","maybe_new",""
"html-keyboard-response","113","316390","0.0-18.0-0.35","4663","approach_avoid_sv1","""event"",""trial"",""time""
""fullscreenenter"",""1"",""1867""
","
","
","""event"",""trial"",""time""
""fullscreenenter"",""1"",""1867""
","
","","","","","","null","<div style=""font-size:60px;"">+</div>","null","","fixation","","",""
"memory-trial","114","319221","0.0-18.0-1.35","4663","approach_avoid_sv1","""event"",""trial"",""time""
""fullscreenenter"",""1"",""1867""
","
","
","""event"",""trial"",""time""
""fullscreenenter"",""1"",""1867""
","
","","","","","","1821.4000000953674","images/table5.png","","","memory_trial","2","maybe_old",""
"html-keyboard-response","115","319729","0.0-18.0-0.36","4663","approach_avoid_sv1","""event"",""trial"",""time""
""fullscreenenter"",""1"",""1867""
","
","
","""event"",""trial"",""time""
""fullscreenenter"",""1"",""1867""
","
","","","","","","null","<div style=""font-size:60px;"">+</div>","null","","fixation","","",""
"memory-trial","116","322463","0.0-18.0-1.36","4663","approach_avoid_sv1","""event"",""trial"",""time""
""fullscreenenter"",""1"",""1867""
","
","
","""event"",""trial"",""time""
""fullscreenenter"",""1"",""1867""
","
","","","","","","1721.3999998569489","images/banana3.png","","","memory_trial","2","maybe_old",""
"html-keyboard-response","117","322976","0.0-18.0-0.37","4663","approach_avoid_sv1","""event"",""trial"",""time""
""fullscreenenter"",""1"",""1867""
","
","
","""event"",""trial"",""time""
""fullscreenenter"",""1"",""1867""
","
","","","","","","null","<div style=""font-size:60px;"">+</div>","null","","fixation","","",""
"memory-trial","118","325391","0.0-18.0-1.37","4663","approach_avoid_sv1","""event"",""trial"",""time""
""fullscreenenter"",""1"",""1867""
","
","
","""event"",""trial"",""time""
""fullscreenenter"",""1"",""1867""
","
","","","","","","1403.2999999523163","images/flower1.png","","","memory_trial","1","definitely_old",""
"html-keyboard-response","119","325904","0.0-18.0-0.38","4663","approach_avoid_sv1","""event"",""trial"",""time""
""fullscreenenter"",""1"",""1867""
","
","
","""event"",""trial"",""time""
""fullscreenenter"",""1"",""1867""
","
","","","","","","null","<div style=""font-size:60px;"">+</div>","null","","fixation","","",""
"memory-trial","120","330031","0.0-18.0-1.38","4663","approach_avoid_sv1","""event"",""trial"",""time""
""fullscreenenter"",""1"",""1867""
","
","
","""event"",""trial"",""time""
""fullscreenenter"",""1"",""1867""
","
","","","","","","3114.2000000476837","images/cat8.png","","","memory_trial","2","maybe_old",""
"html-keyboard-response","121","330541","0.0-18.0-0.39","4663","approach_avoid_sv1","""event"",""trial"",""time""
""fullscreenenter"",""1"",""1867""
","
","
","""event"",""trial"",""time""
""fullscreenenter"",""1"",""1867""
","
","","","","","","null","<div style=""font-size:60px;"">+</div>","null","","fixation","","",""
"memory-trial","122","333517","0.0-18.0-1.39","4663","approach_avoid_sv1","""event"",""trial"",""time""
""fullscreenenter"",""1"",""1867""
","
","
","""event"",""trial"",""time""
""fullscreenenter"",""1"",""1867""
","
","","","","","","1964","images/plane5.png","","","memory_trial","1","definitely_old",""
"html-keyboard-response","123","334027","0.0-18.0-0.40","4663","approach_avoid_sv1","""event"",""trial"",""time""
""fullscreenenter"",""1"",""1867""
","
","
","""event"",""trial"",""time""
""fullscreenenter"",""1"",""1867""
","
","","","","","","null","<div style=""font-size:60px;"">+</div>","null","","fixation","","",""
"memory-trial","124","336950","0.0-18.0-1.40","4663","approach_avoid_sv1","""event"",""trial"",""time""
""fullscreenenter"",""1"",""1867""
","
","
","""event"",""trial"",""time""
""fullscreenenter"",""1"",""1867""
","
","","","","","","1914.9000000953674","images/table1.png","","","memory_trial","3","maybe_new",""
"html-keyboard-response","125","337456","0.0-18.0-0.41","4663","approach_avoid_sv1","""event"",""trial"",""time""
""fullscreenenter"",""1"",""1867""
","
","
","""event"",""trial"",""time""
""fullscreenenter"",""1"",""1867""
","
","","","","","","null","<div style=""font-size:60px;"">+</div>","null","","fixation","","",""
"memory-trial","126","339760","0.0-18.0-1.41","4663","approach_avoid_sv1","""event"",""trial"",""time""
""fullscreenenter"",""1"",""1867""
","
","
","""event"",""trial"",""time""
""fullscreenenter"",""1"",""1867""
","
","","","","","","1290.2999999523163","images/bed6.png","","","memory_trial","4","definitely_new",""
"html-button-response","127","344015","0.0-18.0-2.41-0.41","4663","approach_avoid_sv1","""event"",""trial"",""time""
""fullscreenenter"",""1"",""1867""
","
","
","""event"",""trial"",""time""
""fullscreenenter"",""1"",""1867""
","
","","","","","","4254.300000190735","<p> Take a break! </p><p> Click the button to continue. </p>","0","","break","","",""
"html-keyboard-response","128","344523","0.0-18.0-0.42","4663","approach_avoid_sv1","""event"",""trial"",""time""
""fullscreenenter"",""1"",""1867""
","
","
","""event"",""trial"",""time""
""fullscreenenter"",""1"",""1867""
","
","","","","","","null","<div style=""font-size:60px;"">+</div>","null","","fixation","","",""
"memory-trial","129","348345","0.0-18.0-1.42","4663","approach_avoid_sv1","""event"",""trial"",""time""
""fullscreenenter"",""1"",""1867""
","
","
","""event"",""trial"",""time""
""fullscreenenter"",""1"",""1867""
","
","","","","","","2809.5999999046326","images/apple1.png","","","memory_trial","4","definitely_new",""
"html-keyboard-response","130","348857","0.0-18.0-0.43","4663","approach_avoid_sv1","""event"",""trial"",""time""
""fullscreenenter"",""1"",""1867""
","
","
","""event"",""trial"",""time""
""fullscreenenter"",""1"",""1867""
","
","","","","","","null","<div style=""font-size:60px;"">+</div>","null","","fixation","","",""
"memory-trial","131","352481","0.0-18.0-1.43","4663","approach_avoid_sv1","""event"",""trial"",""time""
""fullscreenenter"",""1"",""1867""
","
","
","""event"",""trial"",""time""
""fullscreenenter"",""1"",""1867""
","
","","","","","","2614.7999999523163","images/orange5.png","","","memory_trial","2","maybe_old",""
"html-keyboard-response","132","352988","0.0-18.0-0.44","4663","approach_avoid_sv1","""event"",""trial"",""time""
""fullscreenenter"",""1"",""1867""
","
","
","""event"",""trial"",""time""
""fullscreenenter"",""1"",""1867""
","
","","","","","","null","<div style=""font-size:60px;"">+</div>","null","","fixation","","",""
"memory-trial","133","355150","0.0-18.0-1.44","4663","approach_avoid_sv1","""event"",""trial"",""time""
""fullscreenenter"",""1"",""1867""
","
","
","""event"",""trial"",""time""
""fullscreenenter"",""1"",""1867""
","
","","","","","","1150.6999998092651","images/truck3.png","","","memory_trial","4","definitely_new",""
"html-keyboard-response","134","355653","0.0-18.0-0.45","4663","approach_avoid_sv1","""event"",""trial"",""time""
""fullscreenenter"",""1"",""1867""
","
","
","""event"",""trial"",""time""
""fullscreenenter"",""1"",""1867""
","
","","","","","","null","<div style=""font-size:60px;"">+</div>","null","","fixation","","",""
"memory-trial","135","358491","0.0-18.0-1.45","4663","approach_avoid_sv1","""event"",""trial"",""time""
""fullscreenenter"",""1"",""1867""
","
","
","""event"",""trial"",""time""
""fullscreenenter"",""1"",""1867""
","
","","","","","","1823.4000000953674","images/tree4.png","","","memory_trial","3","maybe_new",""
"html-keyboard-response","136","359003","0.0-18.0-0.46","4663","approach_avoid_sv1","""event"",""trial"",""time""
""fullscreenenter"",""1"",""1867""
","
","
","""event"",""trial"",""time""
""fullscreenenter"",""1"",""1867""
","
","","","","","","null","<div style=""font-size:60px;"">+</div>","null","","fixation","","",""
"memory-trial","137","362798","0.0-18.0-1.46","4663","approach_avoid_sv1","""event"",""trial"",""time""
""fullscreenenter"",""1"",""1867""
","
","
","""event"",""trial"",""time""
""fullscreenenter"",""1"",""1867""
","
","","","","","","2787.899999856949","images/flower8.png","","","memory_trial","2","maybe_old",""
"html-keyboard-response","138","363305","0.0-18.0-0.47","4663","approach_avoid_sv1","""event"",""trial"",""time""
""fullscreenenter"",""1"",""1867""
","
","
","""event"",""trial"",""time""
""fullscreenenter"",""1"",""1867""
","
","","","","","","null","<div style=""font-size:60px;"">+</div>","null","","fixation","","",""
"memory-trial","139","365791","0.0-18.0-1.47","4663","approach_avoid_sv1","""event"",""trial"",""time""
""fullscreenenter"",""1"",""1867""
","
","
","""event"",""trial"",""time""
""fullscreenenter"",""1"",""1867""
","
","","","","","","1478.3999998569489","images/bed8.png","","","memory_trial","4","definitely_new",""
"html-keyboard-response","140","366310","0.0-18.0-0.48","4663","approach_avoid_sv1","""event"",""trial"",""time""
""fullscreenenter"",""1"",""1867""
","
","
","""event"",""trial"",""time""
""fullscreenenter"",""1"",""1867""
","
","","","","","","null","<div style=""font-size:60px;"">+</div>","null","","fixation","","",""
"memory-trial","141","369601","0.0-18.0-1.48","4663","approach_avoid_sv1","""event"",""trial"",""time""
""fullscreenenter"",""1"",""1867""
","
","
","""event"",""trial"",""time""
""fullscreenenter"",""1"",""1867""
","
","","","","","","2267.899999856949","images/rabbit7.png","","","memory_trial","3","maybe_new",""
"html-keyboard-response","142","370114","0.0-18.0-0.49","4663","approach_avoid_sv1","""event"",""trial"",""time""
""fullscreenenter"",""1"",""1867""
","
","
","""event"",""trial"",""time""
""fullscreenenter"",""1"",""1867""
","
","","","","","","null","<div style=""font-size:60px;"">+</div>","null","","fixation","","",""
"memory-trial","143","374191","0.0-18.0-1.49","4663","approach_avoid_sv1","""event"",""trial"",""time""
""fullscreenenter"",""1"",""1867""
","
","
","""event"",""trial"",""time""
""fullscreenenter"",""1"",""1867""
","
","","","","","","3069.7000000476837","images/cactus3.png","","","memory_trial","3","maybe_new",""
"html-keyboard-response","144","374706","0.0-18.0-0.50","4663","approach_avoid_sv1","""event"",""trial"",""time""
""fullscreenenter"",""1"",""1867""
","
","
","""event"",""trial"",""time""
""fullscreenenter"",""1"",""1867""
","
","","","","","","null","<div style=""font-size:60px;"">+</div>","null","","fixation","","",""
"memory-trial","145","378739","0.0-18.0-1.50","4663","approach_avoid_sv1","""event"",""trial"",""time""
""fullscreenenter"",""1"",""1867""
","
","
","""event"",""trial"",""time""
""fullscreenenter"",""1"",""1867""
","
","","","","","","3016.5","images/chair7.png","","","memory_trial","3","maybe_new",""
"html-keyboard-response","146","379244","0.0-18.0-0.51","4663","approach_avoid_sv1","""event"",""trial"",""time""
""fullscreenenter"",""1"",""1867""
","
","
","""event"",""trial"",""time""
""fullscreenenter"",""1"",""1867""
","
","","","","","","null","<div style=""font-size:60px;"">+</div>","null","","fixation","","",""
"memory-trial","147","382714","0.0-18.0-1.51","4663","approach_avoid_sv1","""event"",""trial"",""time""
""fullscreenenter"",""1"",""1867""
","
","
","""event"",""trial"",""time""
""fullscreenenter"",""1"",""1867""
","
","","","","","","2459.2000000476837","images/sofa5.png","","","memory_trial","3","maybe_new",""
"html-keyboard-response","148","383232","0.0-18.0-0.52","4663","approach_avoid_sv1","""event"",""trial"",""time""
""fullscreenenter"",""1"",""1867""
","
","
","""event"",""trial"",""time""
""fullscreenenter"",""1"",""1867""
","
","","","","","","null","<div style=""font-size:60px;"">+</div>","null","","fixation","","",""
"memory-trial","149","386861","0.0-18.0-1.52","4663","approach_avoid_sv1","""event"",""trial"",""time""
""fullscreenenter"",""1"",""1867""
","
","
","""event"",""trial"",""time""
""fullscreenenter"",""1"",""1867""
","
","","","","","","2614.7999999523163","images/boat1.png","","","memory_trial","4","definitely_new",""
"html-keyboard-response","150","387365","0.0-18.0-0.53","4663","approach_avoid_sv1","""event"",""trial"",""time""
""fullscreenenter"",""1"",""1867""
","
","
","""event"",""trial"",""time""
""fullscreenenter"",""1"",""1867""
","
","","","","","","null","<div style=""font-size:60px;"">+</div>","null","","fixation","","",""
"memory-trial","151","391466","0.0-18.0-1.53","4663","approach_avoid_sv1","""event"",""trial"",""time""
""fullscreenenter"",""1"",""1867""
","
","
","""event"",""trial"",""time""
""fullscreenenter"",""1"",""1867""
","
","","","","","","3087.399999856949","images/plane2.png","","","memory_trial","4","definitely_new",""
"html-keyboard-response","152","391979","0.0-18.0-0.54","4663","approach_avoid_sv1","""event"",""trial"",""time""
""fullscreenenter"",""1"",""1867""
","
","
","""event"",""trial"",""time""
""fullscreenenter"",""1"",""1867""
","
","","","","","","null","<div style=""font-size:60px;"">+</div>","null","","fixation","","",""
"memory-trial","153","395091","0.0-18.0-1.54","4663","approach_avoid_sv1","""event"",""trial"",""time""
""fullscreenenter"",""1"",""1867""
","
","
","""event"",""trial"",""time""
""fullscreenenter"",""1"",""1867""
","
","","","","","","2097.7999999523163","images/horse1.png","","","memory_trial","1","definitely_old",""
"html-keyboard-response","154","395598","0.0-18.0-0.55","4663","approach_avoid_sv1","""event"",""trial"",""time""
""fullscreenenter"",""1"",""1867""
","
","
","""event"",""trial"",""time""
""fullscreenenter"",""1"",""1867""
","
","","","","","","null","<div style=""font-size:60px;"">+</div>","null","","fixation","","",""
"memory-trial","155","399831","0.0-18.0-1.55","4663","approach_avoid_sv1","""event"",""trial"",""time""
""fullscreenenter"",""1"",""1867""
","
","
","""event"",""trial"",""time""
""fullscreenenter"",""1"",""1867""
","
","","","","","","3219.4000000953674","images/plane7.png","","","memory_trial","3","maybe_new",""
"html-keyboard-response","156","400343","0.0-18.0-0.56","4663","approach_avoid_sv1","""event"",""trial"",""time""
""fullscreenenter"",""1"",""1867""
","
","
","""event"",""trial"",""time""
""fullscreenenter"",""1"",""1867""
","
","","","","","","null","<div style=""font-size:60px;"">+</div>","null","","fixation","","",""
"memory-trial","157","403295","0.0-18.0-1.56","4663","approach_avoid_sv1","""event"",""trial"",""time""
""fullscreenenter"",""1"",""1867""
","
","
","""event"",""trial"",""time""
""fullscreenenter"",""1"",""1867""
","
","","","","","","1930.7999999523163","images/orange1.png","","","memory_trial","2","maybe_old",""
"html-keyboard-response","158","403806","0.0-18.0-0.57","4663","approach_avoid_sv1","""event"",""trial"",""time""
""fullscreenenter"",""1"",""1867""
","
","
","""event"",""trial"",""time""
""fullscreenenter"",""1"",""1867""
","
","","","","","","null","<div style=""font-size:60px;"">+</div>","null","","fixation","","",""
"memory-trial","159","407307","0.0-18.0-1.57","4663","approach_avoid_sv1","""event"",""trial"",""time""
""fullscreenenter"",""1"",""1867""
","
","
","""event"",""trial"",""time""
""fullscreenenter"",""1"",""1867""
","
","","","","","","2490","images/cactus8.png","","","memory_trial","4","definitely_new",""
"html-keyboard-response","160","407816","0.0-18.0-0.58","4663","approach_avoid_sv1","""event"",""trial"",""time""
""fullscreenenter"",""1"",""1867""
","
","
","""event"",""trial"",""time""
""fullscreenenter"",""1"",""1867""
","
","","","","","","null","<div style=""font-size:60px;"">+</div>","null","","fixation","","",""
"memory-trial","161","410436","0.0-18.0-1.58","4663","approach_avoid_sv1","""event"",""trial"",""time""
""fullscreenenter"",""1"",""1867""
","
","
","""event"",""trial"",""time""
""fullscreenenter"",""1"",""1867""
","
","","","","","","1613.8999998569489","images/banana1.png","","","memory_trial","1","definitely_old",""
"html-keyboard-response","162","410941","0.0-18.0-0.59","4663","approach_avoid_sv1","""event"",""trial"",""time""
""fullscreenenter"",""1"",""1867""
","
","
","""event"",""trial"",""time""
""fullscreenenter"",""1"",""1867""
","
","","","","","","null","<div style=""font-size:60px;"">+</div>","null","","fixation","","",""
"memory-trial","163","414256","0.0-18.0-1.59","4663","approach_avoid_sv1","""event"",""trial"",""time""
""fullscreenenter"",""1"",""1867""
","
","
","""event"",""trial"",""time""
""fullscreenenter"",""1"",""1867""
","
","","","","","","2304.2000000476837","images/truck1.png","","","memory_trial","1","definitely_old",""
"html-keyboard-response","164","414767","0.0-18.0-0.60","4663","approach_avoid_sv1","""event"",""trial"",""time""
""fullscreenenter"",""1"",""1867""
","
","
","""event"",""trial"",""time""
""fullscreenenter"",""1"",""1867""
","
","","","","","","null","<div style=""font-size:60px;"">+</div>","null","","fixation","","",""
"memory-trial","165","418270","0.0-18.0-1.60","4663","approach_avoid_sv1","""event"",""trial"",""time""
""fullscreenenter"",""1"",""1867""
","
","
","""event"",""trial"",""time""
""fullscreenenter"",""1"",""1867""
","
","","","","","","2493.5","images/cactus6.png","","","memory_trial","4","definitely_new",""
"html-keyboard-response","166","418780","0.0-18.0-0.61","4663","approach_avoid_sv1","""event"",""trial"",""time""
""fullscreenenter"",""1"",""1867""
","
","
","""event"",""trial"",""time""
""fullscreenenter"",""1"",""1867""
","
","","","","","","null","<div style=""font-size:60px;"">+</div>","null","","fixation","","",""
"memory-trial","167","422285","0.0-18.0-1.61","4663","approach_avoid_sv1","""event"",""trial"",""time""
""fullscreenenter"",""1"",""1867""
","
","
","""event"",""trial"",""time""
""fullscreenenter"",""1"",""1867""
","
","","","","","","2493.2000000476837","images/cat7.png","","","memory_trial","3","maybe_new",""
"html-keyboard-response","168","422799","0.0-18.0-0.62","4663","approach_avoid_sv1","""event"",""trial"",""time""
""fullscreenenter"",""1"",""1867""
","
","
","""event"",""trial"",""time""
""fullscreenenter"",""1"",""1867""
","
","","","","","","null","<div style=""font-size:60px;"">+</div>","null","","fixation","","",""
"memory-trial","169","425517","0.0-18.0-1.62","4663","approach_avoid_sv1","""event"",""trial"",""time""
""fullscreenenter"",""1"",""1867""
","
","
","""event"",""trial"",""time""
""fullscreenenter"",""1"",""1867""
","
","","","","","","1706.4000000953674","images/train4.png","","","memory_trial","2","maybe_old",""
"html-keyboard-response","170","426037","0.0-18.0-0.63","4663","approach_avoid_sv1","""event"",""trial"",""time""
""fullscreenenter"",""1"",""1867""
","
","
","""event"",""trial"",""time""
""fullscreenenter"",""1"",""1867""
","
","","","","","","null","<div style=""font-size:60px;"">+</div>","null","","fixation","","",""
"memory-trial","171","429401","0.0-18.0-1.63","4663","approach_avoid_sv1","""event"",""trial"",""time""
""fullscreenenter"",""1"",""1867""
","
","
","""event"",""trial"",""time""
""fullscreenenter"",""1"",""1867""
","
","","","","","","2353.5999999046326","images/straw2.png","","","memory_trial","1","definitely_old",""
"html-keyboard-response","172","429907","0.0-18.0-0.64","4663","approach_avoid_sv1","""event"",""trial"",""time""
""fullscreenenter"",""1"",""1867""
","
","
","""event"",""trial"",""time""
""fullscreenenter"",""1"",""1867""
","
","","","","","","null","<div style=""font-size:60px;"">+</div>","null","","fixation","","",""
"memory-trial","173","433788","0.0-18.0-1.64","4663","approach_avoid_sv1","""event"",""trial"",""time""
""fullscreenenter"",""1"",""1867""
","
","
","""event"",""trial"",""time""
""fullscreenenter"",""1"",""1867""
","
","","","","","","2865.5","images/straw7.png","","","memory_trial","2","maybe_old",""
"html-keyboard-response","174","434300","0.0-18.0-0.65","4663","approach_avoid_sv1","""event"",""trial"",""time""
""fullscreenenter"",""1"",""1867""
","
","
","""event"",""trial"",""time""
""fullscreenenter"",""1"",""1867""
","
","","","","","","null","<div style=""font-size:60px;"">+</div>","null","","fixation","","",""
"memory-trial","175","438654","0.0-18.0-1.65","4663","approach_avoid_sv1","""event"",""trial"",""time""
""fullscreenenter"",""1"",""1867""
","
","
","""event"",""trial"",""time""
""fullscreenenter"",""1"",""1867""
","
","","","","","","3339.5","images/train8.png","","","memory_trial","3","maybe_new",""
"html-keyboard-response","176","439161","0.0-18.0-0.66","4663","approach_avoid_sv1","""event"",""trial"",""time""
""fullscreenenter"",""1"",""1867""
","
","
","""event"",""trial"",""time""
""fullscreenenter"",""1"",""1867""
","
","","","","","","null","<div style=""font-size:60px;"">+</div>","null","","fixation","","",""
"memory-trial","177","443590","0.0-18.0-1.66","4663","approach_avoid_sv1","""event"",""trial"",""time""
""fullscreenenter"",""1"",""1867""
","
","
","""event"",""trial"",""time""
""fullscreenenter"",""1"",""1867""
","
","","","","","","3421.2000000476837","images/table4.png","","","memory_trial","3","maybe_new",""
"html-keyboard-response","178","444104","0.0-18.0-0.67","4663","approach_avoid_sv1","""event"",""trial"",""time""
""fullscreenenter"",""1"",""1867""
","
","
","""event"",""trial"",""time""
""fullscreenenter"",""1"",""1867""
","
","","","","","","null","<div style=""font-size:60px;"">+</div>","null","","fixation","","",""
"memory-trial","179","447439","0.0-18.0-1.67","4663","approach_avoid_sv1","""event"",""trial"",""time""
""fullscreenenter"",""1"",""1867""
","
","
","""event"",""trial"",""time""
""fullscreenenter"",""1"",""1867""
","
","","","","","","2324","images/truck2.png","","","memory_trial","2","maybe_old",""
"html-keyboard-response","180","447950","0.0-18.0-0.68","4663","approach_avoid_sv1","""event"",""trial"",""time""
""fullscreenenter"",""1"",""1867""
","
","
","""event"",""trial"",""time""
""fullscreenenter"",""1"",""1867""
","
","","","","","","null","<div style=""font-size:60px;"">+</div>","null","","fixation","","",""
"memory-trial","181","451635","0.0-18.0-1.68","4663","approach_avoid_sv1","""event"",""trial"",""time""
""fullscreenenter"",""1"",""1867""
","
","
","""event"",""trial"",""time""
""fullscreenenter"",""1"",""1867""
","
","","","","","","2676.100000143051","images/orange4.png","","","memory_trial","3","maybe_new",""
"html-keyboard-response","182","452142","0.0-18.0-0.69","4663","approach_avoid_sv1","""event"",""trial"",""time""
""fullscreenenter"",""1"",""1867""
","
","
","""event"",""trial"",""time""
""fullscreenenter"",""1"",""1867""
","
","","","","","","null","<div style=""font-size:60px;"">+</div>","null","","fixation","","",""
"memory-trial","183","456156","0.0-18.0-1.69","4663","approach_avoid_sv1","""event"",""trial"",""time""
""fullscreenenter"",""1"",""1867""
","
","
","""event"",""trial"",""time""
""fullscreenenter"",""1"",""1867""
","
","","","","","","3007.9000000953674","images/dog6.png","","","memory_trial","2","maybe_old",""
"html-keyboard-response","184","456666","0.0-18.0-0.70","4663","approach_avoid_sv1","""event"",""trial"",""time""
""fullscreenenter"",""1"",""1867""
","
","
","""event"",""trial"",""time""
""fullscreenenter"",""1"",""1867""
","
","","","","","","null","<div style=""font-size:60px;"">+</div>","null","","fixation","","",""
"memory-trial","185","460859","0.0-18.0-1.70","4663","approach_avoid_sv1","""event"",""trial"",""time""
""fullscreenenter"",""1"",""1867""
","
","
","""event"",""trial"",""time""
""fullscreenenter"",""1"",""1867""
","
","","","","","","3180.5","images/rabbit6.png","","","memory_trial","2","maybe_old",""
"html-keyboard-response","186","461363","0.0-18.0-0.71","4663","approach_avoid_sv1","""event"",""trial"",""time""
""fullscreenenter"",""1"",""1867""
","
","
","""event"",""trial"",""time""
""fullscreenenter"",""1"",""1867""
","
","","","","","","null","<div style=""font-size:60px;"">+</div>","null","","fixation","","",""
"memory-trial","187","463764","0.0-18.0-1.71","4663","approach_avoid_sv1","""event"",""trial"",""time""
""fullscreenenter"",""1"",""1867""
","
","
","""event"",""trial"",""time""
""fullscreenenter"",""1"",""1867""
","
","","","","","","1391.0999999046326","images/sofa3.png","","","memory_trial","4","definitely_new",""
"html-keyboard-response","188","464276","0.0-18.0-0.72","4663","approach_avoid_sv1","""event"",""trial"",""time""
""fullscreenenter"",""1"",""1867""
","
","
","""event"",""trial"",""time""
""fullscreenenter"",""1"",""1867""
","
","","","","","","null","<div style=""font-size:60px;"">+</div>","null","","fixation","","",""
"memory-trial","189","467914","0.0-18.0-1.72","4663","approach_avoid_sv1","""event"",""trial"",""time""
""fullscreenenter"",""1"",""1867""
","
","
","""event"",""trial"",""time""
""fullscreenenter"",""1"",""1867""
","
","","","","","","2634.899999856949","images/sheep6.png","","","memory_trial","2","maybe_old",""
"html-keyboard-response","190","468429","0.0-18.0-0.73","4663","approach_avoid_sv1","""event"",""trial"",""time""
""fullscreenenter"",""1"",""1867""
","
","
","""event"",""trial"",""time""
""fullscreenenter"",""1"",""1867""
","
","","","","","","null","<div style=""font-size:60px;"">+</div>","null","","fixation","","",""
"memory-trial","191","471179","0.0-18.0-1.73","4663","approach_avoid_sv1","""event"",""trial"",""time""
""fullscreenenter"",""1"",""1867""
","
","
","""event"",""trial"",""time""
""fullscreenenter"",""1"",""1867""
","
","","","","","","1741.5","images/cow3.png","","","memory_trial","3","maybe_new",""
"html-keyboard-response","192","471684","0.0-18.0-0.74","4663","approach_avoid_sv1","""event"",""trial"",""time""
""fullscreenenter"",""1"",""1867""
","
","
","""event"",""trial"",""time""
""fullscreenenter"",""1"",""1867""
","
","","","","","","null","<div style=""font-size:60px;"">+</div>","null","","fixation","","",""
"memory-trial","193","475270","0.0-18.0-1.74","4663","approach_avoid_sv1","""event"",""trial"",""time""
""fullscreenenter"",""1"",""1867""
","
","
","""event"",""trial"",""time""
""fullscreenenter"",""1"",""1867""
","
","","","","","","2573.5","images/sofa4.png","","","memory_trial","2","maybe_old",""
"html-keyboard-response","194","475779","0.0-18.0-0.75","4663","approach_avoid_sv1","""event"",""trial"",""time""
""fullscreenenter"",""1"",""1867""
","
","
","""event"",""trial"",""time""
""fullscreenenter"",""1"",""1867""
","
","","","","","","null","<div style=""font-size:60px;"">+</div>","null","","fixation","","",""
"memory-trial","195","479497","0.0-18.0-1.75","4663","approach_avoid_sv1","""event"",""trial"",""time""
""fullscreenenter"",""1"",""1867""
","
","
","""event"",""trial"",""time""
""fullscreenenter"",""1"",""1867""
","
","","","","","","2711.5","images/rabbit2.png","","","memory_trial","2","maybe_old",""
"html-keyboard-response","196","480007","0.0-18.0-0.76","4663","approach_avoid_sv1","""event"",""trial"",""time""
""fullscreenenter"",""1"",""1867""
","
","
","""event"",""trial"",""time""
""fullscreenenter"",""1"",""1867""
","
","","","","","","null","<div style=""font-size:60px;"">+</div>","null","","fixation","","",""
"memory-trial","197","483405","0.0-18.0-1.76","4663","approach_avoid_sv1","""event"",""trial"",""time""
""fullscreenenter"",""1"",""1867""
","
","
","""event"",""trial"",""time""
""fullscreenenter"",""1"",""1867""
","
","","","","","","2383.5999999046326","images/chair8.png","","","memory_trial","2","maybe_old",""
"html-keyboard-response","198","483918","0.0-18.0-0.77","4663","approach_avoid_sv1","""event"",""trial"",""time""
""fullscreenenter"",""1"",""1867""
","
","
","""event"",""trial"",""time""
""fullscreenenter"",""1"",""1867""
","
","","","","","","null","<div style=""font-size:60px;"">+</div>","null","","fixation","","",""
"memory-trial","199","487846","0.0-18.0-1.77","4663","approach_avoid_sv1","""event"",""trial"",""time""
""fullscreenenter"",""1"",""1867""
","
","
","""event"",""trial"",""time""
""fullscreenenter"",""1"",""1867""
","
","","","","","","2913.7000000476837","images/dog2.png","","","memory_trial","3","maybe_new",""
"html-keyboard-response","200","488354","0.0-18.0-0.78","4663","approach_avoid_sv1","""event"",""trial"",""time""
""fullscreenenter"",""1"",""1867""
","
","
","""event"",""trial"",""time""
""fullscreenenter"",""1"",""1867""
","
","","","","","","null","<div style=""font-size:60px;"">+</div>","null","","fixation","","",""
"memory-trial","201","491888","0.0-18.0-1.78","4663","approach_avoid_sv1","""event"",""trial"",""time""
""fullscreenenter"",""1"",""1867""
","
","
","""event"",""trial"",""time""
""fullscreenenter"",""1"",""1867""
","
","","","","","","2521.199999809265","images/goat6.png","","","memory_trial","2","maybe_old",""
"html-keyboard-response","202","492391","0.0-18.0-0.79","4663","approach_avoid_sv1","""event"",""trial"",""time""
""fullscreenenter"",""1"",""1867""
","
","
","""event"",""trial"",""time""
""fullscreenenter"",""1"",""1867""
","
","","","","","","null","<div style=""font-size:60px;"">+</div>","null","","fixation","","",""
"memory-trial","203","496115","0.0-18.0-1.79","4663","approach_avoid_sv1","""event"",""trial"",""time""
""fullscreenenter"",""1"",""1867""
","
","
","""event"",""trial"",""time""
""fullscreenenter"",""1"",""1867""
","
","","","","","","2716","images/plane4.png","","","memory_trial","1","definitely_old",""
"html-keyboard-response","204","496625","0.0-18.0-0.80","4663","approach_avoid_sv1","""event"",""trial"",""time""
""fullscreenenter"",""1"",""1867""
","
","
","""event"",""trial"",""time""
""fullscreenenter"",""1"",""1867""
","
","","","","","","null","<div style=""font-size:60px;"">+</div>","null","","fixation","","",""
"memory-trial","205","499258","0.0-18.0-1.80","4663","approach_avoid_sv1","""event"",""trial"",""time""
""fullscreenenter"",""1"",""1867""
","
","
","""event"",""trial"",""time""
""fullscreenenter"",""1"",""1867""
","
","","","","","","1622.8999998569489","images/sheep3.png","","","memory_trial","3","maybe_new",""
"html-keyboard-response","206","499768","0.0-18.0-0.81","4663","approach_avoid_sv1","""event"",""trial"",""time""
""fullscreenenter"",""1"",""1867""
","
","
","""event"",""trial"",""time""
""fullscreenenter"",""1"",""1867""
","
","","","","","","null","<div style=""font-size:60px;"">+</div>","null","","fixation","","",""
"memory-trial","207","503672","0.0-18.0-1.81","4663","approach_avoid_sv1","""event"",""trial"",""time""
""fullscreenenter"",""1"",""1867""
","
","
","""event"",""trial"",""time""
""fullscreenenter"",""1"",""1867""
","
","","","","","","2897.300000190735","images/goat8.png","","","memory_trial","2","maybe_old",""
"html-keyboard-response","208","504185","0.0-18.0-0.82","4663","approach_avoid_sv1","""event"",""trial"",""time""
""fullscreenenter"",""1"",""1867""
","
","
","""event"",""trial"",""time""
""fullscreenenter"",""1"",""1867""
","
","","","","","","null","<div style=""font-size:60px;"">+</div>","null","","fixation","","",""
"memory-trial","209","507834","0.0-18.0-1.82","4663","approach_avoid_sv1","""event"",""trial"",""time""
""fullscreenenter"",""1"",""1867""
","
","
","""event"",""trial"",""time""
""fullscreenenter"",""1"",""1867""
","
","","","","","","2630.7999999523163","images/chair1.png","","","memory_trial","2","maybe_old",""
"html-keyboard-response","210","508345","0.0-18.0-0.83","4663","approach_avoid_sv1","""event"",""trial"",""time""
""fullscreenenter"",""1"",""1867""
","
","
","""event"",""trial"",""time""
""fullscreenenter"",""1"",""1867""
","
","","","","","","null","<div style=""font-size:60px;"">+</div>","null","","fixation","","",""
"memory-trial","211","512389","0.0-18.0-1.83","4663","approach_avoid_sv1","""event"",""trial"",""time""
""fullscreenenter"",""1"",""1867""
","
","
","""event"",""trial"",""time""
""fullscreenenter"",""1"",""1867""
","
","","","","","","3032.7999999523163","images/horse6.png","","","memory_trial","2","maybe_old",""
"html-keyboard-response","212","512895","0.0-18.0-0.84","4663","approach_avoid_sv1","""event"",""trial"",""time""
""fullscreenenter"",""1"",""1867""
","
","
","""event"",""trial"",""time""
""fullscreenenter"",""1"",""1867""
","
","","","","","","null","<div style=""font-size:60px;"">+</div>","null","","fixation","","",""
"memory-trial","213","516121","0.0-18.0-1.84","4663","approach_avoid_sv1","""event"",""trial"",""time""
""fullscreenenter"",""1"",""1867""
","
","
","""event"",""trial"",""time""
""fullscreenenter"",""1"",""1867""
","
","","","","","","2217.5","images/bush7.png","","","memory_trial","1","definitely_old",""
"html-keyboard-response","214","516634","0.0-18.0-0.85","4663","approach_avoid_sv1","""event"",""trial"",""time""
""fullscreenenter"",""1"",""1867""
","
","
","""event"",""trial"",""time""
""fullscreenenter"",""1"",""1867""
","
","","","","","","null","<div style=""font-size:60px;"">+</div>","null","","fixation","","",""
"memory-trial","215","518926","0.0-18.0-1.85","4663","approach_avoid_sv1","""event"",""trial"",""time""
""fullscreenenter"",""1"",""1867""
","
","
","""event"",""trial"",""time""
""fullscreenenter"",""1"",""1867""
","
","","","","","","1281.0999999046326","images/train7.png","","","memory_trial","1","definitely_old",""
"html-keyboard-response","216","519433","0.0-18.0-0.86","4663","approach_avoid_sv1","""event"",""trial"",""time""
""fullscreenenter"",""1"",""1867""
","
","
","""event"",""trial"",""time""
""fullscreenenter"",""1"",""1867""
","
","","","","","","null","<div style=""font-size:60px;"">+</div>","null","","fixation","","",""
"memory-trial","217","523872","0.0-18.0-1.86","4663","approach_avoid_sv1","""event"",""trial"",""time""
""fullscreenenter"",""1"",""1867""
","
","
","""event"",""trial"",""time""
""fullscreenenter"",""1"",""1867""
","
","","","","","","3424.600000143051","images/bed2.png","","","memory_trial","2","maybe_old",""
"html-keyboard-response","218","524375","0.0-18.0-0.87","4663","approach_avoid_sv1","""event"",""trial"",""time""
""fullscreenenter"",""1"",""1867""
","
","
","""event"",""trial"",""time""
""fullscreenenter"",""1"",""1867""
","
","","","","","","null","<div style=""font-size:60px;"">+</div>","null","","fixation","","",""
"memory-trial","219","528080","0.0-18.0-1.87","4663","approach_avoid_sv1","""event"",""trial"",""time""
""fullscreenenter"",""1"",""1867""
","
","
","""event"",""trial"",""time""
""fullscreenenter"",""1"",""1867""
","
","","","","","","2689.7000000476837","images/cat3.png","","","memory_trial","3","maybe_new",""
"html-keyboard-response","220","528584","0.0-18.0-0.88","4663","approach_avoid_sv1","""event"",""trial"",""time""
""fullscreenenter"",""1"",""1867""
","
","
","""event"",""trial"",""time""
""fullscreenenter"",""1"",""1867""
","
","","","","","","null","<div style=""font-size:60px;"">+</div>","null","","fixation","","",""
"memory-trial","221","531846","0.0-18.0-1.88","4663","approach_avoid_sv1","""event"",""trial"",""time""
""fullscreenenter"",""1"",""1867""
","
","
","""event"",""trial"",""time""
""fullscreenenter"",""1"",""1867""
","
","","","","","","2255.5","images/banana4.png","","","memory_trial","2","maybe_old",""
"html-keyboard-response","222","532353","0.0-18.0-0.89","4663","approach_avoid_sv1","""event"",""trial"",""time""
""fullscreenenter"",""1"",""1867""
","
","
","""event"",""trial"",""time""
""fullscreenenter"",""1"",""1867""
","
","","","","","","null","<div style=""font-size:60px;"">+</div>","null","","fixation","","",""
"memory-trial","223","536544","0.0-18.0-1.89","4663","approach_avoid_sv1","""event"",""trial"",""time""
""fullscreenenter"",""1"",""1867""
","
","
","""event"",""trial"",""time""
""fullscreenenter"",""1"",""1867""
","
","","","","","","3185.4000000953674","images/table8.png","","","memory_trial","3","maybe_new",""
"html-keyboard-response","224","537046","0.0-18.0-0.90","4663","approach_avoid_sv1","""event"",""trial"",""time""
""fullscreenenter"",""1"",""1867""
","
","
","""event"",""trial"",""time""
""fullscreenenter"",""1"",""1867""
","
","","","","","","null","<div style=""font-size:60px;"">+</div>","null","","fixation","","",""
"memory-trial","225","540057","0.0-18.0-1.90","4663","approach_avoid_sv1","""event"",""trial"",""time""
""fullscreenenter"",""1"",""1867""
","
","
","""event"",""trial"",""time""
""fullscreenenter"",""1"",""1867""
","
","","","","","","1993.9000000953674","images/straw6.png","","","memory_trial","3","maybe_new",""
"html-keyboard-response","226","540565","0.0-18.0-0.91","4663","approach_avoid_sv1","""event"",""trial"",""time""
""fullscreenenter"",""1"",""1867""
","
","
","""event"",""trial"",""time""
""fullscreenenter"",""1"",""1867""
","
","","","","","","null","<div style=""font-size:60px;"">+</div>","null","","fixation","","",""
"memory-trial","227","543402","0.0-18.0-1.91","4663","approach_avoid_sv1","""event"",""trial"",""time""
""fullscreenenter"",""1"",""1867""
","
","
","""event"",""trial"",""time""
""fullscreenenter"",""1"",""1867""
","
","","","","","","1828.7999999523163","images/goat4.png","","","memory_trial","2","maybe_old",""
"html-button-response","228","571663","0.0-18.0-2.91-0.91","4663","approach_avoid_sv1","""event"",""trial"",""time""
""fullscreenenter"",""1"",""1867""
","
","
","""event"",""trial"",""time""
""fullscreenenter"",""1"",""1867""
","
","","","","","","28259.799999952316","<p> Take a break! </p><p> Click the button to continue. </p>","0","","break","","",""
"html-keyboard-response","229","572177","0.0-18.0-0.92","4663","approach_avoid_sv1","""event"",""trial"",""time""
""fullscreenenter"",""1"",""1867""
","
","
","""event"",""trial"",""time""
""fullscreenenter"",""1"",""1867""
","
","","","","","","null","<div style=""font-size:60px;"">+</div>","null","","fixation","","",""
"memory-trial","230","576577","0.0-18.0-1.92","4663","approach_avoid_sv1","""event"",""trial"",""time""
""fullscreenenter"",""1"",""1867""
","
","
","""event"",""trial"",""time""
""fullscreenenter"",""1"",""1867""
","
","","","","","","3392.2999999523163","images/boat4.png","","","memory_trial","4","definitely_new",""
"html-keyboard-response","231","577083","0.0-18.0-0.93","4663","approach_avoid_sv1","""event"",""trial"",""time""
""fullscreenenter"",""1"",""1867""
","
","
","""event"",""trial"",""time""
""fullscreenenter"",""1"",""1867""
","
","","","","","","null","<div style=""font-size:60px;"">+</div>","null","","fixation","","",""
"memory-trial","232","579653","0.0-18.0-1.93","4663","approach_avoid_sv1","""event"",""trial"",""time""
""fullscreenenter"",""1"",""1867""
","
","
","""event"",""trial"",""time""
""fullscreenenter"",""1"",""1867""
","
","","","","","","1554","images/rodent4.png","","","memory_trial","1","definitely_old",""
"html-keyboard-response","233","580160","0.0-18.0-0.94","4663","approach_avoid_sv1","""event"",""trial"",""time""
""fullscreenenter"",""1"",""1867""
","
","
","""event"",""trial"",""time""
""fullscreenenter"",""1"",""1867""
","
","","","","","","null","<div style=""font-size:60px;"">+</div>","null","","fixation","","",""
"memory-trial","234","583025","0.0-18.0-1.94","4663","approach_avoid_sv1","""event"",""trial"",""time""
""fullscreenenter"",""1"",""1867""
","
","
","""event"",""trial"",""time""
""fullscreenenter"",""1"",""1867""
","
","","","","","","1857.2999999523163","images/cow6.png","","","memory_trial","4","definitely_new",""
"html-keyboard-response","235","583530","0.0-18.0-0.95","4663","approach_avoid_sv1","""event"",""trial"",""time""
""fullscreenenter"",""1"",""1867""
","
","
","""event"",""trial"",""time""
""fullscreenenter"",""1"",""1867""
","
","","","","","","null","<div style=""font-size:60px;"">+</div>","null","","fixation","","",""
"memory-trial","236","587698","0.0-18.0-1.95","4663","approach_avoid_sv1","""event"",""trial"",""time""
""fullscreenenter"",""1"",""1867""
","
","
","""event"",""trial"",""time""
""fullscreenenter"",""1"",""1867""
","
","","","","","","3157","images/rabbit4.png","","","memory_trial","4","definitely_new",""
"html-keyboard-response","237","588206","0.0-18.0-0.96","4663","approach_avoid_sv1","""event"",""trial"",""time""
""fullscreenenter"",""1"",""1867""
","
","
","""event"",""trial"",""time""
""fullscreenenter"",""1"",""1867""
","
","","","","","","null","<div style=""font-size:60px;"">+</div>","null","","fixation","","",""
"memory-trial","238","592796","0.0-18.0-1.96","4663","approach_avoid_sv1","""event"",""trial"",""time""
""fullscreenenter"",""1"",""1867""
","
","
","""event"",""trial"",""time""
""fullscreenenter"",""1"",""1867""
","
","","","","","","3578.899999856949","images/bed5.png","","","memory_trial","2","maybe_old",""
"html-keyboard-response","239","593310","0.0-18.0-0.97","4663","approach_avoid_sv1","""event"",""trial"",""time""
""fullscreenenter"",""1"",""1867""
","
","
","""event"",""trial"",""time""
""fullscreenenter"",""1"",""1867""
","
","","","","","","null","<div style=""font-size:60px;"">+</div>","null","","fixation","","",""
"memory-trial","240","595616","0.0-18.0-1.97","4663","approach_avoid_sv1","""event"",""trial"",""time""
""fullscreenenter"",""1"",""1867""
","
","
","""event"",""trial"",""time""
""fullscreenenter"",""1"",""1867""
","
","","","","","","1293.8999998569489","images/apple3.png","","","memory_trial","1","definitely_old",""
"html-keyboard-response","241","596120","0.0-18.0-0.98","4663","approach_avoid_sv1","""event"",""trial"",""time""
""fullscreenenter"",""1"",""1867""
","
","
","""event"",""trial"",""time""
""fullscreenenter"",""1"",""1867""
","
","","","","","","null","<div style=""font-size:60px;"">+</div>","null","","fixation","","",""
"memory-trial","242","598613","0.0-18.0-1.98","4663","approach_avoid_sv1","""event"",""trial"",""time""
""fullscreenenter"",""1"",""1867""
","
","
","""event"",""trial"",""time""
""fullscreenenter"",""1"",""1867""
","
","","","","","","1479.7000000476837","images/cat2.png","","","memory_trial","2","maybe_old",""
"html-keyboard-response","243","599125","0.0-18.0-0.99","4663","approach_avoid_sv1","""event"",""trial"",""time""
""fullscreenenter"",""1"",""1867""
","
","
","""event"",""trial"",""time""
""fullscreenenter"",""1"",""1867""
","
","","","","","","null","<div style=""font-size:60px;"">+</div>","null","","fixation","","",""
"memory-trial","244","602107","0.0-18.0-1.99","4663","approach_avoid_sv1","""event"",""trial"",""time""
""fullscreenenter"",""1"",""1867""
","
","
","""event"",""trial"",""time""
""fullscreenenter"",""1"",""1867""
","
","","","","","","1967","images/boat7.png","","","memory_trial","3","maybe_new",""
"html-keyboard-response","245","602614","0.0-18.0-0.100","4663","approach_avoid_sv1","""event"",""trial"",""time""
""fullscreenenter"",""1"",""1867""
","
","
","""event"",""trial"",""time""
""fullscreenenter"",""1"",""1867""
","
","","","","","","null","<div style=""font-size:60px;"">+</div>","null","","fixation","","",""
"memory-trial","246","604718","0.0-18.0-1.100","4663","approach_avoid_sv1","""event"",""trial"",""time""
""fullscreenenter"",""1"",""1867""
","
","
","""event"",""trial"",""time""
""fullscreenenter"",""1"",""1867""
","
","","","","","","1093.1000001430511","images/cat5.png","","","memory_trial","1","definitely_old",""
"html-keyboard-response","247","605221","0.0-18.0-0.101","4663","approach_avoid_sv1","""event"",""trial"",""time""
""fullscreenenter"",""1"",""1867""
","
","
","""event"",""trial"",""time""
""fullscreenenter"",""1"",""1867""
","
","","","","","","null","<div style=""font-size:60px;"">+</div>","null","","fixation","","",""
"memory-trial","248","608852","0.0-18.0-1.101","4663","approach_avoid_sv1","""event"",""trial"",""time""
""fullscreenenter"",""1"",""1867""
","
","
","""event"",""trial"",""time""
""fullscreenenter"",""1"",""1867""
","
","","","","","","2627.7999999523163","images/straw1.png","","","memory_trial","3","maybe_new",""
"html-keyboard-response","249","609362","0.0-18.0-0.102","4663","approach_avoid_sv1","""event"",""trial"",""time""
""fullscreenenter"",""1"",""1867""
","
","
","""event"",""trial"",""time""
""fullscreenenter"",""1"",""1867""
","
","","","","","","null","<div style=""font-size:60px;"">+</div>","null","","fixation","","",""
"memory-trial","250","612478","0.0-18.0-1.102","4663","approach_avoid_sv1","""event"",""trial"",""time""
""fullscreenenter"",""1"",""1867""
","
","
","""event"",""trial"",""time""
""fullscreenenter"",""1"",""1867""
","
","","","","","","2102.7000000476837","images/boat6.png","","","memory_trial","3","maybe_new",""
"html-keyboard-response","251","612989","0.0-18.0-0.103","4663","approach_avoid_sv1","""event"",""trial"",""time""
""fullscreenenter"",""1"",""1867""
","
","
","""event"",""trial"",""time""
""fullscreenenter"",""1"",""1867""
","
","","","","","","null","<div style=""font-size:60px;"">+</div>","null","","fixation","","",""
"memory-trial","252","616404","0.0-18.0-1.103","4663","approach_avoid_sv1","""event"",""trial"",""time""
""fullscreenenter"",""1"",""1867""
","
","
","""event"",""trial"",""time""
""fullscreenenter"",""1"",""1867""
","
","","","","","","2412.100000143051","images/plane3.png","","","memory_trial","1","definitely_old",""
"html-keyboard-response","253","616909","0.0-18.0-0.104","4663","approach_avoid_sv1","""event"",""trial"",""time""
""fullscreenenter"",""1"",""1867""
","
","
","""event"",""trial"",""time""
""fullscreenenter"",""1"",""1867""
","
","","","","","","null","<div style=""font-size:60px;"">+</div>","null","","fixation","","",""
"memory-trial","254","621260","0.0-18.0-1.104","4663","approach_avoid_sv1","""event"",""trial"",""time""
""fullscreenenter"",""1"",""1867""
","
","
","""event"",""trial"",""time""
""fullscreenenter"",""1"",""1867""
","
","","","","","","3337.5","images/cat1.png","","","memory_trial","1","definitely_old",""
"html-keyboard-response","255","621766","0.0-18.0-0.105","4663","approach_avoid_sv1","""event"",""trial"",""time""
""fullscreenenter"",""1"",""1867""
","
","
","""event"",""trial"",""time""
""fullscreenenter"",""1"",""1867""
","
","","","","","","null","<div style=""font-size:60px;"">+</div>","null","","fixation","","",""
"memory-trial","256","625463","0.0-18.0-1.105","4663","approach_avoid_sv1","""event"",""trial"",""time""
""fullscreenenter"",""1"",""1867""
","
","
","""event"",""trial"",""time""
""fullscreenenter"",""1"",""1867""
","
","","","","","","2683.5","images/rodent8.png","","","memory_trial","3","maybe_new",""
"html-keyboard-response","257","625973","0.0-18.0-0.106","4663","approach_avoid_sv1","""event"",""trial"",""time""
""fullscreenenter"",""1"",""1867""
","
","
","""event"",""trial"",""time""
""fullscreenenter"",""1"",""1867""
","
","","","","","","null","<div style=""font-size:60px;"">+</div>","null","","fixation","","",""
"memory-trial","258","629926","0.0-18.0-1.106","4663","approach_avoid_sv1","""event"",""trial"",""time""
""fullscreenenter"",""1"",""1867""
","
","
","""event"",""trial"",""time""
""fullscreenenter"",""1"",""1867""
","
","","","","","","2944.5","images/cow7.png","","","memory_trial","3","maybe_new",""
"html-keyboard-response","259","630436","0.0-18.0-0.107","4663","approach_avoid_sv1","""event"",""trial"",""time""
""fullscreenenter"",""1"",""1867""
","
","
","""event"",""trial"",""time""
""fullscreenenter"",""1"",""1867""
","
","","","","","","null","<div style=""font-size:60px;"">+</div>","null","","fixation","","",""
"memory-trial","260","632750","0.0-18.0-1.107","4663","approach_avoid_sv1","""event"",""trial"",""time""
""fullscreenenter"",""1"",""1867""
","
","
","""event"",""trial"",""time""
""fullscreenenter"",""1"",""1867""
","
","","","","","","1308.6000001430511","images/train1.png","","","memory_trial","1","definitely_old",""
"html-keyboard-response","261","633259","0.0-18.0-0.108","4663","approach_avoid_sv1","""event"",""trial"",""time""
""fullscreenenter"",""1"",""1867""
","
","
","""event"",""trial"",""time""
""fullscreenenter"",""1"",""1867""
","
","","","","","","null","<div style=""font-size:60px;"">+</div>","null","","fixation","","",""
"memory-trial","262","635649","0.0-18.0-1.108","4663","approach_avoid_sv1","""event"",""trial"",""time""
""fullscreenenter"",""1"",""1867""
","
","
","""event"",""trial"",""time""
""fullscreenenter"",""1"",""1867""
","
","","","","","","1376.6000001430511","images/sheep7.png","","","memory_trial","2","maybe_old",""
"html-keyboard-response","263","636159","0.0-18.0-0.109","4663","approach_avoid_sv1","""event"",""trial"",""time""
""fullscreenenter"",""1"",""1867""
","
","
","""event"",""trial"",""time""
""fullscreenenter"",""1"",""1867""
","
","","","","","","null","<div style=""font-size:60px;"">+</div>","null","","fixation","","",""
"memory-trial","264","639690","0.0-18.0-1.109","4663","approach_avoid_sv1","""event"",""trial"",""time""
""fullscreenenter"",""1"",""1867""
","
","
","""event"",""trial"",""time""
""fullscreenenter"",""1"",""1867""
","
","","","","","","2517.2999999523163","images/banana6.png","","","memory_trial","2","maybe_old",""
"html-keyboard-response","265","640201","0.0-18.0-0.110","4663","approach_avoid_sv1","""event"",""trial"",""time""
""fullscreenenter"",""1"",""1867""
","
","
","""event"",""trial"",""time""
""fullscreenenter"",""1"",""1867""
","
","","","","","","null","<div style=""font-size:60px;"">+</div>","null","","fixation","","",""
"memory-trial","266","642604","0.0-18.0-1.110","4663","approach_avoid_sv1","""event"",""trial"",""time""
""fullscreenenter"",""1"",""1867""
","
","
","""event"",""trial"",""time""
""fullscreenenter"",""1"",""1867""
","
","","","","","","1396.7999999523163","images/train2.png","","","memory_trial","4","definitely_new",""
"html-keyboard-response","267","643113","0.0-18.0-0.111","4663","approach_avoid_sv1","""event"",""trial"",""time""
""fullscreenenter"",""1"",""1867""
","
","
","""event"",""trial"",""time""
""fullscreenenter"",""1"",""1867""
","
","","","","","","null","<div style=""font-size:60px;"">+</div>","null","","fixation","","",""
"memory-trial","268","647224","0.0-18.0-1.111","4663","approach_avoid_sv1","""event"",""trial"",""time""
""fullscreenenter"",""1"",""1867""
","
","
","""event"",""trial"",""time""
""fullscreenenter"",""1"",""1867""
","
","","","","","","3096.899999856949","images/goat7.png","","","memory_trial","2","maybe_old",""
"html-keyboard-response","269","647732","0.0-18.0-0.112","4663","approach_avoid_sv1","""event"",""trial"",""time""
""fullscreenenter"",""1"",""1867""
","
","
","""event"",""trial"",""time""
""fullscreenenter"",""1"",""1867""
","
","","","","","","null","<div style=""font-size:60px;"">+</div>","null","","fixation","","",""
"memory-trial","270","650341","0.0-18.0-1.112","4663","approach_avoid_sv1","""event"",""trial"",""time""
""fullscreenenter"",""1"",""1867""
","
","
","""event"",""trial"",""time""
""fullscreenenter"",""1"",""1867""
","
","","","","","","1600.7999999523163","images/dog5.png","","","memory_trial","1","definitely_old",""
"html-keyboard-response","271","650850","0.0-18.0-0.113","4663","approach_avoid_sv1","""event"",""trial"",""time""
""fullscreenenter"",""1"",""1867""
","
","
","""event"",""trial"",""time""
""fullscreenenter"",""1"",""1867""
","
","","","","","","null","<div style=""font-size:60px;"">+</div>","null","","fixation","","",""
"memory-trial","272","654598","0.0-18.0-1.113","4663","approach_avoid_sv1","""event"",""trial"",""time""
""fullscreenenter"",""1"",""1867""
","
","
","""event"",""trial"",""time""
""fullscreenenter"",""1"",""1867""
","
","","","","","","2731.2999999523163","images/bush3.png","","","memory_trial","3","maybe_new",""
"html-keyboard-response","273","655101","0.0-18.0-0.114","4663","approach_avoid_sv1","""event"",""trial"",""time""
""fullscreenenter"",""1"",""1867""
","
","
","""event"",""trial"",""time""
""fullscreenenter"",""1"",""1867""
","
","","","","","","null","<div style=""font-size:60px;"">+</div>","null","","fixation","","",""
"memory-trial","274","657617","0.0-18.0-1.114","4663","approach_avoid_sv1","""event"",""trial"",""time""
""fullscreenenter"",""1"",""1867""
","
","
","""event"",""trial"",""time""
""fullscreenenter"",""1"",""1867""
","
","","","","","","1495.5999999046326","images/cat6.png","","","memory_trial","3","maybe_new",""
"html-keyboard-response","275","658133","0.0-18.0-0.115","4663","approach_avoid_sv1","""event"",""trial"",""time""
""fullscreenenter"",""1"",""1867""
","
","
","""event"",""trial"",""time""
""fullscreenenter"",""1"",""1867""
","
","","","","","","null","<div style=""font-size:60px;"">+</div>","null","","fixation","","",""
"memory-trial","276","660950","0.0-18.0-1.115","4663","approach_avoid_sv1","""event"",""trial"",""time""
""fullscreenenter"",""1"",""1867""
","
","
","""event"",""trial"",""time""
""fullscreenenter"",""1"",""1867""
","
","","","","","","1808.5999999046326","images/cow4.png","","","memory_trial","3","maybe_new",""
"html-keyboard-response","277","661464","0.0-18.0-0.116","4663","approach_avoid_sv1","""event"",""trial"",""time""
""fullscreenenter"",""1"",""1867""
","
","
","""event"",""trial"",""time""
""fullscreenenter"",""1"",""1867""
","
","","","","","","null","<div style=""font-size:60px;"">+</div>","null","","fixation","","",""
"memory-trial","278","664243","0.0-18.0-1.116","4663","approach_avoid_sv1","""event"",""trial"",""time""
""fullscreenenter"",""1"",""1867""
","
","
","""event"",""trial"",""time""
""fullscreenenter"",""1"",""1867""
","
","","","","","","1769.9000000953674","images/sheep4.png","","","memory_trial","2","maybe_old",""
"html-keyboard-response","279","664758","0.0-18.0-0.117","4663","approach_avoid_sv1","""event"",""trial"",""time""
""fullscreenenter"",""1"",""1867""
","
","
","""event"",""trial"",""time""
""fullscreenenter"",""1"",""1867""
","
","","","","","","null","<div style=""font-size:60px;"">+</div>","null","","fixation","","",""
"memory-trial","280","668285","0.0-18.0-1.117","4663","approach_avoid_sv1","""event"",""trial"",""time""
""fullscreenenter"",""1"",""1867""
","
","
","""event"",""trial"",""time""
""fullscreenenter"",""1"",""1867""
","
","","","","","","2514.600000143051","images/flower2.png","","","memory_trial","3","maybe_new",""
"html-keyboard-response","281","668808","0.0-18.0-0.118","4663","approach_avoid_sv1","""event"",""trial"",""time""
""fullscreenenter"",""1"",""1867""
","
","
","""event"",""trial"",""time""
""fullscreenenter"",""1"",""1867""
","
","","","","","","null","<div style=""font-size:60px;"">+</div>","null","","fixation","","",""
"memory-trial","282","671994","0.0-18.0-1.118","4663","approach_avoid_sv1","""event"",""trial"",""time""
""fullscreenenter"",""1"",""1867""
","
","
","""event"",""trial"",""time""
""fullscreenenter"",""1"",""1867""
","
","","","","","","2174.7000000476837","images/straw4.png","","","memory_trial","2","maybe_old",""
"html-keyboard-response","283","672499","0.0-18.0-0.119","4663","approach_avoid_sv1","""event"",""trial"",""time""
""fullscreenenter"",""1"",""1867""
","
","
","""event"",""trial"",""time""
""fullscreenenter"",""1"",""1867""
","
","","","","","","null","<div style=""font-size:60px;"">+</div>","null","","fixation","","",""
"memory-trial","284","675530","0.0-18.0-1.119","4663","approach_avoid_sv1","""event"",""trial"",""time""
""fullscreenenter"",""1"",""1867""
","
","
","""event"",""trial"",""time""
""fullscreenenter"",""1"",""1867""
","
","","","","","","2027.2000000476837","images/cow2.png","","","memory_trial","3","maybe_new",""
"html-keyboard-response","285","676035","0.0-18.0-0.120","4663","approach_avoid_sv1","""event"",""trial"",""time""
""fullscreenenter"",""1"",""1867""
","
","
","""event"",""trial"",""time""
""fullscreenenter"",""1"",""1867""
","
","","","","","","null","<div style=""font-size:60px;"">+</div>","null","","fixation","","",""
"memory-trial","286","679465","0.0-18.0-1.120","4663","approach_avoid_sv1","""event"",""trial"",""time""
""fullscreenenter"",""1"",""1867""
","
","
","""event"",""trial"",""time""
""fullscreenenter"",""1"",""1867""
","
","","","","","","2423.5","images/tree3.png","","","memory_trial","3","maybe_new",""
"html-keyboard-response","287","679970","0.0-18.0-0.121","4663","approach_avoid_sv1","""event"",""trial"",""time""
""fullscreenenter"",""1"",""1867""
","
","
","""event"",""trial"",""time""
""fullscreenenter"",""1"",""1867""
","
","","","","","","null","<div style=""font-size:60px;"">+</div>","null","","fixation","","",""
"memory-trial","288","683298","0.0-18.0-1.121","4663","approach_avoid_sv1","""event"",""trial"",""time""
""fullscreenenter"",""1"",""1867""
","
","
","""event"",""trial"",""time""
""fullscreenenter"",""1"",""1867""
","
","","","","","","2316.9000000953674","images/tree2.png","","","memory_trial","2","maybe_old",""
"html-keyboard-response","289","683809","0.0-18.0-0.122","4663","approach_avoid_sv1","""event"",""trial"",""time""
""fullscreenenter"",""1"",""1867""
","
","
","""event"",""trial"",""time""
""fullscreenenter"",""1"",""1867""
","
","","","","","","null","<div style=""font-size:60px;"">+</div>","null","","fixation","","",""
"memory-trial","290","687618","0.0-18.0-1.122","4663","approach_avoid_sv1","""event"",""trial"",""time""
""fullscreenenter"",""1"",""1867""
","
","
","""event"",""trial"",""time""
""fullscreenenter"",""1"",""1867""
","
","","","","","","2799.2000000476837","images/rabbit3.png","","","memory_trial","3","maybe_new",""
"html-keyboard-response","291","688123","0.0-18.0-0.123","4663","approach_avoid_sv1","""event"",""trial"",""time""
""fullscreenenter"",""1"",""1867""
","
","
","""event"",""trial"",""time""
""fullscreenenter"",""1"",""1867""
","
","","","","","","null","<div style=""font-size:60px;"">+</div>","null","","fixation","","",""
"memory-trial","292","691595","0.0-18.0-1.123","4663","approach_avoid_sv1","""event"",""trial"",""time""
""fullscreenenter"",""1"",""1867""
","
","
","""event"",""trial"",""time""
""fullscreenenter"",""1"",""1867""
","
","","","","","","2460.0999999046326","images/rabbit8.png","","","memory_trial","2","maybe_old",""
"html-keyboard-response","293","692104","0.0-18.0-0.124","4663","approach_avoid_sv1","""event"",""trial"",""time""
""fullscreenenter"",""1"",""1867""
","
","
","""event"",""trial"",""time""
""fullscreenenter"",""1"",""1867""
","
","","","","","","null","<div style=""font-size:60px;"">+</div>","null","","fixation","","",""
"memory-trial","294","695788","0.0-18.0-1.124","4663","approach_avoid_sv1","""event"",""trial"",""time""
""fullscreenenter"",""1"",""1867""
","
","
","""event"",""trial"",""time""
""fullscreenenter"",""1"",""1867""
","
","","","","","","2673.9000000953674","images/cactus7.png","","","memory_trial","3","maybe_new",""
"html-keyboard-response","295","696303","0.0-18.0-0.125","4663","approach_avoid_sv1","""event"",""trial"",""time""
""fullscreenenter"",""1"",""1867""
","
","
","""event"",""trial"",""time""
""fullscreenenter"",""1"",""1867""
","
","","","","","","null","<div style=""font-size:60px;"">+</div>","null","","fixation","","",""
"memory-trial","296","700483","0.0-18.0-1.125","4663","approach_avoid_sv1","""event"",""trial"",""time""
""fullscreenenter"",""1"",""1867""
","
","
","""event"",""trial"",""time""
""fullscreenenter"",""1"",""1867""
","
","","","","","","3170.100000143051","images/orange2.png","","","memory_trial","2","maybe_old",""
"html-keyboard-response","297","700995","0.0-18.0-0.126","4663","approach_avoid_sv1","""event"",""trial"",""time""
""fullscreenenter"",""1"",""1867""
","
","
","""event"",""trial"",""time""
""fullscreenenter"",""1"",""1867""
","
","","","","","","null","<div style=""font-size:60px;"">+</div>","null","","fixation","","",""
