"trial_type","trial_index","time_elapsed","internal_node_id","subject_id","task_version","interactions","blur_events","focus_events","fullscreenenter_events","fullscreenexit_events","success","timeout","failed_images","failed_audio","failed_video","rt","stimulus","response","button_pressed","task_part","key_press","answer","correct"
"pavlovia","0","3","0.0-0.0","5519","approach_avoid_sv1","""event"",""trial"",""time""
""fullscreenenter"",""1"",""2630""
","
","
","""event"",""trial"",""time""
""fullscreenenter"",""1"",""2630""
","
","","","","","","","","","","","","",""
"fullscreen","1","3560","0.0-1.0","5519","approach_avoid_sv1","""event"",""trial"",""time""
""fullscreenenter"",""1"",""2630""
","
","
","""event"",""trial"",""time""
""fullscreenenter"",""1"",""2630""
","
","true","","","","","","","","","","","",""
"preload","2","3640","0.0-2.0","5519","approach_avoid_sv1","""event"",""trial"",""time""
""fullscreenenter"",""1"",""2630""
","
","
","""event"",""trial"",""time""
""fullscreenenter"",""1"",""2630""
","
","true","false","[]","[]","[]","","","","","","","",""
"preload","3","3686","0.0-3.0","5519","approach_avoid_sv1","""event"",""trial"",""time""
""fullscreenenter"",""1"",""2630""
","
","
","""event"",""trial"",""time""
""fullscreenenter"",""1"",""2630""
","
","true","false","[]","[]","[]","","","","","","","",""
"preload","4","3744","0.0-4.0","5519","approach_avoid_sv1","""event"",""trial"",""time""
""fullscreenenter"",""1"",""2630""
","
","
","""event"",""trial"",""time""
""fullscreenenter"",""1"",""2630""
","
","true","false","[]","[]","[]","","","","","","","",""
"audio-keyboard-response","5","8394","0.0-5.0","5519","approach_avoid_sv1","""event"",""trial"",""time""
""fullscreenenter"",""1"",""2630""
","
","
","""event"",""trial"",""time""
""fullscreenenter"",""1"",""2630""
","
","","","","","","0","audio/beep_loop.wav"," ","","","","",""
"audio-button-response","6","10029","0.0-6.0","5519","approach_avoid_sv1","""event"",""trial"",""time""
""fullscreenenter"",""1"",""2630""
","
","
","""event"",""trial"",""time""
""fullscreenenter"",""1"",""2630""
","
","","","","","","1492","audio/turtle.wav","3","","","","",""
"audio-button-response","7","12079","0.0-7.0","5519","approach_avoid_sv1","""event"",""trial"",""time""
""fullscreenenter"",""1"",""2630""
","
","
","""event"",""trial"",""time""
""fullscreenenter"",""1"",""2630""
","
","","","","","","1048","audio/shark.wav","2","","","","",""
"preload","8","13128","0.0-8.0","5519","approach_avoid_sv1","""event"",""trial"",""time""
""fullscreenenter"",""1"",""2630""
","
","
","""event"",""trial"",""time""
""fullscreenenter"",""1"",""2630""
","
","true","false","[]","[]","[]","","","","","","","",""
"learning-instructions","9","19047","0.0-9.0-0.0","5519","approach_avoid_sv1","""event"",""trial"",""time""
""fullscreenenter"",""1"",""2630""
","
","
","""event"",""trial"",""time""
""fullscreenenter"",""1"",""2630""
","
","","","","","","1442","<p> Welcome back! </p><p> Last week, you had to make choices about lots of different items.  </p>","","0","instructions","","",""
"learning-instructions","10","23809","0.0-9.0-0.1","5519","approach_avoid_sv1","""event"",""trial"",""time""
""fullscreenenter"",""1"",""2630""
","
","
","""event"",""trial"",""time""
""fullscreenenter"",""1"",""2630""
","
","","","","","","652","<p> Today, we are going to ask you to try to remember all the items. </p>","","0","instructions","","",""
"learning-instructions","11","35703","0.0-9.0-0.2","5519","approach_avoid_sv1","""event"",""trial"",""time""
""fullscreenenter"",""1"",""2630""
","
","
","""event"",""trial"",""time""
""fullscreenenter"",""1"",""2630""
","
","","","","","","1764","<p> On every trial, you will see an image. </p><p> The image may be an OLD image you saw during the games last week or it may be a NEW image that was not presented. </p>","","0","instructions","","",""
"learning-instructions","12","50637","0.0-9.0-0.3","5519","approach_avoid_sv1","""event"",""trial"",""time""
""fullscreenenter"",""1"",""2630""
","
","
","""event"",""trial"",""time""
""fullscreenenter"",""1"",""2630""
","
","","","","","","6437","<p> You need to select whether the image is:  </p><p>  'Definitely old', 'Maybe old', 'Maybe new', or 'Definitely new.'  </p><div class=""mem-choice-instructions-grid""><div class=""choice-option"" id=""choice-option-1"" ><img src=""images/definitely_old_1.png"" id=""choice-option-img-1"" class=""choice-option-img"" stage=""1""></div><div class=""choice-option"" id=""choice-option-2"" ><img src=""images/maybe_old_1.png"" id=""choice-option-img-2"" class=""choice-option-img"" stage=""1""></div><div class=""choice-option"" id=""choice-option-3"" ><img src=""images/maybe_new_1.png"" id=""choice-option-img-3"" class=""choice-option-img"" stage=""1""></div><div class=""choice-option"" id=""choice-option-4"" > <img src=""images/definitely_new_1.png"" id=""choice-option-img-4"" class=""choice-option-img"" stage=""1""></div></div>","","0","instructions","","",""
"learning-instructions","13","58660","0.0-9.0-0.4","5519","approach_avoid_sv1","""event"",""trial"",""time""
""fullscreenenter"",""1"",""2630""
","
","
","""event"",""trial"",""time""
""fullscreenenter"",""1"",""2630""
","
","","","","","","1513","<p> You should use the 1, 2, 3, and 4 keys to make your responses.  </p><div class=""mem-choice-instructions-grid""><div class=""choice-option"" id=""choice-option-1"" ><img src=""images/definitely_old.png"" id=""choice-option-img-1"" class=""choice-option-img"" stage=""1""></div><div class=""choice-option"" id=""choice-option-2"" ><img src=""images/maybe_old.png"" id=""choice-option-img-2"" class=""choice-option-img"" stage=""1""></div><div class=""choice-option"" id=""choice-option-3"" ><img src=""images/maybe_new.png"" id=""choice-option-img-3"" class=""choice-option-img"" stage=""1""></div><div class=""choice-option"" id=""choice-option-4"" > <img src=""images/definitely_new.png"" id=""choice-option-img-4"" class=""choice-option-img"" stage=""1""></div></div>","","0","instructions","","",""
"learning-instructions","14","68059","0.0-9.0-0.5","5519","approach_avoid_sv1","""event"",""trial"",""time""
""fullscreenenter"",""1"",""2630""
","
","
","""event"",""trial"",""time""
""fullscreenenter"",""1"",""2630""
","
","","","","","","3075","<p> You will have 10 seconds to make each response.  </p><p>  Make sure to respond before time runs out! </p>","","0","instructions","","",""
"learning-instructions","15","76401","0.0-9.0-0.6","5519","approach_avoid_sv1","""event"",""trial"",""time""
""fullscreenenter"",""1"",""2630""
","
","
","""event"",""trial"",""time""
""fullscreenenter"",""1"",""2630""
","
","","","","","","1269","<p> Today, you will see each image ONCE only.  </p><p>  That means none of the images will repeat. </p>","","0","instructions","","",""
"learning-instructions","16","90993","0.0-9.0-0.7","5519","approach_avoid_sv1","""event"",""trial"",""time""
""fullscreenenter"",""1"",""2630""
","
","
","""event"",""trial"",""time""
""fullscreenenter"",""1"",""2630""
","
","","","","","","1930","<p> Before you play the real game, it is time to practice. </p><p>  Just like in the real game, some of the images in the practice will be ones you have seen before. </p><p>  Others will be entirely new. </p>","","0","instructions","","",""
"html-button-response","17","95243","0.0-10.0","5519","approach_avoid_sv1","""event"",""trial"",""time""
""fullscreenenter"",""1"",""2630""
","
","
","""event"",""trial"",""time""
""fullscreenenter"",""1"",""2630""
","
","","","","","","4149","<p> Ready to practice? </p><p> Remember, use the 1, 2, 3, and 4 keys to make your responses. </p>","0","","instructions","","",""
"html-keyboard-response","18","95845","0.0-11.0-0.0","5519","approach_avoid_sv1","""event"",""trial"",""time""
""fullscreenenter"",""1"",""2630""
","
","
","""event"",""trial"",""time""
""fullscreenenter"",""1"",""2630""
","
","","","","","","null","<div style=""font-size:60px;"">+</div>","null","","fixation","","",""
"memory-trial","19","99001","0.0-11.0-1.0","5519","approach_avoid_sv1","""event"",""trial"",""time""
""fullscreenenter"",""1"",""2630""
","
","
","""event"",""trial"",""time""
""fullscreenenter"",""1"",""2630""
","
","","","","","","2154","images/ball1.png","","","practice","1","definitely_old",""
"html-keyboard-response","20","99503","0.0-11.0-0.1","5519","approach_avoid_sv1","""event"",""trial"",""time""
""fullscreenenter"",""1"",""2630""
","
","
","""event"",""trial"",""time""
""fullscreenenter"",""1"",""2630""
","
","","","","","","null","<div style=""font-size:60px;"">+</div>","null","","fixation","","",""
"memory-trial","21","101844","0.0-11.0-1.1","5519","approach_avoid_sv1","""event"",""trial"",""time""
""fullscreenenter"",""1"",""2630""
","
","
","""event"",""trial"",""time""
""fullscreenenter"",""1"",""2630""
","
","","","","","","1339","images/racket1.png","","","practice","4","definitely_new",""
"html-keyboard-response","22","102346","0.0-11.0-0.2","5519","approach_avoid_sv1","""event"",""trial"",""time""
""fullscreenenter"",""1"",""2630""
","
","
","""event"",""trial"",""time""
""fullscreenenter"",""1"",""2630""
","
","","","","","","null","<div style=""font-size:60px;"">+</div>","null","","fixation","","",""
"memory-trial","23","104810","0.0-11.0-1.2","5519","approach_avoid_sv1","""event"",""trial"",""time""
""fullscreenenter"",""1"",""2630""
","
","
","""event"",""trial"",""time""
""fullscreenenter"",""1"",""2630""
","
","","","","","","1460.0000000000146","images/racket5.png","","","practice","4","definitely_new",""
"html-keyboard-response","24","105311","0.0-11.0-0.3","5519","approach_avoid_sv1","""event"",""trial"",""time""
""fullscreenenter"",""1"",""2630""
","
","
","""event"",""trial"",""time""
""fullscreenenter"",""1"",""2630""
","
","","","","","","null","<div style=""font-size:60px;"">+</div>","null","","fixation","","",""
"memory-trial","25","107830","0.0-11.0-1.3","5519","approach_avoid_sv1","""event"",""trial"",""time""
""fullscreenenter"",""1"",""2630""
","
","
","""event"",""trial"",""time""
""fullscreenenter"",""1"",""2630""
","
","","","","","","1517","images/ball2.png","","","practice","1","definitely_old",""
"html-keyboard-response","26","108331","0.0-11.0-0.4","5519","approach_avoid_sv1","""event"",""trial"",""time""
""fullscreenenter"",""1"",""2630""
","
","
","""event"",""trial"",""time""
""fullscreenenter"",""1"",""2630""
","
","","","","","","null","<div style=""font-size:60px;"">+</div>","null","","fixation","","",""
"memory-trial","27","110088","0.0-11.0-1.4","5519","approach_avoid_sv1","""event"",""trial"",""time""
""fullscreenenter"",""1"",""2630""
","
","
","""event"",""trial"",""time""
""fullscreenenter"",""1"",""2630""
","
","","","","","","754","images/ball5.png","","","practice","1","definitely_old",""
"html-keyboard-response","28","110590","0.0-11.0-0.5","5519","approach_avoid_sv1","""event"",""trial"",""time""
""fullscreenenter"",""1"",""2630""
","
","
","""event"",""trial"",""time""
""fullscreenenter"",""1"",""2630""
","
","","","","","","null","<div style=""font-size:60px;"">+</div>","null","","fixation","","",""
"memory-trial","29","113766","0.0-11.0-1.5","5519","approach_avoid_sv1","""event"",""trial"",""time""
""fullscreenenter"",""1"",""2630""
","
","
","""event"",""trial"",""time""
""fullscreenenter"",""1"",""2630""
","
","","","","","","2174","images/racket3.png","","","practice","3","maybe_new",""
"html-keyboard-response","30","114268","0.0-11.0-0.6","5519","approach_avoid_sv1","""event"",""trial"",""time""
""fullscreenenter"",""1"",""2630""
","
","
","""event"",""trial"",""time""
""fullscreenenter"",""1"",""2630""
","
","","","","","","null","<div style=""font-size:60px;"">+</div>","null","","fixation","","",""
"memory-trial","31","119042","0.0-11.0-1.6","5519","approach_avoid_sv1","""event"",""trial"",""time""
""fullscreenenter"",""1"",""2630""
","
","
","""event"",""trial"",""time""
""fullscreenenter"",""1"",""2630""
","
","","","","","","3771.9999999999854","images/racket2.png","","","practice","1","definitely_old",""
"html-keyboard-response","32","119544","0.0-11.0-0.7","5519","approach_avoid_sv1","""event"",""trial"",""time""
""fullscreenenter"",""1"",""2630""
","
","
","""event"",""trial"",""time""
""fullscreenenter"",""1"",""2630""
","
","","","","","","null","<div style=""font-size:60px;"">+</div>","null","","fixation","","",""
"memory-trial","33","122650","0.0-11.0-1.7","5519","approach_avoid_sv1","""event"",""trial"",""time""
""fullscreenenter"",""1"",""2630""
","
","
","""event"",""trial"",""time""
""fullscreenenter"",""1"",""2630""
","
","","","","","","2105.0000000000146","images/ball3.png","","","practice","3","maybe_new",""
"learning-instructions","34","131481","0.0-12.0-0.0","5519","approach_avoid_sv1","""event"",""trial"",""time""
""fullscreenenter"",""1"",""2630""
","
","
","""event"",""trial"",""time""
""fullscreenenter"",""1"",""2630""
","
","","","","","","1521.0000000000146","<p> Great! You have completed the practice. </p><p> Before you start, we're going to ask you a few questions about how the game works.  </p>","","0","instructions","","",""
"preload","35","131614","0.0-13.0","5519","approach_avoid_sv1","""event"",""trial"",""time""
""fullscreenenter"",""1"",""2630""
","
","
","""event"",""trial"",""time""
""fullscreenenter"",""1"",""2630""
","
","true","false","[]","[]","[]","","","","","","","",""
"comp-q","36","140373","0.0-14.0-0.0","5519","approach_avoid_sv1","""event"",""trial"",""time""
""fullscreenenter"",""1"",""2630""
","
","
","""event"",""trial"",""time""
""fullscreenenter"",""1"",""2630""
","
","","","","","","2930","<p> <b> True or False? </b> </p><p> In this game, you will only see each image once. </p>","","0","comp_question","","","true"
"comp-q","37","148279","0.0-14.0-1.0","5519","approach_avoid_sv1","""event"",""trial"",""time""
""fullscreenenter"",""1"",""2630""
","
","
","""event"",""trial"",""time""
""fullscreenenter"",""1"",""2630""
","
","","","","","","1573","<p> <b> That's right! </b> You will see many different images <i> one time each </i> in this game. </p>","","0","comp_answer","","",""
"comp-q","38","154019","0.0-15.0-0.0","5519","approach_avoid_sv1","""event"",""trial"",""time""
""fullscreenenter"",""1"",""2630""
","
","
","""event"",""trial"",""time""
""fullscreenenter"",""1"",""2630""
","
","","","","","","735.0000000000291","<p> <b> True or False? </b> </p><p> You should use the mouse and click to make your response. </p>","","1","comp_question","","","true"
"comp-q","39","164727","0.0-15.0-1.0","5519","approach_avoid_sv1","""event"",""trial"",""time""
""fullscreenenter"",""1"",""2630""
","
","
","""event"",""trial"",""time""
""fullscreenenter"",""1"",""2630""
","
","","","","","","4211","<p><b> That's right! </b> You should use the '1', '2', '3', and '4' keys to make your response. </p>","","0","comp_answer","","",""
"comp-q","40","175679","0.0-16.0-0.0","5519","approach_avoid_sv1","""event"",""trial"",""time""
""fullscreenenter"",""1"",""2630""
","
","
","""event"",""trial"",""time""
""fullscreenenter"",""1"",""2630""
","
","","","","","","5278","<p> <b> True or False? </b> </p><p> You will have as much time as you want to make each choice. </p>","","1","comp_question","","","true"
"comp-q","41","201150","0.0-16.0-1.0","5519","approach_avoid_sv1","""event"",""trial"",""time""
""fullscreenenter"",""1"",""2630""
","
","
","""event"",""trial"",""time""
""fullscreenenter"",""1"",""2630""
","
","","","","","","20777","<p> <b> That's right! </b> You will only have 10 seconds to make each choice. </p>","","0","comp_answer","","",""
"learning-instructions","42","215091","0.0-17.0","5519","approach_avoid_sv1","""event"",""trial"",""time""
""fullscreenenter"",""1"",""2630""
","
","
","""event"",""trial"",""time""
""fullscreenenter"",""1"",""2630""
","
","","","","","","5277","<p> Great! You are now ready to begin the game. </p><p> Remember, use the 1, 2, 3, and 4 keys to make your responses. </p>","","0","instructions","","",""
"html-keyboard-response","43","215694","0.0-18.0-0.0","5519","approach_avoid_sv1","""event"",""trial"",""time""
""fullscreenenter"",""1"",""2630""
","
","
","""event"",""trial"",""time""
""fullscreenenter"",""1"",""2630""
","
","","","","","","null","<div style=""font-size:60px;"">+</div>","null","","fixation","","",""
"memory-trial","44","220150","0.0-18.0-1.0","5519","approach_avoid_sv1","""event"",""trial"",""time""
""fullscreenenter"",""1"",""2630""
","
","
","""event"",""trial"",""time""
""fullscreenenter"",""1"",""2630""
","
","","","","","","3453","images/apple8.png","","","memory_trial","2","maybe_old",""
"html-keyboard-response","45","220652","0.0-18.0-0.1","5519","approach_avoid_sv1","""event"",""trial"",""time""
""fullscreenenter"",""1"",""2630""
","
","
","""event"",""trial"",""time""
""fullscreenenter"",""1"",""2630""
","
","","","","","","null","<div style=""font-size:60px;"">+</div>","null","","fixation","","",""
"memory-trial","46","223186","0.0-18.0-1.1","5519","approach_avoid_sv1","""event"",""trial"",""time""
""fullscreenenter"",""1"",""2630""
","
","
","""event"",""trial"",""time""
""fullscreenenter"",""1"",""2630""
","
","","","","","","1531","images/dog4.png","","","memory_trial","1","definitely_old",""
"html-keyboard-response","47","223688","0.0-18.0-0.2","5519","approach_avoid_sv1","""event"",""trial"",""time""
""fullscreenenter"",""1"",""2630""
","
","
","""event"",""trial"",""time""
""fullscreenenter"",""1"",""2630""
","
","","","","","","null","<div style=""font-size:60px;"">+</div>","null","","fixation","","",""
"memory-trial","48","225378","0.0-18.0-1.2","5519","approach_avoid_sv1","""event"",""trial"",""time""
""fullscreenenter"",""1"",""2630""
","
","
","""event"",""trial"",""time""
""fullscreenenter"",""1"",""2630""
","
","","","","","","688","images/rodent3.png","","","memory_trial","1","definitely_old",""
"html-keyboard-response","49","225880","0.0-18.0-0.3","5519","approach_avoid_sv1","""event"",""trial"",""time""
""fullscreenenter"",""1"",""2630""
","
","
","""event"",""trial"",""time""
""fullscreenenter"",""1"",""2630""
","
","","","","","","null","<div style=""font-size:60px;"">+</div>","null","","fixation","","",""
"memory-trial","50","228027","0.0-18.0-1.3","5519","approach_avoid_sv1","""event"",""trial"",""time""
""fullscreenenter"",""1"",""2630""
","
","
","""event"",""trial"",""time""
""fullscreenenter"",""1"",""2630""
","
","","","","","","1146","images/flower8.png","","","memory_trial","1","definitely_old",""
"html-keyboard-response","51","228529","0.0-18.0-0.4","5519","approach_avoid_sv1","""event"",""trial"",""time""
""fullscreenenter"",""1"",""2630""
","
","
","""event"",""trial"",""time""
""fullscreenenter"",""1"",""2630""
","
","","","","","","null","<div style=""font-size:60px;"">+</div>","null","","fixation","","",""
"memory-trial","52","230892","0.0-18.0-1.4","5519","approach_avoid_sv1","""event"",""trial"",""time""
""fullscreenenter"",""1"",""2630""
","
","
","""event"",""trial"",""time""
""fullscreenenter"",""1"",""2630""
","
","","","","","","1361","images/cactus4.png","","","memory_trial","2","maybe_old",""
"html-keyboard-response","53","231394","0.0-18.0-0.5","5519","approach_avoid_sv1","""event"",""trial"",""time""
""fullscreenenter"",""1"",""2630""
","
","
","""event"",""trial"",""time""
""fullscreenenter"",""1"",""2630""
","
","","","","","","null","<div style=""font-size:60px;"">+</div>","null","","fixation","","",""
"memory-trial","54","233603","0.0-18.0-1.5","5519","approach_avoid_sv1","""event"",""trial"",""time""
""fullscreenenter"",""1"",""2630""
","
","
","""event"",""trial"",""time""
""fullscreenenter"",""1"",""2630""
","
","","","","","","1207.000000000029","images/bed4.png","","","memory_trial","4","definitely_new",""
"html-keyboard-response","55","234105","0.0-18.0-0.6","5519","approach_avoid_sv1","""event"",""trial"",""time""
""fullscreenenter"",""1"",""2630""
","
","
","""event"",""trial"",""time""
""fullscreenenter"",""1"",""2630""
","
","","","","","","null","<div style=""font-size:60px;"">+</div>","null","","fixation","","",""
"memory-trial","56","236113","0.0-18.0-1.6","5519","approach_avoid_sv1","""event"",""trial"",""time""
""fullscreenenter"",""1"",""2630""
","
","
","""event"",""trial"",""time""
""fullscreenenter"",""1"",""2630""
","
","","","","","","1005","images/flower3.png","","","memory_trial","1","definitely_old",""
"html-keyboard-response","57","236615","0.0-18.0-0.7","5519","approach_avoid_sv1","""event"",""trial"",""time""
""fullscreenenter"",""1"",""2630""
","
","
","""event"",""trial"",""time""
""fullscreenenter"",""1"",""2630""
","
","","","","","","null","<div style=""font-size:60px;"">+</div>","null","","fixation","","",""
"memory-trial","58","238870","0.0-18.0-1.7","5519","approach_avoid_sv1","""event"",""trial"",""time""
""fullscreenenter"",""1"",""2630""
","
","
","""event"",""trial"",""time""
""fullscreenenter"",""1"",""2630""
","
","","","","","","1253","images/cat1.png","","","memory_trial","4","definitely_new",""
"html-keyboard-response","59","239372","0.0-18.0-0.8","5519","approach_avoid_sv1","""event"",""trial"",""time""
""fullscreenenter"",""1"",""2630""
","
","
","""event"",""trial"",""time""
""fullscreenenter"",""1"",""2630""
","
","","","","","","null","<div style=""font-size:60px;"">+</div>","null","","fixation","","",""
"memory-trial","60","241944","0.0-18.0-1.8","5519","approach_avoid_sv1","""event"",""trial"",""time""
""fullscreenenter"",""1"",""2630""
","
","
","""event"",""trial"",""time""
""fullscreenenter"",""1"",""2630""
","
","","","","","","1570.000000000029","images/horse2.png","","","memory_trial","4","definitely_new",""
"html-keyboard-response","61","242446","0.0-18.0-0.9","5519","approach_avoid_sv1","""event"",""trial"",""time""
""fullscreenenter"",""1"",""2630""
","
","
","""event"",""trial"",""time""
""fullscreenenter"",""1"",""2630""
","
","","","","","","null","<div style=""font-size:60px;"">+</div>","null","","fixation","","",""
"memory-trial","62","245381","0.0-18.0-1.9","5519","approach_avoid_sv1","""event"",""trial"",""time""
""fullscreenenter"",""1"",""2630""
","
","
","""event"",""trial"",""time""
""fullscreenenter"",""1"",""2630""
","
","","","","","","1933","images/cactus2.png","","","memory_trial","3","maybe_new",""
"html-keyboard-response","63","245883","0.0-18.0-0.10","5519","approach_avoid_sv1","""event"",""trial"",""time""
""fullscreenenter"",""1"",""2630""
","
","
","""event"",""trial"",""time""
""fullscreenenter"",""1"",""2630""
","
","","","","","","null","<div style=""font-size:60px;"">+</div>","null","","fixation","","",""
"memory-trial","64","248513","0.0-18.0-1.10","5519","approach_avoid_sv1","""event"",""trial"",""time""
""fullscreenenter"",""1"",""2630""
","
","
","""event"",""trial"",""time""
""fullscreenenter"",""1"",""2630""
","
","","","","","","1628","images/cow4.png","","","memory_trial","2","maybe_old",""
"html-keyboard-response","65","249015","0.0-18.0-0.11","5519","approach_avoid_sv1","""event"",""trial"",""time""
""fullscreenenter"",""1"",""2630""
","
","
","""event"",""trial"",""time""
""fullscreenenter"",""1"",""2630""
","
","","","","","","null","<div style=""font-size:60px;"">+</div>","null","","fixation","","",""
"memory-trial","66","251875","0.0-18.0-1.11","5519","approach_avoid_sv1","""event"",""trial"",""time""
""fullscreenenter"",""1"",""2630""
","
","
","""event"",""trial"",""time""
""fullscreenenter"",""1"",""2630""
","
","","","","","","1858","images/train8.png","","","memory_trial","3","maybe_new",""
"html-keyboard-response","67","252376","0.0-18.0-0.12","5519","approach_avoid_sv1","""event"",""trial"",""time""
""fullscreenenter"",""1"",""2630""
","
","
","""event"",""trial"",""time""
""fullscreenenter"",""1"",""2630""
","
","","","","","","null","<div style=""font-size:60px;"">+</div>","null","","fixation","","",""
"memory-trial","68","256251","0.0-18.0-1.12","5519","approach_avoid_sv1","""event"",""trial"",""time""
""fullscreenenter"",""1"",""2630""
","
","
","""event"",""trial"",""time""
""fullscreenenter"",""1"",""2630""
","
","","","","","","2871","images/cat5.png","","","memory_trial","2","maybe_old",""
"html-keyboard-response","69","256752","0.0-18.0-0.13","5519","approach_avoid_sv1","""event"",""trial"",""time""
""fullscreenenter"",""1"",""2630""
","
","
","""event"",""trial"",""time""
""fullscreenenter"",""1"",""2630""
","
","","","","","","null","<div style=""font-size:60px;"">+</div>","null","","fixation","","",""
"memory-trial","70","259029","0.0-18.0-1.13","5519","approach_avoid_sv1","""event"",""trial"",""time""
""fullscreenenter"",""1"",""2630""
","
","
","""event"",""trial"",""time""
""fullscreenenter"",""1"",""2630""
","
","","","","","","1274","images/bush1.png","","","memory_trial","3","maybe_new",""
"html-keyboard-response","71","259531","0.0-18.0-0.14","5519","approach_avoid_sv1","""event"",""trial"",""time""
""fullscreenenter"",""1"",""2630""
","
","
","""event"",""trial"",""time""
""fullscreenenter"",""1"",""2630""
","
","","","","","","null","<div style=""font-size:60px;"">+</div>","null","","fixation","","",""
"memory-trial","72","261463","0.0-18.0-1.14","5519","approach_avoid_sv1","""event"",""trial"",""time""
""fullscreenenter"",""1"",""2630""
","
","
","""event"",""trial"",""time""
""fullscreenenter"",""1"",""2630""
","
","","","","","","928.9999999999709","images/goat2.png","","","memory_trial","4","definitely_new",""
"html-keyboard-response","73","261965","0.0-18.0-0.15","5519","approach_avoid_sv1","""event"",""trial"",""time""
""fullscreenenter"",""1"",""2630""
","
","
","""event"",""trial"",""time""
""fullscreenenter"",""1"",""2630""
","
","","","","","","null","<div style=""font-size:60px;"">+</div>","null","","fixation","","",""
"memory-trial","74","264128","0.0-18.0-1.15","5519","approach_avoid_sv1","""event"",""trial"",""time""
""fullscreenenter"",""1"",""2630""
","
","
","""event"",""trial"",""time""
""fullscreenenter"",""1"",""2630""
","
","","","","","","1160","images/cat4.png","","","memory_trial","3","maybe_new",""
"html-keyboard-response","75","264629","0.0-18.0-0.16","5519","approach_avoid_sv1","""event"",""trial"",""time""
""fullscreenenter"",""1"",""2630""
","
","
","""event"",""trial"",""time""
""fullscreenenter"",""1"",""2630""
","
","","","","","","null","<div style=""font-size:60px;"">+</div>","null","","fixation","","",""
"memory-trial","76","266781","0.0-18.0-1.16","5519","approach_avoid_sv1","""event"",""trial"",""time""
""fullscreenenter"",""1"",""2630""
","
","
","""event"",""trial"",""time""
""fullscreenenter"",""1"",""2630""
","
","","","","","","1149.9999999999418","images/straw2.png","","","memory_trial","1","definitely_old",""
"html-keyboard-response","77","267283","0.0-18.0-0.17","5519","approach_avoid_sv1","""event"",""trial"",""time""
""fullscreenenter"",""1"",""2630""
","
","
","""event"",""trial"",""time""
""fullscreenenter"",""1"",""2630""
","
","","","","","","null","<div style=""font-size:60px;"">+</div>","null","","fixation","","",""
"memory-trial","78","269805","0.0-18.0-1.17","5519","approach_avoid_sv1","""event"",""trial"",""time""
""fullscreenenter"",""1"",""2630""
","
","
","""event"",""trial"",""time""
""fullscreenenter"",""1"",""2630""
","
","","","","","","1520","images/horse4.png","","","memory_trial","2","maybe_old",""
"html-keyboard-response","79","270307","0.0-18.0-0.18","5519","approach_avoid_sv1","""event"",""trial"",""time""
""fullscreenenter"",""1"",""2630""
","
","
","""event"",""trial"",""time""
""fullscreenenter"",""1"",""2630""
","
","","","","","","null","<div style=""font-size:60px;"">+</div>","null","","fixation","","",""
"memory-trial","80","274005","0.0-18.0-1.18","5519","approach_avoid_sv1","""event"",""trial"",""time""
""fullscreenenter"",""1"",""2630""
","
","
","""event"",""trial"",""time""
""fullscreenenter"",""1"",""2630""
","
","","","","","","2696","images/banana5.png","","","memory_trial","1","definitely_old",""
"html-keyboard-response","81","274507","0.0-18.0-0.19","5519","approach_avoid_sv1","""event"",""trial"",""time""
""fullscreenenter"",""1"",""2630""
","
","
","""event"",""trial"",""time""
""fullscreenenter"",""1"",""2630""
","
","","","","","","null","<div style=""font-size:60px;"">+</div>","null","","fixation","","",""
"memory-trial","82","277648","0.0-18.0-1.19","5519","approach_avoid_sv1","""event"",""trial"",""time""
""fullscreenenter"",""1"",""2630""
","
","
","""event"",""trial"",""time""
""fullscreenenter"",""1"",""2630""
","
","","","","","","2139","images/apple7.png","","","memory_trial","4","definitely_new",""
"html-keyboard-response","83","278150","0.0-18.0-0.20","5519","approach_avoid_sv1","""event"",""trial"",""time""
""fullscreenenter"",""1"",""2630""
","
","
","""event"",""trial"",""time""
""fullscreenenter"",""1"",""2630""
","
","","","","","","null","<div style=""font-size:60px;"">+</div>","null","","fixation","","",""
"memory-trial","84","280622","0.0-18.0-1.20","5519","approach_avoid_sv1","""event"",""trial"",""time""
""fullscreenenter"",""1"",""2630""
","
","
","""event"",""trial"",""time""
""fullscreenenter"",""1"",""2630""
","
","","","","","","1470","images/goat3.png","","","memory_trial","3","maybe_new",""
"html-keyboard-response","85","281124","0.0-18.0-0.21","5519","approach_avoid_sv1","""event"",""trial"",""time""
""fullscreenenter"",""1"",""2630""
","
","
","""event"",""trial"",""time""
""fullscreenenter"",""1"",""2630""
","
","","","","","","null","<div style=""font-size:60px;"">+</div>","null","","fixation","","",""
"memory-trial","86","284056","0.0-18.0-1.21","5519","approach_avoid_sv1","""event"",""trial"",""time""
""fullscreenenter"",""1"",""2630""
","
","
","""event"",""trial"",""time""
""fullscreenenter"",""1"",""2630""
","
","","","","","","1929","images/tree2.png","","","memory_trial","2","maybe_old",""
"html-keyboard-response","87","284557","0.0-18.0-0.22","5519","approach_avoid_sv1","""event"",""trial"",""time""
""fullscreenenter"",""1"",""2630""
","
","
","""event"",""trial"",""time""
""fullscreenenter"",""1"",""2630""
","
","","","","","","null","<div style=""font-size:60px;"">+</div>","null","","fixation","","",""
"memory-trial","88","287020","0.0-18.0-1.22","5519","approach_avoid_sv1","""event"",""trial"",""time""
""fullscreenenter"",""1"",""2630""
","
","
","""event"",""trial"",""time""
""fullscreenenter"",""1"",""2630""
","
","","","","","","1461","images/table1.png","","","memory_trial","4","definitely_new",""
"html-keyboard-response","89","287522","0.0-18.0-0.23","5519","approach_avoid_sv1","""event"",""trial"",""time""
""fullscreenenter"",""1"",""2630""
","
","
","""event"",""trial"",""time""
""fullscreenenter"",""1"",""2630""
","
","","","","","","null","<div style=""font-size:60px;"">+</div>","null","","fixation","","",""
"memory-trial","90","289580","0.0-18.0-1.23","5519","approach_avoid_sv1","""event"",""trial"",""time""
""fullscreenenter"",""1"",""2630""
","
","
","""event"",""trial"",""time""
""fullscreenenter"",""1"",""2630""
","
","","","","","","1056","images/cactus6.png","","","memory_trial","4","definitely_new",""
"html-keyboard-response","91","290082","0.0-18.0-0.24","5519","approach_avoid_sv1","""event"",""trial"",""time""
""fullscreenenter"",""1"",""2630""
","
","
","""event"",""trial"",""time""
""fullscreenenter"",""1"",""2630""
","
","","","","","","null","<div style=""font-size:60px;"">+</div>","null","","fixation","","",""
"memory-trial","92","292493","0.0-18.0-1.24","5519","approach_avoid_sv1","""event"",""trial"",""time""
""fullscreenenter"",""1"",""2630""
","
","
","""event"",""trial"",""time""
""fullscreenenter"",""1"",""2630""
","
","","","","","","1409","images/dog8.png","","","memory_trial","3","maybe_new",""
"html-keyboard-response","93","292995","0.0-18.0-0.25","5519","approach_avoid_sv1","""event"",""trial"",""time""
""fullscreenenter"",""1"",""2630""
","
","
","""event"",""trial"",""time""
""fullscreenenter"",""1"",""2630""
","
","","","","","","null","<div style=""font-size:60px;"">+</div>","null","","fixation","","",""
"memory-trial","94","295298","0.0-18.0-1.25","5519","approach_avoid_sv1","""event"",""trial"",""time""
""fullscreenenter"",""1"",""2630""
","
","
","""event"",""trial"",""time""
""fullscreenenter"",""1"",""2630""
","
","","","","","","1301","images/apple2.png","","","memory_trial","3","maybe_new",""
"html-keyboard-response","95","295800","0.0-18.0-0.26","5519","approach_avoid_sv1","""event"",""trial"",""time""
""fullscreenenter"",""1"",""2630""
","
","
","""event"",""trial"",""time""
""fullscreenenter"",""1"",""2630""
","
","","","","","","null","<div style=""font-size:60px;"">+</div>","null","","fixation","","",""
"memory-trial","96","298662","0.0-18.0-1.26","5519","approach_avoid_sv1","""event"",""trial"",""time""
""fullscreenenter"",""1"",""2630""
","
","
","""event"",""trial"",""time""
""fullscreenenter"",""1"",""2630""
","
","","","","","","1861","images/cow5.png","","","memory_trial","4","definitely_new",""
"html-keyboard-response","97","299164","0.0-18.0-0.27","5519","approach_avoid_sv1","""event"",""trial"",""time""
""fullscreenenter"",""1"",""2630""
","
","
","""event"",""trial"",""time""
""fullscreenenter"",""1"",""2630""
","
","","","","","","null","<div style=""font-size:60px;"">+</div>","null","","fixation","","",""
"memory-trial","98","301228","0.0-18.0-1.27","5519","approach_avoid_sv1","""event"",""trial"",""time""
""fullscreenenter"",""1"",""2630""
","
","
","""event"",""trial"",""time""
""fullscreenenter"",""1"",""2630""
","
","","","","","","1060","images/bed8.png","","","memory_trial","4","definitely_new",""
"html-keyboard-response","99","301730","0.0-18.0-0.28","5519","approach_avoid_sv1","""event"",""trial"",""time""
""fullscreenenter"",""1"",""2630""
","
","
","""event"",""trial"",""time""
""fullscreenenter"",""1"",""2630""
","
","","","","","","null","<div style=""font-size:60px;"">+</div>","null","","fixation","","",""
"memory-trial","100","304386","0.0-18.0-1.28","5519","approach_avoid_sv1","""event"",""trial"",""time""
""fullscreenenter"",""1"",""2630""
","
","
","""event"",""trial"",""time""
""fullscreenenter"",""1"",""2630""
","
","","","","","","1653.9999999999418","images/orange3.png","","","memory_trial","1","definitely_old",""
"html-keyboard-response","101","304888","0.0-18.0-0.29","5519","approach_avoid_sv1","""event"",""trial"",""time""
""fullscreenenter"",""1"",""2630""
","
","
","""event"",""trial"",""time""
""fullscreenenter"",""1"",""2630""
","
","","","","","","null","<div style=""font-size:60px;"">+</div>","null","","fixation","","",""
"memory-trial","102","307550","0.0-18.0-1.29","5519","approach_avoid_sv1","""event"",""trial"",""time""
""fullscreenenter"",""1"",""2630""
","
","
","""event"",""trial"",""time""
""fullscreenenter"",""1"",""2630""
","
","","","","","","1660","images/truck1.png","","","memory_trial","1","definitely_old",""
"html-keyboard-response","103","308052","0.0-18.0-0.30","5519","approach_avoid_sv1","""event"",""trial"",""time""
""fullscreenenter"",""1"",""2630""
","
","
","""event"",""trial"",""time""
""fullscreenenter"",""1"",""2630""
","
","","","","","","null","<div style=""font-size:60px;"">+</div>","null","","fixation","","",""
"memory-trial","104","310323","0.0-18.0-1.30","5519","approach_avoid_sv1","""event"",""trial"",""time""
""fullscreenenter"",""1"",""2630""
","
","
","""event"",""trial"",""time""
""fullscreenenter"",""1"",""2630""
","
","","","","","","1269","images/tree5.png","","","memory_trial","4","definitely_new",""
"html-keyboard-response","105","310825","0.0-18.0-0.31","5519","approach_avoid_sv1","""event"",""trial"",""time""
""fullscreenenter"",""1"",""2630""
","
","
","""event"",""trial"",""time""
""fullscreenenter"",""1"",""2630""
","
","","","","","","null","<div style=""font-size:60px;"">+</div>","null","","fixation","","",""
"memory-trial","106","313380","0.0-18.0-1.31","5519","approach_avoid_sv1","""event"",""trial"",""time""
""fullscreenenter"",""1"",""2630""
","
","
","""event"",""trial"",""time""
""fullscreenenter"",""1"",""2630""
","
","","","","","","1552","images/rodent4.png","","","memory_trial","2","maybe_old",""
"html-keyboard-response","107","313882","0.0-18.0-0.32","5519","approach_avoid_sv1","""event"",""trial"",""time""
""fullscreenenter"",""1"",""2630""
","
","
","""event"",""trial"",""time""
""fullscreenenter"",""1"",""2630""
","
","","","","","","null","<div style=""font-size:60px;"">+</div>","null","","fixation","","",""
"memory-trial","108","316067","0.0-18.0-1.32","5519","approach_avoid_sv1","""event"",""trial"",""time""
""fullscreenenter"",""1"",""2630""
","
","
","""event"",""trial"",""time""
""fullscreenenter"",""1"",""2630""
","
","","","","","","1183.0000000000582","images/table5.png","","","memory_trial","4","definitely_new",""
"html-keyboard-response","109","316569","0.0-18.0-0.33","5519","approach_avoid_sv1","""event"",""trial"",""time""
""fullscreenenter"",""1"",""2630""
","
","
","""event"",""trial"",""time""
""fullscreenenter"",""1"",""2630""
","
","","","","","","null","<div style=""font-size:60px;"">+</div>","null","","fixation","","",""
"memory-trial","110","319017","0.0-18.0-1.33","5519","approach_avoid_sv1","""event"",""trial"",""time""
""fullscreenenter"",""1"",""2630""
","
","
","""event"",""trial"",""time""
""fullscreenenter"",""1"",""2630""
","
","","","","","","1447","images/apple3.png","","","memory_trial","4","definitely_new",""
"html-keyboard-response","111","319519","0.0-18.0-0.34","5519","approach_avoid_sv1","""event"",""trial"",""time""
""fullscreenenter"",""1"",""2630""
","
","
","""event"",""trial"",""time""
""fullscreenenter"",""1"",""2630""
","
","","","","","","null","<div style=""font-size:60px;"">+</div>","null","","fixation","","",""
"memory-trial","112","324480","0.0-18.0-1.34","5519","approach_avoid_sv1","""event"",""trial"",""time""
""fullscreenenter"",""1"",""2630""
","
","
","""event"",""trial"",""time""
""fullscreenenter"",""1"",""2630""
","
","","","","","","3959","images/boat2.png","","","memory_trial","3","maybe_new",""
"html-keyboard-response","113","324981","0.0-18.0-0.35","5519","approach_avoid_sv1","""event"",""trial"",""time""
""fullscreenenter"",""1"",""2630""
","
","
","""event"",""trial"",""time""
""fullscreenenter"",""1"",""2630""
","
","","","","","","null","<div style=""font-size:60px;"">+</div>","null","","fixation","","",""
"memory-trial","114","327047","0.0-18.0-1.35","5519","approach_avoid_sv1","""event"",""trial"",""time""
""fullscreenenter"",""1"",""2630""
","
","
","""event"",""trial"",""time""
""fullscreenenter"",""1"",""2630""
","
","","","","","","1064","images/chair6.png","","","memory_trial","4","definitely_new",""
"html-keyboard-response","115","327549","0.0-18.0-0.36","5519","approach_avoid_sv1","""event"",""trial"",""time""
""fullscreenenter"",""1"",""2630""
","
","
","""event"",""trial"",""time""
""fullscreenenter"",""1"",""2630""
","
","","","","","","null","<div style=""font-size:60px;"">+</div>","null","","fixation","","",""
"memory-trial","116","329807","0.0-18.0-1.36","5519","approach_avoid_sv1","""event"",""trial"",""time""
""fullscreenenter"",""1"",""2630""
","
","
","""event"",""trial"",""time""
""fullscreenenter"",""1"",""2630""
","
","","","","","","1256","images/table2.png","","","memory_trial","4","definitely_new",""
"html-keyboard-response","117","330309","0.0-18.0-0.37","5519","approach_avoid_sv1","""event"",""trial"",""time""
""fullscreenenter"",""1"",""2630""
","
","
","""event"",""trial"",""time""
""fullscreenenter"",""1"",""2630""
","
","","","","","","null","<div style=""font-size:60px;"">+</div>","null","","fixation","","",""
"memory-trial","118","332923","0.0-18.0-1.37","5519","approach_avoid_sv1","""event"",""trial"",""time""
""fullscreenenter"",""1"",""2630""
","
","
","""event"",""trial"",""time""
""fullscreenenter"",""1"",""2630""
","
","","","","","","1613","images/chair8.png","","","memory_trial","4","definitely_new",""
"html-keyboard-response","119","333425","0.0-18.0-0.38","5519","approach_avoid_sv1","""event"",""trial"",""time""
""fullscreenenter"",""1"",""2630""
","
","
","""event"",""trial"",""time""
""fullscreenenter"",""1"",""2630""
","
","","","","","","null","<div style=""font-size:60px;"">+</div>","null","","fixation","","",""
"memory-trial","120","336110","0.0-18.0-1.38","5519","approach_avoid_sv1","""event"",""trial"",""time""
""fullscreenenter"",""1"",""2630""
","
","
","""event"",""trial"",""time""
""fullscreenenter"",""1"",""2630""
","
","","","","","","1683","images/cat7.png","","","memory_trial","3","maybe_new",""
"html-keyboard-response","121","336612","0.0-18.0-0.39","5519","approach_avoid_sv1","""event"",""trial"",""time""
""fullscreenenter"",""1"",""2630""
","
","
","""event"",""trial"",""time""
""fullscreenenter"",""1"",""2630""
","
","","","","","","null","<div style=""font-size:60px;"">+</div>","null","","fixation","","",""
"memory-trial","122","339342","0.0-18.0-1.39","5519","approach_avoid_sv1","""event"",""trial"",""time""
""fullscreenenter"",""1"",""2630""
","
","
","""event"",""trial"",""time""
""fullscreenenter"",""1"",""2630""
","
","","","","","","1728","images/horse7.png","","","memory_trial","2","maybe_old",""
"html-keyboard-response","123","339845","0.0-18.0-0.40","5519","approach_avoid_sv1","""event"",""trial"",""time""
""fullscreenenter"",""1"",""2630""
","
","
","""event"",""trial"",""time""
""fullscreenenter"",""1"",""2630""
","
","","","","","","null","<div style=""font-size:60px;"">+</div>","null","","fixation","","",""
"memory-trial","124","342138","0.0-18.0-1.40","5519","approach_avoid_sv1","""event"",""trial"",""time""
""fullscreenenter"",""1"",""2630""
","
","
","""event"",""trial"",""time""
""fullscreenenter"",""1"",""2630""
","
","","","","","","1291","images/cat6.png","","","memory_trial","4","definitely_new",""
"html-keyboard-response","125","342640","0.0-18.0-0.41","5519","approach_avoid_sv1","""event"",""trial"",""time""
""fullscreenenter"",""1"",""2630""
","
","
","""event"",""trial"",""time""
""fullscreenenter"",""1"",""2630""
","
","","","","","","null","<div style=""font-size:60px;"">+</div>","null","","fixation","","",""
"memory-trial","126","344846","0.0-18.0-1.41","5519","approach_avoid_sv1","""event"",""trial"",""time""
""fullscreenenter"",""1"",""2630""
","
","
","""event"",""trial"",""time""
""fullscreenenter"",""1"",""2630""
","
","","","","","","1205","images/cow8.png","","","memory_trial","3","maybe_new",""
"html-button-response","127","347245","0.0-18.0-2.41-0.41","5519","approach_avoid_sv1","""event"",""trial"",""time""
""fullscreenenter"",""1"",""2630""
","
","
","""event"",""trial"",""time""
""fullscreenenter"",""1"",""2630""
","
","","","","","","2398","<p> Take a break! </p><p> Click the button to continue. </p>","0","","break","","",""
"html-keyboard-response","128","347746","0.0-18.0-0.42","5519","approach_avoid_sv1","""event"",""trial"",""time""
""fullscreenenter"",""1"",""2630""
","
","
","""event"",""trial"",""time""
""fullscreenenter"",""1"",""2630""
","
","","","","","","null","<div style=""font-size:60px;"">+</div>","null","","fixation","","",""
"memory-trial","129","351086","0.0-18.0-1.42","5519","approach_avoid_sv1","""event"",""trial"",""time""
""fullscreenenter"",""1"",""2630""
","
","
","""event"",""trial"",""time""
""fullscreenenter"",""1"",""2630""
","
","","","","","","2338","images/sofa5.png","","","memory_trial","3","maybe_new",""
"html-keyboard-response","130","351588","0.0-18.0-0.43","5519","approach_avoid_sv1","""event"",""trial"",""time""
""fullscreenenter"",""1"",""2630""
","
","
","""event"",""trial"",""time""
""fullscreenenter"",""1"",""2630""
","
","","","","","","null","<div style=""font-size:60px;"">+</div>","null","","fixation","","",""
"memory-trial","131","354296","0.0-18.0-1.43","5519","approach_avoid_sv1","""event"",""trial"",""time""
""fullscreenenter"",""1"",""2630""
","
","
","""event"",""trial"",""time""
""fullscreenenter"",""1"",""2630""
","
","","","","","","1705","images/bush7.png","","","memory_trial","1","definitely_old",""
"html-keyboard-response","132","354798","0.0-18.0-0.44","5519","approach_avoid_sv1","""event"",""trial"",""time""
""fullscreenenter"",""1"",""2630""
","
","
","""event"",""trial"",""time""
""fullscreenenter"",""1"",""2630""
","
","","","","","","null","<div style=""font-size:60px;"">+</div>","null","","fixation","","",""
"memory-trial","133","357609","0.0-18.0-1.44","5519","approach_avoid_sv1","""event"",""trial"",""time""
""fullscreenenter"",""1"",""2630""
","
","
","""event"",""trial"",""time""
""fullscreenenter"",""1"",""2630""
","
","","","","","","1808.0000000000582","images/cat8.png","","","memory_trial","3","maybe_new",""
"html-keyboard-response","134","358110","0.0-18.0-0.45","5519","approach_avoid_sv1","""event"",""trial"",""time""
""fullscreenenter"",""1"",""2630""
","
","
","""event"",""trial"",""time""
""fullscreenenter"",""1"",""2630""
","
","","","","","","null","<div style=""font-size:60px;"">+</div>","null","","fixation","","",""
"memory-trial","135","360337","0.0-18.0-1.45","5519","approach_avoid_sv1","""event"",""trial"",""time""
""fullscreenenter"",""1"",""2630""
","
","
","""event"",""trial"",""time""
""fullscreenenter"",""1"",""2630""
","
","","","","","","1224","images/horse8.png","","","memory_trial","4","definitely_new",""
"html-keyboard-response","136","360839","0.0-18.0-0.46","5519","approach_avoid_sv1","""event"",""trial"",""time""
""fullscreenenter"",""1"",""2630""
","
","
","""event"",""trial"",""time""
""fullscreenenter"",""1"",""2630""
","
","","","","","","null","<div style=""font-size:60px;"">+</div>","null","","fixation","","",""
"memory-trial","137","363365","0.0-18.0-1.46","5519","approach_avoid_sv1","""event"",""trial"",""time""
""fullscreenenter"",""1"",""2630""
","
","
","""event"",""trial"",""time""
""fullscreenenter"",""1"",""2630""
","
","","","","","","1525.0000000000582","images/train6.png","","","memory_trial","1","definitely_old",""
"html-keyboard-response","138","363866","0.0-18.0-0.47","5519","approach_avoid_sv1","""event"",""trial"",""time""
""fullscreenenter"",""1"",""2630""
","
","
","""event"",""trial"",""time""
""fullscreenenter"",""1"",""2630""
","
","","","","","","null","<div style=""font-size:60px;"">+</div>","null","","fixation","","",""
"memory-trial","139","366661","0.0-18.0-1.47","5519","approach_avoid_sv1","""event"",""trial"",""time""
""fullscreenenter"",""1"",""2630""
","
","
","""event"",""trial"",""time""
""fullscreenenter"",""1"",""2630""
","
","","","","","","1794","images/boat5.png","","","memory_trial","3","maybe_new",""
"html-keyboard-response","140","367163","0.0-18.0-0.48","5519","approach_avoid_sv1","""event"",""trial"",""time""
""fullscreenenter"",""1"",""2630""
","
","
","""event"",""trial"",""time""
""fullscreenenter"",""1"",""2630""
","
","","","","","","null","<div style=""font-size:60px;"">+</div>","null","","fixation","","",""
"memory-trial","141","369761","0.0-18.0-1.48","5519","approach_avoid_sv1","""event"",""trial"",""time""
""fullscreenenter"",""1"",""2630""
","
","
","""event"",""trial"",""time""
""fullscreenenter"",""1"",""2630""
","
","","","","","","1595","images/boat7.png","","","memory_trial","1","definitely_old",""
"html-keyboard-response","142","370262","0.0-18.0-0.49","5519","approach_avoid_sv1","""event"",""trial"",""time""
""fullscreenenter"",""1"",""2630""
","
","
","""event"",""trial"",""time""
""fullscreenenter"",""1"",""2630""
","
","","","","","","null","<div style=""font-size:60px;"">+</div>","null","","fixation","","",""
"memory-trial","143","372745","0.0-18.0-1.49","5519","approach_avoid_sv1","""event"",""trial"",""time""
""fullscreenenter"",""1"",""2630""
","
","
","""event"",""trial"",""time""
""fullscreenenter"",""1"",""2630""
","
","","","","","","1482.0000000000582","images/sofa4.png","","","memory_trial","4","definitely_new",""
"html-keyboard-response","144","373247","0.0-18.0-0.50","5519","approach_avoid_sv1","""event"",""trial"",""time""
""fullscreenenter"",""1"",""2630""
","
","
","""event"",""trial"",""time""
""fullscreenenter"",""1"",""2630""
","
","","","","","","null","<div style=""font-size:60px;"">+</div>","null","","fixation","","",""
"memory-trial","145","375859","0.0-18.0-1.50","5519","approach_avoid_sv1","""event"",""trial"",""time""
""fullscreenenter"",""1"",""2630""
","
","
","""event"",""trial"",""time""
""fullscreenenter"",""1"",""2630""
","
","","","","","","1611","images/horse1.png","","","memory_trial","1","definitely_old",""
"html-keyboard-response","146","376361","0.0-18.0-0.51","5519","approach_avoid_sv1","""event"",""trial"",""time""
""fullscreenenter"",""1"",""2630""
","
","
","""event"",""trial"",""time""
""fullscreenenter"",""1"",""2630""
","
","","","","","","null","<div style=""font-size:60px;"">+</div>","null","","fixation","","",""
"memory-trial","147","379460","0.0-18.0-1.51","5519","approach_avoid_sv1","""event"",""trial"",""time""
""fullscreenenter"",""1"",""2630""
","
","
","""event"",""trial"",""time""
""fullscreenenter"",""1"",""2630""
","
","","","","","","2098","images/rabbit5.png","","","memory_trial","2","maybe_old",""
"html-keyboard-response","148","379962","0.0-18.0-0.52","5519","approach_avoid_sv1","""event"",""trial"",""time""
""fullscreenenter"",""1"",""2630""
","
","
","""event"",""trial"",""time""
""fullscreenenter"",""1"",""2630""
","
","","","","","","null","<div style=""font-size:60px;"">+</div>","null","","fixation","","",""
"memory-trial","149","382005","0.0-18.0-1.52","5519","approach_avoid_sv1","""event"",""trial"",""time""
""fullscreenenter"",""1"",""2630""
","
","
","""event"",""trial"",""time""
""fullscreenenter"",""1"",""2630""
","
","","","","","","1039","images/bush2.png","","","memory_trial","4","definitely_new",""
"html-keyboard-response","150","382508","0.0-18.0-0.53","5519","approach_avoid_sv1","""event"",""trial"",""time""
""fullscreenenter"",""1"",""2630""
","
","
","""event"",""trial"",""time""
""fullscreenenter"",""1"",""2630""
","
","","","","","","null","<div style=""font-size:60px;"">+</div>","null","","fixation","","",""
"memory-trial","151","384493","0.0-18.0-1.53","5519","approach_avoid_sv1","""event"",""trial"",""time""
""fullscreenenter"",""1"",""2630""
","
","
","""event"",""trial"",""time""
""fullscreenenter"",""1"",""2630""
","
","","","","","","982","images/cactus8.png","","","memory_trial","3","maybe_new",""
"html-keyboard-response","152","384994","0.0-18.0-0.54","5519","approach_avoid_sv1","""event"",""trial"",""time""
""fullscreenenter"",""1"",""2630""
","
","
","""event"",""trial"",""time""
""fullscreenenter"",""1"",""2630""
","
","","","","","","null","<div style=""font-size:60px;"">+</div>","null","","fixation","","",""
"memory-trial","153","386844","0.0-18.0-1.54","5519","approach_avoid_sv1","""event"",""trial"",""time""
""fullscreenenter"",""1"",""2630""
","
","
","""event"",""trial"",""time""
""fullscreenenter"",""1"",""2630""
","
","","","","","","848.9999999999418","images/cactus7.png","","","memory_trial","4","definitely_new",""
"html-keyboard-response","154","387346","0.0-18.0-0.55","5519","approach_avoid_sv1","""event"",""trial"",""time""
""fullscreenenter"",""1"",""2630""
","
","
","""event"",""trial"",""time""
""fullscreenenter"",""1"",""2630""
","
","","","","","","null","<div style=""font-size:60px;"">+</div>","null","","fixation","","",""
"memory-trial","155","389330","0.0-18.0-1.55","5519","approach_avoid_sv1","""event"",""trial"",""time""
""fullscreenenter"",""1"",""2630""
","
","
","""event"",""trial"",""time""
""fullscreenenter"",""1"",""2630""
","
","","","","","","982.0000000000582","images/dog3.png","","","memory_trial","4","definitely_new",""
"html-keyboard-response","156","389831","0.0-18.0-0.56","5519","approach_avoid_sv1","""event"",""trial"",""time""
""fullscreenenter"",""1"",""2630""
","
","
","""event"",""trial"",""time""
""fullscreenenter"",""1"",""2630""
","
","","","","","","null","<div style=""font-size:60px;"">+</div>","null","","fixation","","",""
"memory-trial","157","391999","0.0-18.0-1.56","5519","approach_avoid_sv1","""event"",""trial"",""time""
""fullscreenenter"",""1"",""2630""
","
","
","""event"",""trial"",""time""
""fullscreenenter"",""1"",""2630""
","
","","","","","","1165","images/plane4.png","","","memory_trial","3","maybe_new",""
"html-keyboard-response","158","392501","0.0-18.0-0.57","5519","approach_avoid_sv1","""event"",""trial"",""time""
""fullscreenenter"",""1"",""2630""
","
","
","""event"",""trial"",""time""
""fullscreenenter"",""1"",""2630""
","
","","","","","","null","<div style=""font-size:60px;"">+</div>","null","","fixation","","",""
"memory-trial","159","395509","0.0-18.0-1.57","5519","approach_avoid_sv1","""event"",""trial"",""time""
""fullscreenenter"",""1"",""2630""
","
","
","""event"",""trial"",""time""
""fullscreenenter"",""1"",""2630""
","
","","","","","","2005.9999999999418","images/sofa6.png","","","memory_trial","4","definitely_new",""
"html-keyboard-response","160","396011","0.0-18.0-0.58","5519","approach_avoid_sv1","""event"",""trial"",""time""
""fullscreenenter"",""1"",""2630""
","
","
","""event"",""trial"",""time""
""fullscreenenter"",""1"",""2630""
","
","","","","","","null","<div style=""font-size:60px;"">+</div>","null","","fixation","","",""
"memory-trial","161","398364","0.0-18.0-1.58","5519","approach_avoid_sv1","""event"",""trial"",""time""
""fullscreenenter"",""1"",""2630""
","
","
","""event"",""trial"",""time""
""fullscreenenter"",""1"",""2630""
","
","","","","","","1352","images/chair5.png","","","memory_trial","3","maybe_new",""
"html-keyboard-response","162","398866","0.0-18.0-0.59","5519","approach_avoid_sv1","""event"",""trial"",""time""
""fullscreenenter"",""1"",""2630""
","
","
","""event"",""trial"",""time""
""fullscreenenter"",""1"",""2630""
","
","","","","","","null","<div style=""font-size:60px;"">+</div>","null","","fixation","","",""
"memory-trial","163","401340","0.0-18.0-1.59","5519","approach_avoid_sv1","""event"",""trial"",""time""
""fullscreenenter"",""1"",""2630""
","
","
","""event"",""trial"",""time""
""fullscreenenter"",""1"",""2630""
","
","","","","","","1472","images/chair2.png","","","memory_trial","1","definitely_old",""
"html-keyboard-response","164","401842","0.0-18.0-0.60","5519","approach_avoid_sv1","""event"",""trial"",""time""
""fullscreenenter"",""1"",""2630""
","
","
","""event"",""trial"",""time""
""fullscreenenter"",""1"",""2630""
","
","","","","","","null","<div style=""font-size:60px;"">+</div>","null","","fixation","","",""
"memory-trial","165","404162","0.0-18.0-1.60","5519","approach_avoid_sv1","""event"",""trial"",""time""
""fullscreenenter"",""1"",""2630""
","
","
","""event"",""trial"",""time""
""fullscreenenter"",""1"",""2630""
","
","","","","","","1318","images/sheep2.png","","","memory_trial","1","definitely_old",""
"html-keyboard-response","166","404663","0.0-18.0-0.61","5519","approach_avoid_sv1","""event"",""trial"",""time""
""fullscreenenter"",""1"",""2630""
","
","
","""event"",""trial"",""time""
""fullscreenenter"",""1"",""2630""
","
","","","","","","null","<div style=""font-size:60px;"">+</div>","null","","fixation","","",""
"memory-trial","167","407135","0.0-18.0-1.61","5519","approach_avoid_sv1","""event"",""trial"",""time""
""fullscreenenter"",""1"",""2630""
","
","
","""event"",""trial"",""time""
""fullscreenenter"",""1"",""2630""
","
","","","","","","1468","images/apple1.png","","","memory_trial","4","definitely_new",""
"html-keyboard-response","168","407637","0.0-18.0-0.62","5519","approach_avoid_sv1","""event"",""trial"",""time""
""fullscreenenter"",""1"",""2630""
","
","
","""event"",""trial"",""time""
""fullscreenenter"",""1"",""2630""
","
","","","","","","null","<div style=""font-size:60px;"">+</div>","null","","fixation","","",""
"memory-trial","169","409766","0.0-18.0-1.62","5519","approach_avoid_sv1","""event"",""trial"",""time""
""fullscreenenter"",""1"",""2630""
","
","
","""event"",""trial"",""time""
""fullscreenenter"",""1"",""2630""
","
","","","","","","1127","images/straw1.png","","","memory_trial","1","definitely_old",""
"html-keyboard-response","170","410268","0.0-18.0-0.63","5519","approach_avoid_sv1","""event"",""trial"",""time""
""fullscreenenter"",""1"",""2630""
","
","
","""event"",""trial"",""time""
""fullscreenenter"",""1"",""2630""
","
","","","","","","null","<div style=""font-size:60px;"">+</div>","null","","fixation","","",""
"memory-trial","171","412943","0.0-18.0-1.63","5519","approach_avoid_sv1","""event"",""trial"",""time""
""fullscreenenter"",""1"",""2630""
","
","
","""event"",""trial"",""time""
""fullscreenenter"",""1"",""2630""
","
","","","","","","1673","images/boat4.png","","","memory_trial","3","maybe_new",""
"html-keyboard-response","172","413445","0.0-18.0-0.64","5519","approach_avoid_sv1","""event"",""trial"",""time""
""fullscreenenter"",""1"",""2630""
","
","
","""event"",""trial"",""time""
""fullscreenenter"",""1"",""2630""
","
","","","","","","null","<div style=""font-size:60px;"">+</div>","null","","fixation","","",""
"memory-trial","173","416229","0.0-18.0-1.64","5519","approach_avoid_sv1","""event"",""trial"",""time""
""fullscreenenter"",""1"",""2630""
","
","
","""event"",""trial"",""time""
""fullscreenenter"",""1"",""2630""
","
","","","","","","1782.0000000000582","images/banana3.png","","","memory_trial","1","definitely_old",""
"html-keyboard-response","174","416732","0.0-18.0-0.65","5519","approach_avoid_sv1","""event"",""trial"",""time""
""fullscreenenter"",""1"",""2630""
","
","
","""event"",""trial"",""time""
""fullscreenenter"",""1"",""2630""
","
","","","","","","null","<div style=""font-size:60px;"">+</div>","null","","fixation","","",""
"memory-trial","175","419440","0.0-18.0-1.65","5519","approach_avoid_sv1","""event"",""trial"",""time""
""fullscreenenter"",""1"",""2630""
","
","
","""event"",""trial"",""time""
""fullscreenenter"",""1"",""2630""
","
","","","","","","1705.9999999999418","images/flower6.png","","","memory_trial","3","maybe_new",""
"html-keyboard-response","176","419942","0.0-18.0-0.66","5519","approach_avoid_sv1","""event"",""trial"",""time""
""fullscreenenter"",""1"",""2630""
","
","
","""event"",""trial"",""time""
""fullscreenenter"",""1"",""2630""
","
","","","","","","null","<div style=""font-size:60px;"">+</div>","null","","fixation","","",""
"memory-trial","177","423104","0.0-18.0-1.66","5519","approach_avoid_sv1","""event"",""trial"",""time""
""fullscreenenter"",""1"",""2630""
","
","
","""event"",""trial"",""time""
""fullscreenenter"",""1"",""2630""
","
","","","","","","2160.000000000058","images/banana6.png","","","memory_trial","4","definitely_new",""
"html-keyboard-response","178","423606","0.0-18.0-0.67","5519","approach_avoid_sv1","""event"",""trial"",""time""
""fullscreenenter"",""1"",""2630""
","
","
","""event"",""trial"",""time""
""fullscreenenter"",""1"",""2630""
","
","","","","","","null","<div style=""font-size:60px;"">+</div>","null","","fixation","","",""
"memory-trial","179","426088","0.0-18.0-1.67","5519","approach_avoid_sv1","""event"",""trial"",""time""
""fullscreenenter"",""1"",""2630""
","
","
","""event"",""trial"",""time""
""fullscreenenter"",""1"",""2630""
","
","","","","","","1480","images/flower7.png","","","memory_trial","1","definitely_old",""
"html-keyboard-response","180","426590","0.0-18.0-0.68","5519","approach_avoid_sv1","""event"",""trial"",""time""
""fullscreenenter"",""1"",""2630""
","
","
","""event"",""trial"",""time""
""fullscreenenter"",""1"",""2630""
","
","","","","","","null","<div style=""font-size:60px;"">+</div>","null","","fixation","","",""
"memory-trial","181","429636","0.0-18.0-1.68","5519","approach_avoid_sv1","""event"",""trial"",""time""
""fullscreenenter"",""1"",""2630""
","
","
","""event"",""trial"",""time""
""fullscreenenter"",""1"",""2630""
","
","","","","","","2043.9999999999418","images/straw6.png","","","memory_trial","3","maybe_new",""
"html-keyboard-response","182","430138","0.0-18.0-0.69","5519","approach_avoid_sv1","""event"",""trial"",""time""
""fullscreenenter"",""1"",""2630""
","
","
","""event"",""trial"",""time""
""fullscreenenter"",""1"",""2630""
","
","","","","","","null","<div style=""font-size:60px;"">+</div>","null","","fixation","","",""
"memory-trial","183","432080","0.0-18.0-1.69","5519","approach_avoid_sv1","""event"",""trial"",""time""
""fullscreenenter"",""1"",""2630""
","
","
","""event"",""trial"",""time""
""fullscreenenter"",""1"",""2630""
","
","","","","","","938.9999999999418","images/dog5.png","","","memory_trial","3","maybe_new",""
"html-keyboard-response","184","432581","0.0-18.0-0.70","5519","approach_avoid_sv1","""event"",""trial"",""time""
""fullscreenenter"",""1"",""2630""
","
","
","""event"",""trial"",""time""
""fullscreenenter"",""1"",""2630""
","
","","","","","","null","<div style=""font-size:60px;"">+</div>","null","","fixation","","",""
"memory-trial","185","434451","0.0-18.0-1.70","5519","approach_avoid_sv1","""event"",""trial"",""time""
""fullscreenenter"",""1"",""2630""
","
","
","""event"",""trial"",""time""
""fullscreenenter"",""1"",""2630""
","
","","","","","","869","images/chair7.png","","","memory_trial","4","definitely_new",""
"html-keyboard-response","186","434953","0.0-18.0-0.71","5519","approach_avoid_sv1","""event"",""trial"",""time""
""fullscreenenter"",""1"",""2630""
","
","
","""event"",""trial"",""time""
""fullscreenenter"",""1"",""2630""
","
","","","","","","null","<div style=""font-size:60px;"">+</div>","null","","fixation","","",""
"memory-trial","187","436796","0.0-18.0-1.71","5519","approach_avoid_sv1","""event"",""trial"",""time""
""fullscreenenter"",""1"",""2630""
","
","
","""event"",""trial"",""time""
""fullscreenenter"",""1"",""2630""
","
","","","","","","839.9999999999418","images/dog1.png","","","memory_trial","4","definitely_new",""
"html-keyboard-response","188","437298","0.0-18.0-0.72","5519","approach_avoid_sv1","""event"",""trial"",""time""
""fullscreenenter"",""1"",""2630""
","
","
","""event"",""trial"",""time""
""fullscreenenter"",""1"",""2630""
","
","","","","","","null","<div style=""font-size:60px;"">+</div>","null","","fixation","","",""
"memory-trial","189","439408","0.0-18.0-1.72","5519","approach_avoid_sv1","""event"",""trial"",""time""
""fullscreenenter"",""1"",""2630""
","
","
","""event"",""trial"",""time""
""fullscreenenter"",""1"",""2630""
","
","","","","","","1107.0000000000582","images/cat2.png","","","memory_trial","4","definitely_new",""
"html-keyboard-response","190","439909","0.0-18.0-0.73","5519","approach_avoid_sv1","""event"",""trial"",""time""
""fullscreenenter"",""1"",""2630""
","
","
","""event"",""trial"",""time""
""fullscreenenter"",""1"",""2630""
","
","","","","","","null","<div style=""font-size:60px;"">+</div>","null","","fixation","","",""
"memory-trial","191","442467","0.0-18.0-1.73","5519","approach_avoid_sv1","""event"",""trial"",""time""
""fullscreenenter"",""1"",""2630""
","
","
","""event"",""trial"",""time""
""fullscreenenter"",""1"",""2630""
","
","","","","","","1555","images/goat6.png","","","memory_trial","2","maybe_old",""
"html-keyboard-response","192","442967","0.0-18.0-0.74","5519","approach_avoid_sv1","""event"",""trial"",""time""
""fullscreenenter"",""1"",""2630""
","
","
","""event"",""trial"",""time""
""fullscreenenter"",""1"",""2630""
","
","","","","","","null","<div style=""font-size:60px;"">+</div>","null","","fixation","","",""
"memory-trial","193","445187","0.0-18.0-1.74","5519","approach_avoid_sv1","""event"",""trial"",""time""
""fullscreenenter"",""1"",""2630""
","
","
","""event"",""trial"",""time""
""fullscreenenter"",""1"",""2630""
","
","","","","","","1217","images/table7.png","","","memory_trial","3","maybe_new",""
"html-keyboard-response","194","445689","0.0-18.0-0.75","5519","approach_avoid_sv1","""event"",""trial"",""time""
""fullscreenenter"",""1"",""2630""
","
","
","""event"",""trial"",""time""
""fullscreenenter"",""1"",""2630""
","
","","","","","","null","<div style=""font-size:60px;"">+</div>","null","","fixation","","",""
"memory-trial","195","448414","0.0-18.0-1.75","5519","approach_avoid_sv1","""event"",""trial"",""time""
""fullscreenenter"",""1"",""2630""
","
","
","""event"",""trial"",""time""
""fullscreenenter"",""1"",""2630""
","
","","","","","","1723.0000000000582","images/dog6.png","","","memory_trial","1","definitely_old",""
"html-keyboard-response","196","448916","0.0-18.0-0.76","5519","approach_avoid_sv1","""event"",""trial"",""time""
""fullscreenenter"",""1"",""2630""
","
","
","""event"",""trial"",""time""
""fullscreenenter"",""1"",""2630""
","
","","","","","","null","<div style=""font-size:60px;"">+</div>","null","","fixation","","",""
"memory-trial","197","452232","0.0-18.0-1.76","5519","approach_avoid_sv1","""event"",""trial"",""time""
""fullscreenenter"",""1"",""2630""
","
","
","""event"",""trial"",""time""
""fullscreenenter"",""1"",""2630""
","
","","","","","","2313","images/rabbit3.png","","","memory_trial","1","definitely_old",""
"html-keyboard-response","198","452734","0.0-18.0-0.77","5519","approach_avoid_sv1","""event"",""trial"",""time""
""fullscreenenter"",""1"",""2630""
","
","
","""event"",""trial"",""time""
""fullscreenenter"",""1"",""2630""
","
","","","","","","null","<div style=""font-size:60px;"">+</div>","null","","fixation","","",""
"memory-trial","199","454815","0.0-18.0-1.77","5519","approach_avoid_sv1","""event"",""trial"",""time""
""fullscreenenter"",""1"",""2630""
","
","
","""event"",""trial"",""time""
""fullscreenenter"",""1"",""2630""
","
","","","","","","1078","images/goat4.png","","","memory_trial","2","maybe_old",""
"html-keyboard-response","200","455316","0.0-18.0-0.78","5519","approach_avoid_sv1","""event"",""trial"",""time""
""fullscreenenter"",""1"",""2630""
","
","
","""event"",""trial"",""time""
""fullscreenenter"",""1"",""2630""
","
","","","","","","null","<div style=""font-size:60px;"">+</div>","null","","fixation","","",""
"memory-trial","201","457856","0.0-18.0-1.78","5519","approach_avoid_sv1","""event"",""trial"",""time""
""fullscreenenter"",""1"",""2630""
","
","
","""event"",""trial"",""time""
""fullscreenenter"",""1"",""2630""
","
","","","","","","1539","images/sofa2.png","","","memory_trial","4","definitely_new",""
"html-keyboard-response","202","458358","0.0-18.0-0.79","5519","approach_avoid_sv1","""event"",""trial"",""time""
""fullscreenenter"",""1"",""2630""
","
","
","""event"",""trial"",""time""
""fullscreenenter"",""1"",""2630""
","
","","","","","","null","<div style=""font-size:60px;"">+</div>","null","","fixation","","",""
"memory-trial","203","460741","0.0-18.0-1.79","5519","approach_avoid_sv1","""event"",""trial"",""time""
""fullscreenenter"",""1"",""2630""
","
","
","""event"",""trial"",""time""
""fullscreenenter"",""1"",""2630""
","
","","","","","","1381.0000000000582","images/rodent2.png","","","memory_trial","2","maybe_old",""
"html-keyboard-response","204","461243","0.0-18.0-0.80","5519","approach_avoid_sv1","""event"",""trial"",""time""
""fullscreenenter"",""1"",""2630""
","
","
","""event"",""trial"",""time""
""fullscreenenter"",""1"",""2630""
","
","","","","","","null","<div style=""font-size:60px;"">+</div>","null","","fixation","","",""
"memory-trial","205","463861","0.0-18.0-1.80","5519","approach_avoid_sv1","""event"",""trial"",""time""
""fullscreenenter"",""1"",""2630""
","
","
","""event"",""trial"",""time""
""fullscreenenter"",""1"",""2630""
","
","","","","","","1613.9999999999418","images/truck5.png","","","memory_trial","2","maybe_old",""
"html-keyboard-response","206","464364","0.0-18.0-0.81","5519","approach_avoid_sv1","""event"",""trial"",""time""
""fullscreenenter"",""1"",""2630""
","
","
","""event"",""trial"",""time""
""fullscreenenter"",""1"",""2630""
","
","","","","","","null","<div style=""font-size:60px;"">+</div>","null","","fixation","","",""
"memory-trial","207","466369","0.0-18.0-1.81","5519","approach_avoid_sv1","""event"",""trial"",""time""
""fullscreenenter"",""1"",""2630""
","
","
","""event"",""trial"",""time""
""fullscreenenter"",""1"",""2630""
","
","","","","","","1003","images/cactus5.png","","","memory_trial","4","definitely_new",""
"html-keyboard-response","208","466871","0.0-18.0-0.82","5519","approach_avoid_sv1","""event"",""trial"",""time""
""fullscreenenter"",""1"",""2630""
","
","
","""event"",""trial"",""time""
""fullscreenenter"",""1"",""2630""
","
","","","","","","null","<div style=""font-size:60px;"">+</div>","null","","fixation","","",""
"memory-trial","209","470105","0.0-18.0-1.82","5519","approach_avoid_sv1","""event"",""trial"",""time""
""fullscreenenter"",""1"",""2630""
","
","
","""event"",""trial"",""time""
""fullscreenenter"",""1"",""2630""
","
","","","","","","2231.000000000058","images/cow7.png","","","memory_trial","2","maybe_old",""
"html-keyboard-response","210","470606","0.0-18.0-0.83","5519","approach_avoid_sv1","""event"",""trial"",""time""
""fullscreenenter"",""1"",""2630""
","
","
","""event"",""trial"",""time""
""fullscreenenter"",""1"",""2630""
","
","","","","","","null","<div style=""font-size:60px;"">+</div>","null","","fixation","","",""
"memory-trial","211","472491","0.0-18.0-1.83","5519","approach_avoid_sv1","""event"",""trial"",""time""
""fullscreenenter"",""1"",""2630""
","
","
","""event"",""trial"",""time""
""fullscreenenter"",""1"",""2630""
","
","","","","","","883","images/tree3.png","","","memory_trial","1","definitely_old",""
"html-keyboard-response","212","472993","0.0-18.0-0.84","5519","approach_avoid_sv1","""event"",""trial"",""time""
""fullscreenenter"",""1"",""2630""
","
","
","""event"",""trial"",""time""
""fullscreenenter"",""1"",""2630""
","
","","","","","","null","<div style=""font-size:60px;"">+</div>","null","","fixation","","",""
"memory-trial","213","474892","0.0-18.0-1.84","5519","approach_avoid_sv1","""event"",""trial"",""time""
""fullscreenenter"",""1"",""2630""
","
","
","""event"",""trial"",""time""
""fullscreenenter"",""1"",""2630""
","
","","","","","","898","images/train3.png","","","memory_trial","1","definitely_old",""
"html-keyboard-response","214","475394","0.0-18.0-0.85","5519","approach_avoid_sv1","""event"",""trial"",""time""
""fullscreenenter"",""1"",""2630""
","
","
","""event"",""trial"",""time""
""fullscreenenter"",""1"",""2630""
","
","","","","","","null","<div style=""font-size:60px;"">+</div>","null","","fixation","","",""
"memory-trial","215","478144","0.0-18.0-1.85","5519","approach_avoid_sv1","""event"",""trial"",""time""
""fullscreenenter"",""1"",""2630""
","
","
","""event"",""trial"",""time""
""fullscreenenter"",""1"",""2630""
","
","","","","","","1747.9999999999418","images/truck7.png","","","memory_trial","2","maybe_old",""
"html-keyboard-response","216","478646","0.0-18.0-0.86","5519","approach_avoid_sv1","""event"",""trial"",""time""
""fullscreenenter"",""1"",""2630""
","
","
","""event"",""trial"",""time""
""fullscreenenter"",""1"",""2630""
","
","","","","","","null","<div style=""font-size:60px;"">+</div>","null","","fixation","","",""
"memory-trial","217","480864","0.0-18.0-1.86","5519","approach_avoid_sv1","""event"",""trial"",""time""
""fullscreenenter"",""1"",""2630""
","
","
","""event"",""trial"",""time""
""fullscreenenter"",""1"",""2630""
","
","","","","","","1216","images/bush6.png","","","memory_trial","1","definitely_old",""
"html-keyboard-response","218","481366","0.0-18.0-0.87","5519","approach_avoid_sv1","""event"",""trial"",""time""
""fullscreenenter"",""1"",""2630""
","
","
","""event"",""trial"",""time""
""fullscreenenter"",""1"",""2630""
","
","","","","","","null","<div style=""font-size:60px;"">+</div>","null","","fixation","","",""
"memory-trial","219","484084","0.0-18.0-1.87","5519","approach_avoid_sv1","""event"",""trial"",""time""
""fullscreenenter"",""1"",""2630""
","
","
","""event"",""trial"",""time""
""fullscreenenter"",""1"",""2630""
","
","","","","","","1716","images/horse5.png","","","memory_trial","3","maybe_new",""
"html-keyboard-response","220","484585","0.0-18.0-0.88","5519","approach_avoid_sv1","""event"",""trial"",""time""
""fullscreenenter"",""1"",""2630""
","
","
","""event"",""trial"",""time""
""fullscreenenter"",""1"",""2630""
","
","","","","","","null","<div style=""font-size:60px;"">+</div>","null","","fixation","","",""
"memory-trial","221","487874","0.0-18.0-1.88","5519","approach_avoid_sv1","""event"",""trial"",""time""
""fullscreenenter"",""1"",""2630""
","
","
","""event"",""trial"",""time""
""fullscreenenter"",""1"",""2630""
","
","","","","","","2287","images/apple5.png","","","memory_trial","4","definitely_new",""
"html-keyboard-response","222","488376","0.0-18.0-0.89","5519","approach_avoid_sv1","""event"",""trial"",""time""
""fullscreenenter"",""1"",""2630""
","
","
","""event"",""trial"",""time""
""fullscreenenter"",""1"",""2630""
","
","","","","","","null","<div style=""font-size:60px;"">+</div>","null","","fixation","","",""
"memory-trial","223","491378","0.0-18.0-1.89","5519","approach_avoid_sv1","""event"",""trial"",""time""
""fullscreenenter"",""1"",""2630""
","
","
","""event"",""trial"",""time""
""fullscreenenter"",""1"",""2630""
","
","","","","","","2000","images/flower2.png","","","memory_trial","3","maybe_new",""
"html-keyboard-response","224","491880","0.0-18.0-0.90","5519","approach_avoid_sv1","""event"",""trial"",""time""
""fullscreenenter"",""1"",""2630""
","
","
","""event"",""trial"",""time""
""fullscreenenter"",""1"",""2630""
","
","","","","","","null","<div style=""font-size:60px;"">+</div>","null","","fixation","","",""
"memory-trial","225","494813","0.0-18.0-1.90","5519","approach_avoid_sv1","""event"",""trial"",""time""
""fullscreenenter"",""1"",""2630""
","
","
","""event"",""trial"",""time""
""fullscreenenter"",""1"",""2630""
","
","","","","","","1931","images/plane2.png","","","memory_trial","4","definitely_new",""
"html-keyboard-response","226","495316","0.0-18.0-0.91","5519","approach_avoid_sv1","""event"",""trial"",""time""
""fullscreenenter"",""1"",""2630""
","
","
","""event"",""trial"",""time""
""fullscreenenter"",""1"",""2630""
","
","","","","","","null","<div style=""font-size:60px;"">+</div>","null","","fixation","","",""
"memory-trial","227","497705","0.0-18.0-1.91","5519","approach_avoid_sv1","""event"",""trial"",""time""
""fullscreenenter"",""1"",""2630""
","
","
","""event"",""trial"",""time""
""fullscreenenter"",""1"",""2630""
","
","","","","","","1386","images/plane6.png","","","memory_trial","4","definitely_new",""
"html-button-response","228","506436","0.0-18.0-2.91-0.91","5519","approach_avoid_sv1","""event"",""trial"",""time""
""fullscreenenter"",""1"",""2630""
","
","
","""event"",""trial"",""time""
""fullscreenenter"",""1"",""2630""
","
","","","","","","8730","<p> Take a break! </p><p> Click the button to continue. </p>","0","","break","","",""
"html-keyboard-response","229","506938","0.0-18.0-0.92","5519","approach_avoid_sv1","""event"",""trial"",""time""
""fullscreenenter"",""1"",""2630""
","
","
","""event"",""trial"",""time""
""fullscreenenter"",""1"",""2630""
","
","","","","","","null","<div style=""font-size:60px;"">+</div>","null","","fixation","","",""
"memory-trial","230","508970","0.0-18.0-1.92","5519","approach_avoid_sv1","""event"",""trial"",""time""
""fullscreenenter"",""1"",""2630""
","
","
","""event"",""trial"",""time""
""fullscreenenter"",""1"",""2630""
","
","","","","","","1030","images/tree1.png","","","memory_trial","1","definitely_old",""
"html-keyboard-response","231","509472","0.0-18.0-0.93","5519","approach_avoid_sv1","""event"",""trial"",""time""
""fullscreenenter"",""1"",""2630""
","
","
","""event"",""trial"",""time""
""fullscreenenter"",""1"",""2630""
","
","","","","","","null","<div style=""font-size:60px;"">+</div>","null","","fixation","","",""
"memory-trial","232","511585","0.0-18.0-1.93","5519","approach_avoid_sv1","""event"",""trial"",""time""
""fullscreenenter"",""1"",""2630""
","
","
","""event"",""trial"",""time""
""fullscreenenter"",""1"",""2630""
","
","","","","","","1112","images/tree6.png","","","memory_trial","1","definitely_old",""
"html-keyboard-response","233","512087","0.0-18.0-0.94","5519","approach_avoid_sv1","""event"",""trial"",""time""
""fullscreenenter"",""1"",""2630""
","
","
","""event"",""trial"",""time""
""fullscreenenter"",""1"",""2630""
","
","","","","","","null","<div style=""font-size:60px;"">+</div>","null","","fixation","","",""
"memory-trial","234","514191","0.0-18.0-1.94","5519","approach_avoid_sv1","""event"",""trial"",""time""
""fullscreenenter"",""1"",""2630""
","
","
","""event"",""trial"",""time""
""fullscreenenter"",""1"",""2630""
","
","","","","","","1102","images/table3.png","","","memory_trial","4","definitely_new",""
"html-keyboard-response","235","514693","0.0-18.0-0.95","5519","approach_avoid_sv1","""event"",""trial"",""time""
""fullscreenenter"",""1"",""2630""
","
","
","""event"",""trial"",""time""
""fullscreenenter"",""1"",""2630""
","
","","","","","","null","<div style=""font-size:60px;"">+</div>","null","","fixation","","",""
"memory-trial","236","517039","0.0-18.0-1.95","5519","approach_avoid_sv1","""event"",""trial"",""time""
""fullscreenenter"",""1"",""2630""
","
","
","""event"",""trial"",""time""
""fullscreenenter"",""1"",""2630""
","
","","","","","","1342.9999999999418","images/sheep6.png","","","memory_trial","2","maybe_old",""
"html-keyboard-response","237","517540","0.0-18.0-0.96","5519","approach_avoid_sv1","""event"",""trial"",""time""
""fullscreenenter"",""1"",""2630""
","
","
","""event"",""trial"",""time""
""fullscreenenter"",""1"",""2630""
","
","","","","","","null","<div style=""font-size:60px;"">+</div>","null","","fixation","","",""
"memory-trial","238","520703","0.0-18.0-1.96","5519","approach_avoid_sv1","""event"",""trial"",""time""
""fullscreenenter"",""1"",""2630""
","
","
","""event"",""trial"",""time""
""fullscreenenter"",""1"",""2630""
","
","","","","","","2159.999999999942","images/sheep5.png","","","memory_trial","2","maybe_old",""
"html-keyboard-response","239","521204","0.0-18.0-0.97","5519","approach_avoid_sv1","""event"",""trial"",""time""
""fullscreenenter"",""1"",""2630""
","
","
","""event"",""trial"",""time""
""fullscreenenter"",""1"",""2630""
","
","","","","","","null","<div style=""font-size:60px;"">+</div>","null","","fixation","","",""
"memory-trial","240","523644","0.0-18.0-1.97","5519","approach_avoid_sv1","""event"",""trial"",""time""
""fullscreenenter"",""1"",""2630""
","
","
","""event"",""trial"",""time""
""fullscreenenter"",""1"",""2630""
","
","","","","","","1438","images/sheep8.png","","","memory_trial","3","maybe_new",""
"html-keyboard-response","241","524146","0.0-18.0-0.98","5519","approach_avoid_sv1","""event"",""trial"",""time""
""fullscreenenter"",""1"",""2630""
","
","
","""event"",""trial"",""time""
""fullscreenenter"",""1"",""2630""
","
","","","","","","null","<div style=""font-size:60px;"">+</div>","null","","fixation","","",""
"memory-trial","242","527428","0.0-18.0-1.98","5519","approach_avoid_sv1","""event"",""trial"",""time""
""fullscreenenter"",""1"",""2630""
","
","
","""event"",""trial"",""time""
""fullscreenenter"",""1"",""2630""
","
","","","","","","2279","images/dog2.png","","","memory_trial","2","maybe_old",""
"html-keyboard-response","243","527930","0.0-18.0-0.99","5519","approach_avoid_sv1","""event"",""trial"",""time""
""fullscreenenter"",""1"",""2630""
","
","
","""event"",""trial"",""time""
""fullscreenenter"",""1"",""2630""
","
","","","","","","null","<div style=""font-size:60px;"">+</div>","null","","fixation","","",""
"memory-trial","244","530970","0.0-18.0-1.99","5519","approach_avoid_sv1","""event"",""trial"",""time""
""fullscreenenter"",""1"",""2630""
","
","
","""event"",""trial"",""time""
""fullscreenenter"",""1"",""2630""
","
","","","","","","2037","images/bush3.png","","","memory_trial","3","maybe_new",""
"html-keyboard-response","245","531472","0.0-18.0-0.100","5519","approach_avoid_sv1","""event"",""trial"",""time""
""fullscreenenter"",""1"",""2630""
","
","
","""event"",""trial"",""time""
""fullscreenenter"",""1"",""2630""
","
","","","","","","null","<div style=""font-size:60px;"">+</div>","null","","fixation","","",""
"memory-trial","246","534242","0.0-18.0-1.100","5519","approach_avoid_sv1","""event"",""trial"",""time""
""fullscreenenter"",""1"",""2630""
","
","
","""event"",""trial"",""time""
""fullscreenenter"",""1"",""2630""
","
","","","","","","1768","images/bush8.png","","","memory_trial","4","definitely_new",""
"html-keyboard-response","247","534743","0.0-18.0-0.101","5519","approach_avoid_sv1","""event"",""trial"",""time""
""fullscreenenter"",""1"",""2630""
","
","
","""event"",""trial"",""time""
""fullscreenenter"",""1"",""2630""
","
","","","","","","null","<div style=""font-size:60px;"">+</div>","null","","fixation","","",""
"memory-trial","248","537098","0.0-18.0-1.101","5519","approach_avoid_sv1","""event"",""trial"",""time""
""fullscreenenter"",""1"",""2630""
","
","
","""event"",""trial"",""time""
""fullscreenenter"",""1"",""2630""
","
","","","","","","1352","images/rabbit1.png","","","memory_trial","2","maybe_old",""
"html-keyboard-response","249","537599","0.0-18.0-0.102","5519","approach_avoid_sv1","""event"",""trial"",""time""
""fullscreenenter"",""1"",""2630""
","
","
","""event"",""trial"",""time""
""fullscreenenter"",""1"",""2630""
","
","","","","","","null","<div style=""font-size:60px;"">+</div>","null","","fixation","","",""
"memory-trial","250","540420","0.0-18.0-1.102","5519","approach_avoid_sv1","""event"",""trial"",""time""
""fullscreenenter"",""1"",""2630""
","
","
","""event"",""trial"",""time""
""fullscreenenter"",""1"",""2630""
","
","","","","","","1816","images/train1.png","","","memory_trial","2","maybe_old",""
"html-keyboard-response","251","540922","0.0-18.0-0.103","5519","approach_avoid_sv1","""event"",""trial"",""time""
""fullscreenenter"",""1"",""2630""
","
","
","""event"",""trial"",""time""
""fullscreenenter"",""1"",""2630""
","
","","","","","","null","<div style=""font-size:60px;"">+</div>","null","","fixation","","",""
"memory-trial","252","544048","0.0-18.0-1.103","5519","approach_avoid_sv1","""event"",""trial"",""time""
""fullscreenenter"",""1"",""2630""
","
","
","""event"",""trial"",""time""
""fullscreenenter"",""1"",""2630""
","
","","","","","","2124","images/sheep7.png","","","memory_trial","4","definitely_new",""
"html-keyboard-response","253","544550","0.0-18.0-0.104","5519","approach_avoid_sv1","""event"",""trial"",""time""
""fullscreenenter"",""1"",""2630""
","
","
","""event"",""trial"",""time""
""fullscreenenter"",""1"",""2630""
","
","","","","","","null","<div style=""font-size:60px;"">+</div>","null","","fixation","","",""
"memory-trial","254","547088","0.0-18.0-1.104","5519","approach_avoid_sv1","""event"",""trial"",""time""
""fullscreenenter"",""1"",""2630""
","
","
","""event"",""trial"",""time""
""fullscreenenter"",""1"",""2630""
","
","","","","","","1536.0000000001164","images/tree7.png","","","memory_trial","1","definitely_old",""
"html-keyboard-response","255","547590","0.0-18.0-0.105","5519","approach_avoid_sv1","""event"",""trial"",""time""
""fullscreenenter"",""1"",""2630""
","
","
","""event"",""trial"",""time""
""fullscreenenter"",""1"",""2630""
","
","","","","","","null","<div style=""font-size:60px;"">+</div>","null","","fixation","","",""
"memory-trial","256","549652","0.0-18.0-1.105","5519","approach_avoid_sv1","""event"",""trial"",""time""
""fullscreenenter"",""1"",""2630""
","
","
","""event"",""trial"",""time""
""fullscreenenter"",""1"",""2630""
","
","","","","","","1060","images/bed2.png","","","memory_trial","4","definitely_new",""
"html-keyboard-response","257","550154","0.0-18.0-0.106","5519","approach_avoid_sv1","""event"",""trial"",""time""
""fullscreenenter"",""1"",""2630""
","
","
","""event"",""trial"",""time""
""fullscreenenter"",""1"",""2630""
","
","","","","","","null","<div style=""font-size:60px;"">+</div>","null","","fixation","","",""
"memory-trial","258","552022","0.0-18.0-1.106","5519","approach_avoid_sv1","""event"",""trial"",""time""
""fullscreenenter"",""1"",""2630""
","
","
","""event"",""trial"",""time""
""fullscreenenter"",""1"",""2630""
","
","","","","","","865","images/tree4.png","","","memory_trial","1","definitely_old",""
"html-keyboard-response","259","552524","0.0-18.0-0.107","5519","approach_avoid_sv1","""event"",""trial"",""time""
""fullscreenenter"",""1"",""2630""
","
","
","""event"",""trial"",""time""
""fullscreenenter"",""1"",""2630""
","
","","","","","","null","<div style=""font-size:60px;"">+</div>","null","","fixation","","",""
"memory-trial","260","555383","0.0-18.0-1.107","5519","approach_avoid_sv1","""event"",""trial"",""time""
""fullscreenenter"",""1"",""2630""
","
","
","""event"",""trial"",""time""
""fullscreenenter"",""1"",""2630""
","
","","","","","","1858","images/bed1.png","","","memory_trial","2","maybe_old",""
"html-keyboard-response","261","555885","0.0-18.0-0.108","5519","approach_avoid_sv1","""event"",""trial"",""time""
""fullscreenenter"",""1"",""2630""
","
","
","""event"",""trial"",""time""
""fullscreenenter"",""1"",""2630""
","
","","","","","","null","<div style=""font-size:60px;"">+</div>","null","","fixation","","",""
"memory-trial","262","558131","0.0-18.0-1.108","5519","approach_avoid_sv1","""event"",""trial"",""time""
""fullscreenenter"",""1"",""2630""
","
","
","""event"",""trial"",""time""
""fullscreenenter"",""1"",""2630""
","
","","","","","","1243","images/boat1.png","","","memory_trial","4","definitely_new",""
"html-keyboard-response","263","558632","0.0-18.0-0.109","5519","approach_avoid_sv1","""event"",""trial"",""time""
""fullscreenenter"",""1"",""2630""
","
","
","""event"",""trial"",""time""
""fullscreenenter"",""1"",""2630""
","
","","","","","","null","<div style=""font-size:60px;"">+</div>","null","","fixation","","",""
"memory-trial","264","560715","0.0-18.0-1.109","5519","approach_avoid_sv1","""event"",""trial"",""time""
""fullscreenenter"",""1"",""2630""
","
","
","""event"",""trial"",""time""
""fullscreenenter"",""1"",""2630""
","
","","","","","","1082","images/bed7.png","","","memory_trial","4","definitely_new",""
"html-keyboard-response","265","561216","0.0-18.0-0.110","5519","approach_avoid_sv1","""event"",""trial"",""time""
""fullscreenenter"",""1"",""2630""
","
","
","""event"",""trial"",""time""
""fullscreenenter"",""1"",""2630""
","
","","","","","","null","<div style=""font-size:60px;"">+</div>","null","","fixation","","",""
"memory-trial","266","563600","0.0-18.0-1.110","5519","approach_avoid_sv1","""event"",""trial"",""time""
""fullscreenenter"",""1"",""2630""
","
","
","""event"",""trial"",""time""
""fullscreenenter"",""1"",""2630""
","
","","","","","","1382","images/cow6.png","","","memory_trial","3","maybe_new",""
"html-keyboard-response","267","564102","0.0-18.0-0.111","5519","approach_avoid_sv1","""event"",""trial"",""time""
""fullscreenenter"",""1"",""2630""
","
","
","""event"",""trial"",""time""
""fullscreenenter"",""1"",""2630""
","
","","","","","","null","<div style=""font-size:60px;"">+</div>","null","","fixation","","",""
"memory-trial","268","567063","0.0-18.0-1.111","5519","approach_avoid_sv1","""event"",""trial"",""time""
""fullscreenenter"",""1"",""2630""
","
","
","""event"",""trial"",""time""
""fullscreenenter"",""1"",""2630""
","
","","","","","","1959","images/rabbit6.png","","","memory_trial","1","definitely_old",""
"html-keyboard-response","269","567565","0.0-18.0-0.112","5519","approach_avoid_sv1","""event"",""trial"",""time""
""fullscreenenter"",""1"",""2630""
","
","
","""event"",""trial"",""time""
""fullscreenenter"",""1"",""2630""
","
","","","","","","null","<div style=""font-size:60px;"">+</div>","null","","fixation","","",""
"memory-trial","270","571593","0.0-18.0-1.112","5519","approach_avoid_sv1","""event"",""trial"",""time""
""fullscreenenter"",""1"",""2630""
","
","
","""event"",""trial"",""time""
""fullscreenenter"",""1"",""2630""
","
","","","","","","3026","images/rodent6.png","","","memory_trial","1","definitely_old",""
"html-keyboard-response","271","572095","0.0-18.0-0.113","5519","approach_avoid_sv1","""event"",""trial"",""time""
""fullscreenenter"",""1"",""2630""
","
","
","""event"",""trial"",""time""
""fullscreenenter"",""1"",""2630""
","
","","","","","","null","<div style=""font-size:60px;"">+</div>","null","","fixation","","",""
"memory-trial","272","574807","0.0-18.0-1.113","5519","approach_avoid_sv1","""event"",""trial"",""time""
""fullscreenenter"",""1"",""2630""
","
","
","""event"",""trial"",""time""
""fullscreenenter"",""1"",""2630""
","
","","","","","","1709","images/apple6.png","","","memory_trial","3","maybe_new",""
"html-keyboard-response","273","575308","0.0-18.0-0.114","5519","approach_avoid_sv1","""event"",""trial"",""time""
""fullscreenenter"",""1"",""2630""
","
","
","""event"",""trial"",""time""
""fullscreenenter"",""1"",""2630""
","
","","","","","","null","<div style=""font-size:60px;"">+</div>","null","","fixation","","",""
"memory-trial","274","577841","0.0-18.0-1.114","5519","approach_avoid_sv1","""event"",""trial"",""time""
""fullscreenenter"",""1"",""2630""
","
","
","""event"",""trial"",""time""
""fullscreenenter"",""1"",""2630""
","
","","","","","","1530","images/goat8.png","","","memory_trial","3","maybe_new",""
"html-keyboard-response","275","578342","0.0-18.0-0.115","5519","approach_avoid_sv1","""event"",""trial"",""time""
""fullscreenenter"",""1"",""2630""
","
","
","""event"",""trial"",""time""
""fullscreenenter"",""1"",""2630""
","
","","","","","","null","<div style=""font-size:60px;"">+</div>","null","","fixation","","",""
"memory-trial","276","581763","0.0-18.0-1.115","5519","approach_avoid_sv1","""event"",""trial"",""time""
""fullscreenenter"",""1"",""2630""
","
","
","""event"",""trial"",""time""
""fullscreenenter"",""1"",""2630""
","
","","","","","","2419","images/orange8.png","","","memory_trial","4","definitely_new",""
"html-keyboard-response","277","582265","0.0-18.0-0.116","5519","approach_avoid_sv1","""event"",""trial"",""time""
""fullscreenenter"",""1"",""2630""
","
","
","""event"",""trial"",""time""
""fullscreenenter"",""1"",""2630""
","
","","","","","","null","<div style=""font-size:60px;"">+</div>","null","","fixation","","",""
"memory-trial","278","587594","0.0-18.0-1.116","5519","approach_avoid_sv1","""event"",""trial"",""time""
""fullscreenenter"",""1"",""2630""
","
","
","""event"",""trial"",""time""
""fullscreenenter"",""1"",""2630""
","
","","","","","","4326","images/horse6.png","","","memory_trial","3","maybe_new",""
"html-keyboard-response","279","588096","0.0-18.0-0.117","5519","approach_avoid_sv1","""event"",""trial"",""time""
""fullscreenenter"",""1"",""2630""
","
","
","""event"",""trial"",""time""
""fullscreenenter"",""1"",""2630""
","
","","","","","","null","<div style=""font-size:60px;"">+</div>","null","","fixation","","",""
"memory-trial","280","590750","0.0-18.0-1.117","5519","approach_avoid_sv1","""event"",""trial"",""time""
""fullscreenenter"",""1"",""2630""
","
","
","""event"",""trial"",""time""
""fullscreenenter"",""1"",""2630""
","
","","","","","","1652","images/chair4.png","","","memory_trial","4","definitely_new",""
"html-keyboard-response","281","591252","0.0-18.0-0.118","5519","approach_avoid_sv1","""event"",""trial"",""time""
""fullscreenenter"",""1"",""2630""
","
","
","""event"",""trial"",""time""
""fullscreenenter"",""1"",""2630""
","
","","","","","","null","<div style=""font-size:60px;"">+</div>","null","","fixation","","",""
"memory-trial","282","593819","0.0-18.0-1.118","5519","approach_avoid_sv1","""event"",""trial"",""time""
""fullscreenenter"",""1"",""2630""
","
","
","""event"",""trial"",""time""
""fullscreenenter"",""1"",""2630""
","
","","","","","","1565","images/boat3.png","","","memory_trial","4","definitely_new",""
"html-keyboard-response","283","594321","0.0-18.0-0.119","5519","approach_avoid_sv1","""event"",""trial"",""time""
""fullscreenenter"",""1"",""2630""
","
","
","""event"",""trial"",""time""
""fullscreenenter"",""1"",""2630""
","
","","","","","","null","<div style=""font-size:60px;"">+</div>","null","","fixation","","",""
"memory-trial","284","596849","0.0-18.0-1.119","5519","approach_avoid_sv1","""event"",""trial"",""time""
""fullscreenenter"",""1"",""2630""
","
","
","""event"",""trial"",""time""
""fullscreenenter"",""1"",""2630""
","
","","","","","","1525","images/cactus1.png","","","memory_trial","3","maybe_new",""
"html-keyboard-response","285","597350","0.0-18.0-0.120","5519","approach_avoid_sv1","""event"",""trial"",""time""
""fullscreenenter"",""1"",""2630""
","
","
","""event"",""trial"",""time""
""fullscreenenter"",""1"",""2630""
","
","","","","","","null","<div style=""font-size:60px;"">+</div>","null","","fixation","","",""
"memory-trial","286","600006","0.0-18.0-1.120","5519","approach_avoid_sv1","""event"",""trial"",""time""
""fullscreenenter"",""1"",""2630""
","
","
","""event"",""trial"",""time""
""fullscreenenter"",""1"",""2630""
","
","","","","","","1654.0000000001164","images/bed6.png","","","memory_trial","4","definitely_new",""
"html-keyboard-response","287","600508","0.0-18.0-0.121","5519","approach_avoid_sv1","""event"",""trial"",""time""
""fullscreenenter"",""1"",""2630""
","
","
","""event"",""trial"",""time""
""fullscreenenter"",""1"",""2630""
","
","","","","","","null","<div style=""font-size:60px;"">+</div>","null","","fixation","","",""
"memory-trial","288","603654","0.0-18.0-1.121","5519","approach_avoid_sv1","""event"",""trial"",""time""
""fullscreenenter"",""1"",""2630""
","
","
","""event"",""trial"",""time""
""fullscreenenter"",""1"",""2630""
","
","","","","","","2144","images/rodent7.png","","","memory_trial","3","maybe_new",""
"html-keyboard-response","289","604156","0.0-18.0-0.122","5519","approach_avoid_sv1","""event"",""trial"",""time""
""fullscreenenter"",""1"",""2630""
","
","
","""event"",""trial"",""time""
""fullscreenenter"",""1"",""2630""
","
","","","","","","null","<div style=""font-size:60px;"">+</div>","null","","fixation","","",""
"memory-trial","290","606414","0.0-18.0-1.122","5519","approach_avoid_sv1","""event"",""trial"",""time""
""fullscreenenter"",""1"",""2630""
","
","
","""event"",""trial"",""time""
""fullscreenenter"",""1"",""2630""
","
","","","","","","1255","images/cow2.png","","","memory_trial","4","definitely_new",""
"html-keyboard-response","291","606915","0.0-18.0-0.123","5519","approach_avoid_sv1","""event"",""trial"",""time""
""fullscreenenter"",""1"",""2630""
","
","
","""event"",""trial"",""time""
""fullscreenenter"",""1"",""2630""
","
","","","","","","null","<div style=""font-size:60px;"">+</div>","null","","fixation","","",""
"memory-trial","292","609404","0.0-18.0-1.123","5519","approach_avoid_sv1","""event"",""trial"",""time""
""fullscreenenter"",""1"",""2630""
","
","
","""event"",""trial"",""time""
""fullscreenenter"",""1"",""2630""
","
","","","","","","1486","images/flower4.png","","","memory_trial","2","maybe_old",""
"html-keyboard-response","293","609906","0.0-18.0-0.124","5519","approach_avoid_sv1","""event"",""trial"",""time""
""fullscreenenter"",""1"",""2630""
","
","
","""event"",""trial"",""time""
""fullscreenenter"",""1"",""2630""
","
","","","","","","null","<div style=""font-size:60px;"">+</div>","null","","fixation","","",""
"memory-trial","294","611931","0.0-18.0-1.124","5519","approach_avoid_sv1","""event"",""trial"",""time""
""fullscreenenter"",""1"",""2630""
","
","
","""event"",""trial"",""time""
""fullscreenenter"",""1"",""2630""
","
","","","","","","1023","images/rabbit4.png","","","memory_trial","4","definitely_new",""
"html-keyboard-response","295","612432","0.0-18.0-0.125","5519","approach_avoid_sv1","""event"",""trial"",""time""
""fullscreenenter"",""1"",""2630""
","
","
","""event"",""trial"",""time""
""fullscreenenter"",""1"",""2630""
","
","","","","","","null","<div style=""font-size:60px;"">+</div>","null","","fixation","","",""
"memory-trial","296","614692","0.0-18.0-1.125","5519","approach_avoid_sv1","""event"",""trial"",""time""
""fullscreenenter"",""1"",""2630""
","
","
","""event"",""trial"",""time""
""fullscreenenter"",""1"",""2630""
","
","","","","","","1259","images/straw3.png","","","memory_trial","2","maybe_old",""
"html-keyboard-response","297","615194","0.0-18.0-0.126","5519","approach_avoid_sv1","""event"",""trial"",""time""
""fullscreenenter"",""1"",""2630""
","
","
","""event"",""trial"",""time""
""fullscreenenter"",""1"",""2630""
","
","","","","","","null","<div style=""font-size:60px;"">+</div>","null","","fixation","","",""
"memory-trial","298","617395","0.0-18.0-1.126","5519","approach_avoid_sv1","""event"",""trial"",""time""
""fullscreenenter"",""1"",""2630""
","
","
","""event"",""trial"",""time""
""fullscreenenter"",""1"",""2630""
","
","","","","","","1198","images/orange7.png","","","memory_trial","1","definitely_old",""
"html-keyboard-response","299","617896","0.0-18.0-0.127","5519","approach_avoid_sv1","""event"",""trial"",""time""
""fullscreenenter"",""1"",""2630""
","
","
","""event"",""trial"",""time""
""fullscreenenter"",""1"",""2630""
","
","","","","","","null","<div style=""font-size:60px;"">+</div>","null","","fixation","","",""
"memory-trial","300","619760","0.0-18.0-1.127","5519","approach_avoid_sv1","""event"",""trial"",""time""
""fullscreenenter"",""1"",""2630""
","
","
","""event"",""trial"",""time""
""fullscreenenter"",""1"",""2630""
","
","","","","","","860","images/truck4.png","","","memory_trial","1","definitely_old",""
"html-keyboard-response","301","620260","0.0-18.0-0.128","5519","approach_avoid_sv1","""event"",""trial"",""time""
""fullscreenenter"",""1"",""2630""
","
","
","""event"",""trial"",""time""
""fullscreenenter"",""1"",""2630""
