"trial_type","trial_index","time_elapsed","internal_node_id","subject_id","task_version","interactions","blur_events","focus_events","fullscreenenter_events","fullscreenexit_events","success","timeout","failed_images","failed_audio","failed_video","rt","stimulus","response","button_pressed","task_part","key_press","answer","correct"
"pavlovia","0","2","0.0-0.0","4327","approach_avoid_sv1","""event"",""trial"",""time""
""fullscreenenter"",""1"",""1264""
","
","
","""event"",""trial"",""time""
""fullscreenenter"",""1"",""1264""
","
","","","","","","","","","","","","",""
"fullscreen","1","2267","0.0-1.0","4327","approach_avoid_sv1","""event"",""trial"",""time""
""fullscreenenter"",""1"",""1264""
","
","
","""event"",""trial"",""time""
""fullscreenenter"",""1"",""1264""
","
","true","","","","","","","","","","","",""
"preload","2","11409","0.0-2.0","4327","approach_avoid_sv1","""event"",""trial"",""time""
""fullscreenenter"",""1"",""1264""
","
","
","""event"",""trial"",""time""
""fullscreenenter"",""1"",""1264""
","
","true","false","[]","[]","[]","","","","","","","",""
"preload","3","20617","0.0-3.0","4327","approach_avoid_sv1","""event"",""trial"",""time""
""fullscreenenter"",""1"",""1264""
","
","
","""event"",""trial"",""time""
""fullscreenenter"",""1"",""1264""
","
","true","false","[]","[]","[]","","","","","","","",""
"preload","4","21123","0.0-4.0","4327","approach_avoid_sv1","""event"",""trial"",""time""
""fullscreenenter"",""1"",""1264""
","
","
","""event"",""trial"",""time""
""fullscreenenter"",""1"",""1264""
","
","true","false","[]","[]","[]","","","","","","","",""
"audio-keyboard-response","5","24413","0.0-5.0","4327","approach_avoid_sv1","""event"",""trial"",""time""
""fullscreenenter"",""1"",""1264""
","
","
","""event"",""trial"",""time""
""fullscreenenter"",""1"",""1264""
","
","","","","","","3269.3333333333335","audio/beep_loop.wav"," ","","","","",""
"audio-button-response","6","27030","0.0-6.0","4327","approach_avoid_sv1","""event"",""trial"",""time""
""fullscreenenter"",""1"",""1264""
","
","
","""event"",""trial"",""time""
""fullscreenenter"",""1"",""1264""
","
","","","","","","2621","audio/turtle.wav","3","","","","",""
"audio-button-response","7","29910","0.0-7.0","4327","approach_avoid_sv1","""event"",""trial"",""time""
""fullscreenenter"",""1"",""1264""
","
","
","""event"",""trial"",""time""
""fullscreenenter"",""1"",""1264""
","
","","","","","","1861","audio/shark.wav","2","","","","",""
"preload","8","40108","0.0-8.0","4327","approach_avoid_sv1","""event"",""trial"",""time""
""fullscreenenter"",""1"",""1264""
","
","
","""event"",""trial"",""time""
""fullscreenenter"",""1"",""1264""
","
","true","false","[]","[]","[]","","","","","","","",""
"learning-instructions","9","46942","0.0-9.0-0.0","4327","approach_avoid_sv1","""event"",""trial"",""time""
""fullscreenenter"",""1"",""1264""
","
","
","""event"",""trial"",""time""
""fullscreenenter"",""1"",""1264""
","
","","","","","","2361.4000000059605","<p> Welcome back! </p><p> Last week, you had to make choices about lots of different items.  </p>","","0","instructions","","",""
"learning-instructions","10","53638","0.0-9.0-0.1","4327","approach_avoid_sv1","""event"",""trial"",""time""
""fullscreenenter"",""1"",""1264""
","
","
","""event"",""trial"",""time""
""fullscreenenter"",""1"",""1264""
","
","","","","","","2568.600000023842","<p> Today, we are going to ask you to try to remember all the items. </p>","","0","instructions","","",""
"learning-instructions","11","64776","0.0-9.0-0.2","4327","approach_avoid_sv1","""event"",""trial"",""time""
""fullscreenenter"",""1"",""1264""
","
","
","""event"",""trial"",""time""
""fullscreenenter"",""1"",""1264""
","
","","","","","","1006.4000000059605","<p> On every trial, you will see an image. </p><p> The image may be an OLD image you saw during the games last week or it may be a NEW image that was not presented. </p>","","0","instructions","","",""
"learning-instructions","12","74144","0.0-9.0-0.3","4327","approach_avoid_sv1","""event"",""trial"",""time""
""fullscreenenter"",""1"",""1264""
","
","
","""event"",""trial"",""time""
""fullscreenenter"",""1"",""1264""
","
","","","","","","874.5","<p> You need to select whether the image is:  </p><p>  'Definitely old', 'Maybe old', 'Maybe new', or 'Definitely new.'  </p><div class=""mem-choice-instructions-grid""><div class=""choice-option"" id=""choice-option-1"" ><img src=""images/definitely_old_1.png"" id=""choice-option-img-1"" class=""choice-option-img"" stage=""1""></div><div class=""choice-option"" id=""choice-option-2"" ><img src=""images/maybe_old_1.png"" id=""choice-option-img-2"" class=""choice-option-img"" stage=""1""></div><div class=""choice-option"" id=""choice-option-3"" ><img src=""images/maybe_new_1.png"" id=""choice-option-img-3"" class=""choice-option-img"" stage=""1""></div><div class=""choice-option"" id=""choice-option-4"" > <img src=""images/definitely_new_1.png"" id=""choice-option-img-4"" class=""choice-option-img"" stage=""1""></div></div>","","0","instructions","","",""
"learning-instructions","13","81212","0.0-9.0-0.4","4327","approach_avoid_sv1","""event"",""trial"",""time""
""fullscreenenter"",""1"",""1264""
","
","
","""event"",""trial"",""time""
""fullscreenenter"",""1"",""1264""
","
","","","","","","562.1000000238419","<p> You should use the 1, 2, 3, and 4 keys to make your responses.  </p><div class=""mem-choice-instructions-grid""><div class=""choice-option"" id=""choice-option-1"" ><img src=""images/definitely_old.png"" id=""choice-option-img-1"" class=""choice-option-img"" stage=""1""></div><div class=""choice-option"" id=""choice-option-2"" ><img src=""images/maybe_old.png"" id=""choice-option-img-2"" class=""choice-option-img"" stage=""1""></div><div class=""choice-option"" id=""choice-option-3"" ><img src=""images/maybe_new.png"" id=""choice-option-img-3"" class=""choice-option-img"" stage=""1""></div><div class=""choice-option"" id=""choice-option-4"" > <img src=""images/definitely_new.png"" id=""choice-option-img-4"" class=""choice-option-img"" stage=""1""></div></div>","","0","instructions","","",""
"learning-instructions","14","88723","0.0-9.0-0.5","4327","approach_avoid_sv1","""event"",""trial"",""time""
""fullscreenenter"",""1"",""1264""
","
","
","""event"",""trial"",""time""
""fullscreenenter"",""1"",""1264""
","
","","","","","","1173","<p> You will have 10 seconds to make each response.  </p><p>  Make sure to respond before time runs out! </p>","","0","instructions","","",""
"learning-instructions","15","96767","0.0-9.0-0.6","4327","approach_avoid_sv1","""event"",""trial"",""time""
""fullscreenenter"",""1"",""1264""
","
","
","""event"",""trial"",""time""
""fullscreenenter"",""1"",""1264""
","
","","","","","","947.5999999940395","<p> Today, you will see each image ONCE only.  </p><p>  That means none of the images will repeat. </p>","","0","instructions","","",""
"learning-instructions","16","110859","0.0-9.0-0.7","4327","approach_avoid_sv1","""event"",""trial"",""time""
""fullscreenenter"",""1"",""1264""
","
","
","""event"",""trial"",""time""
""fullscreenenter"",""1"",""1264""
","
","","","","","","1419.5999999940395","<p> Before you play the real game, it is time to practice. </p><p>  Just like in the real game, some of the images in the practice will be ones you have seen before. </p><p>  Others will be entirely new. </p>","","0","instructions","","",""
"html-button-response","17","112886","0.0-10.0","4327","approach_avoid_sv1","""event"",""trial"",""time""
""fullscreenenter"",""1"",""1264""
","
","
","""event"",""trial"",""time""
""fullscreenenter"",""1"",""1264""
","
","","","","","","1919.199999988079","<p> Ready to practice? </p><p> Remember, use the 1, 2, 3, and 4 keys to make your responses. </p>","0","","instructions","","",""
"html-keyboard-response","18","113493","0.0-11.0-0.0","4327","approach_avoid_sv1","""event"",""trial"",""time""
""fullscreenenter"",""1"",""1264""
","
","
","""event"",""trial"",""time""
""fullscreenenter"",""1"",""1264""
","
","","","","","","null","<div style=""font-size:60px;"">+</div>","null","","fixation","","",""
"memory-trial","19","116043","0.0-11.0-1.0","4327","approach_avoid_sv1","""event"",""trial"",""time""
""fullscreenenter"",""1"",""1264""
","
","
","""event"",""trial"",""time""
""fullscreenenter"",""1"",""1264""
","
","","","","","","1527.5999999940395","images/ball1.png","","","practice","4","definitely_new",""
"html-keyboard-response","20","116555","0.0-11.0-0.1","4327","approach_avoid_sv1","""event"",""trial"",""time""
""fullscreenenter"",""1"",""1264""
","
","
","""event"",""trial"",""time""
""fullscreenenter"",""1"",""1264""
","
","","","","","","null","<div style=""font-size:60px;"">+</div>","null","","fixation","","",""
"memory-trial","21","119919","0.0-11.0-1.1","4327","approach_avoid_sv1","""event"",""trial"",""time""
""fullscreenenter"",""1"",""1264""
","
","
","""event"",""trial"",""time""
""fullscreenenter"",""1"",""1264""
","
","","","","","","2355.2000000178814","images/racket1.png","","","practice","1","definitely_old",""
"html-keyboard-response","22","120434","0.0-11.0-0.2","4327","approach_avoid_sv1","""event"",""trial"",""time""
""fullscreenenter"",""1"",""1264""
","
","
","""event"",""trial"",""time""
""fullscreenenter"",""1"",""1264""
","
","","","","","","null","<div style=""font-size:60px;"">+</div>","null","","fixation","","",""
"memory-trial","23","122817","0.0-11.0-1.2","4327","approach_avoid_sv1","""event"",""trial"",""time""
""fullscreenenter"",""1"",""1264""
","
","
","""event"",""trial"",""time""
""fullscreenenter"",""1"",""1264""
","
","","","","","","1372.0999999940395","images/racket2.png","","","practice","1","definitely_old",""
"html-keyboard-response","24","123327","0.0-11.0-0.3","4327","approach_avoid_sv1","""event"",""trial"",""time""
""fullscreenenter"",""1"",""1264""
","
","
","""event"",""trial"",""time""
""fullscreenenter"",""1"",""1264""
","
","","","","","","null","<div style=""font-size:60px;"">+</div>","null","","fixation","","",""
"memory-trial","25","125228","0.0-11.0-1.3","4327","approach_avoid_sv1","""event"",""trial"",""time""
""fullscreenenter"",""1"",""1264""
","
","
","""event"",""trial"",""time""
""fullscreenenter"",""1"",""1264""
","
","","","","","","892.5999999940395","images/ball3.png","","","practice","4","definitely_new",""
"html-keyboard-response","26","125739","0.0-11.0-0.4","4327","approach_avoid_sv1","""event"",""trial"",""time""
""fullscreenenter"",""1"",""1264""
","
","
","""event"",""trial"",""time""
""fullscreenenter"",""1"",""1264""
","
","","","","","","null","<div style=""font-size:60px;"">+</div>","null","","fixation","","",""
"memory-trial","27","129378","0.0-11.0-1.4","4327","approach_avoid_sv1","""event"",""trial"",""time""
""fullscreenenter"",""1"",""1264""
","
","
","""event"",""trial"",""time""
""fullscreenenter"",""1"",""1264""
","
","","","","","","2630.800000011921","images/ball2.png","","","practice","2","maybe_old",""
"html-keyboard-response","28","129894","0.0-11.0-0.5","4327","approach_avoid_sv1","""event"",""trial"",""time""
""fullscreenenter"",""1"",""1264""
","
","
","""event"",""trial"",""time""
""fullscreenenter"",""1"",""1264""
","
","","","","","","null","<div style=""font-size:60px;"">+</div>","null","","fixation","","",""
"memory-trial","29","132670","0.0-11.0-1.5","4327","approach_avoid_sv1","""event"",""trial"",""time""
""fullscreenenter"",""1"",""1264""
","
","
","""event"",""trial"",""time""
""fullscreenenter"",""1"",""1264""
","
","","","","","","1763.5999999940395","images/racket3.png","","","practice","4","definitely_new",""
"html-keyboard-response","30","133185","0.0-11.0-0.6","4327","approach_avoid_sv1","""event"",""trial"",""time""
""fullscreenenter"",""1"",""1264""
","
","
","""event"",""trial"",""time""
""fullscreenenter"",""1"",""1264""
","
","","","","","","null","<div style=""font-size:60px;"">+</div>","null","","fixation","","",""
"memory-trial","31","136333","0.0-11.0-1.6","4327","approach_avoid_sv1","""event"",""trial"",""time""
""fullscreenenter"",""1"",""1264""
","
","
","""event"",""trial"",""time""
""fullscreenenter"",""1"",""1264""
","
","","","","","","2127.7999999821186","images/ball5.png","","","practice","3","maybe_new",""
"html-keyboard-response","32","136844","0.0-11.0-0.7","4327","approach_avoid_sv1","""event"",""trial"",""time""
""fullscreenenter"",""1"",""1264""
","
","
","""event"",""trial"",""time""
""fullscreenenter"",""1"",""1264""
","
","","","","","","null","<div style=""font-size:60px;"">+</div>","null","","fixation","","",""
"memory-trial","33","139615","0.0-11.0-1.7","4327","approach_avoid_sv1","""event"",""trial"",""time""
""fullscreenenter"",""1"",""1264""
","
","
","""event"",""trial"",""time""
""fullscreenenter"",""1"",""1264""
","
","","","","","","1761.0999999940395","images/racket5.png","","","practice","2","maybe_old",""
"learning-instructions","34","147801","0.0-12.0-0.0","4327","approach_avoid_sv1","""event"",""trial"",""time""
""fullscreenenter"",""1"",""1264""
","
","
","""event"",""trial"",""time""
""fullscreenenter"",""1"",""1264""
","
","","","","","","870.5","<p> Great! You have completed the practice. </p><p> Before you start, we're going to ask you a few questions about how the game works.  </p>","","0","instructions","","",""
"preload","35","153115","0.0-13.0","4327","approach_avoid_sv1","""event"",""trial"",""time""
""fullscreenenter"",""1"",""1264""
","
","
","""event"",""trial"",""time""
""fullscreenenter"",""1"",""1264""
","
","true","false","[]","[]","[]","","","","","","","",""
"comp-q","36","159863","0.0-14.0-0.0","4327","approach_avoid_sv1","""event"",""trial"",""time""
""fullscreenenter"",""1"",""1264""
","
","
","""event"",""trial"",""time""
""fullscreenenter"",""1"",""1264""
","
","","","","","","922.6000000238419","<p> <b> True or False? </b> </p><p> In this game, you will only see each image once. </p>","","0","comp_question","","","true"
"comp-q","37","167216","0.0-14.0-1.0","4327","approach_avoid_sv1","""event"",""trial"",""time""
""fullscreenenter"",""1"",""1264""
","
","
","""event"",""trial"",""time""
""fullscreenenter"",""1"",""1264""
","
","","","","","","1015.2000000178814","<p> <b> That's right! </b> You will see many different images <i> one time each </i> in this game. </p>","","0","comp_answer","","",""
"comp-q","38","172854","0.0-15.0-0.0","4327","approach_avoid_sv1","""event"",""trial"",""time""
""fullscreenenter"",""1"",""1264""
","
","
","""event"",""trial"",""time""
""fullscreenenter"",""1"",""1264""
","
","","","","","","633.6999999880791","<p> <b> True or False? </b> </p><p> You should use the mouse and click to make your response. </p>","","1","comp_question","","","true"
"comp-q","39","185653","0.0-15.0-1.0","4327","approach_avoid_sv1","""event"",""trial"",""time""
""fullscreenenter"",""1"",""1264""
","
","
","""event"",""trial"",""time""
""fullscreenenter"",""1"",""1264""
","
","","","","","","6292.300000011921","<p><b> That's right! </b> You should use the '1', '2', '3', and '4' keys to make your response. </p>","","0","comp_answer","","",""
"comp-q","40","225134","0.0-16.0-0.0","4327","approach_avoid_sv1","""event"",""trial"",""time""
""fullscreenenter"",""1"",""1264""
","
","
","""event"",""trial"",""time""
""fullscreenenter"",""1"",""1264""
","
","","","","","","33812.90000000596","<p> <b> True or False? </b> </p><p> You will have as much time as you want to make each choice. </p>","","1","comp_question","","","true"
"comp-q","41","234605","0.0-16.0-1.0","4327","approach_avoid_sv1","""event"",""trial"",""time""
""fullscreenenter"",""1"",""1264""
","
","
","""event"",""trial"",""time""
""fullscreenenter"",""1"",""1264""
","
","","","","","","4755.4000000059605","<p> <b> That's right! </b> You will only have 10 seconds to make each choice. </p>","","0","comp_answer","","",""
"learning-instructions","42","256176","0.0-17.0","4327","approach_avoid_sv1","""event"",""trial"",""time""
""fullscreenenter"",""1"",""1264""
","
","
","""event"",""trial"",""time""
""fullscreenenter"",""1"",""1264""
","
","","","","","","12897.300000011921","<p> Great! You are now ready to begin the game. </p><p> Remember, use the 1, 2, 3, and 4 keys to make your responses. </p>","","0","instructions","","",""
"html-keyboard-response","43","256790","0.0-18.0-0.0","4327","approach_avoid_sv1","""event"",""trial"",""time""
""fullscreenenter"",""1"",""1264""
","
","
","""event"",""trial"",""time""
""fullscreenenter"",""1"",""1264""
","
","","","","","","null","<div style=""font-size:60px;"">+</div>","null","","fixation","","",""
"memory-trial","44","259633","0.0-18.0-1.0","4327","approach_avoid_sv1","""event"",""trial"",""time""
""fullscreenenter"",""1"",""1264""
","
","
","""event"",""trial"",""time""
""fullscreenenter"",""1"",""1264""
","
","","","","","","1835.5999999940395","images/goat6.png","","","memory_trial","2","maybe_old",""
"html-keyboard-response","45","260143","0.0-18.0-0.1","4327","approach_avoid_sv1","""event"",""trial"",""time""
""fullscreenenter"",""1"",""1264""
","
","
","""event"",""trial"",""time""
""fullscreenenter"",""1"",""1264""
","
","","","","","","null","<div style=""font-size:60px;"">+</div>","null","","fixation","","",""
"memory-trial","46","262581","0.0-18.0-1.1","4327","approach_avoid_sv1","""event"",""trial"",""time""
""fullscreenenter"",""1"",""1264""
","
","
","""event"",""trial"",""time""
""fullscreenenter"",""1"",""1264""
","
","","","","","","1426.9000000059605","images/rabbit8.png","","","memory_trial","1","definitely_old",""
"html-keyboard-response","47","263098","0.0-18.0-0.2","4327","approach_avoid_sv1","""event"",""trial"",""time""
""fullscreenenter"",""1"",""1264""
","
","
","""event"",""trial"",""time""
""fullscreenenter"",""1"",""1264""
","
","","","","","","null","<div style=""font-size:60px;"">+</div>","null","","fixation","","",""
"memory-trial","48","266461","0.0-18.0-1.2","4327","approach_avoid_sv1","""event"",""trial"",""time""
""fullscreenenter"",""1"",""1264""
","
","
","""event"",""trial"",""time""
""fullscreenenter"",""1"",""1264""
","
","","","","","","2339","images/straw8.png","","","memory_trial","4","definitely_new",""
"html-keyboard-response","49","266975","0.0-18.0-0.3","4327","approach_avoid_sv1","""event"",""trial"",""time""
""fullscreenenter"",""1"",""1264""
","
","
","""event"",""trial"",""time""
""fullscreenenter"",""1"",""1264""
","
","","","","","","null","<div style=""font-size:60px;"">+</div>","null","","fixation","","",""
"memory-trial","50","268967","0.0-18.0-1.3","4327","approach_avoid_sv1","""event"",""trial"",""time""
""fullscreenenter"",""1"",""1264""
","
","
","""event"",""trial"",""time""
""fullscreenenter"",""1"",""1264""
","
","","","","","","981.6999999880791","images/horse4.png","","","memory_trial","1","definitely_old",""
"html-keyboard-response","51","269485","0.0-18.0-0.4","4327","approach_avoid_sv1","""event"",""trial"",""time""
""fullscreenenter"",""1"",""1264""
","
","
","""event"",""trial"",""time""
""fullscreenenter"",""1"",""1264""
","
","","","","","","null","<div style=""font-size:60px;"">+</div>","null","","fixation","","",""
"memory-trial","52","272682","0.0-18.0-1.4","4327","approach_avoid_sv1","""event"",""trial"",""time""
""fullscreenenter"",""1"",""1264""
","
","
","""event"",""trial"",""time""
""fullscreenenter"",""1"",""1264""
","
","","","","","","2190.399999976158","images/bush7.png","","","memory_trial","1","definitely_old",""
"html-keyboard-response","53","273197","0.0-18.0-0.5","4327","approach_avoid_sv1","""event"",""trial"",""time""
""fullscreenenter"",""1"",""1264""
","
","
","""event"",""trial"",""time""
""fullscreenenter"",""1"",""1264""
","
","","","","","","null","<div style=""font-size:60px;"">+</div>","null","","fixation","","",""
"memory-trial","54","275640","0.0-18.0-1.5","4327","approach_avoid_sv1","""event"",""trial"",""time""
""fullscreenenter"",""1"",""1264""
","
","
","""event"",""trial"",""time""
""fullscreenenter"",""1"",""1264""
","
","","","","","","1436","images/banana4.png","","","memory_trial","1","definitely_old",""
"html-keyboard-response","55","276143","0.0-18.0-0.6","4327","approach_avoid_sv1","""event"",""trial"",""time""
""fullscreenenter"",""1"",""1264""
","
","
","""event"",""trial"",""time""
""fullscreenenter"",""1"",""1264""
","
","","","","","","null","<div style=""font-size:60px;"">+</div>","null","","fixation","","",""
"memory-trial","56","278103","0.0-18.0-1.6","4327","approach_avoid_sv1","""event"",""trial"",""time""
""fullscreenenter"",""1"",""1264""
","
","
","""event"",""trial"",""time""
""fullscreenenter"",""1"",""1264""
","
","","","","","","956.9000000059605","images/cactus1.png","","","memory_trial","1","definitely_old",""
"html-keyboard-response","57","278607","0.0-18.0-0.7","4327","approach_avoid_sv1","""event"",""trial"",""time""
""fullscreenenter"",""1"",""1264""
","
","
","""event"",""trial"",""time""
""fullscreenenter"",""1"",""1264""
","
","","","","","","null","<div style=""font-size:60px;"">+</div>","null","","fixation","","",""
"memory-trial","58","281459","0.0-18.0-1.7","4327","approach_avoid_sv1","""event"",""trial"",""time""
""fullscreenenter"",""1"",""1264""
","
","
","""event"",""trial"",""time""
""fullscreenenter"",""1"",""1264""
","
","","","","","","1831.9000000059605","images/cactus7.png","","","memory_trial","3","maybe_new",""
"html-keyboard-response","59","281966","0.0-18.0-0.8","4327","approach_avoid_sv1","""event"",""trial"",""time""
""fullscreenenter"",""1"",""1264""
","
","
","""event"",""trial"",""time""
""fullscreenenter"",""1"",""1264""
","
","","","","","","null","<div style=""font-size:60px;"">+</div>","null","","fixation","","",""
"memory-trial","60","285111","0.0-18.0-1.8","4327","approach_avoid_sv1","""event"",""trial"",""time""
""fullscreenenter"",""1"",""1264""
","
","
","""event"",""trial"",""time""
""fullscreenenter"",""1"",""1264""
","
","","","","","","2127.5999999940395","images/sofa5.png","","","memory_trial","2","maybe_old",""
"html-keyboard-response","61","285614","0.0-18.0-0.9","4327","approach_avoid_sv1","""event"",""trial"",""time""
""fullscreenenter"",""1"",""1264""
","
","
","""event"",""trial"",""time""
""fullscreenenter"",""1"",""1264""
","
","","","","","","null","<div style=""font-size:60px;"">+</div>","null","","fixation","","",""
"memory-trial","62","288101","0.0-18.0-1.9","4327","approach_avoid_sv1","""event"",""trial"",""time""
""fullscreenenter"",""1"",""1264""
","
","
","""event"",""trial"",""time""
""fullscreenenter"",""1"",""1264""
","
","","","","","","1471.5999999940395","images/goat3.png","","","memory_trial","2","maybe_old",""
"html-keyboard-response","63","288612","0.0-18.0-0.10","4327","approach_avoid_sv1","""event"",""trial"",""time""
""fullscreenenter"",""1"",""1264""
","
","
","""event"",""trial"",""time""
""fullscreenenter"",""1"",""1264""
","
","","","","","","null","<div style=""font-size:60px;"">+</div>","null","","fixation","","",""
"memory-trial","64","291775","0.0-18.0-1.10","4327","approach_avoid_sv1","""event"",""trial"",""time""
""fullscreenenter"",""1"",""1264""
","
","
","""event"",""trial"",""time""
""fullscreenenter"",""1"",""1264""
","
","","","","","","2161","images/boat5.png","","","memory_trial","3","maybe_new",""
"html-keyboard-response","65","292278","0.0-18.0-0.11","4327","approach_avoid_sv1","""event"",""trial"",""time""
""fullscreenenter"",""1"",""1264""
","
","
","""event"",""trial"",""time""
""fullscreenenter"",""1"",""1264""
","
","","","","","","null","<div style=""font-size:60px;"">+</div>","null","","fixation","","",""
"memory-trial","66","294792","0.0-18.0-1.11","4327","approach_avoid_sv1","""event"",""trial"",""time""
""fullscreenenter"",""1"",""1264""
","
","
","""event"",""trial"",""time""
""fullscreenenter"",""1"",""1264""
","
","","","","","","1505.2999999821186","images/cactus6.png","","","memory_trial","3","maybe_new",""
"html-keyboard-response","67","295294","0.0-18.0-0.12","4327","approach_avoid_sv1","""event"",""trial"",""time""
""fullscreenenter"",""1"",""1264""
","
","
","""event"",""trial"",""time""
""fullscreenenter"",""1"",""1264""
","
","","","","","","null","<div style=""font-size:60px;"">+</div>","null","","fixation","","",""
"memory-trial","68","297190","0.0-18.0-1.12","4327","approach_avoid_sv1","""event"",""trial"",""time""
""fullscreenenter"",""1"",""1264""
","
","
","""event"",""trial"",""time""
""fullscreenenter"",""1"",""1264""
","
","","","","","","891","images/rabbit2.png","","","memory_trial","1","definitely_old",""
"html-keyboard-response","69","297709","0.0-18.0-0.13","4327","approach_avoid_sv1","""event"",""trial"",""time""
""fullscreenenter"",""1"",""1264""
","
","
","""event"",""trial"",""time""
""fullscreenenter"",""1"",""1264""
","
","","","","","","null","<div style=""font-size:60px;"">+</div>","null","","fixation","","",""
"memory-trial","70","300127","0.0-18.0-1.13","4327","approach_avoid_sv1","""event"",""trial"",""time""
""fullscreenenter"",""1"",""1264""
","
","
","""event"",""trial"",""time""
""fullscreenenter"",""1"",""1264""
","
","","","","","","1410.9000000059605","images/cactus5.png","","","memory_trial","1","definitely_old",""
"html-keyboard-response","71","300630","0.0-18.0-0.14","4327","approach_avoid_sv1","""event"",""trial"",""time""
""fullscreenenter"",""1"",""1264""
","
","
","""event"",""trial"",""time""
""fullscreenenter"",""1"",""1264""
","
","","","","","","null","<div style=""font-size:60px;"">+</div>","null","","fixation","","",""
"memory-trial","72","302487","0.0-18.0-1.14","4327","approach_avoid_sv1","""event"",""trial"",""time""
""fullscreenenter"",""1"",""1264""
","
","
","""event"",""trial"",""time""
""fullscreenenter"",""1"",""1264""
","
","","","","","","846.9000000059605","images/train5.png","","","memory_trial","1","definitely_old",""
"html-keyboard-response","73","302991","0.0-18.0-0.15","4327","approach_avoid_sv1","""event"",""trial"",""time""
""fullscreenenter"",""1"",""1264""
","
","
","""event"",""trial"",""time""
""fullscreenenter"",""1"",""1264""
","
","","","","","","null","<div style=""font-size:60px;"">+</div>","null","","fixation","","",""
"memory-trial","74","306630","0.0-18.0-1.15","4327","approach_avoid_sv1","""event"",""trial"",""time""
""fullscreenenter"",""1"",""1264""
","
","
","""event"",""trial"",""time""
""fullscreenenter"",""1"",""1264""
","
","","","","","","2631.7999999821186","images/cat7.png","","","memory_trial","3","maybe_new",""
"html-keyboard-response","75","307134","0.0-18.0-0.16","4327","approach_avoid_sv1","""event"",""trial"",""time""
""fullscreenenter"",""1"",""1264""
","
","
","""event"",""trial"",""time""
""fullscreenenter"",""1"",""1264""
","
","","","","","","null","<div style=""font-size:60px;"">+</div>","null","","fixation","","",""
"memory-trial","76","310687","0.0-18.0-1.16","4327","approach_avoid_sv1","""event"",""trial"",""time""
""fullscreenenter"",""1"",""1264""
","
","
","""event"",""trial"",""time""
""fullscreenenter"",""1"",""1264""
","
","","","","","","2548.0999999940395","images/straw7.png","","","memory_trial","4","definitely_new",""
"html-keyboard-response","77","311191","0.0-18.0-0.17","4327","approach_avoid_sv1","""event"",""trial"",""time""
""fullscreenenter"",""1"",""1264""
","
","
","""event"",""trial"",""time""
""fullscreenenter"",""1"",""1264""
","
","","","","","","null","<div style=""font-size:60px;"">+</div>","null","","fixation","","",""
"memory-trial","78","313687","0.0-18.0-1.17","4327","approach_avoid_sv1","""event"",""trial"",""time""
""fullscreenenter"",""1"",""1264""
","
","
","""event"",""trial"",""time""
""fullscreenenter"",""1"",""1264""
","
","","","","","","1492.300000011921","images/plane4.png","","","memory_trial","4","definitely_new",""
"html-keyboard-response","79","314190","0.0-18.0-0.18","4327","approach_avoid_sv1","""event"",""trial"",""time""
""fullscreenenter"",""1"",""1264""
","
","
","""event"",""trial"",""time""
""fullscreenenter"",""1"",""1264""
","
","","","","","","null","<div style=""font-size:60px;"">+</div>","null","","fixation","","",""
"memory-trial","80","316135","0.0-18.0-1.18","4327","approach_avoid_sv1","""event"",""trial"",""time""
""fullscreenenter"",""1"",""1264""
","
","
","""event"",""trial"",""time""
""fullscreenenter"",""1"",""1264""
","
","","","","","","938.5","images/truck6.png","","","memory_trial","4","definitely_new",""
"html-keyboard-response","81","316639","0.0-18.0-0.19","4327","approach_avoid_sv1","""event"",""trial"",""time""
""fullscreenenter"",""1"",""1264""
","
","
","""event"",""trial"",""time""
""fullscreenenter"",""1"",""1264""
","
","","","","","","null","<div style=""font-size:60px;"">+</div>","null","","fixation","","",""
"memory-trial","82","320056","0.0-18.0-1.19","4327","approach_avoid_sv1","""event"",""trial"",""time""
""fullscreenenter"",""1"",""1264""
","
","
","""event"",""trial"",""time""
""fullscreenenter"",""1"",""1264""
","
","","","","","","2409.699999988079","images/cow3.png","","","memory_trial","3","maybe_new",""
"html-keyboard-response","83","320559","0.0-18.0-0.20","4327","approach_avoid_sv1","""event"",""trial"",""time""
""fullscreenenter"",""1"",""1264""
","
","
","""event"",""trial"",""time""
""fullscreenenter"",""1"",""1264""
","
","","","","","","null","<div style=""font-size:60px;"">+</div>","null","","fixation","","",""
"memory-trial","84","323207","0.0-18.0-1.20","4327","approach_avoid_sv1","""event"",""trial"",""time""
""fullscreenenter"",""1"",""1264""
","
","
","""event"",""trial"",""time""
""fullscreenenter"",""1"",""1264""
","
","","","","","","1641.300000011921","images/tree2.png","","","memory_trial","3","maybe_new",""
"html-keyboard-response","85","323712","0.0-18.0-0.21","4327","approach_avoid_sv1","""event"",""trial"",""time""
""fullscreenenter"",""1"",""1264""
","
","
","""event"",""trial"",""time""
""fullscreenenter"",""1"",""1264""
","
","","","","","","null","<div style=""font-size:60px;"">+</div>","null","","fixation","","",""
"memory-trial","86","326024","0.0-18.0-1.21","4327","approach_avoid_sv1","""event"",""trial"",""time""
""fullscreenenter"",""1"",""1264""
","
","
","""event"",""trial"",""time""
""fullscreenenter"",""1"",""1264""
","
","","","","","","1308.5","images/sheep4.png","","","memory_trial","2","maybe_old",""
"html-keyboard-response","87","326541","0.0-18.0-0.22","4327","approach_avoid_sv1","""event"",""trial"",""time""
""fullscreenenter"",""1"",""1264""
","
","
","""event"",""trial"",""time""
""fullscreenenter"",""1"",""1264""
","
","","","","","","null","<div style=""font-size:60px;"">+</div>","null","","fixation","","",""
"memory-trial","88","329103","0.0-18.0-1.22","4327","approach_avoid_sv1","""event"",""trial"",""time""
""fullscreenenter"",""1"",""1264""
","
","
","""event"",""trial"",""time""
""fullscreenenter"",""1"",""1264""
","
","","","","","","1556.2999999821186","images/train7.png","","","memory_trial","2","maybe_old",""
"html-keyboard-response","89","329607","0.0-18.0-0.23","4327","approach_avoid_sv1","""event"",""trial"",""time""
""fullscreenenter"",""1"",""1264""
","
","
","""event"",""trial"",""time""
""fullscreenenter"",""1"",""1264""
","
","","","","","","null","<div style=""font-size:60px;"">+</div>","null","","fixation","","",""
"memory-trial","90","331344","0.0-18.0-1.23","4327","approach_avoid_sv1","""event"",""trial"",""time""
""fullscreenenter"",""1"",""1264""
","
","
","""event"",""trial"",""time""
""fullscreenenter"",""1"",""1264""
","
","","","","","","733.4000000059605","images/sheep6.png","","","memory_trial","1","definitely_old",""
"html-keyboard-response","91","331861","0.0-18.0-0.24","4327","approach_avoid_sv1","""event"",""trial"",""time""
""fullscreenenter"",""1"",""1264""
","
","
","""event"",""trial"",""time""
""fullscreenenter"",""1"",""1264""
","
","","","","","","null","<div style=""font-size:60px;"">+</div>","null","","fixation","","",""
"memory-trial","92","333928","0.0-18.0-1.24","4327","approach_avoid_sv1","""event"",""trial"",""time""
""fullscreenenter"",""1"",""1264""
","
","
","""event"",""trial"",""time""
""fullscreenenter"",""1"",""1264""
","
","","","","","","1064.199999988079","images/sofa4.png","","","memory_trial","2","maybe_old",""
"html-keyboard-response","93","334440","0.0-18.0-0.25","4327","approach_avoid_sv1","""event"",""trial"",""time""
""fullscreenenter"",""1"",""1264""
","
","
","""event"",""trial"",""time""
""fullscreenenter"",""1"",""1264""
","
","","","","","","null","<div style=""font-size:60px;"">+</div>","null","","fixation","","",""
"memory-trial","94","336456","0.0-18.0-1.25","4327","approach_avoid_sv1","""event"",""trial"",""time""
""fullscreenenter"",""1"",""1264""
","
","
","""event"",""trial"",""time""
""fullscreenenter"",""1"",""1264""
","
","","","","","","1009.4000000059605","images/plane2.png","","","memory_trial","1","definitely_old",""
"html-keyboard-response","95","336960","0.0-18.0-0.26","4327","approach_avoid_sv1","""event"",""trial"",""time""
""fullscreenenter"",""1"",""1264""
","
","
","""event"",""trial"",""time""
""fullscreenenter"",""1"",""1264""
","
","","","","","","null","<div style=""font-size:60px;"">+</div>","null","","fixation","","",""
"memory-trial","96","339590","0.0-18.0-1.26","4327","approach_avoid_sv1","""event"",""trial"",""time""
""fullscreenenter"",""1"",""1264""
","
","
","""event"",""trial"",""time""
""fullscreenenter"",""1"",""1264""
","
","","","","","","1619.800000011921","images/sheep5.png","","","memory_trial","3","maybe_new",""
"html-keyboard-response","97","340104","0.0-18.0-0.27","4327","approach_avoid_sv1","""event"",""trial"",""time""
""fullscreenenter"",""1"",""1264""
","
","
","""event"",""trial"",""time""
""fullscreenenter"",""1"",""1264""
","
","","","","","","null","<div style=""font-size:60px;"">+</div>","null","","fixation","","",""
"memory-trial","98","342905","0.0-18.0-1.27","4327","approach_avoid_sv1","""event"",""trial"",""time""
""fullscreenenter"",""1"",""1264""
","
","
","""event"",""trial"",""time""
""fullscreenenter"",""1"",""1264""
","
","","","","","","1798.7999999821186","images/orange1.png","","","memory_trial","1","definitely_old",""
"html-keyboard-response","99","343408","0.0-18.0-0.28","4327","approach_avoid_sv1","""event"",""trial"",""time""
""fullscreenenter"",""1"",""1264""
","
","
","""event"",""trial"",""time""
""fullscreenenter"",""1"",""1264""
","
","","","","","","null","<div style=""font-size:60px;"">+</div>","null","","fixation","","",""
"memory-trial","100","345320","0.0-18.0-1.28","4327","approach_avoid_sv1","""event"",""trial"",""time""
""fullscreenenter"",""1"",""1264""
","
","
","""event"",""trial"",""time""
""fullscreenenter"",""1"",""1264""
","
","","","","","","904.9000000059605","images/flower2.png","","","memory_trial","4","definitely_new",""
"html-keyboard-response","101","345824","0.0-18.0-0.29","4327","approach_avoid_sv1","""event"",""trial"",""time""
""fullscreenenter"",""1"",""1264""
","
","
","""event"",""trial"",""time""
""fullscreenenter"",""1"",""1264""
","
","","","","","","null","<div style=""font-size:60px;"">+</div>","null","","fixation","","",""
"memory-trial","102","349329","0.0-18.0-1.29","4327","approach_avoid_sv1","""event"",""trial"",""time""
""fullscreenenter"",""1"",""1264""
","
","
","""event"",""trial"",""time""
""fullscreenenter"",""1"",""1264""
","
","","","","","","2494.199999988079","images/plane8.png","","","memory_trial","2","maybe_old",""
"html-keyboard-response","103","349831","0.0-18.0-0.30","4327","approach_avoid_sv1","""event"",""trial"",""time""
""fullscreenenter"",""1"",""1264""
","
","
","""event"",""trial"",""time""
""fullscreenenter"",""1"",""1264""
","
","","","","","","null","<div style=""font-size:60px;"">+</div>","null","","fixation","","",""
"memory-trial","104","352520","0.0-18.0-1.30","4327","approach_avoid_sv1","""event"",""trial"",""time""
""fullscreenenter"",""1"",""1264""
","
","
","""event"",""trial"",""time""
""fullscreenenter"",""1"",""1264""
","
","","","","","","1679.0999999940395","images/train2.png","","","memory_trial","2","maybe_old",""
"html-keyboard-response","105","353035","0.0-18.0-0.31","4327","approach_avoid_sv1","""event"",""trial"",""time""
""fullscreenenter"",""1"",""1264""
","
","
","""event"",""trial"",""time""
""fullscreenenter"",""1"",""1264""
","
","","","","","","null","<div style=""font-size:60px;"">+</div>","null","","fixation","","",""
"memory-trial","106","355001","0.0-18.0-1.31","4327","approach_avoid_sv1","""event"",""trial"",""time""
""fullscreenenter"",""1"",""1264""
","
","
","""event"",""trial"",""time""
""fullscreenenter"",""1"",""1264""
","
","","","","","","957.8000000119209","images/apple3.png","","","memory_trial","4","definitely_new",""
"html-keyboard-response","107","355503","0.0-18.0-0.32","4327","approach_avoid_sv1","""event"",""trial"",""time""
""fullscreenenter"",""1"",""1264""
","
","
","""event"",""trial"",""time""
""fullscreenenter"",""1"",""1264""
","
","","","","","","null","<div style=""font-size:60px;"">+</div>","null","","fixation","","",""
"memory-trial","108","357264","0.0-18.0-1.32","4327","approach_avoid_sv1","""event"",""trial"",""time""
""fullscreenenter"",""1"",""1264""
","
","
","""event"",""trial"",""time""
""fullscreenenter"",""1"",""1264""
","
","","","","","","756.1999999880791","images/truck3.png","","","memory_trial","4","definitely_new",""
"html-keyboard-response","109","357767","0.0-18.0-0.33","4327","approach_avoid_sv1","""event"",""trial"",""time""
""fullscreenenter"",""1"",""1264""
","
","
","""event"",""trial"",""time""
""fullscreenenter"",""1"",""1264""
","
","","","","","","null","<div style=""font-size:60px;"">+</div>","null","","fixation","","",""
"memory-trial","110","360736","0.0-18.0-1.33","4327","approach_avoid_sv1","""event"",""trial"",""time""
""fullscreenenter"",""1"",""1264""
","
","
","""event"",""trial"",""time""
""fullscreenenter"",""1"",""1264""
","
","","","","","","1955.2999999821186","images/cow4.png","","","memory_trial","2","maybe_old",""
"html-keyboard-response","111","361239","0.0-18.0-0.34","4327","approach_avoid_sv1","""event"",""trial"",""time""
""fullscreenenter"",""1"",""1264""
","
","
","""event"",""trial"",""time""
""fullscreenenter"",""1"",""1264""
","
","","","","","","null","<div style=""font-size:60px;"">+</div>","null","","fixation","","",""
"memory-trial","112","363544","0.0-18.0-1.34","4327","approach_avoid_sv1","""event"",""trial"",""time""
""fullscreenenter"",""1"",""1264""
","
","
","""event"",""trial"",""time""
""fullscreenenter"",""1"",""1264""
","
","","","","","","1299.2000000178814","images/goat1.png","","","memory_trial","3","maybe_new",""
"html-keyboard-response","113","364047","0.0-18.0-0.35","4327","approach_avoid_sv1","""event"",""trial"",""time""
""fullscreenenter"",""1"",""1264""
","
","
","""event"",""trial"",""time""
""fullscreenenter"",""1"",""1264""
","
","","","","","","null","<div style=""font-size:60px;"">+</div>","null","","fixation","","",""
"memory-trial","114","365912","0.0-18.0-1.35","4327","approach_avoid_sv1","""event"",""trial"",""time""
""fullscreenenter"",""1"",""1264""
","
","
","""event"",""trial"",""time""
""fullscreenenter"",""1"",""1264""
","
","","","","","","856.1000000238419","images/rabbit3.png","","","memory_trial","1","definitely_old",""
"html-keyboard-response","115","366416","0.0-18.0-0.36","4327","approach_avoid_sv1","""event"",""trial"",""time""
""fullscreenenter"",""1"",""1264""
","
","
","""event"",""trial"",""time""
""fullscreenenter"",""1"",""1264""
","
","","","","","","null","<div style=""font-size:60px;"">+</div>","null","","fixation","","",""
"memory-trial","116","369584","0.0-18.0-1.36","4327","approach_avoid_sv1","""event"",""trial"",""time""
""fullscreenenter"",""1"",""1264""
","
","
","""event"",""trial"",""time""
""fullscreenenter"",""1"",""1264""
","
","","","","","","2161.4000000059605","images/boat7.png","","","memory_trial","3","maybe_new",""
"html-keyboard-response","117","370096","0.0-18.0-0.37","4327","approach_avoid_sv1","""event"",""trial"",""time""
""fullscreenenter"",""1"",""1264""
","
","
","""event"",""trial"",""time""
""fullscreenenter"",""1"",""1264""
","
","","","","","","null","<div style=""font-size:60px;"">+</div>","null","","fixation","","",""
"memory-trial","118","371945","0.0-18.0-1.37","4327","approach_avoid_sv1","""event"",""trial"",""time""
""fullscreenenter"",""1"",""1264""
","
","
","""event"",""trial"",""time""
""fullscreenenter"",""1"",""1264""
","
","","","","","","840.1999999880791","images/rodent4.png","","","memory_trial","4","definitely_new",""
"html-keyboard-response","119","372459","0.0-18.0-0.38","4327","approach_avoid_sv1","""event"",""trial"",""time""
""fullscreenenter"",""1"",""1264""
","
","
","""event"",""trial"",""time""
""fullscreenenter"",""1"",""1264""
","
","","","","","","null","<div style=""font-size:60px;"">+</div>","null","","fixation","","",""
"memory-trial","120","374456","0.0-18.0-1.38","4327","approach_avoid_sv1","""event"",""trial"",""time""
""fullscreenenter"",""1"",""1264""
","
","
","""event"",""trial"",""time""
""fullscreenenter"",""1"",""1264""
","
","","","","","","993.6999999880791","images/bed2.png","","","memory_trial","1","definitely_old",""
"html-keyboard-response","121","374960","0.0-18.0-0.39","4327","approach_avoid_sv1","""event"",""trial"",""time""
""fullscreenenter"",""1"",""1264""
","
","
","""event"",""trial"",""time""
""fullscreenenter"",""1"",""1264""
","
","","","","","","null","<div style=""font-size:60px;"">+</div>","null","","fixation","","",""
"memory-trial","122","377155","0.0-18.0-1.39","4327","approach_avoid_sv1","""event"",""trial"",""time""
""fullscreenenter"",""1"",""1264""
","
","
","""event"",""trial"",""time""
""fullscreenenter"",""1"",""1264""
","
","","","","","","1188.300000011921","images/chair5.png","","","memory_trial","4","definitely_new",""
"html-keyboard-response","123","377663","0.0-18.0-0.40","4327","approach_avoid_sv1","""event"",""trial"",""time""
""fullscreenenter"",""1"",""1264""
","
","
","""event"",""trial"",""time""
""fullscreenenter"",""1"",""1264""
","
","","","","","","null","<div style=""font-size:60px;"">+</div>","null","","fixation","","",""
"memory-trial","124","379928","0.0-18.0-1.40","4327","approach_avoid_sv1","""event"",""trial"",""time""
""fullscreenenter"",""1"",""1264""
","
","
","""event"",""trial"",""time""
""fullscreenenter"",""1"",""1264""
","
","","","","","","1262.7999999821186","images/cactus3.png","","","memory_trial","4","definitely_new",""
"html-keyboard-response","125","380431","0.0-18.0-0.41","4327","approach_avoid_sv1","""event"",""trial"",""time""
""fullscreenenter"",""1"",""1264""
","
","
","""event"",""trial"",""time""
""fullscreenenter"",""1"",""1264""
","
","","","","","","null","<div style=""font-size:60px;"">+</div>","null","","fixation","","",""
"memory-trial","126","383955","0.0-18.0-1.41","4327","approach_avoid_sv1","""event"",""trial"",""time""
""fullscreenenter"",""1"",""1264""
","
","
","""event"",""trial"",""time""
""fullscreenenter"",""1"",""1264""
","
","","","","","","2516.9000000059605","images/bush8.png","","","memory_trial","2","maybe_old",""
"html-button-response","127","388006","0.0-18.0-2.41-0.41","4327","approach_avoid_sv1","""event"",""trial"",""time""
""fullscreenenter"",""1"",""1264""
","
","
","""event"",""trial"",""time""
""fullscreenenter"",""1"",""1264""
","
","","","","","","4050.7999999821186","<p> Take a break! </p><p> Click the button to continue. </p>","0","","break","","",""
"html-keyboard-response","128","388524","0.0-18.0-0.42","4327","approach_avoid_sv1","""event"",""trial"",""time""
""fullscreenenter"",""1"",""1264""
","
","
","""event"",""trial"",""time""
""fullscreenenter"",""1"",""1264""
","
","","","","","","null","<div style=""font-size:60px;"">+</div>","null","","fixation","","",""
"memory-trial","129","390408","0.0-18.0-1.42","4327","approach_avoid_sv1","""event"",""trial"",""time""
""fullscreenenter"",""1"",""1264""
","
","
","""event"",""trial"",""time""
""fullscreenenter"",""1"",""1264""
","
","","","","","","876.7999999821186","images/apple2.png","","","memory_trial","4","definitely_new",""
"html-keyboard-response","130","390912","0.0-18.0-0.43","4327","approach_avoid_sv1","""event"",""trial"",""time""
""fullscreenenter"",""1"",""1264""
","
","
","""event"",""trial"",""time""
""fullscreenenter"",""1"",""1264""
","
","","","","","","null","<div style=""font-size:60px;"">+</div>","null","","fixation","","",""
"memory-trial","131","393136","0.0-18.0-1.43","4327","approach_avoid_sv1","""event"",""trial"",""time""
""fullscreenenter"",""1"",""1264""
","
","
","""event"",""trial"",""time""
""fullscreenenter"",""1"",""1264""
","
","","","","","","1221.199999988079","images/dog8.png","","","memory_trial","4","definitely_new",""
"html-keyboard-response","132","393640","0.0-18.0-0.44","4327","approach_avoid_sv1","""event"",""trial"",""time""
""fullscreenenter"",""1"",""1264""
","
","
","""event"",""trial"",""time""
""fullscreenenter"",""1"",""1264""
","
","","","","","","null","<div style=""font-size:60px;"">+</div>","null","","fixation","","",""
"memory-trial","133","396800","0.0-18.0-1.44","4327","approach_avoid_sv1","""event"",""trial"",""time""
""fullscreenenter"",""1"",""1264""
","
","
","""event"",""trial"",""time""
""fullscreenenter"",""1"",""1264""
","
","","","","","","2157.4000000059605","images/orange8.png","","","memory_trial","3","maybe_new",""
"html-keyboard-response","134","397313","0.0-18.0-0.45","4327","approach_avoid_sv1","""event"",""trial"",""time""
""fullscreenenter"",""1"",""1264""
","
","
","""event"",""trial"",""time""
""fullscreenenter"",""1"",""1264""
","
","","","","","","null","<div style=""font-size:60px;"">+</div>","null","","fixation","","",""
"memory-trial","135","399855","0.0-18.0-1.45","4327","approach_avoid_sv1","""event"",""trial"",""time""
""fullscreenenter"",""1"",""1264""
","
","
","""event"",""trial"",""time""
""fullscreenenter"",""1"",""1264""
","
","","","","","","1535","images/bed3.png","","","memory_trial","3","maybe_new",""
"html-keyboard-response","136","400360","0.0-18.0-0.46","4327","approach_avoid_sv1","""event"",""trial"",""time""
""fullscreenenter"",""1"",""1264""
","
","
","""event"",""trial"",""time""
""fullscreenenter"",""1"",""1264""
","
","","","","","","null","<div style=""font-size:60px;"">+</div>","null","","fixation","","",""
"memory-trial","137","402432","0.0-18.0-1.46","4327","approach_avoid_sv1","""event"",""trial"",""time""
""fullscreenenter"",""1"",""1264""
","
","
","""event"",""trial"",""time""
""fullscreenenter"",""1"",""1264""
","
","","","","","","1069.300000011921","images/apple4.png","","","memory_trial","4","definitely_new",""
"html-keyboard-response","138","402935","0.0-18.0-0.47","4327","approach_avoid_sv1","""event"",""trial"",""time""
""fullscreenenter"",""1"",""1264""
","
","
","""event"",""trial"",""time""
""fullscreenenter"",""1"",""1264""
","
","","","","","","null","<div style=""font-size:60px;"">+</div>","null","","fixation","","",""
"memory-trial","139","404816","0.0-18.0-1.47","4327","approach_avoid_sv1","""event"",""trial"",""time""
""fullscreenenter"",""1"",""1264""
","
","
","""event"",""trial"",""time""
""fullscreenenter"",""1"",""1264""
","
","","","","","","873.5","images/truck1.png","","","memory_trial","4","definitely_new",""
"html-keyboard-response","140","405319","0.0-18.0-0.48","4327","approach_avoid_sv1","""event"",""trial"",""time""
""fullscreenenter"",""1"",""1264""
","
","
","""event"",""trial"",""time""
""fullscreenenter"",""1"",""1264""
","
","","","","","","null","<div style=""font-size:60px;"">+</div>","null","","fixation","","",""
"memory-trial","141","407064","0.0-18.0-1.48","4327","approach_avoid_sv1","""event"",""trial"",""time""
""fullscreenenter"",""1"",""1264""
","
","
","""event"",""trial"",""time""
""fullscreenenter"",""1"",""1264""
","
","","","","","","737.5999999940395","images/cactus8.png","","","memory_trial","4","definitely_new",""
"html-keyboard-response","142","407567","0.0-18.0-0.49","4327","approach_avoid_sv1","""event"",""trial"",""time""
""fullscreenenter"",""1"",""1264""
","
","
","""event"",""trial"",""time""
""fullscreenenter"",""1"",""1264""
","
","","","","","","null","<div style=""font-size:60px;"">+</div>","null","","fixation","","",""
"memory-trial","143","410601","0.0-18.0-1.49","4327","approach_avoid_sv1","""event"",""trial"",""time""
""fullscreenenter"",""1"",""1264""
","
","
","""event"",""trial"",""time""
""fullscreenenter"",""1"",""1264""
","
","","","","","","2025.800000011921","images/rabbit6.png","","","memory_trial","3","maybe_new",""
"html-keyboard-response","144","411104","0.0-18.0-0.50","4327","approach_avoid_sv1","""event"",""trial"",""time""
""fullscreenenter"",""1"",""1264""
","
","
","""event"",""trial"",""time""
""fullscreenenter"",""1"",""1264""
","
","","","","","","null","<div style=""font-size:60px;"">+</div>","null","","fixation","","",""
"memory-trial","145","413216","0.0-18.0-1.50","4327","approach_avoid_sv1","""event"",""trial"",""time""
""fullscreenenter"",""1"",""1264""
","
","
","""event"",""trial"",""time""
""fullscreenenter"",""1"",""1264""
","
","","","","","","1106.5999999940395","images/boat4.png","","","memory_trial","4","definitely_new",""
"html-keyboard-response","146","413720","0.0-18.0-0.51","4327","approach_avoid_sv1","""event"",""trial"",""time""
""fullscreenenter"",""1"",""1264""
","
","
","""event"",""trial"",""time""
""fullscreenenter"",""1"",""1264""
","
","","","","","","null","<div style=""font-size:60px;"">+</div>","null","","fixation","","",""
"memory-trial","147","415457","0.0-18.0-1.51","4327","approach_avoid_sv1","""event"",""trial"",""time""
""fullscreenenter"",""1"",""1264""
","
","
","""event"",""trial"",""time""
""fullscreenenter"",""1"",""1264""
","
","","","","","","731.1999999880791","images/cow6.png","","","memory_trial","4","definitely_new",""
"html-keyboard-response","148","415959","0.0-18.0-0.52","4327","approach_avoid_sv1","""event"",""trial"",""time""
""fullscreenenter"",""1"",""1264""
","
","
","""event"",""trial"",""time""
""fullscreenenter"",""1"",""1264""
","
","","","","","","null","<div style=""font-size:60px;"">+</div>","null","","fixation","","",""
"memory-trial","149","417713","0.0-18.0-1.52","4327","approach_avoid_sv1","""event"",""trial"",""time""
""fullscreenenter"",""1"",""1264""
","
","
","""event"",""trial"",""time""
""fullscreenenter"",""1"",""1264""
","
","","","","","","745.5","images/truck8.png","","","memory_trial","4","definitely_new",""
"html-keyboard-response","150","418216","0.0-18.0-0.53","4327","approach_avoid_sv1","""event"",""trial"",""time""
""fullscreenenter"",""1"",""1264""
","
","
","""event"",""trial"",""time""
""fullscreenenter"",""1"",""1264""
","
","","","","","","null","<div style=""font-size:60px;"">+</div>","null","","fixation","","",""
"memory-trial","151","419849","0.0-18.0-1.53","4327","approach_avoid_sv1","""event"",""trial"",""time""
""fullscreenenter"",""1"",""1264""
","
","
","""event"",""trial"",""time""
""fullscreenenter"",""1"",""1264""
","
","","","","","","623.3000000119209","images/bush5.png","","","memory_trial","4","definitely_new",""
"html-keyboard-response","152","420351","0.0-18.0-0.54","4327","approach_avoid_sv1","""event"",""trial"",""time""
""fullscreenenter"",""1"",""1264""
","
","
","""event"",""trial"",""time""
""fullscreenenter"",""1"",""1264""
","
","","","","","","null","<div style=""font-size:60px;"">+</div>","null","","fixation","","",""
"memory-trial","153","422125","0.0-18.0-1.54","4327","approach_avoid_sv1","""event"",""trial"",""time""
""fullscreenenter"",""1"",""1264""
","
","
","""event"",""trial"",""time""
""fullscreenenter"",""1"",""1264""
","
","","","","","","761.5","images/cat2.png","","","memory_trial","1","definitely_old",""
"html-keyboard-response","154","422633","0.0-18.0-0.55","4327","approach_avoid_sv1","""event"",""trial"",""time""
""fullscreenenter"",""1"",""1264""
","
","
","""event"",""trial"",""time""
""fullscreenenter"",""1"",""1264""
","
","","","","","","null","<div style=""font-size:60px;"">+</div>","null","","fixation","","",""
"memory-trial","155","424488","0.0-18.0-1.55","4327","approach_avoid_sv1","""event"",""trial"",""time""
""fullscreenenter"",""1"",""1264""
","
","
","""event"",""trial"",""time""
""fullscreenenter"",""1"",""1264""
","
","","","","","","847.3000000119209","images/chair8.png","","","memory_trial","4","definitely_new",""
"html-keyboard-response","156","424992","0.0-18.0-0.56","4327","approach_avoid_sv1","""event"",""trial"",""time""
""fullscreenenter"",""1"",""1264""
","
","
","""event"",""trial"",""time""
""fullscreenenter"",""1"",""1264""
","
","","","","","","null","<div style=""font-size:60px;"">+</div>","null","","fixation","","",""
"memory-trial","157","427247","0.0-18.0-1.56","4327","approach_avoid_sv1","""event"",""trial"",""time""
""fullscreenenter"",""1"",""1264""
","
","
","""event"",""trial"",""time""
""fullscreenenter"",""1"",""1264""
","
","","","","","","1246.800000011921","images/orange5.png","","","memory_trial","2","maybe_old",""
"html-keyboard-response","158","427755","0.0-18.0-0.57","4327","approach_avoid_sv1","""event"",""trial"",""time""
""fullscreenenter"",""1"",""1264""
","
","
","""event"",""trial"",""time""
""fullscreenenter"",""1"",""1264""
","
","","","","","","null","<div style=""font-size:60px;"">+</div>","null","","fixation","","",""
"memory-trial","159","429504","0.0-18.0-1.57","4327","approach_avoid_sv1","""event"",""trial"",""time""
""fullscreenenter"",""1"",""1264""
","
","
","""event"",""trial"",""time""
""fullscreenenter"",""1"",""1264""
","
","","","","","","745.9000000059605","images/truck7.png","","","memory_trial","4","definitely_new",""
"html-keyboard-response","160","430013","0.0-18.0-0.58","4327","approach_avoid_sv1","""event"",""trial"",""time""
""fullscreenenter"",""1"",""1264""
","
","
","""event"",""trial"",""time""
""fullscreenenter"",""1"",""1264""
","
","","","","","","null","<div style=""font-size:60px;"">+</div>","null","","fixation","","",""
"memory-trial","161","431744","0.0-18.0-1.58","4327","approach_avoid_sv1","""event"",""trial"",""time""
""fullscreenenter"",""1"",""1264""
","
","
","""event"",""trial"",""time""
""fullscreenenter"",""1"",""1264""
","
","","","","","","727.5","images/rabbit5.png","","","memory_trial","1","definitely_old",""
"html-keyboard-response","162","432252","0.0-18.0-0.59","4327","approach_avoid_sv1","""event"",""trial"",""time""
""fullscreenenter"",""1"",""1264""
","
","
","""event"",""trial"",""time""
""fullscreenenter"",""1"",""1264""
","
","","","","","","null","<div style=""font-size:60px;"">+</div>","null","","fixation","","",""
"memory-trial","163","433856","0.0-18.0-1.59","4327","approach_avoid_sv1","""event"",""trial"",""time""
""fullscreenenter"",""1"",""1264""
","
","
","""event"",""trial"",""time""
""fullscreenenter"",""1"",""1264""
","
","","","","","","593.7000000178814","images/flower8.png","","","memory_trial","4","definitely_new",""
"html-keyboard-response","164","434359","0.0-18.0-0.60","4327","approach_avoid_sv1","""event"",""trial"",""time""
""fullscreenenter"",""1"",""1264""
","
","
","""event"",""trial"",""time""
""fullscreenenter"",""1"",""1264""
","
","","","","","","null","<div style=""font-size:60px;"">+</div>","null","","fixation","","",""
"memory-trial","165","436328","0.0-18.0-1.60","4327","approach_avoid_sv1","""event"",""trial"",""time""
""fullscreenenter"",""1"",""1264""
","
","
","""event"",""trial"",""time""
""fullscreenenter"",""1"",""1264""
","
","","","","","","961.7999999821186","images/sofa6.png","","","memory_trial","1","definitely_old",""
"html-keyboard-response","166","436835","0.0-18.0-0.61","4327","approach_avoid_sv1","""event"",""trial"",""time""
""fullscreenenter"",""1"",""1264""
","
","
","""event"",""trial"",""time""
""fullscreenenter"",""1"",""1264""
","
","","","","","","null","<div style=""font-size:60px;"">+</div>","null","","fixation","","",""
"memory-trial","167","439129","0.0-18.0-1.61","4327","approach_avoid_sv1","""event"",""trial"",""time""
""fullscreenenter"",""1"",""1264""
","
","
","""event"",""trial"",""time""
""fullscreenenter"",""1"",""1264""
","
","","","","","","1286.5","images/sofa1.png","","","memory_trial","3","maybe_new",""
"html-keyboard-response","168","439633","0.0-18.0-0.62","4327","approach_avoid_sv1","""event"",""trial"",""time""
""fullscreenenter"",""1"",""1264""
","
","
","""event"",""trial"",""time""
""fullscreenenter"",""1"",""1264""
","
","","","","","","null","<div style=""font-size:60px;"">+</div>","null","","fixation","","",""
"memory-trial","169","441905","0.0-18.0-1.62","4327","approach_avoid_sv1","""event"",""trial"",""time""
""fullscreenenter"",""1"",""1264""
","
","
","""event"",""trial"",""time""
""fullscreenenter"",""1"",""1264""
","
","","","","","","1267.7000000178814","images/train8.png","","","memory_trial","4","definitely_new",""
"html-keyboard-response","170","442419","0.0-18.0-0.63","4327","approach_avoid_sv1","""event"",""trial"",""time""
""fullscreenenter"",""1"",""1264""
","
","
","""event"",""trial"",""time""
""fullscreenenter"",""1"",""1264""
","
","","","","","","null","<div style=""font-size:60px;"">+</div>","null","","fixation","","",""
"memory-trial","171","444056","0.0-18.0-1.63","4327","approach_avoid_sv1","""event"",""trial"",""time""
""fullscreenenter"",""1"",""1264""
","
","
","""event"",""trial"",""time""
""fullscreenenter"",""1"",""1264""
","
","","","","","","633.4000000059605","images/chair6.png","","","memory_trial","4","definitely_new",""
"html-keyboard-response","172","444560","0.0-18.0-0.64","4327","approach_avoid_sv1","""event"",""trial"",""time""
""fullscreenenter"",""1"",""1264""
","
","
","""event"",""trial"",""time""
""fullscreenenter"",""1"",""1264""
","
","","","","","","null","<div style=""font-size:60px;"">+</div>","null","","fixation","","",""
"memory-trial","173","446954","0.0-18.0-1.64","4327","approach_avoid_sv1","""event"",""trial"",""time""
""fullscreenenter"",""1"",""1264""
","
","
","""event"",""trial"",""time""
""fullscreenenter"",""1"",""1264""
","
","","","","","","1387.4000000059605","images/bed1.png","","","memory_trial","2","maybe_old",""
"html-keyboard-response","174","447457","0.0-18.0-0.65","4327","approach_avoid_sv1","""event"",""trial"",""time""
""fullscreenenter"",""1"",""1264""
","
","
","""event"",""trial"",""time""
""fullscreenenter"",""1"",""1264""
","
","","","","","","null","<div style=""font-size:60px;"">+</div>","null","","fixation","","",""
"memory-trial","175","449257","0.0-18.0-1.65","4327","approach_avoid_sv1","""event"",""trial"",""time""
""fullscreenenter"",""1"",""1264""
","
","
","""event"",""trial"",""time""
""fullscreenenter"",""1"",""1264""
","
","","","","","","798.1999999880791","images/truck5.png","","","memory_trial","4","definitely_new",""
"html-keyboard-response","176","449762","0.0-18.0-0.66","4327","approach_avoid_sv1","""event"",""trial"",""time""
""fullscreenenter"",""1"",""1264""
","
","
","""event"",""trial"",""time""
""fullscreenenter"",""1"",""1264""
","
","","","","","","null","<div style=""font-size:60px;"">+</div>","null","","fixation","","",""
"memory-trial","177","451745","0.0-18.0-1.66","4327","approach_avoid_sv1","""event"",""trial"",""time""
""fullscreenenter"",""1"",""1264""
","
","
","""event"",""trial"",""time""
""fullscreenenter"",""1"",""1264""
","
","","","","","","974","images/table5.png","","","memory_trial","1","definitely_old",""
"html-keyboard-response","178","452249","0.0-18.0-0.67","4327","approach_avoid_sv1","""event"",""trial"",""time""
""fullscreenenter"",""1"",""1264""
","
","
","""event"",""trial"",""time""
""fullscreenenter"",""1"",""1264""
","
","","","","","","null","<div style=""font-size:60px;"">+</div>","null","","fixation","","",""
"memory-trial","179","454513","0.0-18.0-1.67","4327","approach_avoid_sv1","""event"",""trial"",""time""
""fullscreenenter"",""1"",""1264""
","
","
","""event"",""trial"",""time""
""fullscreenenter"",""1"",""1264""
","
","","","","","","1255.5999999940395","images/cow1.png","","","memory_trial","4","definitely_new",""
"html-keyboard-response","180","455017","0.0-18.0-0.68","4327","approach_avoid_sv1","""event"",""trial"",""time""
""fullscreenenter"",""1"",""1264""
","
","
","""event"",""trial"",""time""
""fullscreenenter"",""1"",""1264""
","
","","","","","","null","<div style=""font-size:60px;"">+</div>","null","","fixation","","",""
"memory-trial","181","457521","0.0-18.0-1.68","4327","approach_avoid_sv1","""event"",""trial"",""time""
""fullscreenenter"",""1"",""1264""
","
","
","""event"",""trial"",""time""
""fullscreenenter"",""1"",""1264""
","
","","","","","","1497.199999988079","images/tree3.png","","","memory_trial","1","definitely_old",""
"html-keyboard-response","182","458025","0.0-18.0-0.69","4327","approach_avoid_sv1","""event"",""trial"",""time""
""fullscreenenter"",""1"",""1264""
","
","
","""event"",""trial"",""time""
""fullscreenenter"",""1"",""1264""
","
","","","","","","null","<div style=""font-size:60px;"">+</div>","null","","fixation","","",""
"memory-trial","183","460368","0.0-18.0-1.69","4327","approach_avoid_sv1","""event"",""trial"",""time""
""fullscreenenter"",""1"",""1264""
","
","
","""event"",""trial"",""time""
""fullscreenenter"",""1"",""1264""
","
","","","","","","1340.7999999821186","images/cat4.png","","","memory_trial","2","maybe_old",""
"html-keyboard-response","184","460872","0.0-18.0-0.70","4327","approach_avoid_sv1","""event"",""trial"",""time""
""fullscreenenter"",""1"",""1264""
","
","
","""event"",""trial"",""time""
""fullscreenenter"",""1"",""1264""
","
","","","","","","null","<div style=""font-size:60px;"">+</div>","null","","fixation","","",""
"memory-trial","185","463256","0.0-18.0-1.70","4327","approach_avoid_sv1","""event"",""trial"",""time""
""fullscreenenter"",""1"",""1264""
","
","
","""event"",""trial"",""time""
""fullscreenenter"",""1"",""1264""
","
","","","","","","1377.4000000059605","images/bush2.png","","","memory_trial","3","maybe_new",""
"html-keyboard-response","186","463761","0.0-18.0-0.71","4327","approach_avoid_sv1","""event"",""trial"",""time""
""fullscreenenter"",""1"",""1264""
","
","
","""event"",""trial"",""time""
""fullscreenenter"",""1"",""1264""
","
","","","","","","null","<div style=""font-size:60px;"">+</div>","null","","fixation","","",""
"memory-trial","187","465944","0.0-18.0-1.71","4327","approach_avoid_sv1","""event"",""trial"",""time""
""fullscreenenter"",""1"",""1264""
","
","
","""event"",""trial"",""time""
""fullscreenenter"",""1"",""1264""
","
","","","","","","1176.4000000059605","images/goat8.png","","","memory_trial","3","maybe_new",""
"html-keyboard-response","188","466449","0.0-18.0-0.72","4327","approach_avoid_sv1","""event"",""trial"",""time""
""fullscreenenter"",""1"",""1264""
","
","
","""event"",""trial"",""time""
""fullscreenenter"",""1"",""1264""
","
","","","","","","null","<div style=""font-size:60px;"">+</div>","null","","fixation","","",""
"memory-trial","189","469233","0.0-18.0-1.72","4327","approach_avoid_sv1","""event"",""trial"",""time""
""fullscreenenter"",""1"",""1264""
","
","
","""event"",""trial"",""time""
""fullscreenenter"",""1"",""1264""
","
","","","","","","1775.9000000059605","images/rodent1.png","","","memory_trial","3","maybe_new",""
"html-keyboard-response","190","469747","0.0-18.0-0.73","4327","approach_avoid_sv1","""event"",""trial"",""time""
""fullscreenenter"",""1"",""1264""
","
","
","""event"",""trial"",""time""
""fullscreenenter"",""1"",""1264""
","
","","","","","","null","<div style=""font-size:60px;"">+</div>","null","","fixation","","",""
"memory-trial","191","472217","0.0-18.0-1.73","4327","approach_avoid_sv1","""event"",""trial"",""time""
""fullscreenenter"",""1"",""1264""
","
","
","""event"",""trial"",""time""
""fullscreenenter"",""1"",""1264""
","
","","","","","","1460.7000000178814","images/rodent7.png","","","memory_trial","3","maybe_new",""
"html-keyboard-response","192","472721","0.0-18.0-0.74","4327","approach_avoid_sv1","""event"",""trial"",""time""
""fullscreenenter"",""1"",""1264""
","
","
","""event"",""trial"",""time""
""fullscreenenter"",""1"",""1264""
","
","","","","","","null","<div style=""font-size:60px;"">+</div>","null","","fixation","","",""
"memory-trial","193","474888","0.0-18.0-1.74","4327","approach_avoid_sv1","""event"",""trial"",""time""
""fullscreenenter"",""1"",""1264""
","
","
","""event"",""trial"",""time""
""fullscreenenter"",""1"",""1264""
","
","","","","","","1159.7000000178814","images/orange7.png","","","memory_trial","1","definitely_old",""
"html-keyboard-response","194","475393","0.0-18.0-0.75","4327","approach_avoid_sv1","""event"",""trial"",""time""
""fullscreenenter"",""1"",""1264""
","
","
","""event"",""trial"",""time""
""fullscreenenter"",""1"",""1264""
","
","","","","","","null","<div style=""font-size:60px;"">+</div>","null","","fixation","","",""
"memory-trial","195","477328","0.0-18.0-1.75","4327","approach_avoid_sv1","""event"",""trial"",""time""
""fullscreenenter"",""1"",""1264""
","
","
","""event"",""trial"",""time""
""fullscreenenter"",""1"",""1264""
","
","","","","","","930.7999999821186","images/straw5.png","","","memory_trial","4","definitely_new",""
"html-keyboard-response","196","477832","0.0-18.0-0.76","4327","approach_avoid_sv1","""event"",""trial"",""time""
""fullscreenenter"",""1"",""1264""
","
","
","""event"",""trial"",""time""
""fullscreenenter"",""1"",""1264""
","
","","","","","","null","<div style=""font-size:60px;"">+</div>","null","","fixation","","",""
"memory-trial","197","479569","0.0-18.0-1.76","4327","approach_avoid_sv1","""event"",""trial"",""time""
""fullscreenenter"",""1"",""1264""
","
","
","""event"",""trial"",""time""
""fullscreenenter"",""1"",""1264""
","
","","","","","","732.2999999821186","images/orange6.png","","","memory_trial","1","definitely_old",""
"html-keyboard-response","198","480073","0.0-18.0-0.77","4327","approach_avoid_sv1","""event"",""trial"",""time""
""fullscreenenter"",""1"",""1264""
","
","
","""event"",""trial"",""time""
""fullscreenenter"",""1"",""1264""
","
","","","","","","null","<div style=""font-size:60px;"">+</div>","null","","fixation","","",""
"memory-trial","199","483025","0.0-18.0-1.77","4327","approach_avoid_sv1","""event"",""trial"",""time""
""fullscreenenter"",""1"",""1264""
","
","
","""event"",""trial"",""time""
""fullscreenenter"",""1"",""1264""
","
","","","","","","1948.7000000178814","images/boat2.png","","","memory_trial","1","definitely_old",""
"html-keyboard-response","200","483529","0.0-18.0-0.78","4327","approach_avoid_sv1","""event"",""trial"",""time""
""fullscreenenter"",""1"",""1264""
","
","
","""event"",""trial"",""time""
""fullscreenenter"",""1"",""1264""
","
","","","","","","null","<div style=""font-size:60px;"">+</div>","null","","fixation","","",""
"memory-trial","201","486320","0.0-18.0-1.78","4327","approach_avoid_sv1","""event"",""trial"",""time""
""fullscreenenter"",""1"",""1264""
","
","
","""event"",""trial"",""time""
""fullscreenenter"",""1"",""1264""
","
","","","","","","1786.9000000059605","images/bush1.png","","","memory_trial","2","maybe_old",""
"html-keyboard-response","202","486824","0.0-18.0-0.79","4327","approach_avoid_sv1","""event"",""trial"",""time""
""fullscreenenter"",""1"",""1264""
","
","
","""event"",""trial"",""time""
""fullscreenenter"",""1"",""1264""
","
","","","","","","null","<div style=""font-size:60px;"">+</div>","null","","fixation","","",""
"memory-trial","203","488760","0.0-18.0-1.79","4327","approach_avoid_sv1","""event"",""trial"",""time""
""fullscreenenter"",""1"",""1264""
","
","
","""event"",""trial"",""time""
""fullscreenenter"",""1"",""1264""
","
","","","","","","932.8000000119209","images/dog7.png","","","memory_trial","1","definitely_old",""
"html-keyboard-response","204","489264","0.0-18.0-0.80","4327","approach_avoid_sv1","""event"",""trial"",""time""
""fullscreenenter"",""1"",""1264""
","
","
","""event"",""trial"",""time""
""fullscreenenter"",""1"",""1264""
","
","","","","","","null","<div style=""font-size:60px;"">+</div>","null","","fixation","","",""
"memory-trial","205","491440","0.0-18.0-1.80","4327","approach_avoid_sv1","""event"",""trial"",""time""
""fullscreenenter"",""1"",""1264""
","
","
","""event"",""trial"",""time""
""fullscreenenter"",""1"",""1264""
","
","","","","","","1168.0999999940395","images/banana7.png","","","memory_trial","1","definitely_old",""
"html-keyboard-response","206","491944","0.0-18.0-0.81","4327","approach_avoid_sv1","""event"",""trial"",""time""
""fullscreenenter"",""1"",""1264""
","
","
","""event"",""trial"",""time""
""fullscreenenter"",""1"",""1264""
","
","","","","","","null","<div style=""font-size:60px;"">+</div>","null","","fixation","","",""
"memory-trial","207","493624","0.0-18.0-1.81","4327","approach_avoid_sv1","""event"",""trial"",""time""
""fullscreenenter"",""1"",""1264""
","
","
","""event"",""trial"",""time""
""fullscreenenter"",""1"",""1264""
","
","","","","","","677.9000000059605","images/table4.png","","","memory_trial","1","definitely_old",""
"html-keyboard-response","208","494128","0.0-18.0-0.82","4327","approach_avoid_sv1","""event"",""trial"",""time""
""fullscreenenter"",""1"",""1264""
","
","
","""event"",""trial"",""time""
""fullscreenenter"",""1"",""1264""
","
","","","","","","null","<div style=""font-size:60px;"">+</div>","null","","fixation","","",""
"memory-trial","209","496080","0.0-18.0-1.82","4327","approach_avoid_sv1","""event"",""trial"",""time""
""fullscreenenter"",""1"",""1264""
","
","
","""event"",""trial"",""time""
""fullscreenenter"",""1"",""1264""
","
","","","","","","946","images/goat4.png","","","memory_trial","1","definitely_old",""
"html-keyboard-response","210","496599","0.0-18.0-0.83","4327","approach_avoid_sv1","""event"",""trial"",""time""
""fullscreenenter"",""1"",""1264""
","
","
","""event"",""trial"",""time""
""fullscreenenter"",""1"",""1264""
","
","","","","","","null","<div style=""font-size:60px;"">+</div>","null","","fixation","","",""
"memory-trial","211","498705","0.0-18.0-1.83","4327","approach_avoid_sv1","""event"",""trial"",""time""
""fullscreenenter"",""1"",""1264""
","
","
","""event"",""trial"",""time""
""fullscreenenter"",""1"",""1264""
","
","","","","","","1096.7000000178814","images/rodent3.png","","","memory_trial","4","definitely_new",""
"html-keyboard-response","212","499215","0.0-18.0-0.84","4327","approach_avoid_sv1","""event"",""trial"",""time""
""fullscreenenter"",""1"",""1264""
","
","
","""event"",""trial"",""time""
""fullscreenenter"",""1"",""1264""
","
","","","","","","null","<div style=""font-size:60px;"">+</div>","null","","fixation","","",""
"memory-trial","213","501145","0.0-18.0-1.84","4327","approach_avoid_sv1","""event"",""trial"",""time""
""fullscreenenter"",""1"",""1264""
","
","
","""event"",""trial"",""time""
""fullscreenenter"",""1"",""1264""
","
","","","","","","927.5999999940395","images/rabbit1.png","","","memory_trial","1","definitely_old",""
"html-keyboard-response","214","501662","0.0-18.0-0.85","4327","approach_avoid_sv1","""event"",""trial"",""time""
""fullscreenenter"",""1"",""1264""
","
","
","""event"",""trial"",""time""
""fullscreenenter"",""1"",""1264""
","
","","","","","","null","<div style=""font-size:60px;"">+</div>","null","","fixation","","",""
"memory-trial","215","503432","0.0-18.0-1.85","4327","approach_avoid_sv1","""event"",""trial"",""time""
""fullscreenenter"",""1"",""1264""
","
","
","""event"",""trial"",""time""
""fullscreenenter"",""1"",""1264""
","
","","","","","","762.1999999880791","images/cat5.png","","","memory_trial","1","definitely_old",""
"html-keyboard-response","216","503937","0.0-18.0-0.86","4327","approach_avoid_sv1","""event"",""trial"",""time""
""fullscreenenter"",""1"",""1264""
","
","
","""event"",""trial"",""time""
""fullscreenenter"",""1"",""1264""
","
","","","","","","null","<div style=""font-size:60px;"">+</div>","null","","fixation","","",""
"memory-trial","217","505728","0.0-18.0-1.86","4327","approach_avoid_sv1","""event"",""trial"",""time""
""fullscreenenter"",""1"",""1264""
","
","
","""event"",""trial"",""time""
""fullscreenenter"",""1"",""1264""
","
","","","","","","778.0999999940395","images/rabbit4.png","","","memory_trial","1","definitely_old",""
"html-keyboard-response","218","506232","0.0-18.0-0.87","4327","approach_avoid_sv1","""event"",""trial"",""time""
""fullscreenenter"",""1"",""1264""
","
","
","""event"",""trial"",""time""
""fullscreenenter"",""1"",""1264""
","
","","","","","","null","<div style=""font-size:60px;"">+</div>","null","","fixation","","",""
"memory-trial","219","508081","0.0-18.0-1.87","4327","approach_avoid_sv1","""event"",""trial"",""time""
""fullscreenenter"",""1"",""1264""
","
","
","""event"",""trial"",""time""
""fullscreenenter"",""1"",""1264""
","
","","","","","","844","images/cactus4.png","","","memory_trial","1","definitely_old",""
"html-keyboard-response","220","508584","0.0-18.0-0.88","4327","approach_avoid_sv1","""event"",""trial"",""time""
""fullscreenenter"",""1"",""1264""
","
","
","""event"",""trial"",""time""
""fullscreenenter"",""1"",""1264""
","
","","","","","","null","<div style=""font-size:60px;"">+</div>","null","","fixation","","",""
"memory-trial","221","510395","0.0-18.0-1.88","4327","approach_avoid_sv1","""event"",""trial"",""time""
""fullscreenenter"",""1"",""1264""
","
","
","""event"",""trial"",""time""
""fullscreenenter"",""1"",""1264""
","
","","","","","","792.5999999940395","images/chair4.png","","","memory_trial","4","definitely_new",""
"html-keyboard-response","222","510909","0.0-18.0-0.89","4327","approach_avoid_sv1","""event"",""trial"",""time""
""fullscreenenter"",""1"",""1264""
","
","
","""event"",""trial"",""time""
""fullscreenenter"",""1"",""1264""
","
","","","","","","null","<div style=""font-size:60px;"">+</div>","null","","fixation","","",""
"memory-trial","223","512612","0.0-18.0-1.89","4327","approach_avoid_sv1","""event"",""trial"",""time""
""fullscreenenter"",""1"",""1264""
","
","
","""event"",""trial"",""time""
""fullscreenenter"",""1"",""1264""
","
","","","","","","697.2999999821186","images/cactus2.png","","","memory_trial","1","definitely_old",""
"html-keyboard-response","224","513121","0.0-18.0-0.90","4327","approach_avoid_sv1","""event"",""trial"",""time""
""fullscreenenter"",""1"",""1264""
","
","
","""event"",""trial"",""time""
""fullscreenenter"",""1"",""1264""
","
","","","","","","null","<div style=""font-size:60px;"">+</div>","null","","fixation","","",""
"memory-trial","225","514961","0.0-18.0-1.90","4327","approach_avoid_sv1","""event"",""trial"",""time""
""fullscreenenter"",""1"",""1264""
","
","
","""event"",""trial"",""time""
""fullscreenenter"",""1"",""1264""
","
","","","","","","831","images/rodent5.png","","","memory_trial","4","definitely_new",""
"html-keyboard-response","226","515465","0.0-18.0-0.91","4327","approach_avoid_sv1","""event"",""trial"",""time""
""fullscreenenter"",""1"",""1264""
","
","
","""event"",""trial"",""time""
""fullscreenenter"",""1"",""1264""
","
","","","","","","null","<div style=""font-size:60px;"">+</div>","null","","fixation","","",""
"memory-trial","227","517910","0.0-18.0-1.91","4327","approach_avoid_sv1","""event"",""trial"",""time""
""fullscreenenter"",""1"",""1264""
","
","
","""event"",""trial"",""time""
""fullscreenenter"",""1"",""1264""
","
","","","","","","1436.7999999821186","images/plane3.png","","","memory_trial","4","definitely_new",""
"html-button-response","228","519645","0.0-18.0-2.91-0.91","4327","approach_avoid_sv1","""event"",""trial"",""time""
""fullscreenenter"",""1"",""1264""
","
","
","""event"",""trial"",""time""
""fullscreenenter"",""1"",""1264""
","
","","","","","","1735.2000000178814","<p> Take a break! </p><p> Click the button to continue. </p>","0","","break","","",""
"html-keyboard-response","229","520154","0.0-18.0-0.92","4327","approach_avoid_sv1","""event"",""trial"",""time""
""fullscreenenter"",""1"",""1264""
","
","
","""event"",""trial"",""time""
""fullscreenenter"",""1"",""1264""
","
","","","","","","null","<div style=""font-size:60px;"">+</div>","null","","fixation","","",""
"memory-trial","230","523169","0.0-18.0-1.92","4327","approach_avoid_sv1","""event"",""trial"",""time""
""fullscreenenter"",""1"",""1264""
","
","
","""event"",""trial"",""time""
""fullscreenenter"",""1"",""1264""
","
","","","","","","2013","images/boat6.png","","","memory_trial","3","maybe_new",""
"html-keyboard-response","231","523674","0.0-18.0-0.93","4327","approach_avoid_sv1","""event"",""trial"",""time""
""fullscreenenter"",""1"",""1264""
","
","
","""event"",""trial"",""time""
""fullscreenenter"",""1"",""1264""
","
","","","","","","null","<div style=""font-size:60px;"">+</div>","null","","fixation","","",""
"memory-trial","232","525812","0.0-18.0-1.93","4327","approach_avoid_sv1","""event"",""trial"",""time""
""fullscreenenter"",""1"",""1264""
","
","
","""event"",""trial"",""time""
""fullscreenenter"",""1"",""1264""
","
","","","","","","1128.4000000059605","images/straw6.png","","","memory_trial","4","definitely_new",""
"html-keyboard-response","233","526321","0.0-18.0-0.94","4327","approach_avoid_sv1","""event"",""trial"",""time""
""fullscreenenter"",""1"",""1264""
","
","
","""event"",""trial"",""time""
""fullscreenenter"",""1"",""1264""
","
","","","","","","null","<div style=""font-size:60px;"">+</div>","null","","fixation","","",""
"memory-trial","234","528537","0.0-18.0-1.94","4327","approach_avoid_sv1","""event"",""trial"",""time""
""fullscreenenter"",""1"",""1264""
","
","
","""event"",""trial"",""time""
""fullscreenenter"",""1"",""1264""
","
","","","","","","1207.0999999940395","images/cat3.png","","","memory_trial","4","definitely_new",""
"html-keyboard-response","235","529041","0.0-18.0-0.95","4327","approach_avoid_sv1","""event"",""trial"",""time""
""fullscreenenter"",""1"",""1264""
","
","
","""event"",""trial"",""time""
""fullscreenenter"",""1"",""1264""
","
","","","","","","null","<div style=""font-size:60px;"">+</div>","null","","fixation","","",""
"memory-trial","236","530921","0.0-18.0-1.95","4327","approach_avoid_sv1","""event"",""trial"",""time""
""fullscreenenter"",""1"",""1264""
","
","
","""event"",""trial"",""time""
""fullscreenenter"",""1"",""1264""
","
","","","","","","864.5999999940395","images/tree4.png","","","memory_trial","4","definitely_new",""
"html-keyboard-response","237","531436","0.0-18.0-0.96","4327","approach_avoid_sv1","""event"",""trial"",""time""
""fullscreenenter"",""1"",""1264""
","
","
","""event"",""trial"",""time""
""fullscreenenter"",""1"",""1264""
","
","","","","","","null","<div style=""font-size:60px;"">+</div>","null","","fixation","","",""
"memory-trial","238","533384","0.0-18.0-1.96","4327","approach_avoid_sv1","""event"",""trial"",""time""
""fullscreenenter"",""1"",""1264""
","
","
","""event"",""trial"",""time""
""fullscreenenter"",""1"",""1264""
","
","","","","","","939.6999999880791","images/table6.png","","","memory_trial","4","definitely_new",""
"html-keyboard-response","239","533888","0.0-18.0-0.97","4327","approach_avoid_sv1","""event"",""trial"",""time""
""fullscreenenter"",""1"",""1264""
","
","
","""event"",""trial"",""time""
""fullscreenenter"",""1"",""1264""
","
","","","","","","null","<div style=""font-size:60px;"">+</div>","null","","fixation","","",""
"memory-trial","240","536881","0.0-18.0-1.97","4327","approach_avoid_sv1","""event"",""trial"",""time""
""fullscreenenter"",""1"",""1264""
","
","
","""event"",""trial"",""time""
""fullscreenenter"",""1"",""1264""
","
","","","","","","1989.9000000059605","images/banana3.png","","","memory_trial","1","definitely_old",""
"html-keyboard-response","241","537385","0.0-18.0-0.98","4327","approach_avoid_sv1","""event"",""trial"",""time""
""fullscreenenter"",""1"",""1264""
","
","
","""event"",""trial"",""time""
""fullscreenenter"",""1"",""1264""
","
","","","","","","null","<div style=""font-size:60px;"">+</div>","null","","fixation","","",""
"memory-trial","242","539377","0.0-18.0-1.98","4327","approach_avoid_sv1","""event"",""trial"",""time""
""fullscreenenter"",""1"",""1264""
","
","
","""event"",""trial"",""time""
""fullscreenenter"",""1"",""1264""
","
","","","","","","985.8000000119209","images/dog1.png","","","memory_trial","1","definitely_old",""
"html-keyboard-response","243","539880","0.0-18.0-0.99","4327","approach_avoid_sv1","""event"",""trial"",""time""
""fullscreenenter"",""1"",""1264""
","
","
","""event"",""trial"",""time""
""fullscreenenter"",""1"",""1264""
","
","","","","","","null","<div style=""font-size:60px;"">+</div>","null","","fixation","","",""
"memory-trial","244","541880","0.0-18.0-1.99","4327","approach_avoid_sv1","""event"",""trial"",""time""
""fullscreenenter"",""1"",""1264""
","
","
","""event"",""trial"",""time""
""fullscreenenter"",""1"",""1264""
","
","","","","","","993","images/sofa7.png","","","memory_trial","4","definitely_new",""
"html-keyboard-response","245","542388","0.0-18.0-0.100","4327","approach_avoid_sv1","""event"",""trial"",""time""
""fullscreenenter"",""1"",""1264""
","
","
","""event"",""trial"",""time""
""fullscreenenter"",""1"",""1264""
","
","","","","","","null","<div style=""font-size:60px;"">+</div>","null","","fixation","","",""
"memory-trial","246","544081","0.0-18.0-1.100","4327","approach_avoid_sv1","""event"",""trial"",""time""
""fullscreenenter"",""1"",""1264""
","
","
","""event"",""trial"",""time""
""fullscreenenter"",""1"",""1264""
","
","","","","","","688.1000000238419","images/rodent6.png","","","memory_trial","4","definitely_new",""
"html-keyboard-response","247","544585","0.0-18.0-0.101","4327","approach_avoid_sv1","""event"",""trial"",""time""
""fullscreenenter"",""1"",""1264""
","
","
","""event"",""trial"",""time""
""fullscreenenter"",""1"",""1264""
","
","","","","","","null","<div style=""font-size:60px;"">+</div>","null","","fixation","","",""
"memory-trial","248","546609","0.0-18.0-1.101","4327","approach_avoid_sv1","""event"",""trial"",""time""
""fullscreenenter"",""1"",""1264""
","
","
","""event"",""trial"",""time""
""fullscreenenter"",""1"",""1264""
","
","","","","","","1020.8000000119209","images/table7.png","","","memory_trial","1","definitely_old",""
"html-keyboard-response","249","547124","0.0-18.0-0.102","4327","approach_avoid_sv1","""event"",""trial"",""time""
""fullscreenenter"",""1"",""1264""
","
","
","""event"",""trial"",""time""
""fullscreenenter"",""1"",""1264""
","
","","","","","","null","<div style=""font-size:60px;"">+</div>","null","","fixation","","",""
"memory-trial","250","549297","0.0-18.0-1.102","4327","approach_avoid_sv1","""event"",""trial"",""time""
""fullscreenenter"",""1"",""1264""
","
","
","""event"",""trial"",""time""
""fullscreenenter"",""1"",""1264""
","
","","","","","","1170.0999999940395","images/flower1.png","","","memory_trial","4","definitely_new",""
"html-keyboard-response","251","549800","0.0-18.0-0.103","4327","approach_avoid_sv1","""event"",""trial"",""time""
""fullscreenenter"",""1"",""1264""
","
","
","""event"",""trial"",""time""
""fullscreenenter"",""1"",""1264""
","
","","","","","","null","<div style=""font-size:60px;"">+</div>","null","","fixation","","",""
"memory-trial","252","551625","0.0-18.0-1.103","4327","approach_avoid_sv1","""event"",""trial"",""time""
""fullscreenenter"",""1"",""1264""
","
","
","""event"",""trial"",""time""
""fullscreenenter"",""1"",""1264""
","
","","","","","","822.4000000059605","images/apple1.png","","","memory_trial","1","definitely_old",""
"html-keyboard-response","253","552129","0.0-18.0-0.104","4327","approach_avoid_sv1","""event"",""trial"",""time""
""fullscreenenter"",""1"",""1264""
","
","
","""event"",""trial"",""time""
""fullscreenenter"",""1"",""1264""
","
","","","","","","null","<div style=""font-size:60px;"">+</div>","null","","fixation","","",""
"memory-trial","254","554097","0.0-18.0-1.104","4327","approach_avoid_sv1","""event"",""trial"",""time""
""fullscreenenter"",""1"",""1264""
","
","
","""event"",""trial"",""time""
""fullscreenenter"",""1"",""1264""
","
","","","","","","958.1999999880791","images/boat3.png","","","memory_trial","4","definitely_new",""
"html-keyboard-response","255","554601","0.0-18.0-0.105","4327","approach_avoid_sv1","""event"",""trial"",""time""
""fullscreenenter"",""1"",""1264""
","
","
","""event"",""trial"",""time""
""fullscreenenter"",""1"",""1264""
","
","","","","","","null","<div style=""font-size:60px;"">+</div>","null","","fixation","","",""
"memory-trial","256","557113","0.0-18.0-1.105","4327","approach_avoid_sv1","""event"",""trial"",""time""
""fullscreenenter"",""1"",""1264""
","
","
","""event"",""trial"",""time""
""fullscreenenter"",""1"",""1264""
","
","","","","","","1505.699999988079","images/chair7.png","","","memory_trial","4","definitely_new",""
"html-keyboard-response","257","557618","0.0-18.0-0.106","4327","approach_avoid_sv1","""event"",""trial"",""time""
""fullscreenenter"",""1"",""1264""
","
","
","""event"",""trial"",""time""
""fullscreenenter"",""1"",""1264""
","
","","","","","","null","<div style=""font-size:60px;"">+</div>","null","","fixation","","",""
"memory-trial","258","559417","0.0-18.0-1.106","4327","approach_avoid_sv1","""event"",""trial"",""time""
""fullscreenenter"",""1"",""1264""
","
","
","""event"",""trial"",""time""
""fullscreenenter"",""1"",""1264""
","
","","","","","","795.6999999880791","images/tree6.png","","","memory_trial","1","definitely_old",""
"html-keyboard-response","259","559921","0.0-18.0-0.107","4327","approach_avoid_sv1","""event"",""trial"",""time""
""fullscreenenter"",""1"",""1264""
","
","
","""event"",""trial"",""time""
""fullscreenenter"",""1"",""1264""
","
","","","","","","null","<div style=""font-size:60px;"">+</div>","null","","fixation","","",""
"memory-trial","260","561608","0.0-18.0-1.107","4327","approach_avoid_sv1","""event"",""trial"",""time""
""fullscreenenter"",""1"",""1264""
","
","
","""event"",""trial"",""time""
""fullscreenenter"",""1"",""1264""
","
","","","","","","684.3000000119209","images/bush4.png","","","memory_trial","1","definitely_old",""
"html-keyboard-response","261","562113","0.0-18.0-0.108","4327","approach_avoid_sv1","""event"",""trial"",""time""
""fullscreenenter"",""1"",""1264""
","
","
","""event"",""trial"",""time""
""fullscreenenter"",""1"",""1264""
","
","","","","","","null","<div style=""font-size:60px;"">+</div>","null","","fixation","","",""
"memory-trial","262","563979","0.0-18.0-1.108","4327","approach_avoid_sv1","""event"",""trial"",""time""
""fullscreenenter"",""1"",""1264""
","
","
","""event"",""trial"",""time""
""fullscreenenter"",""1"",""1264""
","
","","","","","","855.2000000178814","images/boat1.png","","","memory_trial","1","definitely_old",""
"html-keyboard-response","263","564481","0.0-18.0-0.109","4327","approach_avoid_sv1","""event"",""trial"",""time""
""fullscreenenter"",""1"",""1264""
","
","
","""event"",""trial"",""time""
""fullscreenenter"",""1"",""1264""
","
","","","","","","null","<div style=""font-size:60px;"">+</div>","null","","fixation","","",""
"memory-trial","264","566906","0.0-18.0-1.109","4327","approach_avoid_sv1","""event"",""trial"",""time""
""fullscreenenter"",""1"",""1264""
","
","
","""event"",""trial"",""time""
""fullscreenenter"",""1"",""1264""
","
","","","","","","1421.2000000178814","images/table2.png","","","memory_trial","1","definitely_old",""
"html-keyboard-response","265","567409","0.0-18.0-0.110","4327","approach_avoid_sv1","""event"",""trial"",""time""
""fullscreenenter"",""1"",""1264""
","
","
","""event"",""trial"",""time""
""fullscreenenter"",""1"",""1264""
","
","","","","","","null","<div style=""font-size:60px;"">+</div>","null","","fixation","","",""
"memory-trial","266","569746","0.0-18.0-1.110","4327","approach_avoid_sv1","""event"",""trial"",""time""
""fullscreenenter"",""1"",""1264""
","
","
","""event"",""trial"",""time""
""fullscreenenter"",""1"",""1264""
","
","","","","","","1330.5","images/apple8.png","","","memory_trial","2","maybe_old",""
"html-keyboard-response","267","570263","0.0-18.0-0.111","4327","approach_avoid_sv1","""event"",""trial"",""time""
""fullscreenenter"",""1"",""1264""
","
","
","""event"",""trial"",""time""
""fullscreenenter"",""1"",""1264""
","
","","","","","","null","<div style=""font-size:60px;"">+</div>","null","","fixation","","",""
"memory-trial","268","573201","0.0-18.0-1.111","4327","approach_avoid_sv1","""event"",""trial"",""time""
""fullscreenenter"",""1"",""1264""
","
","
","""event"",""trial"",""time""
""fullscreenenter"",""1"",""1264""
","
","","","","","","1933.9000000059605","images/goat5.png","","","memory_trial","2","maybe_old",""
"html-keyboard-response","269","573706","0.0-18.0-0.112","4327","approach_avoid_sv1","""event"",""trial"",""time""
""fullscreenenter"",""1"",""1264""
","
","
","""event"",""trial"",""time""
""fullscreenenter"",""1"",""1264""
","
","","","","","","null","<div style=""font-size:60px;"">+</div>","null","","fixation","","",""
"memory-trial","270","576241","0.0-18.0-1.112","4327","approach_avoid_sv1","""event"",""trial"",""time""
""fullscreenenter"",""1"",""1264""
","
","
","""event"",""trial"",""time""
""fullscreenenter"",""1"",""1264""
","
","","","","","","1530","images/cow5.png","","","memory_trial","3","maybe_new",""
"html-keyboard-response","271","576745","0.0-18.0-0.113","4327","approach_avoid_sv1","""event"",""trial"",""time""
""fullscreenenter"",""1"",""1264""
","
","
","""event"",""trial"",""time""
""fullscreenenter"",""1"",""1264""
","
","","","","","","null","<div style=""font-size:60px;"">+</div>","null","","fixation","","",""
"memory-trial","272","578514","0.0-18.0-1.113","4327","approach_avoid_sv1","""event"",""trial"",""time""
""fullscreenenter"",""1"",""1264""
","
","
","""event"",""trial"",""time""
""fullscreenenter"",""1"",""1264""
","
","","","","","","764.5999999940395","images/banana5.png","","","memory_trial","1","definitely_old",""
"html-keyboard-response","273","579017","0.0-18.0-0.114","4327","approach_avoid_sv1","""event"",""trial"",""time""
""fullscreenenter"",""1"",""1264""
","
","
","""event"",""trial"",""time""
""fullscreenenter"",""1"",""1264""
","
","","","","","","null","<div style=""font-size:60px;"">+</div>","null","","fixation","","",""
"memory-trial","274","581474","0.0-18.0-1.114","4327","approach_avoid_sv1","""event"",""trial"",""time""
""fullscreenenter"",""1"",""1264""
","
","
","""event"",""trial"",""time""
""fullscreenenter"",""1"",""1264""
","
","","","","","","1453.0999999940395","images/horse7.png","","","memory_trial","1","definitely_old",""
"html-keyboard-response","275","581992","0.0-18.0-0.115","4327","approach_avoid_sv1","""event"",""trial"",""time""
""fullscreenenter"",""1"",""1264""
","
","
","""event"",""trial"",""time""
""fullscreenenter"",""1"",""1264""
","
","","","","","","null","<div style=""font-size:60px;"">+</div>","null","","fixation","","",""
"memory-trial","276","583921","0.0-18.0-1.115","4327","approach_avoid_sv1","""event"",""trial"",""time""
""fullscreenenter"",""1"",""1264""
","
","
","""event"",""trial"",""time""
""fullscreenenter"",""1"",""1264""
","
","","","","","","921.8000000119209","images/straw2.png","","","memory_trial","4","definitely_new",""
"html-keyboard-response","277","584426","0.0-18.0-0.116","4327","approach_avoid_sv1","""event"",""trial"",""time""
""fullscreenenter"",""1"",""1264""
","
","
","""event"",""trial"",""time""
""fullscreenenter"",""1"",""1264""
","
","","","","","","null","<div style=""font-size:60px;"">+</div>","null","","fixation","","",""
"memory-trial","278","586193","0.0-18.0-1.116","4327","approach_avoid_sv1","""event"",""trial"",""time""
""fullscreenenter"",""1"",""1264""
","
","
","""event"",""trial"",""time""
""fullscreenenter"",""1"",""1264""
","
","","","","","","760.5","images/banana6.png","","","memory_trial","1","definitely_old",""
"html-keyboard-response","279","586698","0.0-18.0-0.117","4327","approach_avoid_sv1","""event"",""trial"",""time""
""fullscreenenter"",""1"",""1264""
","
","
","""event"",""trial"",""time""
""fullscreenenter"",""1"",""1264""
","
","","","","","","null","<div style=""font-size:60px;"">+</div>","null","","fixation","","",""
"memory-trial","280","589585","0.0-18.0-1.117","4327","approach_avoid_sv1","""event"",""trial"",""time""
""fullscreenenter"",""1"",""1264""
","
","
","""event"",""trial"",""time""
""fullscreenenter"",""1"",""1264""
","
","","","","","","1884.5999999940395","images/plane7.png","","","memory_trial","2","maybe_old",""
"html-keyboard-response","281","590089","0.0-18.0-0.118","4327","approach_avoid_sv1","""event"",""trial"",""time""
""fullscreenenter"",""1"",""1264""
","
","
","""event"",""trial"",""time""
""fullscreenenter"",""1"",""1264""
","
","","","","","","null","<div style=""font-size:60px;"">+</div>","null","","fixation","","",""
"memory-trial","282","593210","0.0-18.0-1.118","4327","approach_avoid_sv1","""event"",""trial"",""time""
""fullscreenenter"",""1"",""1264""
","
","
","""event"",""trial"",""time""
""fullscreenenter"",""1"",""1264""
","
","","","","","","2109.2999999821186","images/apple5.png","","","memory_trial","3","maybe_new",""
"html-keyboard-response","283","593714","0.0-18.0-0.119","4327","approach_avoid_sv1","""event"",""trial"",""time""
""fullscreenenter"",""1"",""1264""
","
","
","""event"",""trial"",""time""
""fullscreenenter"",""1"",""1264""
","
","","","","","","null","<div style=""font-size:60px;"">+</div>","null","","fixation","","",""
"memory-trial","284","596073","0.0-18.0-1.119","4327","approach_avoid_sv1","""event"",""trial"",""time""
""fullscreenenter"",""1"",""1264""
","
","
","""event"",""trial"",""time""
""fullscreenenter"",""1"",""1264""
","
","","","","","","1355.4000000059605","images/table8.png","","","memory_trial","2","maybe_old",""
"html-keyboard-response","285","596577","0.0-18.0-0.120","4327","approach_avoid_sv1","""event"",""trial"",""time""
""fullscreenenter"",""1"",""1264""
","
","
","""event"",""trial"",""time""
""fullscreenenter"",""1"",""1264""
","
","","","","","","null","<div style=""font-size:60px;"">+</div>","null","","fixation","","",""
"memory-trial","286","599826","0.0-18.0-1.120","4327","approach_avoid_sv1","""event"",""trial"",""time""
""fullscreenenter"",""1"",""1264""
","
","
","""event"",""trial"",""time""
""fullscreenenter"",""1"",""1264""
","
","","","","","","2243.600000023842","images/plane6.png","","","memory_trial","3","maybe_new",""
"html-keyboard-response","287","600331","0.0-18.0-0.121","4327","approach_avoid_sv1","""event"",""trial"",""time""
""fullscreenenter"",""1"",""1264""
","
","
","""event"",""trial"",""time""
""fullscreenenter"",""1"",""1264""
","
","","","","","","null","<div style=""font-size:60px;"">+</div>","null","","fixation","","",""
"memory-trial","288","602130","0.0-18.0-1.121","4327","approach_avoid_sv1","""event"",""trial"",""time""
""fullscreenenter"",""1"",""1264""
","
","
","""event"",""trial"",""time""
""fullscreenenter"",""1"",""1264""
","
","","","","","","793.3999999761581","images/sheep1.png","","","memory_trial","1","definitely_old",""
"html-keyboard-response","289","602632","0.0-18.0-0.122","4327","approach_avoid_sv1","""event"",""trial"",""time""
""fullscreenenter"",""1"",""1264""
","
","
","""event"",""trial"",""time""
""fullscreenenter"",""1"",""1264""
","
","","","","","","null","<div style=""font-size:60px;"">+</div>","null","","fixation","","",""
"memory-trial","290","604825","0.0-18.0-1.122","4327","approach_avoid_sv1","""event"",""trial"",""time""
""fullscreenenter"",""1"",""1264""
","
","
","""event"",""trial"",""time""
""fullscreenenter"",""1"",""1264""
","
","","","","","","1190.5","images/straw1.png","","","memory_trial","4","definitely_new",""
"html-keyboard-response","291","605329","0.0-18.0-0.123","4327","approach_avoid_sv1","""event"",""trial"",""time""
""fullscreenenter"",""1"",""1264""
","
","
","""event"",""trial"",""time""
""fullscreenenter"",""1"",""1264""
","
","","","","","","null","<div style=""font-size:60px;"">+</div>","null","","fixation","","",""
"memory-trial","292","608113","0.0-18.0-1.123","4327","approach_avoid_sv1","""event"",""trial"",""time""
""fullscreenenter"",""1"",""1264""
","
","
","""event"",""trial"",""time""
""fullscreenenter"",""1"",""1264""
","
","","","","","","1779.0999999940395","images/bush6.png","","","memory_trial","2","maybe_old",""
"html-keyboard-response","293","608617","0.0-18.0-0.124","4327","approach_avoid_sv1","""event"",""trial"",""time""
""fullscreenenter"",""1"",""1264""
","
","
","""event"",""trial"",""time""
""fullscreenenter"",""1"",""1264""
","
","","","","","","null","<div style=""font-size:60px;"">+</div>","null","","fixation","","",""
"memory-trial","294","610673","0.0-18.0-1.124","4327","approach_avoid_sv1","""event"",""trial"",""time""
""fullscreenenter"",""1"",""1264""
","
","
","""event"",""trial"",""time""
""fullscreenenter"",""1"",""1264""
","
","","","","","","1052.9000000059605","images/sheep8.png","","","memory_trial","3","maybe_new",""
"html-keyboard-response","295","611177","0.0-18.0-0.125","4327","approach_avoid_sv1","""event"",""trial"",""time""
""fullscreenenter"",""1"",""1264""
","
","
","""event"",""trial"",""time""
""fullscreenenter"",""1"",""1264""
","
","","","","","","null","<div style=""font-size:60px;"">+</div>","null","","fixation","","",""
"memory-trial","296","613417","0.0-18.0-1.125","4327","approach_avoid_sv1","""event"",""trial"",""time""
""fullscreenenter"",""1"",""1264""
","
","
","""event"",""trial"",""time""
""fullscreenenter"",""1"",""1264""
","
","","","","","","1233.0999999940395","images/train6.png","","","memory_trial","1","definitely_old",""
"html-keyboard-response","297","613921","0.0-18.0-0.126","4327","approach_avoid_sv1","""event"",""trial"",""time""
