"trial_type","trial_index","time_elapsed","internal_node_id","subject_id","task_version","interactions","blur_events","focus_events","fullscreenenter_events","fullscreenexit_events","success","timeout","failed_images","failed_audio","failed_video","rt","stimulus","response","button_pressed","task_part","key_press","answer","correct"
"pavlovia","0","3","0.0-0.0","7718","approach_avoid_sv1","""event"",""trial"",""time""
""fullscreenenter"",""1"",""1392""
","
","
","""event"",""trial"",""time""
""fullscreenenter"",""1"",""1392""
","
","","","","","","","","","","","","",""
"fullscreen","1","2385","0.0-1.0","7718","approach_avoid_sv1","""event"",""trial"",""time""
""fullscreenenter"",""1"",""1392""
","
","
","""event"",""trial"",""time""
""fullscreenenter"",""1"",""1392""
","
","true","","","","","","","","","","","",""
"preload","2","5370","0.0-2.0","7718","approach_avoid_sv1","""event"",""trial"",""time""
""fullscreenenter"",""1"",""1392""
","
","
","""event"",""trial"",""time""
""fullscreenenter"",""1"",""1392""
","
","true","false","[]","[]","[]","","","","","","","",""
"preload","3","5979","0.0-3.0","7718","approach_avoid_sv1","""event"",""trial"",""time""
""fullscreenenter"",""1"",""1392""
","
","
","""event"",""trial"",""time""
""fullscreenenter"",""1"",""1392""
","
","true","false","[]","[]","[]","","","","","","","",""
"preload","4","6201","0.0-4.0","7718","approach_avoid_sv1","""event"",""trial"",""time""
""fullscreenenter"",""1"",""1392""
","
","
","""event"",""trial"",""time""
""fullscreenenter"",""1"",""1392""
","
","true","false","[]","[]","[]","","","","","","","",""
"audio-keyboard-response","5","7874","0.0-5.0","7718","approach_avoid_sv1","""event"",""trial"",""time""
""fullscreenenter"",""1"",""1392""
","
","
","""event"",""trial"",""time""
""fullscreenenter"",""1"",""1392""
","
","","","","","","1669.3333333333333","audio/beep_loop.wav"," ","","","","",""
"audio-button-response","6","9193","0.0-6.0","7718","approach_avoid_sv1","""event"",""trial"",""time""
""fullscreenenter"",""1"",""1392""
","
","
","""event"",""trial"",""time""
""fullscreenenter"",""1"",""1392""
","
","","","","","","1320","audio/turtle.wav","3","","","","",""
"audio-button-response","7","11008","0.0-7.0","7718","approach_avoid_sv1","""event"",""trial"",""time""
""fullscreenenter"",""1"",""1392""
","
","
","""event"",""trial"",""time""
""fullscreenenter"",""1"",""1392""
","
","","","","","","821","audio/shark.wav","2","","","","",""
"preload","8","13495","0.0-8.0","7718","approach_avoid_sv1","""event"",""trial"",""time""
""fullscreenenter"",""1"",""1392""
","
","
","""event"",""trial"",""time""
""fullscreenenter"",""1"",""1392""
","
","true","false","[]","[]","[]","","","","","","","",""
"learning-instructions","9","29775","0.0-9.0-0.0","7718","approach_avoid_sv1","""event"",""trial"",""time""
""fullscreenenter"",""1"",""1392""
","
","
","""event"",""trial"",""time""
""fullscreenenter"",""1"",""1392""
","
","","","","","","11807.800000011921","<p> Welcome back! </p><p> Last week, you had to make choices about lots of different items.  </p>","","0","instructions","","",""
"learning-instructions","10","35046","0.0-9.0-0.1","7718","approach_avoid_sv1","""event"",""trial"",""time""
""fullscreenenter"",""1"",""1392""
","
","
","""event"",""trial"",""time""
""fullscreenenter"",""1"",""1392""
","
","","","","","","1159.699999988079","<p> Today, we are going to ask you to try to remember all the items. </p>","","0","instructions","","",""
"learning-instructions","11","45658","0.0-9.0-0.2","7718","approach_avoid_sv1","""event"",""trial"",""time""
""fullscreenenter"",""1"",""1392""
","
","
","""event"",""trial"",""time""
""fullscreenenter"",""1"",""1392""
","
","","","","","","481.90000000596046","<p> On every trial, you will see an image. </p><p> The image may be an OLD image you saw during the games last week or it may be a NEW image that was not presented. </p>","","0","instructions","","",""
"learning-instructions","12","54854","0.0-9.0-0.3","7718","approach_avoid_sv1","""event"",""trial"",""time""
""fullscreenenter"",""1"",""1392""
","
","
","""event"",""trial"",""time""
""fullscreenenter"",""1"",""1392""
","
","","","","","","697.6000000238419","<p> You need to select whether the image is:  </p><p>  'Definitely old', 'Maybe old', 'Maybe new', or 'Definitely new.'  </p><div class=""mem-choice-instructions-grid""><div class=""choice-option"" id=""choice-option-1"" ><img src=""images/definitely_old_1.png"" id=""choice-option-img-1"" class=""choice-option-img"" stage=""1""></div><div class=""choice-option"" id=""choice-option-2"" ><img src=""images/maybe_old_1.png"" id=""choice-option-img-2"" class=""choice-option-img"" stage=""1""></div><div class=""choice-option"" id=""choice-option-3"" ><img src=""images/maybe_new_1.png"" id=""choice-option-img-3"" class=""choice-option-img"" stage=""1""></div><div class=""choice-option"" id=""choice-option-4"" > <img src=""images/definitely_new_1.png"" id=""choice-option-img-4"" class=""choice-option-img"" stage=""1""></div></div>","","0","instructions","","",""
"learning-instructions","13","61880","0.0-9.0-0.4","7718","approach_avoid_sv1","""event"",""trial"",""time""
""fullscreenenter"",""1"",""1392""
","
","
","""event"",""trial"",""time""
""fullscreenenter"",""1"",""1392""
","
","","","","","","503.5","<p> You should use the 1, 2, 3, and 4 keys to make your responses.  </p><div class=""mem-choice-instructions-grid""><div class=""choice-option"" id=""choice-option-1"" ><img src=""images/definitely_old.png"" id=""choice-option-img-1"" class=""choice-option-img"" stage=""1""></div><div class=""choice-option"" id=""choice-option-2"" ><img src=""images/maybe_old.png"" id=""choice-option-img-2"" class=""choice-option-img"" stage=""1""></div><div class=""choice-option"" id=""choice-option-3"" ><img src=""images/maybe_new.png"" id=""choice-option-img-3"" class=""choice-option-img"" stage=""1""></div><div class=""choice-option"" id=""choice-option-4"" > <img src=""images/definitely_new.png"" id=""choice-option-img-4"" class=""choice-option-img"" stage=""1""></div></div>","","0","instructions","","",""
"learning-instructions","14","68542","0.0-9.0-0.5","7718","approach_avoid_sv1","""event"",""trial"",""time""
""fullscreenenter"",""1"",""1392""
","
","
","""event"",""trial"",""time""
""fullscreenenter"",""1"",""1392""
","
","","","","","","326.2000000178814","<p> You will have 10 seconds to make each response.  </p><p>  Make sure to respond before time runs out! </p>","","0","instructions","","",""
"learning-instructions","15","75912","0.0-9.0-0.6","7718","approach_avoid_sv1","""event"",""trial"",""time""
""fullscreenenter"",""1"",""1392""
","
","
","""event"",""trial"",""time""
""fullscreenenter"",""1"",""1392""
","
","","","","","","296.2000000178814","<p> Today, you will see each image ONCE only.  </p><p>  That means none of the images will repeat. </p>","","0","instructions","","",""
"learning-instructions","16","88874","0.0-9.0-0.7","7718","approach_avoid_sv1","""event"",""trial"",""time""
""fullscreenenter"",""1"",""1392""
","
","
","""event"",""trial"",""time""
""fullscreenenter"",""1"",""1392""
","
","","","","","","297.7000000178814","<p> Before you play the real game, it is time to practice. </p><p>  Just like in the real game, some of the images in the practice will be ones you have seen before. </p><p>  Others will be entirely new. </p>","","0","instructions","","",""
"html-button-response","17","89985","0.0-10.0","7718","approach_avoid_sv1","""event"",""trial"",""time""
""fullscreenenter"",""1"",""1392""
","
","
","""event"",""trial"",""time""
""fullscreenenter"",""1"",""1392""
","
","","","","","","1001.0999999940395","<p> Ready to practice? </p><p> Remember, use the 1, 2, 3, and 4 keys to make your responses. </p>","0","","instructions","","",""
"html-keyboard-response","18","90596","0.0-11.0-0.0","7718","approach_avoid_sv1","""event"",""trial"",""time""
""fullscreenenter"",""1"",""1392""
","
","
","""event"",""trial"",""time""
""fullscreenenter"",""1"",""1392""
","
","","","","","","null","<div style=""font-size:60px;"">+</div>","null","","fixation","","",""
"memory-trial","19","94939","0.0-11.0-1.0","7718","approach_avoid_sv1","""event"",""trial"",""time""
""fullscreenenter"",""1"",""1392""
","
","
","""event"",""trial"",""time""
""fullscreenenter"",""1"",""1392""
","
","","","","","","3331.300000011921","images/racket3.png","","","practice","1","definitely_old",""
"html-keyboard-response","20","95441","0.0-11.0-0.1","7718","approach_avoid_sv1","""event"",""trial"",""time""
""fullscreenenter"",""1"",""1392""
","
","
","""event"",""trial"",""time""
""fullscreenenter"",""1"",""1392""
","
","","","","","","null","<div style=""font-size:60px;"">+</div>","null","","fixation","","",""
"memory-trial","21","98299","0.0-11.0-1.1","7718","approach_avoid_sv1","""event"",""trial"",""time""
""fullscreenenter"",""1"",""1392""
","
","
","""event"",""trial"",""time""
""fullscreenenter"",""1"",""1392""
","
","","","","","","1854.6000000238419","images/racket1.png","","","practice","2","maybe_old",""
"html-keyboard-response","22","98812","0.0-11.0-0.2","7718","approach_avoid_sv1","""event"",""trial"",""time""
""fullscreenenter"",""1"",""1392""
","
","
","""event"",""trial"",""time""
""fullscreenenter"",""1"",""1392""
","
","","","","","","null","<div style=""font-size:60px;"">+</div>","null","","fixation","","",""
"memory-trial","23","102237","0.0-11.0-1.2","7718","approach_avoid_sv1","""event"",""trial"",""time""
""fullscreenenter"",""1"",""1392""
","
","
","""event"",""trial"",""time""
""fullscreenenter"",""1"",""1392""
","
","","","","","","2419.100000023842","images/ball5.png","","","practice","3","maybe_new",""
"html-keyboard-response","24","102750","0.0-11.0-0.3","7718","approach_avoid_sv1","""event"",""trial"",""time""
""fullscreenenter"",""1"",""1392""
","
","
","""event"",""trial"",""time""
""fullscreenenter"",""1"",""1392""
","
","","","","","","null","<div style=""font-size:60px;"">+</div>","null","","fixation","","",""
"memory-trial","25","105845","0.0-11.0-1.3","7718","approach_avoid_sv1","""event"",""trial"",""time""
""fullscreenenter"",""1"",""1392""
","
","
","""event"",""trial"",""time""
""fullscreenenter"",""1"",""1392""
","
","","","","","","2081.800000011921","images/racket5.png","","","practice","2","maybe_old",""
"html-keyboard-response","26","106346","0.0-11.0-0.4","7718","approach_avoid_sv1","""event"",""trial"",""time""
""fullscreenenter"",""1"",""1392""
","
","
","""event"",""trial"",""time""
""fullscreenenter"",""1"",""1392""
","
","","","","","","null","<div style=""font-size:60px;"">+</div>","null","","fixation","","",""
"memory-trial","27","109544","0.0-11.0-1.4","7718","approach_avoid_sv1","""event"",""trial"",""time""
""fullscreenenter"",""1"",""1392""
","
","
","""event"",""trial"",""time""
""fullscreenenter"",""1"",""1392""
","
","","","","","","2189.5999999940395","images/ball2.png","","","practice","4","definitely_new",""
"html-keyboard-response","28","110046","0.0-11.0-0.5","7718","approach_avoid_sv1","""event"",""trial"",""time""
""fullscreenenter"",""1"",""1392""
","
","
","""event"",""trial"",""time""
""fullscreenenter"",""1"",""1392""
","
","","","","","","null","<div style=""font-size:60px;"">+</div>","null","","fixation","","",""
"memory-trial","29","112731","0.0-11.0-1.5","7718","approach_avoid_sv1","""event"",""trial"",""time""
""fullscreenenter"",""1"",""1392""
","
","
","""event"",""trial"",""time""
""fullscreenenter"",""1"",""1392""
","
","","","","","","1681.5999999940395","images/ball3.png","","","practice","2","maybe_old",""
"html-keyboard-response","30","113242","0.0-11.0-0.6","7718","approach_avoid_sv1","""event"",""trial"",""time""
""fullscreenenter"",""1"",""1392""
","
","
","""event"",""trial"",""time""
""fullscreenenter"",""1"",""1392""
","
","","","","","","null","<div style=""font-size:60px;"">+</div>","null","","fixation","","",""
"memory-trial","31","115814","0.0-11.0-1.6","7718","approach_avoid_sv1","""event"",""trial"",""time""
""fullscreenenter"",""1"",""1392""
","
","
","""event"",""trial"",""time""
""fullscreenenter"",""1"",""1392""
","
","","","","","","1557.300000011921","images/ball1.png","","","practice","2","maybe_old",""
"html-keyboard-response","32","116316","0.0-11.0-0.7","7718","approach_avoid_sv1","""event"",""trial"",""time""
""fullscreenenter"",""1"",""1392""
","
","
","""event"",""trial"",""time""
""fullscreenenter"",""1"",""1392""
","
","","","","","","null","<div style=""font-size:60px;"">+</div>","null","","fixation","","",""
"memory-trial","33","119018","0.0-11.0-1.7","7718","approach_avoid_sv1","""event"",""trial"",""time""
""fullscreenenter"",""1"",""1392""
","
","
","""event"",""trial"",""time""
""fullscreenenter"",""1"",""1392""
","
","","","","","","1700.0999999940395","images/racket2.png","","","practice","3","maybe_new",""
"learning-instructions","34","127305","0.0-12.0-0.0","7718","approach_avoid_sv1","""event"",""trial"",""time""
""fullscreenenter"",""1"",""1392""
","
","
","""event"",""trial"",""time""
""fullscreenenter"",""1"",""1392""
","
","","","","","","987.5","<p> Great! You have completed the practice. </p><p> Before you start, we're going to ask you a few questions about how the game works.  </p>","","0","instructions","","",""
"preload","35","128632","0.0-13.0","7718","approach_avoid_sv1","""event"",""trial"",""time""
""fullscreenenter"",""1"",""1392""
","
","
","""event"",""trial"",""time""
""fullscreenenter"",""1"",""1392""
","
","true","false","[]","[]","[]","","","","","","","",""
"comp-q","36","135935","0.0-14.0-0.0","7718","approach_avoid_sv1","""event"",""trial"",""time""
""fullscreenenter"",""1"",""1392""
","
","
","""event"",""trial"",""time""
""fullscreenenter"",""1"",""1392""
","
","","","","","","1477.9000000059605","<p> <b> True or False? </b> </p><p> In this game, you will only see each image once. </p>","","0","comp_question","","","true"
"comp-q","37","143545","0.0-14.0-1.0","7718","approach_avoid_sv1","""event"",""trial"",""time""
""fullscreenenter"",""1"",""1392""
","
","
","""event"",""trial"",""time""
""fullscreenenter"",""1"",""1392""
","
","","","","","","1267.9000000059605","<p> <b> That's right! </b> You will see many different images <i> one time each </i> in this game. </p>","","0","comp_answer","","",""
"comp-q","38","149038","0.0-15.0-0.0","7718","approach_avoid_sv1","""event"",""trial"",""time""
""fullscreenenter"",""1"",""1392""
","
","
","""event"",""trial"",""time""
""fullscreenenter"",""1"",""1392""
","
","","","","","","491.59999999403954","<p> <b> True or False? </b> </p><p> You should use the mouse and click to make your response. </p>","","1","comp_question","","","true"
"comp-q","39","159353","0.0-15.0-1.0","7718","approach_avoid_sv1","""event"",""trial"",""time""
""fullscreenenter"",""1"",""1392""
","
","
","""event"",""trial"",""time""
""fullscreenenter"",""1"",""1392""
","
","","","","","","3815.5999999940395","<p><b> That's right! </b> You should use the '1', '2', '3', and '4' keys to make your response. </p>","","0","comp_answer","","",""
"comp-q","40","165465","0.0-16.0-0.0","7718","approach_avoid_sv1","""event"",""trial"",""time""
""fullscreenenter"",""1"",""1392""
","
","
","""event"",""trial"",""time""
""fullscreenenter"",""1"",""1392""
","
","","","","","","437.90000000596046","<p> <b> True or False? </b> </p><p> You will have as much time as you want to make each choice. </p>","","1","comp_question","","","true"
"comp-q","41","170621","0.0-16.0-1.0","7718","approach_avoid_sv1","""event"",""trial"",""time""
""fullscreenenter"",""1"",""1392""
","
","
","""event"",""trial"",""time""
""fullscreenenter"",""1"",""1392""
","
","","","","","","463.59999999403954","<p> <b> That's right! </b> You will only have 10 seconds to make each choice. </p>","","0","comp_answer","","",""
"learning-instructions","42","180037","0.0-17.0","7718","approach_avoid_sv1","""event"",""trial"",""time""
""fullscreenenter"",""1"",""1392""
","
","
","""event"",""trial"",""time""
""fullscreenenter"",""1"",""1392""
","
","","","","","","740.3000000119209","<p> Great! You are now ready to begin the game. </p><p> Remember, use the 1, 2, 3, and 4 keys to make your responses. </p>","","0","instructions","","",""
"html-keyboard-response","43","180639","0.0-18.0-0.0","7718","approach_avoid_sv1","""event"",""trial"",""time""
""fullscreenenter"",""1"",""1392""
","
","
","""event"",""trial"",""time""
""fullscreenenter"",""1"",""1392""
","
","","","","","","null","<div style=""font-size:60px;"">+</div>","null","","fixation","","",""
"memory-trial","44","185775","0.0-18.0-1.0","7718","approach_avoid_sv1","""event"",""trial"",""time""
""fullscreenenter"",""1"",""1392""
","
","
","""event"",""trial"",""time""
""fullscreenenter"",""1"",""1392""
","
","","","","","","4129.200000017881","images/cat6.png","","","memory_trial","2","maybe_old",""
"html-keyboard-response","45","186286","0.0-18.0-0.1","7718","approach_avoid_sv1","""event"",""trial"",""time""
""fullscreenenter"",""1"",""1392""
","
","
","""event"",""trial"",""time""
""fullscreenenter"",""1"",""1392""
","
","","","","","","null","<div style=""font-size:60px;"">+</div>","null","","fixation","","",""
"memory-trial","46","188901","0.0-18.0-1.1","7718","approach_avoid_sv1","""event"",""trial"",""time""
""fullscreenenter"",""1"",""1392""
","
","
","""event"",""trial"",""time""
""fullscreenenter"",""1"",""1392""
","
","","","","","","1609.2000000178814","images/banana4.png","","","memory_trial","2","maybe_old",""
"html-keyboard-response","47","189414","0.0-18.0-0.2","7718","approach_avoid_sv1","""event"",""trial"",""time""
""fullscreenenter"",""1"",""1392""
","
","
","""event"",""trial"",""time""
""fullscreenenter"",""1"",""1392""
","
","","","","","","null","<div style=""font-size:60px;"">+</div>","null","","fixation","","",""
"memory-trial","48","192857","0.0-18.0-1.2","7718","approach_avoid_sv1","""event"",""trial"",""time""
""fullscreenenter"",""1"",""1392""
","
","
","""event"",""trial"",""time""
""fullscreenenter"",""1"",""1392""
","
","","","","","","2425.4000000059605","images/goat4.png","","","memory_trial","3","maybe_new",""
"html-keyboard-response","49","193358","0.0-18.0-0.3","7718","approach_avoid_sv1","""event"",""trial"",""time""
""fullscreenenter"",""1"",""1392""
","
","
","""event"",""trial"",""time""
""fullscreenenter"",""1"",""1392""
","
","","","","","","null","<div style=""font-size:60px;"">+</div>","null","","fixation","","",""
"memory-trial","50","196747","0.0-18.0-1.3","7718","approach_avoid_sv1","""event"",""trial"",""time""
""fullscreenenter"",""1"",""1392""
","
","
","""event"",""trial"",""time""
""fullscreenenter"",""1"",""1392""
","
","","","","","","2377.699999988079","images/boat2.png","","","memory_trial","1","definitely_old",""
"html-keyboard-response","51","197249","0.0-18.0-0.4","7718","approach_avoid_sv1","""event"",""trial"",""time""
""fullscreenenter"",""1"",""1392""
","
","
","""event"",""trial"",""time""
""fullscreenenter"",""1"",""1392""
","
","","","","","","null","<div style=""font-size:60px;"">+</div>","null","","fixation","","",""
"memory-trial","52","200160","0.0-18.0-1.4","7718","approach_avoid_sv1","""event"",""trial"",""time""
""fullscreenenter"",""1"",""1392""
","
","
","""event"",""trial"",""time""
""fullscreenenter"",""1"",""1392""
","
","","","","","","1894.6000000238419","images/bush5.png","","","memory_trial","4","definitely_new",""
"html-keyboard-response","53","200660","0.0-18.0-0.5","7718","approach_avoid_sv1","""event"",""trial"",""time""
""fullscreenenter"",""1"",""1392""
","
","
","""event"",""trial"",""time""
""fullscreenenter"",""1"",""1392""
","
","","","","","","null","<div style=""font-size:60px;"">+</div>","null","","fixation","","",""
"memory-trial","54","203460","0.0-18.0-1.5","7718","approach_avoid_sv1","""event"",""trial"",""time""
""fullscreenenter"",""1"",""1392""
","
","
","""event"",""trial"",""time""
""fullscreenenter"",""1"",""1392""
","
","","","","","","1796.1000000238419","images/table6.png","","","memory_trial","3","maybe_new",""
"html-keyboard-response","55","203961","0.0-18.0-0.6","7718","approach_avoid_sv1","""event"",""trial"",""time""
""fullscreenenter"",""1"",""1392""
","
","
","""event"",""trial"",""time""
""fullscreenenter"",""1"",""1392""
","
","","","","","","null","<div style=""font-size:60px;"">+</div>","null","","fixation","","",""
"memory-trial","56","206688","0.0-18.0-1.6","7718","approach_avoid_sv1","""event"",""trial"",""time""
""fullscreenenter"",""1"",""1392""
","
","
","""event"",""trial"",""time""
""fullscreenenter"",""1"",""1392""
","
","","","","","","1718.300000011921","images/cactus3.png","","","memory_trial","3","maybe_new",""
"html-keyboard-response","57","207198","0.0-18.0-0.7","7718","approach_avoid_sv1","""event"",""trial"",""time""
""fullscreenenter"",""1"",""1392""
","
","
","""event"",""trial"",""time""
""fullscreenenter"",""1"",""1392""
","
","","","","","","null","<div style=""font-size:60px;"">+</div>","null","","fixation","","",""
"memory-trial","58","210371","0.0-18.0-1.7","7718","approach_avoid_sv1","""event"",""trial"",""time""
""fullscreenenter"",""1"",""1392""
","
","
","""event"",""trial"",""time""
""fullscreenenter"",""1"",""1392""
","
","","","","","","2170.699999988079","images/truck6.png","","","memory_trial","2","maybe_old",""
"html-keyboard-response","59","210873","0.0-18.0-0.8","7718","approach_avoid_sv1","""event"",""trial"",""time""
""fullscreenenter"",""1"",""1392""
","
","
","""event"",""trial"",""time""
""fullscreenenter"",""1"",""1392""
","
","","","","","","null","<div style=""font-size:60px;"">+</div>","null","","fixation","","",""
"memory-trial","60","216467","0.0-18.0-1.8","7718","approach_avoid_sv1","""event"",""trial"",""time""
""fullscreenenter"",""1"",""1392""
","
","
","""event"",""trial"",""time""
""fullscreenenter"",""1"",""1392""
","
","","","","","","4590.0999999940395","images/dog7.png","","","memory_trial","3","maybe_new",""
"html-keyboard-response","61","216969","0.0-18.0-0.9","7718","approach_avoid_sv1","""event"",""trial"",""time""
""fullscreenenter"",""1"",""1392""
","
","
","""event"",""trial"",""time""
""fullscreenenter"",""1"",""1392""
","
","","","","","","null","<div style=""font-size:60px;"">+</div>","null","","fixation","","",""
"memory-trial","62","220611","0.0-18.0-1.9","7718","approach_avoid_sv1","""event"",""trial"",""time""
""fullscreenenter"",""1"",""1392""
","
","
","""event"",""trial"",""time""
""fullscreenenter"",""1"",""1392""
","
","","","","","","2637.800000011921","images/orange2.png","","","memory_trial","2","maybe_old",""
"html-keyboard-response","63","221113","0.0-18.0-0.10","7718","approach_avoid_sv1","""event"",""trial"",""time""
""fullscreenenter"",""1"",""1392""
","
","
","""event"",""trial"",""time""
""fullscreenenter"",""1"",""1392""
","
","","","","","","null","<div style=""font-size:60px;"">+</div>","null","","fixation","","",""
"memory-trial","64","223563","0.0-18.0-1.10","7718","approach_avoid_sv1","""event"",""trial"",""time""
""fullscreenenter"",""1"",""1392""
","
","
","""event"",""trial"",""time""
""fullscreenenter"",""1"",""1392""
","
","","","","","","1445.0999999940395","images/apple1.png","","","memory_trial","4","definitely_new",""
"html-keyboard-response","65","224066","0.0-18.0-0.11","7718","approach_avoid_sv1","""event"",""trial"",""time""
""fullscreenenter"",""1"",""1392""
","
","
","""event"",""trial"",""time""
""fullscreenenter"",""1"",""1392""
","
","","","","","","null","<div style=""font-size:60px;"">+</div>","null","","fixation","","",""
"memory-trial","66","226074","0.0-18.0-1.11","7718","approach_avoid_sv1","""event"",""trial"",""time""
""fullscreenenter"",""1"",""1392""
","
","
","""event"",""trial"",""time""
""fullscreenenter"",""1"",""1392""
","
","","","","","","1004.8000000119209","images/tree4.png","","","memory_trial","4","definitely_new",""
"html-keyboard-response","67","226576","0.0-18.0-0.12","7718","approach_avoid_sv1","""event"",""trial"",""time""
""fullscreenenter"",""1"",""1392""
","
","
","""event"",""trial"",""time""
""fullscreenenter"",""1"",""1392""
","
","","","","","","null","<div style=""font-size:60px;"">+</div>","null","","fixation","","",""
"memory-trial","68","229746","0.0-18.0-1.12","7718","approach_avoid_sv1","""event"",""trial"",""time""
""fullscreenenter"",""1"",""1392""
","
","
","""event"",""trial"",""time""
""fullscreenenter"",""1"",""1392""
","
","","","","","","2167.199999988079","images/cow4.png","","","memory_trial","3","maybe_new",""
"html-keyboard-response","69","230248","0.0-18.0-0.13","7718","approach_avoid_sv1","""event"",""trial"",""time""
""fullscreenenter"",""1"",""1392""
","
","
","""event"",""trial"",""time""
""fullscreenenter"",""1"",""1392""
","
","","","","","","null","<div style=""font-size:60px;"">+</div>","null","","fixation","","",""
"memory-trial","70","232763","0.0-18.0-1.13","7718","approach_avoid_sv1","""event"",""trial"",""time""
""fullscreenenter"",""1"",""1392""
","
","
","""event"",""trial"",""time""
""fullscreenenter"",""1"",""1392""
","
","","","","","","1511.7000000178814","images/tree2.png","","","memory_trial","3","maybe_new",""
"html-keyboard-response","71","233265","0.0-18.0-0.14","7718","approach_avoid_sv1","""event"",""trial"",""time""
""fullscreenenter"",""1"",""1392""
","
","
","""event"",""trial"",""time""
""fullscreenenter"",""1"",""1392""
","
","","","","","","null","<div style=""font-size:60px;"">+</div>","null","","fixation","","",""
"memory-trial","72","235682","0.0-18.0-1.14","7718","approach_avoid_sv1","""event"",""trial"",""time""
""fullscreenenter"",""1"",""1392""
","
","
","""event"",""trial"",""time""
""fullscreenenter"",""1"",""1392""
","
","","","","","","1413.300000011921","images/rodent6.png","","","memory_trial","4","definitely_new",""
"html-keyboard-response","73","236183","0.0-18.0-0.15","7718","approach_avoid_sv1","""event"",""trial"",""time""
""fullscreenenter"",""1"",""1392""
","
","
","""event"",""trial"",""time""
""fullscreenenter"",""1"",""1392""
","
","","","","","","null","<div style=""font-size:60px;"">+</div>","null","","fixation","","",""
"memory-trial","74","238746","0.0-18.0-1.15","7718","approach_avoid_sv1","""event"",""trial"",""time""
""fullscreenenter"",""1"",""1392""
","
","
","""event"",""trial"",""time""
""fullscreenenter"",""1"",""1392""
","
","","","","","","1560","images/banana3.png","","","memory_trial","3","maybe_new",""
"html-keyboard-response","75","239248","0.0-18.0-0.16","7718","approach_avoid_sv1","""event"",""trial"",""time""
""fullscreenenter"",""1"",""1392""
","
","
","""event"",""trial"",""time""
""fullscreenenter"",""1"",""1392""
","
","","","","","","null","<div style=""font-size:60px;"">+</div>","null","","fixation","","",""
"memory-trial","76","241571","0.0-18.0-1.16","7718","approach_avoid_sv1","""event"",""trial"",""time""
""fullscreenenter"",""1"",""1392""
","
","
","""event"",""trial"",""time""
""fullscreenenter"",""1"",""1392""
","
","","","","","","1318.1000000238419","images/dog1.png","","","memory_trial","2","maybe_old",""
"html-keyboard-response","77","242073","0.0-18.0-0.17","7718","approach_avoid_sv1","""event"",""trial"",""time""
""fullscreenenter"",""1"",""1392""
","
","
","""event"",""trial"",""time""
""fullscreenenter"",""1"",""1392""
","
","","","","","","null","<div style=""font-size:60px;"">+</div>","null","","fixation","","",""
"memory-trial","78","244620","0.0-18.0-1.17","7718","approach_avoid_sv1","""event"",""trial"",""time""
""fullscreenenter"",""1"",""1392""
","
","
","""event"",""trial"",""time""
""fullscreenenter"",""1"",""1392""
","
","","","","","","1544.1000000238419","images/rodent2.png","","","memory_trial","3","maybe_new",""
"html-keyboard-response","79","245121","0.0-18.0-0.18","7718","approach_avoid_sv1","""event"",""trial"",""time""
""fullscreenenter"",""1"",""1392""
","
","
","""event"",""trial"",""time""
""fullscreenenter"",""1"",""1392""
","
","","","","","","null","<div style=""font-size:60px;"">+</div>","null","","fixation","","",""
"memory-trial","80","247562","0.0-18.0-1.18","7718","approach_avoid_sv1","""event"",""trial"",""time""
""fullscreenenter"",""1"",""1392""
","
","
","""event"",""trial"",""time""
""fullscreenenter"",""1"",""1392""
","
","","","","","","1437","images/goat1.png","","","memory_trial","4","definitely_new",""
"html-keyboard-response","81","248070","0.0-18.0-0.19","7718","approach_avoid_sv1","""event"",""trial"",""time""
""fullscreenenter"",""1"",""1392""
","
","
","""event"",""trial"",""time""
""fullscreenenter"",""1"",""1392""
","
","","","","","","null","<div style=""font-size:60px;"">+</div>","null","","fixation","","",""
"memory-trial","82","250498","0.0-18.0-1.19","7718","approach_avoid_sv1","""event"",""trial"",""time""
""fullscreenenter"",""1"",""1392""
","
","
","""event"",""trial"",""time""
""fullscreenenter"",""1"",""1392""
","
","","","","","","1424.5","images/dog5.png","","","memory_trial","4","definitely_new",""
"html-keyboard-response","83","251000","0.0-18.0-0.20","7718","approach_avoid_sv1","""event"",""trial"",""time""
""fullscreenenter"",""1"",""1392""
","
","
","""event"",""trial"",""time""
""fullscreenenter"",""1"",""1392""
","
","","","","","","null","<div style=""font-size:60px;"">+</div>","null","","fixation","","",""
"memory-trial","84","253761","0.0-18.0-1.20","7718","approach_avoid_sv1","""event"",""trial"",""time""
""fullscreenenter"",""1"",""1392""
","
","
","""event"",""trial"",""time""
""fullscreenenter"",""1"",""1392""
","
","","","","","","1758.300000011921","images/boat5.png","","","memory_trial","1","definitely_old",""
"html-keyboard-response","85","254263","0.0-18.0-0.21","7718","approach_avoid_sv1","""event"",""trial"",""time""
""fullscreenenter"",""1"",""1392""
","
","
","""event"",""trial"",""time""
""fullscreenenter"",""1"",""1392""
","
","","","","","","null","<div style=""font-size:60px;"">+</div>","null","","fixation","","",""
"memory-trial","86","256755","0.0-18.0-1.21","7718","approach_avoid_sv1","""event"",""trial"",""time""
""fullscreenenter"",""1"",""1392""
","
","
","""event"",""trial"",""time""
""fullscreenenter"",""1"",""1392""
","
","","","","","","1488.800000011921","images/cow3.png","","","memory_trial","2","maybe_old",""
"html-keyboard-response","87","257257","0.0-18.0-0.22","7718","approach_avoid_sv1","""event"",""trial"",""time""
""fullscreenenter"",""1"",""1392""
","
","
","""event"",""trial"",""time""
""fullscreenenter"",""1"",""1392""
","
","","","","","","null","<div style=""font-size:60px;"">+</div>","null","","fixation","","",""
"memory-trial","88","259930","0.0-18.0-1.22","7718","approach_avoid_sv1","""event"",""trial"",""time""
""fullscreenenter"",""1"",""1392""
","
","
","""event"",""trial"",""time""
""fullscreenenter"",""1"",""1392""
","
","","","","","","1669.4000000059605","images/table3.png","","","memory_trial","3","maybe_new",""
"html-keyboard-response","89","260432","0.0-18.0-0.23","7718","approach_avoid_sv1","""event"",""trial"",""time""
""fullscreenenter"",""1"",""1392""
","
","
","""event"",""trial"",""time""
""fullscreenenter"",""1"",""1392""
","
","","","","","","null","<div style=""font-size:60px;"">+</div>","null","","fixation","","",""
"memory-trial","90","262939","0.0-18.0-1.23","7718","approach_avoid_sv1","""event"",""trial"",""time""
""fullscreenenter"",""1"",""1392""
","
","
","""event"",""trial"",""time""
""fullscreenenter"",""1"",""1392""
","
","","","","","","1504","images/rodent5.png","","","memory_trial","4","definitely_new",""
"html-keyboard-response","91","263440","0.0-18.0-0.24","7718","approach_avoid_sv1","""event"",""trial"",""time""
""fullscreenenter"",""1"",""1392""
","
","
","""event"",""trial"",""time""
""fullscreenenter"",""1"",""1392""
","
","","","","","","null","<div style=""font-size:60px;"">+</div>","null","","fixation","","",""
"memory-trial","92","266322","0.0-18.0-1.24","7718","approach_avoid_sv1","""event"",""trial"",""time""
""fullscreenenter"",""1"",""1392""
","
","
","""event"",""trial"",""time""
""fullscreenenter"",""1"",""1392""
","
","","","","","","1878.2000000178814","images/flower6.png","","","memory_trial","1","definitely_old",""
"html-keyboard-response","93","266824","0.0-18.0-0.25","7718","approach_avoid_sv1","""event"",""trial"",""time""
""fullscreenenter"",""1"",""1392""
","
","
","""event"",""trial"",""time""
""fullscreenenter"",""1"",""1392""
","
","","","","","","null","<div style=""font-size:60px;"">+</div>","null","","fixation","","",""
"memory-trial","94","269668","0.0-18.0-1.25","7718","approach_avoid_sv1","""event"",""trial"",""time""
""fullscreenenter"",""1"",""1392""
","
","
","""event"",""trial"",""time""
""fullscreenenter"",""1"",""1392""
","
","","","","","","1839.300000011921","images/rabbit1.png","","","memory_trial","3","maybe_new",""
"html-keyboard-response","95","270170","0.0-18.0-0.26","7718","approach_avoid_sv1","""event"",""trial"",""time""
""fullscreenenter"",""1"",""1392""
","
","
","""event"",""trial"",""time""
""fullscreenenter"",""1"",""1392""
","
","","","","","","null","<div style=""font-size:60px;"">+</div>","null","","fixation","","",""
"memory-trial","96","272457","0.0-18.0-1.26","7718","approach_avoid_sv1","""event"",""trial"",""time""
""fullscreenenter"",""1"",""1392""
","
","
","""event"",""trial"",""time""
""fullscreenenter"",""1"",""1392""
","
","","","","","","1284.5","images/train2.png","","","memory_trial","4","definitely_new",""
"html-keyboard-response","97","272959","0.0-18.0-0.27","7718","approach_avoid_sv1","""event"",""trial"",""time""
""fullscreenenter"",""1"",""1392""
","
","
","""event"",""trial"",""time""
""fullscreenenter"",""1"",""1392""
","
","","","","","","null","<div style=""font-size:60px;"">+</div>","null","","fixation","","",""
"memory-trial","98","275826","0.0-18.0-1.27","7718","approach_avoid_sv1","""event"",""trial"",""time""
""fullscreenenter"",""1"",""1392""
","
","
","""event"",""trial"",""time""
""fullscreenenter"",""1"",""1392""
","
","","","","","","1862.800000011921","images/straw1.png","","","memory_trial","3","maybe_new",""
"html-keyboard-response","99","276328","0.0-18.0-0.28","7718","approach_avoid_sv1","""event"",""trial"",""time""
""fullscreenenter"",""1"",""1392""
","
","
","""event"",""trial"",""time""
""fullscreenenter"",""1"",""1392""
","
","","","","","","null","<div style=""font-size:60px;"">+</div>","null","","fixation","","",""
"memory-trial","100","278914","0.0-18.0-1.28","7718","approach_avoid_sv1","""event"",""trial"",""time""
""fullscreenenter"",""1"",""1392""
","
","
","""event"",""trial"",""time""
""fullscreenenter"",""1"",""1392""
","
","","","","","","1582.699999988079","images/train6.png","","","memory_trial","4","definitely_new",""
"html-keyboard-response","101","279415","0.0-18.0-0.29","7718","approach_avoid_sv1","""event"",""trial"",""time""
""fullscreenenter"",""1"",""1392""
","
","
","""event"",""trial"",""time""
""fullscreenenter"",""1"",""1392""
","
","","","","","","null","<div style=""font-size:60px;"">+</div>","null","","fixation","","",""
"memory-trial","102","282020","0.0-18.0-1.29","7718","approach_avoid_sv1","""event"",""trial"",""time""
""fullscreenenter"",""1"",""1392""
","
","
","""event"",""trial"",""time""
""fullscreenenter"",""1"",""1392""
","
","","","","","","1600.5999999940395","images/rodent4.png","","","memory_trial","4","definitely_new",""
"html-keyboard-response","103","282522","0.0-18.0-0.30","7718","approach_avoid_sv1","""event"",""trial"",""time""
""fullscreenenter"",""1"",""1392""
","
","
","""event"",""trial"",""time""
""fullscreenenter"",""1"",""1392""
","
","","","","","","null","<div style=""font-size:60px;"">+</div>","null","","fixation","","",""
"memory-trial","104","285042","0.0-18.0-1.30","7718","approach_avoid_sv1","""event"",""trial"",""time""
""fullscreenenter"",""1"",""1392""
","
","
","""event"",""trial"",""time""
""fullscreenenter"",""1"",""1392""
","
","","","","","","1517","images/straw4.png","","","memory_trial","3","maybe_new",""
"html-keyboard-response","105","285543","0.0-18.0-0.31","7718","approach_avoid_sv1","""event"",""trial"",""time""
""fullscreenenter"",""1"",""1392""
","
","
","""event"",""trial"",""time""
""fullscreenenter"",""1"",""1392""
","
","","","","","","null","<div style=""font-size:60px;"">+</div>","null","","fixation","","",""
"memory-trial","106","288234","0.0-18.0-1.31","7718","approach_avoid_sv1","""event"",""trial"",""time""
""fullscreenenter"",""1"",""1392""
","
","
","""event"",""trial"",""time""
""fullscreenenter"",""1"",""1392""
","
","","","","","","1686.9000000059605","images/straw7.png","","","memory_trial","1","definitely_old",""
"html-keyboard-response","107","288736","0.0-18.0-0.32","7718","approach_avoid_sv1","""event"",""trial"",""time""
""fullscreenenter"",""1"",""1392""
","
","
","""event"",""trial"",""time""
""fullscreenenter"",""1"",""1392""
","
","","","","","","null","<div style=""font-size:60px;"">+</div>","null","","fixation","","",""
"memory-trial","108","291114","0.0-18.0-1.32","7718","approach_avoid_sv1","""event"",""trial"",""time""
""fullscreenenter"",""1"",""1392""
","
","
","""event"",""trial"",""time""
""fullscreenenter"",""1"",""1392""
","
","","","","","","1375.3999999761581","images/bush4.png","","","memory_trial","4","definitely_new",""
"html-keyboard-response","109","291617","0.0-18.0-0.33","7718","approach_avoid_sv1","""event"",""trial"",""time""
""fullscreenenter"",""1"",""1392""
","
","
","""event"",""trial"",""time""
""fullscreenenter"",""1"",""1392""
","
","","","","","","null","<div style=""font-size:60px;"">+</div>","null","","fixation","","",""
"memory-trial","110","296620","0.0-18.0-1.33","7718","approach_avoid_sv1","""event"",""trial"",""time""
""fullscreenenter"",""1"",""1392""
","
","
","""event"",""trial"",""time""
""fullscreenenter"",""1"",""1392""
","
","","","","","","3998.7999999821186","images/cow8.png","","","memory_trial","3","maybe_new",""
"html-keyboard-response","111","297123","0.0-18.0-0.34","7718","approach_avoid_sv1","""event"",""trial"",""time""
""fullscreenenter"",""1"",""1392""
","
","
","""event"",""trial"",""time""
""fullscreenenter"",""1"",""1392""
","
","","","","","","null","<div style=""font-size:60px;"">+</div>","null","","fixation","","",""
"memory-trial","112","299634","0.0-18.0-1.34","7718","approach_avoid_sv1","""event"",""trial"",""time""
""fullscreenenter"",""1"",""1392""
","
","
","""event"",""trial"",""time""
""fullscreenenter"",""1"",""1392""
","
","","","","","","1507.2999999821186","images/rabbit5.png","","","memory_trial","3","maybe_new",""
"html-keyboard-response","113","300135","0.0-18.0-0.35","7718","approach_avoid_sv1","""event"",""trial"",""time""
""fullscreenenter"",""1"",""1392""
","
","
","""event"",""trial"",""time""
""fullscreenenter"",""1"",""1392""
","
","","","","","","null","<div style=""font-size:60px;"">+</div>","null","","fixation","","",""
"memory-trial","114","302659","0.0-18.0-1.35","7718","approach_avoid_sv1","""event"",""trial"",""time""
""fullscreenenter"",""1"",""1392""
","
","
","""event"",""trial"",""time""
""fullscreenenter"",""1"",""1392""
","
","","","","","","1520.0999999940395","images/sofa6.png","","","memory_trial","1","definitely_old",""
"html-keyboard-response","115","303160","0.0-18.0-0.36","7718","approach_avoid_sv1","""event"",""trial"",""time""
""fullscreenenter"",""1"",""1392""
","
","
","""event"",""trial"",""time""
""fullscreenenter"",""1"",""1392""
","
","","","","","","null","<div style=""font-size:60px;"">+</div>","null","","fixation","","",""
"memory-trial","116","305626","0.0-18.0-1.36","7718","approach_avoid_sv1","""event"",""trial"",""time""
""fullscreenenter"",""1"",""1392""
","
","
","""event"",""trial"",""time""
""fullscreenenter"",""1"",""1392""
","
","","","","","","1462.300000011921","images/chair5.png","","","memory_trial","3","maybe_new",""
"html-keyboard-response","117","306127","0.0-18.0-0.37","7718","approach_avoid_sv1","""event"",""trial"",""time""
""fullscreenenter"",""1"",""1392""
","
","
","""event"",""trial"",""time""
""fullscreenenter"",""1"",""1392""
","
","","","","","","null","<div style=""font-size:60px;"">+</div>","null","","fixation","","",""
"memory-trial","118","308387","0.0-18.0-1.37","7718","approach_avoid_sv1","""event"",""trial"",""time""
""fullscreenenter"",""1"",""1392""
","
","
","""event"",""trial"",""time""
""fullscreenenter"",""1"",""1392""
","
","","","","","","1257.2999999821186","images/chair3.png","","","memory_trial","4","definitely_new",""
"html-keyboard-response","119","308889","0.0-18.0-0.38","7718","approach_avoid_sv1","""event"",""trial"",""time""
""fullscreenenter"",""1"",""1392""
","
","
","""event"",""trial"",""time""
""fullscreenenter"",""1"",""1392""
","
","","","","","","null","<div style=""font-size:60px;"">+</div>","null","","fixation","","",""
"memory-trial","120","312547","0.0-18.0-1.38","7718","approach_avoid_sv1","""event"",""trial"",""time""
""fullscreenenter"",""1"",""1392""
","
","
","""event"",""trial"",""time""
""fullscreenenter"",""1"",""1392""
","
","","","","","","2653","images/tree3.png","","","memory_trial","4","definitely_new",""
"html-keyboard-response","121","313048","0.0-18.0-0.39","7718","approach_avoid_sv1","""event"",""trial"",""time""
""fullscreenenter"",""1"",""1392""
","
","
","""event"",""trial"",""time""
""fullscreenenter"",""1"",""1392""
","
","","","","","","null","<div style=""font-size:60px;"">+</div>","null","","fixation","","",""
"memory-trial","122","315122","0.0-18.0-1.39","7718","approach_avoid_sv1","""event"",""trial"",""time""
""fullscreenenter"",""1"",""1392""
","
","
","""event"",""trial"",""time""
""fullscreenenter"",""1"",""1392""
","
","","","","","","1070.699999988079","images/sofa8.png","","","memory_trial","4","definitely_new",""
"html-keyboard-response","123","315625","0.0-18.0-0.40","7718","approach_avoid_sv1","""event"",""trial"",""time""
""fullscreenenter"",""1"",""1392""
","
","
","""event"",""trial"",""time""
""fullscreenenter"",""1"",""1392""
","
","","","","","","null","<div style=""font-size:60px;"">+</div>","null","","fixation","","",""
"memory-trial","124","317987","0.0-18.0-1.40","7718","approach_avoid_sv1","""event"",""trial"",""time""
""fullscreenenter"",""1"",""1392""
","
","
","""event"",""trial"",""time""
""fullscreenenter"",""1"",""1392""
","
","","","","","","1359.2000000178814","images/plane5.png","","","memory_trial","4","definitely_new",""
"html-keyboard-response","125","318488","0.0-18.0-0.41","7718","approach_avoid_sv1","""event"",""trial"",""time""
""fullscreenenter"",""1"",""1392""
","
","
","""event"",""trial"",""time""
""fullscreenenter"",""1"",""1392""
","
","","","","","","null","<div style=""font-size:60px;"">+</div>","null","","fixation","","",""
"memory-trial","126","320923","0.0-18.0-1.41","7718","approach_avoid_sv1","""event"",""trial"",""time""
""fullscreenenter"",""1"",""1392""
","
","
","""event"",""trial"",""time""
""fullscreenenter"",""1"",""1392""
","
","","","","","","1432.5","images/table8.png","","","memory_trial","1","definitely_old",""
"html-button-response","127","529536","0.0-18.0-2.41-0.41","7718","approach_avoid_sv1","""event"",""trial"",""time""
""fullscreenenter"",""1"",""1392""
","
","
","""event"",""trial"",""time""
""fullscreenenter"",""1"",""1392""
","
","","","","","","208612.09999999404","<p> Take a break! </p><p> Click the button to continue. </p>","0","","break","","",""
"html-keyboard-response","128","530037","0.0-18.0-0.42","7718","approach_avoid_sv1","""event"",""trial"",""time""
""fullscreenenter"",""1"",""1392""
","
","
","""event"",""trial"",""time""
""fullscreenenter"",""1"",""1392""
","
","","","","","","null","<div style=""font-size:60px;"">+</div>","null","","fixation","","",""
"memory-trial","129","532386","0.0-18.0-1.42","7718","approach_avoid_sv1","""event"",""trial"",""time""
""fullscreenenter"",""1"",""1392""
","
","
","""event"",""trial"",""time""
""fullscreenenter"",""1"",""1392""
","
","","","","","","1345.0999999940395","images/bush3.png","","","memory_trial","4","definitely_new",""
"html-keyboard-response","130","532889","0.0-18.0-0.43","7718","approach_avoid_sv1","""event"",""trial"",""time""
""fullscreenenter"",""1"",""1392""
","
","
","""event"",""trial"",""time""
""fullscreenenter"",""1"",""1392""
","
","","","","","","null","<div style=""font-size:60px;"">+</div>","null","","fixation","","",""
"memory-trial","131","535977","0.0-18.0-1.43","7718","approach_avoid_sv1","""event"",""trial"",""time""
""fullscreenenter"",""1"",""1392""
","
","
","""event"",""trial"",""time""
""fullscreenenter"",""1"",""1392""
","
","","","","","","2085.4000000059605","images/flower4.png","","","memory_trial","2","maybe_old",""
"html-keyboard-response","132","536479","0.0-18.0-0.44","7718","approach_avoid_sv1","""event"",""trial"",""time""
""fullscreenenter"",""1"",""1392""
","
","
","""event"",""trial"",""time""
""fullscreenenter"",""1"",""1392""
","
","","","","","","null","<div style=""font-size:60px;"">+</div>","null","","fixation","","",""
"memory-trial","133","538865","0.0-18.0-1.44","7718","approach_avoid_sv1","""event"",""trial"",""time""
""fullscreenenter"",""1"",""1392""
","
","
","""event"",""trial"",""time""
""fullscreenenter"",""1"",""1392""
","
","","","","","","1382.5","images/bed6.png","","","memory_trial","4","definitely_new",""
"html-keyboard-response","134","539367","0.0-18.0-0.45","7718","approach_avoid_sv1","""event"",""trial"",""time""
""fullscreenenter"",""1"",""1392""
","
","
","""event"",""trial"",""time""
""fullscreenenter"",""1"",""1392""
","
","","","","","","null","<div style=""font-size:60px;"">+</div>","null","","fixation","","",""
"memory-trial","135","541803","0.0-18.0-1.45","7718","approach_avoid_sv1","""event"",""trial"",""time""
""fullscreenenter"",""1"",""1392""
","
","
","""event"",""trial"",""time""
""fullscreenenter"",""1"",""1392""
","
","","","","","","1432.199999988079","images/bush8.png","","","memory_trial","3","maybe_new",""
"html-keyboard-response","136","542304","0.0-18.0-0.46","7718","approach_avoid_sv1","""event"",""trial"",""time""
""fullscreenenter"",""1"",""1392""
","
","
","""event"",""trial"",""time""
""fullscreenenter"",""1"",""1392""
","
","","","","","","null","<div style=""font-size:60px;"">+</div>","null","","fixation","","",""
"memory-trial","137","545762","0.0-18.0-1.46","7718","approach_avoid_sv1","""event"",""trial"",""time""
""fullscreenenter"",""1"",""1392""
","
","
","""event"",""trial"",""time""
""fullscreenenter"",""1"",""1392""
","
","","","","","","2453.9000000059605","images/truck3.png","","","memory_trial","4","definitely_new",""
"html-keyboard-response","138","546264","0.0-18.0-0.47","7718","approach_avoid_sv1","""event"",""trial"",""time""
""fullscreenenter"",""1"",""1392""
","
","
","""event"",""trial"",""time""
""fullscreenenter"",""1"",""1392""
","
","","","","","","null","<div style=""font-size:60px;"">+</div>","null","","fixation","","",""
"memory-trial","139","548705","0.0-18.0-1.47","7718","approach_avoid_sv1","""event"",""trial"",""time""
""fullscreenenter"",""1"",""1392""
","
","
","""event"",""trial"",""time""
""fullscreenenter"",""1"",""1392""
","
","","","","","","1437.800000011921","images/plane3.png","","","memory_trial","3","maybe_new",""
"html-keyboard-response","140","549207","0.0-18.0-0.48","7718","approach_avoid_sv1","""event"",""trial"",""time""
""fullscreenenter"",""1"",""1392""
","
","
","""event"",""trial"",""time""
""fullscreenenter"",""1"",""1392""
","
","","","","","","null","<div style=""font-size:60px;"">+</div>","null","","fixation","","",""
"memory-trial","141","551569","0.0-18.0-1.48","7718","approach_avoid_sv1","""event"",""trial"",""time""
""fullscreenenter"",""1"",""1392""
","
","
","""event"",""trial"",""time""
""fullscreenenter"",""1"",""1392""
","
","","","","","","1359.5999999940395","images/apple6.png","","","memory_trial","3","maybe_new",""
"html-keyboard-response","142","552071","0.0-18.0-0.49","7718","approach_avoid_sv1","""event"",""trial"",""time""
""fullscreenenter"",""1"",""1392""
","
","
","""event"",""trial"",""time""
""fullscreenenter"",""1"",""1392""
","
","","","","","","null","<div style=""font-size:60px;"">+</div>","null","","fixation","","",""
"memory-trial","143","554418","0.0-18.0-1.49","7718","approach_avoid_sv1","""event"",""trial"",""time""
""fullscreenenter"",""1"",""1392""
","
","
","""event"",""trial"",""time""
""fullscreenenter"",""1"",""1392""
","
","","","","","","1342.0999999940395","images/cactus2.png","","","memory_trial","4","definitely_new",""
"html-keyboard-response","144","554920","0.0-18.0-0.50","7718","approach_avoid_sv1","""event"",""trial"",""time""
""fullscreenenter"",""1"",""1392""
","
","
","""event"",""trial"",""time""
""fullscreenenter"",""1"",""1392""
","
","","","","","","null","<div style=""font-size:60px;"">+</div>","null","","fixation","","",""
"memory-trial","145","557401","0.0-18.0-1.50","7718","approach_avoid_sv1","""event"",""trial"",""time""
""fullscreenenter"",""1"",""1392""
","
","
","""event"",""trial"",""time""
""fullscreenenter"",""1"",""1392""
","
","","","","","","1478.1000000238419","images/horse1.png","","","memory_trial","2","maybe_old",""
"html-keyboard-response","146","557902","0.0-18.0-0.51","7718","approach_avoid_sv1","""event"",""trial"",""time""
""fullscreenenter"",""1"",""1392""
","
","
","""event"",""trial"",""time""
""fullscreenenter"",""1"",""1392""
","
","","","","","","null","<div style=""font-size:60px;"">+</div>","null","","fixation","","",""
"memory-trial","147","560361","0.0-18.0-1.51","7718","approach_avoid_sv1","""event"",""trial"",""time""
""fullscreenenter"",""1"",""1392""
","
","
","""event"",""trial"",""time""
""fullscreenenter"",""1"",""1392""
","
","","","","","","1455.9000000059605","images/flower8.png","","","memory_trial","2","maybe_old",""
"html-keyboard-response","148","560863","0.0-18.0-0.52","7718","approach_avoid_sv1","""event"",""trial"",""time""
""fullscreenenter"",""1"",""1392""
","
","
","""event"",""trial"",""time""
""fullscreenenter"",""1"",""1392""
","
","","","","","","null","<div style=""font-size:60px;"">+</div>","null","","fixation","","",""
"memory-trial","149","563377","0.0-18.0-1.52","7718","approach_avoid_sv1","""event"",""trial"",""time""
""fullscreenenter"",""1"",""1392""
","
","
","""event"",""trial"",""time""
""fullscreenenter"",""1"",""1392""
","
","","","","","","1510.4000000059605","images/straw2.png","","","memory_trial","1","definitely_old",""
"html-keyboard-response","150","563879","0.0-18.0-0.53","7718","approach_avoid_sv1","""event"",""trial"",""time""
""fullscreenenter"",""1"",""1392""
","
","
","""event"",""trial"",""time""
""fullscreenenter"",""1"",""1392""
","
","","","","","","null","<div style=""font-size:60px;"">+</div>","null","","fixation","","",""
"memory-trial","151","566202","0.0-18.0-1.53","7718","approach_avoid_sv1","""event"",""trial"",""time""
""fullscreenenter"",""1"",""1392""
","
","
","""event"",""trial"",""time""
""fullscreenenter"",""1"",""1392""
","
","","","","","","1320.1000000238419","images/cow7.png","","","memory_trial","1","definitely_old",""
"html-keyboard-response","152","566703","0.0-18.0-0.54","7718","approach_avoid_sv1","""event"",""trial"",""time""
""fullscreenenter"",""1"",""1392""
","
","
","""event"",""trial"",""time""
""fullscreenenter"",""1"",""1392""
","
","","","","","","null","<div style=""font-size:60px;"">+</div>","null","","fixation","","",""
"memory-trial","153","569361","0.0-18.0-1.54","7718","approach_avoid_sv1","""event"",""trial"",""time""
""fullscreenenter"",""1"",""1392""
","
","
","""event"",""trial"",""time""
""fullscreenenter"",""1"",""1392""
","
","","","","","","1653","images/cat5.png","","","memory_trial","3","maybe_new",""
"html-keyboard-response","154","569863","0.0-18.0-0.55","7718","approach_avoid_sv1","""event"",""trial"",""time""
""fullscreenenter"",""1"",""1392""
","
","
","""event"",""trial"",""time""
""fullscreenenter"",""1"",""1392""
","
","","","","","","null","<div style=""font-size:60px;"">+</div>","null","","fixation","","",""
"memory-trial","155","572313","0.0-18.0-1.55","7718","approach_avoid_sv1","""event"",""trial"",""time""
""fullscreenenter"",""1"",""1392""
","
","
","""event"",""trial"",""time""
""fullscreenenter"",""1"",""1392""
","
","","","","","","1447","images/orange3.png","","","memory_trial","3","maybe_new",""
"html-keyboard-response","156","572815","0.0-18.0-0.56","7718","approach_avoid_sv1","""event"",""trial"",""time""
""fullscreenenter"",""1"",""1392""
","
","
","""event"",""trial"",""time""
""fullscreenenter"",""1"",""1392""
","
","","","","","","null","<div style=""font-size:60px;"">+</div>","null","","fixation","","",""
"memory-trial","157","574993","0.0-18.0-1.56","7718","approach_avoid_sv1","""event"",""trial"",""time""
""fullscreenenter"",""1"",""1392""
","
","
","""event"",""trial"",""time""
""fullscreenenter"",""1"",""1392""
","
","","","","","","1174.7000000178814","images/bush6.png","","","memory_trial","3","maybe_new",""
"html-keyboard-response","158","575504","0.0-18.0-0.57","7718","approach_avoid_sv1","""event"",""trial"",""time""
""fullscreenenter"",""1"",""1392""
","
","
","""event"",""trial"",""time""
""fullscreenenter"",""1"",""1392""
","
","","","","","","null","<div style=""font-size:60px;"">+</div>","null","","fixation","","",""
"memory-trial","159","577699","0.0-18.0-1.57","7718","approach_avoid_sv1","""event"",""trial"",""time""
""fullscreenenter"",""1"",""1392""
","
","
","""event"",""trial"",""time""
""fullscreenenter"",""1"",""1392""
","
","","","","","","1191.5999999940395","images/cow5.png","","","memory_trial","2","maybe_old",""
"html-keyboard-response","160","578201","0.0-18.0-0.58","7718","approach_avoid_sv1","""event"",""trial"",""time""
""fullscreenenter"",""1"",""1392""
","
","
","""event"",""trial"",""time""
""fullscreenenter"",""1"",""1392""
","
","","","","","","null","<div style=""font-size:60px;"">+</div>","null","","fixation","","",""
"memory-trial","161","581106","0.0-18.0-1.58","7718","approach_avoid_sv1","""event"",""trial"",""time""
""fullscreenenter"",""1"",""1392""
","
","
","""event"",""trial"",""time""
""fullscreenenter"",""1"",""1392""
","
","","","","","","1901","images/flower7.png","","","memory_trial","3","maybe_new",""
"html-keyboard-response","162","581608","0.0-18.0-0.59","7718","approach_avoid_sv1","""event"",""trial"",""time""
""fullscreenenter"",""1"",""1392""
","
","
","""event"",""trial"",""time""
""fullscreenenter"",""1"",""1392""
","
","","","","","","null","<div style=""font-size:60px;"">+</div>","null","","fixation","","",""
"memory-trial","163","584002","0.0-18.0-1.59","7718","approach_avoid_sv1","""event"",""trial"",""time""
""fullscreenenter"",""1"",""1392""
","
","
","""event"",""trial"",""time""
""fullscreenenter"",""1"",""1392""
","
","","","","","","1390.4000000059605","images/boat6.png","","","memory_trial","1","definitely_old",""
"html-keyboard-response","164","584504","0.0-18.0-0.60","7718","approach_avoid_sv1","""event"",""trial"",""time""
""fullscreenenter"",""1"",""1392""
","
","
","""event"",""trial"",""time""
""fullscreenenter"",""1"",""1392""
","
","","","","","","null","<div style=""font-size:60px;"">+</div>","null","","fixation","","",""
"memory-trial","165","587210","0.0-18.0-1.60","7718","approach_avoid_sv1","""event"",""trial"",""time""
""fullscreenenter"",""1"",""1392""
","
","
","""event"",""trial"",""time""
""fullscreenenter"",""1"",""1392""
","
","","","","","","1701.7999999821186","images/sheep4.png","","","memory_trial","3","maybe_new",""
"html-keyboard-response","166","587711","0.0-18.0-0.61","7718","approach_avoid_sv1","""event"",""trial"",""time""
""fullscreenenter"",""1"",""1392""
","
","
","""event"",""trial"",""time""
""fullscreenenter"",""1"",""1392""
","
","","","","","","null","<div style=""font-size:60px;"">+</div>","null","","fixation","","",""
"memory-trial","167","590235","0.0-18.0-1.61","7718","approach_avoid_sv1","""event"",""trial"",""time""
""fullscreenenter"",""1"",""1392""
","
","
","""event"",""trial"",""time""
""fullscreenenter"",""1"",""1392""
","
","","","","","","1520.4000000059605","images/rodent7.png","","","memory_trial","3","maybe_new",""
"html-keyboard-response","168","590736","0.0-18.0-0.62","7718","approach_avoid_sv1","""event"",""trial"",""time""
""fullscreenenter"",""1"",""1392""
","
","
","""event"",""trial"",""time""
""fullscreenenter"",""1"",""1392""
","
","","","","","","null","<div style=""font-size:60px;"">+</div>","null","","fixation","","",""
"memory-trial","169","593154","0.0-18.0-1.62","7718","approach_avoid_sv1","""event"",""trial"",""time""
""fullscreenenter"",""1"",""1392""
","
","
","""event"",""trial"",""time""
""fullscreenenter"",""1"",""1392""
","
","","","","","","1413.800000011921","images/orange5.png","","","memory_trial","2","maybe_old",""
"html-keyboard-response","170","593656","0.0-18.0-0.63","7718","approach_avoid_sv1","""event"",""trial"",""time""
""fullscreenenter"",""1"",""1392""
","
","
","""event"",""trial"",""time""
""fullscreenenter"",""1"",""1392""
","
","","","","","","null","<div style=""font-size:60px;"">+</div>","null","","fixation","","",""
"memory-trial","171","598098","0.0-18.0-1.63","7718","approach_avoid_sv1","""event"",""trial"",""time""
""fullscreenenter"",""1"",""1392""
","
","
","""event"",""trial"",""time""
""fullscreenenter"",""1"",""1392""
","
","","","","","","3439.2999999821186","images/apple3.png","","","memory_trial","3","maybe_new",""
"html-keyboard-response","172","598599","0.0-18.0-0.64","7718","approach_avoid_sv1","""event"",""trial"",""time""
""fullscreenenter"",""1"",""1392""
","
","
","""event"",""trial"",""time""
""fullscreenenter"",""1"",""1392""
","
","","","","","","null","<div style=""font-size:60px;"">+</div>","null","","fixation","","",""
"memory-trial","173","601147","0.0-18.0-1.64","7718","approach_avoid_sv1","""event"",""trial"",""time""
""fullscreenenter"",""1"",""1392""
","
","
","""event"",""trial"",""time""
""fullscreenenter"",""1"",""1392""
","
","","","","","","1542.7999999821186","images/table5.png","","","memory_trial","3","maybe_new",""
"html-keyboard-response","174","601648","0.0-18.0-0.65","7718","approach_avoid_sv1","""event"",""trial"",""time""
""fullscreenenter"",""1"",""1392""
","
","
","""event"",""trial"",""time""
""fullscreenenter"",""1"",""1392""
","
","","","","","","null","<div style=""font-size:60px;"">+</div>","null","","fixation","","",""
"memory-trial","175","604073","0.0-18.0-1.65","7718","approach_avoid_sv1","""event"",""trial"",""time""
""fullscreenenter"",""1"",""1392""
","
","
","""event"",""trial"",""time""
""fullscreenenter"",""1"",""1392""
","
","","","","","","1422.5999999940395","images/train3.png","","","memory_trial","3","maybe_new",""
"html-keyboard-response","176","604575","0.0-18.0-0.66","7718","approach_avoid_sv1","""event"",""trial"",""time""
""fullscreenenter"",""1"",""1392""
","
","
","""event"",""trial"",""time""
""fullscreenenter"",""1"",""1392""
","
","","","","","","null","<div style=""font-size:60px;"">+</div>","null","","fixation","","",""
"memory-trial","177","606874","0.0-18.0-1.66","7718","approach_avoid_sv1","""event"",""trial"",""time""
""fullscreenenter"",""1"",""1392""
","
","
","""event"",""trial"",""time""
""fullscreenenter"",""1"",""1392""
","
","","","","","","1294.800000011921","images/train4.png","","","memory_trial","3","maybe_new",""
"html-keyboard-response","178","607376","0.0-18.0-0.67","7718","approach_avoid_sv1","""event"",""trial"",""time""
""fullscreenenter"",""1"",""1392""
","
","
","""event"",""trial"",""time""
""fullscreenenter"",""1"",""1392""
","
","","","","","","null","<div style=""font-size:60px;"">+</div>","null","","fixation","","",""
"memory-trial","179","610065","0.0-18.0-1.67","7718","approach_avoid_sv1","""event"",""trial"",""time""
""fullscreenenter"",""1"",""1392""
","
","
","""event"",""trial"",""time""
""fullscreenenter"",""1"",""1392""
","
","","","","","","1686.4000000059605","images/boat8.png","","","memory_trial","1","definitely_old",""
"html-keyboard-response","180","610567","0.0-18.0-0.68","7718","approach_avoid_sv1","""event"",""trial"",""time""
""fullscreenenter"",""1"",""1392""
","
","
","""event"",""trial"",""time""
""fullscreenenter"",""1"",""1392""
","
","","","","","","null","<div style=""font-size:60px;"">+</div>","null","","fixation","","",""
"memory-trial","181","612715","0.0-18.0-1.68","7718","approach_avoid_sv1","""event"",""trial"",""time""
""fullscreenenter"",""1"",""1392""
","
","
","""event"",""trial"",""time""
""fullscreenenter"",""1"",""1392""
","
","","","","","","1143.5","images/goat6.png","","","memory_trial","1","definitely_old",""
"html-keyboard-response","182","613216","0.0-18.0-0.69","7718","approach_avoid_sv1","""event"",""trial"",""time""
""fullscreenenter"",""1"",""1392""
","
","
","""event"",""trial"",""time""
""fullscreenenter"",""1"",""1392""
","
","","","","","","null","<div style=""font-size:60px;"">+</div>","null","","fixation","","",""
"memory-trial","183","615466","0.0-18.0-1.69","7718","approach_avoid_sv1","""event"",""trial"",""time""
""fullscreenenter"",""1"",""1392""
","
","
","""event"",""trial"",""time""
""fullscreenenter"",""1"",""1392""
","
","","","","","","1246.800000011921","images/orange1.png","","","memory_trial","2","maybe_old",""
"html-keyboard-response","184","615968","0.0-18.0-0.70","7718","approach_avoid_sv1","""event"",""trial"",""time""
""fullscreenenter"",""1"",""1392""
","
","
","""event"",""trial"",""time""
""fullscreenenter"",""1"",""1392""
","
","","","","","","null","<div style=""font-size:60px;"">+</div>","null","","fixation","","",""
"memory-trial","185","618377","0.0-18.0-1.70","7718","approach_avoid_sv1","""event"",""trial"",""time""
""fullscreenenter"",""1"",""1392""
","
","
","""event"",""trial"",""time""
""fullscreenenter"",""1"",""1392""
","
","","","","","","1405.7999999821186","images/cat4.png","","","memory_trial","3","maybe_new",""
"html-keyboard-response","186","618879","0.0-18.0-0.71","7718","approach_avoid_sv1","""event"",""trial"",""time""
""fullscreenenter"",""1"",""1392""
","
","
","""event"",""trial"",""time""
""fullscreenenter"",""1"",""1392""
","
","","","","","","null","<div style=""font-size:60px;"">+</div>","null","","fixation","","",""
"memory-trial","187","621809","0.0-18.0-1.71","7718","approach_avoid_sv1","""event"",""trial"",""time""
""fullscreenenter"",""1"",""1392""
","
","
","""event"",""trial"",""time""
""fullscreenenter"",""1"",""1392""
","
","","","","","","1926.2000000178814","images/bed4.png","","","memory_trial","3","maybe_new",""
"html-keyboard-response","188","622311","0.0-18.0-0.72","7718","approach_avoid_sv1","""event"",""trial"",""time""
""fullscreenenter"",""1"",""1392""
","
","
","""event"",""trial"",""time""
""fullscreenenter"",""1"",""1392""
","
","","","","","","null","<div style=""font-size:60px;"">+</div>","null","","fixation","","",""
"memory-trial","189","624912","0.0-18.0-1.72","7718","approach_avoid_sv1","""event"",""trial"",""time""
""fullscreenenter"",""1"",""1392""
","
","
","""event"",""trial"",""time""
""fullscreenenter"",""1"",""1392""
","
","","","","","","1583.4000000059605","images/apple4.png","","","memory_trial","3","maybe_new",""
"html-keyboard-response","190","625413","0.0-18.0-0.73","7718","approach_avoid_sv1","""event"",""trial"",""time""
""fullscreenenter"",""1"",""1392""
","
","
","""event"",""trial"",""time""
""fullscreenenter"",""1"",""1392""
","
","","","","","","null","<div style=""font-size:60px;"">+</div>","null","","fixation","","",""
"memory-trial","191","628233","0.0-18.0-1.73","7718","approach_avoid_sv1","""event"",""trial"",""time""
""fullscreenenter"",""1"",""1392""
","
","
","""event"",""trial"",""time""
""fullscreenenter"",""1"",""1392""
","
","","","","","","1816.699999988079","images/tree6.png","","","memory_trial","3","maybe_new",""
"html-keyboard-response","192","628736","0.0-18.0-0.74","7718","approach_avoid_sv1","""event"",""trial"",""time""
""fullscreenenter"",""1"",""1392""
","
","
","""event"",""trial"",""time""
""fullscreenenter"",""1"",""1392""
","
","","","","","","null","<div style=""font-size:60px;"">+</div>","null","","fixation","","",""
"memory-trial","193","631146","0.0-18.0-1.74","7718","approach_avoid_sv1","""event"",""trial"",""time""
""fullscreenenter"",""1"",""1392""
","
","
","""event"",""trial"",""time""
""fullscreenenter"",""1"",""1392""
","
","","","","","","1405.199999988079","images/cactus7.png","","","memory_trial","3","maybe_new",""
"html-keyboard-response","194","631649","0.0-18.0-0.75","7718","approach_avoid_sv1","""event"",""trial"",""time""
""fullscreenenter"",""1"",""1392""
","
","
","""event"",""trial"",""time""
""fullscreenenter"",""1"",""1392""
","
","","","","","","null","<div style=""font-size:60px;"">+</div>","null","","fixation","","",""
"memory-trial","195","634050","0.0-18.0-1.75","7718","approach_avoid_sv1","""event"",""trial"",""time""
""fullscreenenter"",""1"",""1392""
","
","
","""event"",""trial"",""time""
""fullscreenenter"",""1"",""1392""
","
","","","","","","1397.699999988079","images/cow2.png","","","memory_trial","1","definitely_old",""
"html-keyboard-response","196","634551","0.0-18.0-0.76","7718","approach_avoid_sv1","""event"",""trial"",""time""
""fullscreenenter"",""1"",""1392""
","
","
","""event"",""trial"",""time""
""fullscreenenter"",""1"",""1392""
","
","","","","","","null","<div style=""font-size:60px;"">+</div>","null","","fixation","","",""
"memory-trial","197","638611","0.0-18.0-1.76","7718","approach_avoid_sv1","""event"",""trial"",""time""
""fullscreenenter"",""1"",""1392""
","
","
","""event"",""trial"",""time""
""fullscreenenter"",""1"",""1392""
","
","","","","","","3055.4000000059605","images/cat3.png","","","memory_trial","2","maybe_old",""
"html-keyboard-response","198","639113","0.0-18.0-0.77","7718","approach_avoid_sv1","""event"",""trial"",""time""
""fullscreenenter"",""1"",""1392""
","
","
","""event"",""trial"",""time""
""fullscreenenter"",""1"",""1392""
","
","","","","","","null","<div style=""font-size:60px;"">+</div>","null","","fixation","","",""
"memory-trial","199","641330","0.0-18.0-1.77","7718","approach_avoid_sv1","""event"",""trial"",""time""
""fullscreenenter"",""1"",""1392""
","
","
","""event"",""trial"",""time""
""fullscreenenter"",""1"",""1392""
","
","","","","","","1212.300000011921","images/bed5.png","","","memory_trial","4","definitely_new",""
"html-keyboard-response","200","641833","0.0-18.0-0.78","7718","approach_avoid_sv1","""event"",""trial"",""time""
""fullscreenenter"",""1"",""1392""
","
","
","""event"",""trial"",""time""
""fullscreenenter"",""1"",""1392""
","
","","","","","","null","<div style=""font-size:60px;"">+</div>","null","","fixation","","",""
"memory-trial","201","644841","0.0-18.0-1.78","7718","approach_avoid_sv1","""event"",""trial"",""time""
""fullscreenenter"",""1"",""1392""
","
","
","""event"",""trial"",""time""
""fullscreenenter"",""1"",""1392""
","
","","","","","","2005.4000000059605","images/horse2.png","","","memory_trial","4","definitely_new",""
"html-keyboard-response","202","645342","0.0-18.0-0.79","7718","approach_avoid_sv1","""event"",""trial"",""time""
""fullscreenenter"",""1"",""1392""
","
","
","""event"",""trial"",""time""
""fullscreenenter"",""1"",""1392""
","
","","","","","","null","<div style=""font-size:60px;"">+</div>","null","","fixation","","",""
"memory-trial","203","647393","0.0-18.0-1.79","7718","approach_avoid_sv1","""event"",""trial"",""time""
""fullscreenenter"",""1"",""1392""
","
","
","""event"",""trial"",""time""
""fullscreenenter"",""1"",""1392""
","
","","","","","","1047.199999988079","images/cactus8.png","","","memory_trial","4","definitely_new",""
"html-keyboard-response","204","647895","0.0-18.0-0.80","7718","approach_avoid_sv1","""event"",""trial"",""time""
""fullscreenenter"",""1"",""1392""
","
","
","""event"",""trial"",""time""
""fullscreenenter"",""1"",""1392""
","
","","","","","","null","<div style=""font-size:60px;"">+</div>","null","","fixation","","",""
"memory-trial","205","650683","0.0-18.0-1.80","7718","approach_avoid_sv1","""event"",""trial"",""time""
""fullscreenenter"",""1"",""1392""
","
","
","""event"",""trial"",""time""
""fullscreenenter"",""1"",""1392""
","
","","","","","","1784.4000000059605","images/orange8.png","","","memory_trial","3","maybe_new",""
"html-keyboard-response","206","651186","0.0-18.0-0.81","7718","approach_avoid_sv1","""event"",""trial"",""time""
""fullscreenenter"",""1"",""1392""
","
","
","""event"",""trial"",""time""
""fullscreenenter"",""1"",""1392""
","
","","","","","","null","<div style=""font-size:60px;"">+</div>","null","","fixation","","",""
"memory-trial","207","654066","0.0-18.0-1.81","7718","approach_avoid_sv1","""event"",""trial"",""time""
""fullscreenenter"",""1"",""1392""
","
","
","""event"",""trial"",""time""
""fullscreenenter"",""1"",""1392""
","
","","","","","","1876","images/table2.png","","","memory_trial","3","maybe_new",""
"html-keyboard-response","208","654567","0.0-18.0-0.82","7718","approach_avoid_sv1","""event"",""trial"",""time""
""fullscreenenter"",""1"",""1392""
","
","
","""event"",""trial"",""time""
""fullscreenenter"",""1"",""1392""
","
","","","","","","null","<div style=""font-size:60px;"">+</div>","null","","fixation","","",""
"memory-trial","209","657466","0.0-18.0-1.82","7718","approach_avoid_sv1","""event"",""trial"",""time""
""fullscreenenter"",""1"",""1392""
","
","
","""event"",""trial"",""time""
""fullscreenenter"",""1"",""1392""
","
","","","","","","1895.5999999940395","images/banana8.png","","","memory_trial","4","definitely_new",""
"html-keyboard-response","210","657969","0.0-18.0-0.83","7718","approach_avoid_sv1","""event"",""trial"",""time""
""fullscreenenter"",""1"",""1392""
","
","
","""event"",""trial"",""time""
""fullscreenenter"",""1"",""1392""
","
","","","","","","null","<div style=""font-size:60px;"">+</div>","null","","fixation","","",""
"memory-trial","211","660995","0.0-18.0-1.83","7718","approach_avoid_sv1","""event"",""trial"",""time""
""fullscreenenter"",""1"",""1392""
","
","
","""event"",""trial"",""time""
""fullscreenenter"",""1"",""1392""
","
","","","","","","2023.199999988079","images/sheep7.png","","","memory_trial","3","maybe_new",""
"html-keyboard-response","212","661497","0.0-18.0-0.84","7718","approach_avoid_sv1","""event"",""trial"",""time""
""fullscreenenter"",""1"",""1392""
","
","
","""event"",""trial"",""time""
""fullscreenenter"",""1"",""1392""
","
","","","","","","null","<div style=""font-size:60px;"">+</div>","null","","fixation","","",""
"memory-trial","213","664698","0.0-18.0-1.84","7718","approach_avoid_sv1","""event"",""trial"",""time""
""fullscreenenter"",""1"",""1392""
","
","
","""event"",""trial"",""time""
""fullscreenenter"",""1"",""1392""
","
","","","","","","2196.699999988079","images/boat4.png","","","memory_trial","2","maybe_old",""
"html-keyboard-response","214","665199","0.0-18.0-0.85","7718","approach_avoid_sv1","""event"",""trial"",""time""
""fullscreenenter"",""1"",""1392""
","
","
","""event"",""trial"",""time""
""fullscreenenter"",""1"",""1392""
","
","","","","","","null","<div style=""font-size:60px;"">+</div>","null","","fixation","","",""
"memory-trial","215","668041","0.0-18.0-1.85","7718","approach_avoid_sv1","""event"",""trial"",""time""
""fullscreenenter"",""1"",""1392""
","
","
","""event"",""trial"",""time""
""fullscreenenter"",""1"",""1392""
","
","","","","","","1838.800000011921","images/plane6.png","","","memory_trial","1","definitely_old",""
"html-keyboard-response","216","668543","0.0-18.0-0.86","7718","approach_avoid_sv1","""event"",""trial"",""time""
""fullscreenenter"",""1"",""1392""
","
","
","""event"",""trial"",""time""
""fullscreenenter"",""1"",""1392""
","
","","","","","","null","<div style=""font-size:60px;"">+</div>","null","","fixation","","",""
"memory-trial","217","671787","0.0-18.0-1.86","7718","approach_avoid_sv1","""event"",""trial"",""time""
""fullscreenenter"",""1"",""1392""
","
","
","""event"",""trial"",""time""
""fullscreenenter"",""1"",""1392""
","
","","","","","","2240","images/apple8.png","","","memory_trial","3","maybe_new",""
"html-keyboard-response","218","672288","0.0-18.0-0.87","7718","approach_avoid_sv1","""event"",""trial"",""time""
""fullscreenenter"",""1"",""1392""
","
","
","""event"",""trial"",""time""
""fullscreenenter"",""1"",""1392""
","
","","","","","","null","<div style=""font-size:60px;"">+</div>","null","","fixation","","",""
"memory-trial","219","674322","0.0-18.0-1.87","7718","approach_avoid_sv1","""event"",""trial"",""time""
""fullscreenenter"",""1"",""1392""
","
","
","""event"",""trial"",""time""
""fullscreenenter"",""1"",""1392""
","
","","","","","","1029.800000011921","images/rabbit3.png","","","memory_trial","3","maybe_new",""
"html-keyboard-response","220","674824","0.0-18.0-0.88","7718","approach_avoid_sv1","""event"",""trial"",""time""
""fullscreenenter"",""1"",""1392""
","
","
","""event"",""trial"",""time""
""fullscreenenter"",""1"",""1392""
","
","","","","","","null","<div style=""font-size:60px;"">+</div>","null","","fixation","","",""
"memory-trial","221","677121","0.0-18.0-1.88","7718","approach_avoid_sv1","""event"",""trial"",""time""
""fullscreenenter"",""1"",""1392""
","
","
","""event"",""trial"",""time""
""fullscreenenter"",""1"",""1392""
","
","","","","","","1294.5999999940395","images/rabbit2.png","","","memory_trial","1","definitely_old",""
"html-keyboard-response","222","677624","0.0-18.0-0.89","7718","approach_avoid_sv1","""event"",""trial"",""time""
""fullscreenenter"",""1"",""1392""
","
","
","""event"",""trial"",""time""
""fullscreenenter"",""1"",""1392""
","
","","","","","","null","<div style=""font-size:60px;"">+</div>","null","","fixation","","",""
"memory-trial","223","679402","0.0-18.0-1.89","7718","approach_avoid_sv1","""event"",""trial"",""time""
""fullscreenenter"",""1"",""1392""
","
","
","""event"",""trial"",""time""
""fullscreenenter"",""1"",""1392""
","
","","","","","","775.0999999940395","images/dog3.png","","","memory_trial","1","definitely_old",""
"html-keyboard-response","224","679904","0.0-18.0-0.90","7718","approach_avoid_sv1","""event"",""trial"",""time""
""fullscreenenter"",""1"",""1392""
","
","
","""event"",""trial"",""time""
""fullscreenenter"",""1"",""1392""
","
","","","","","","null","<div style=""font-size:60px;"">+</div>","null","","fixation","","",""
"memory-trial","225","682202","0.0-18.0-1.90","7718","approach_avoid_sv1","""event"",""trial"",""time""
""fullscreenenter"",""1"",""1392""
","
","
","""event"",""trial"",""time""
""fullscreenenter"",""1"",""1392""
","
","","","","","","1296.4000000059605","images/rabbit4.png","","","memory_trial","2","maybe_old",""
"html-keyboard-response","226","682704","0.0-18.0-0.91","7718","approach_avoid_sv1","""event"",""trial"",""time""
""fullscreenenter"",""1"",""1392""
","
","
","""event"",""trial"",""time""
""fullscreenenter"",""1"",""1392""
","
","","","","","","null","<div style=""font-size:60px;"">+</div>","null","","fixation","","",""
"memory-trial","227","685182","0.0-18.0-1.91","7718","approach_avoid_sv1","""event"",""trial"",""time""
""fullscreenenter"",""1"",""1392""
","
","
","""event"",""trial"",""time""
""fullscreenenter"",""1"",""1392""
","
","","","","","","1470.199999988079","images/tree8.png","","","memory_trial","2","maybe_old",""
"html-button-response","228","693450","0.0-18.0-2.91-0.91","7718","approach_avoid_sv1","""event"",""trial"",""time""
""fullscreenenter"",""1"",""1392""
","
","
","""event"",""trial"",""time""
""fullscreenenter"",""1"",""1392""
","
","","","","","","8266.40000000596","<p> Take a break! </p><p> Click the button to continue. </p>","0","","break","","",""
"html-keyboard-response","229","693952","0.0-18.0-0.92","7718","approach_avoid_sv1","""event"",""trial"",""time""
""fullscreenenter"",""1"",""1392""
","
","
","""event"",""trial"",""time""
""fullscreenenter"",""1"",""1392""
","
","","","","","","null","<div style=""font-size:60px;"">+</div>","null","","fixation","","",""
"memory-trial","230","697618","0.0-18.0-1.92","7718","approach_avoid_sv1","""event"",""trial"",""time""
""fullscreenenter"",""1"",""1392""
","
","
","""event"",""trial"",""time""
""fullscreenenter"",""1"",""1392""
","
","","","","","","2661.4000000059605","images/flower5.png","","","memory_trial","3","maybe_new",""
"html-keyboard-response","231","698121","0.0-18.0-0.93","7718","approach_avoid_sv1","""event"",""trial"",""time""
""fullscreenenter"",""1"",""1392""
","
","
","""event"",""trial"",""time""
""fullscreenenter"",""1"",""1392""
","
","","","","","","null","<div style=""font-size:60px;"">+</div>","null","","fixation","","",""
"memory-trial","232","700402","0.0-18.0-1.93","7718","approach_avoid_sv1","""event"",""trial"",""time""
""fullscreenenter"",""1"",""1392""
","
","
","""event"",""trial"",""time""
""fullscreenenter"",""1"",""1392""
","
","","","","","","1277.300000011921","images/table7.png","","","memory_trial","2","maybe_old",""
"html-keyboard-response","233","700903","0.0-18.0-0.94","7718","approach_avoid_sv1","""event"",""trial"",""time""
""fullscreenenter"",""1"",""1392""
","
","
","""event"",""trial"",""time""
""fullscreenenter"",""1"",""1392""
","
","","","","","","null","<div style=""font-size:60px;"">+</div>","null","","fixation","","",""
"memory-trial","234","702994","0.0-18.0-1.94","7718","approach_avoid_sv1","""event"",""trial"",""time""
""fullscreenenter"",""1"",""1392""
","
","
","""event"",""trial"",""time""
""fullscreenenter"",""1"",""1392""
","
","","","","","","1087.6000000238419","images/rodent8.png","","","memory_trial","3","maybe_new",""
"html-keyboard-response","235","703496","0.0-18.0-0.95","7718","approach_avoid_sv1","""event"",""trial"",""time""
""fullscreenenter"",""1"",""1392""
","
","
","""event"",""trial"",""time""
""fullscreenenter"",""1"",""1392""
","
","","","","","","null","<div style=""font-size:60px;"">+</div>","null","","fixation","","",""
"memory-trial","236","707027","0.0-18.0-1.95","7718","approach_avoid_sv1","""event"",""trial"",""time""
""fullscreenenter"",""1"",""1392""
","
","
","""event"",""trial"",""time""
""fullscreenenter"",""1"",""1392""
","
","","","","","","2527.9000000059605","images/plane1.png","","","memory_trial","2","maybe_old",""
"html-keyboard-response","237","707529","0.0-18.0-0.96","7718","approach_avoid_sv1","""event"",""trial"",""time""
""fullscreenenter"",""1"",""1392""
","
","
","""event"",""trial"",""time""
""fullscreenenter"",""1"",""1392""
","
","","","","","","null","<div style=""font-size:60px;"">+</div>","null","","fixation","","",""
"memory-trial","238","710546","0.0-18.0-1.96","7718","approach_avoid_sv1","""event"",""trial"",""time""
""fullscreenenter"",""1"",""1392""
","
","
","""event"",""trial"",""time""
""fullscreenenter"",""1"",""1392""
","
","","","","","","2012.5999999940395","images/boat3.png","","","memory_trial","2","maybe_old",""
"html-keyboard-response","239","711047","0.0-18.0-0.97","7718","approach_avoid_sv1","""event"",""trial"",""time""
""fullscreenenter"",""1"",""1392""
","
","
","""event"",""trial"",""time""
""fullscreenenter"",""1"",""1392""
","
","","","","","","null","<div style=""font-size:60px;"">+</div>","null","","fixation","","",""
"memory-trial","240","714018","0.0-18.0-1.97","7718","approach_avoid_sv1","""event"",""trial"",""time""
""fullscreenenter"",""1"",""1392""
","
","
","""event"",""trial"",""time""
""fullscreenenter"",""1"",""1392""
","
","","","","","","1967.699999988079","images/flower3.png","","","memory_trial","3","maybe_new",""
"html-keyboard-response","241","714519","0.0-18.0-0.98","7718","approach_avoid_sv1","""event"",""trial"",""time""
""fullscreenenter"",""1"",""1392""
","
","
","""event"",""trial"",""time""
""fullscreenenter"",""1"",""1392""
","
","","","","","","null","<div style=""font-size:60px;"">+</div>","null","","fixation","","",""
"memory-trial","242","716594","0.0-18.0-1.98","7718","approach_avoid_sv1","""event"",""trial"",""time""
""fullscreenenter"",""1"",""1392""
","
","
","""event"",""trial"",""time""
""fullscreenenter"",""1"",""1392""
","
","","","","","","1070.699999988079","images/horse7.png","","","memory_trial","4","definitely_new",""
"html-keyboard-response","243","717096","0.0-18.0-0.99","7718","approach_avoid_sv1","""event"",""trial"",""time""
""fullscreenenter"",""1"",""1392""
","
","
","""event"",""trial"",""time""
""fullscreenenter"",""1"",""1392""
","
","","","","","","null","<div style=""font-size:60px;"">+</div>","null","","fixation","","",""
"memory-trial","244","719107","0.0-18.0-1.99","7718","approach_avoid_sv1","""event"",""trial"",""time""
""fullscreenenter"",""1"",""1392""
","
","
","""event"",""trial"",""time""
""fullscreenenter"",""1"",""1392""
","
","","","","","","1008.5","images/train7.png","","","memory_trial","4","definitely_new",""
"html-keyboard-response","245","719609","0.0-18.0-0.100","7718","approach_avoid_sv1","""event"",""trial"",""time""
""fullscreenenter"",""1"",""1392""
","
","
","""event"",""trial"",""time""
""fullscreenenter"",""1"",""1392""
","
","","","","","","null","<div style=""font-size:60px;"">+</div>","null","","fixation","","",""
"memory-trial","246","722057","0.0-18.0-1.100","7718","approach_avoid_sv1","""event"",""trial"",""time""
""fullscreenenter"",""1"",""1392""
","
","
","""event"",""trial"",""time""
""fullscreenenter"",""1"",""1392""
","
","","","","","","1445.4000000059605","images/apple2.png","","","memory_trial","3","maybe_new",""
"html-keyboard-response","247","722559","0.0-18.0-0.101","7718","approach_avoid_sv1","""event"",""trial"",""time""
""fullscreenenter"",""1"",""1392""
","
","
","""event"",""trial"",""time""
""fullscreenenter"",""1"",""1392""
","
","","","","","","null","<div style=""font-size:60px;"">+</div>","null","","fixation","","",""
"memory-trial","248","726032","0.0-18.0-1.101","7718","approach_avoid_sv1","""event"",""trial"",""time""
""fullscreenenter"",""1"",""1392""
","
","
","""event"",""trial"",""time""
""fullscreenenter"",""1"",""1392""
","
","","","","","","2454.9000000059605","images/truck2.png","","","memory_trial","3","maybe_new",""
"html-keyboard-response","249","726534","0.0-18.0-0.102","7718","approach_avoid_sv1","""event"",""trial"",""time""
""fullscreenenter"",""1"",""1392""
","
","
","""event"",""trial"",""time""
""fullscreenenter"",""1"",""1392""
","
","","","","","","null","<div style=""font-size:60px;"">+</div>","null","","fixation","","",""
"memory-trial","250","728729","0.0-18.0-1.102","7718","approach_avoid_sv1","""event"",""trial"",""time""
""fullscreenenter"",""1"",""1392""
","
","
","""event"",""trial"",""time""
""fullscreenenter"",""1"",""1392""
","
","","","","","","1191.5","images/horse6.png","","","memory_trial","2","maybe_old",""
"html-keyboard-response","251","729231","0.0-18.0-0.103","7718","approach_avoid_sv1","""event"",""trial"",""time""
""fullscreenenter"",""1"",""1392""
","
","
","""event"",""trial"",""time""
""fullscreenenter"",""1"",""1392""
","
","","","","","","null","<div style=""font-size:60px;"">+</div>","null","","fixation","","",""
"memory-trial","252","731795","0.0-18.0-1.103","7718","approach_avoid_sv1","""event"",""trial"",""time""
""fullscreenenter"",""1"",""1392""
","
","
","""event"",""trial"",""time""
""fullscreenenter"",""1"",""1392""
","
","","","","","","1560.9000000059605","images/chair7.png","","","memory_trial","4","definitely_new",""
"html-keyboard-response","253","732297","0.0-18.0-0.104","7718","approach_avoid_sv1","""event"",""trial"",""time""
""fullscreenenter"",""1"",""1392""
","
","
","""event"",""trial"",""time""
""fullscreenenter"",""1"",""1392""
","
","","","","","","null","<div style=""font-size:60px;"">+</div>","null","","fixation","","",""
"memory-trial","254","734274","0.0-18.0-1.104","7718","approach_avoid_sv1","""event"",""trial"",""time""
""fullscreenenter"",""1"",""1392""
","
","
","""event"",""trial"",""time""
""fullscreenenter"",""1"",""1392""
","
","","","","","","973.5","images/rabbit8.png","","","memory_trial","3","maybe_new",""
"html-keyboard-response","255","734776","0.0-18.0-0.105","7718","approach_avoid_sv1","""event"",""trial"",""time""
""fullscreenenter"",""1"",""1392""
","
","
","""event"",""trial"",""time""
""fullscreenenter"",""1"",""1392""
","
","","","","","","null","<div style=""font-size:60px;"">+</div>","null","","fixation","","",""
"memory-trial","256","737721","0.0-18.0-1.105","7718","approach_avoid_sv1","""event"",""trial"",""time""
""fullscreenenter"",""1"",""1392""
","
","
","""event"",""trial"",""time""
""fullscreenenter"",""1"",""1392""
","
","","","","","","1942.9000000059605","images/plane2.png","","","memory_trial","3","maybe_new",""
"html-keyboard-response","257","738223","0.0-18.0-0.106","7718","approach_avoid_sv1","""event"",""trial"",""time""
""fullscreenenter"",""1"",""1392""
","
","
","""event"",""trial"",""time""
""fullscreenenter"",""1"",""1392""
","
","","","","","","null","<div style=""font-size:60px;"">+</div>","null","","fixation","","",""
"memory-trial","258","741090","0.0-18.0-1.106","7718","approach_avoid_sv1","""event"",""trial"",""time""
""fullscreenenter"",""1"",""1392""
","
","
","""event"",""trial"",""time""
""fullscreenenter"",""1"",""1392""
","
","","","","","","1862.2999999821186","images/rabbit7.png","","","memory_trial","3","maybe_new",""
"html-keyboard-response","259","741592","0.0-18.0-0.107","7718","approach_avoid_sv1","""event"",""trial"",""time""
""fullscreenenter"",""1"",""1392""
","
","
","""event"",""trial"",""time""
""fullscreenenter"",""1"",""1392""
","
","","","","","","null","<div style=""font-size:60px;"">+</div>","null","","fixation","","",""
"memory-trial","260","743827","0.0-18.0-1.107","7718","approach_avoid_sv1","""event"",""trial"",""time""
""fullscreenenter"",""1"",""1392""
","
","
","""event"",""trial"",""time""
""fullscreenenter"",""1"",""1392""
","
","","","","","","1232.5","images/sofa5.png","","","memory_trial","1","definitely_old",""
"html-keyboard-response","261","744329","0.0-18.0-0.108","7718","approach_avoid_sv1","""event"",""trial"",""time""
""fullscreenenter"",""1"",""1392""
","
","
","""event"",""trial"",""time""
""fullscreenenter"",""1"",""1392""
","
","","","","","","null","<div style=""font-size:60px;"">+</div>","null","","fixation","","",""
"memory-trial","262","747177","0.0-18.0-1.108","7718","approach_avoid_sv1","""event"",""trial"",""time""
""fullscreenenter"",""1"",""1392""
","
","
","""event"",""trial"",""time""
""fullscreenenter"",""1"",""1392""
","
","","","","","","1844.5999999940395","images/boat1.png","","","memory_trial","1","definitely_old",""
"html-keyboard-response","263","747679","0.0-18.0-0.109","7718","approach_avoid_sv1","""event"",""trial"",""time""
""fullscreenenter"",""1"",""1392""
","
","
","""event"",""trial"",""time""
""fullscreenenter"",""1"",""1392""
","
","","","","","","null","<div style=""font-size:60px;"">+</div>","null","","fixation","","",""
"memory-trial","264","750226","0.0-18.0-1.109","7718","approach_avoid_sv1","""event"",""trial"",""time""
""fullscreenenter"",""1"",""1392""
","
","
","""event"",""trial"",""time""
""fullscreenenter"",""1"",""1392""
","
","","","","","","1543.6000000238419","images/bush2.png","","","memory_trial","4","definitely_new",""
"html-keyboard-response","265","750728","0.0-18.0-0.110","7718","approach_avoid_sv1","""event"",""trial"",""time""
""fullscreenenter"",""1"",""1392""
","
","
","""event"",""trial"",""time""
""fullscreenenter"",""1"",""1392""
","
","","","","","","null","<div style=""font-size:60px;"">+</div>","null","","fixation","","",""
"memory-trial","266","753506","0.0-18.0-1.110","7718","approach_avoid_sv1","""event"",""trial"",""time""
""fullscreenenter"",""1"",""1392""
","
","
","""event"",""trial"",""time""
""fullscreenenter"",""1"",""1392""
","
","","","","","","1773.7999999821186","images/sheep2.png","","","memory_trial","2","maybe_old",""
"html-keyboard-response","267","754007","0.0-18.0-0.111","7718","approach_avoid_sv1","""event"",""trial"",""time""
""fullscreenenter"",""1"",""1392""
","
","
","""event"",""trial"",""time""
""fullscreenenter"",""1"",""1392""
","
","","","","","","null","<div style=""font-size:60px;"">+</div>","null","","fixation","","",""
"memory-trial","268","756571","0.0-18.0-1.111","7718","approach_avoid_sv1","""event"",""trial"",""time""
""fullscreenenter"",""1"",""1392""
","
","
","""event"",""trial"",""time""
""fullscreenenter"",""1"",""1392""
","
","","","","","","1559.1000000238419","images/bed2.png","","","memory_trial","4","definitely_new",""
"html-keyboard-response","269","757073","0.0-18.0-0.112","7718","approach_avoid_sv1","""event"",""trial"",""time""
""fullscreenenter"",""1"",""1392""
","
","
","""event"",""trial"",""time""
""fullscreenenter"",""1"",""1392""
","
","","","","","","null","<div style=""font-size:60px;"">+</div>","null","","fixation","","",""
"memory-trial","270","759402","0.0-18.0-1.112","7718","approach_avoid_sv1","""event"",""trial"",""time""
""fullscreenenter"",""1"",""1392""
","
","
","""event"",""trial"",""time""
""fullscreenenter"",""1"",""1392""
","
","","","","","","1325.7000000178814","images/horse8.png","","","memory_trial","1","definitely_old",""
"html-keyboard-response","271","759903","0.0-18.0-0.113","7718","approach_avoid_sv1","""event"",""trial"",""time""
""fullscreenenter"",""1"",""1392""
","
","
","""event"",""trial"",""time""
""fullscreenenter"",""1"",""1392""
","
","","","","","","null","<div style=""font-size:60px;"">+</div>","null","","fixation","","",""
"memory-trial","272","762162","0.0-18.0-1.113","7718","approach_avoid_sv1","""event"",""trial"",""time""
""fullscreenenter"",""1"",""1392""
","
","
","""event"",""trial"",""time""
""fullscreenenter"",""1"",""1392""
","
","","","","","","1255.5","images/chair2.png","","","memory_trial","1","definitely_old",""
"html-keyboard-response","273","762668","0.0-18.0-0.114","7718","approach_avoid_sv1","""event"",""trial"",""time""
""fullscreenenter"",""1"",""1392""
","
","
","""event"",""trial"",""time""
""fullscreenenter"",""1"",""1392""
","
","","","","","","null","<div style=""font-size:60px;"">+</div>","null","","fixation","","",""
"memory-trial","274","764873","0.0-18.0-1.114","7718","approach_avoid_sv1","""event"",""trial"",""time""
""fullscreenenter"",""1"",""1392""
","
","
","""event"",""trial"",""time""
""fullscreenenter"",""1"",""1392""
","
","","","","","","1201.300000011921","images/bed3.png","","","memory_trial","3","maybe_new",""
"html-keyboard-response","275","765375","0.0-18.0-0.115","7718","approach_avoid_sv1","""event"",""trial"",""time""
""fullscreenenter"",""1"",""1392""
","
","
","""event"",""trial"",""time""
""fullscreenenter"",""1"",""1392""
","
","","","","","","null","<div style=""font-size:60px;"">+</div>","null","","fixation","","",""
"memory-trial","276","767657","0.0-18.0-1.115","7718","approach_avoid_sv1","""event"",""trial"",""time""
""fullscreenenter"",""1"",""1392""
","
","
","""event"",""trial"",""time""
""fullscreenenter"",""1"",""1392""
","
","","","","","","1279.5999999940395","images/goat7.png","","","memory_trial","3","maybe_new",""
"html-keyboard-response","277","768159","0.0-18.0-0.116","7718","approach_avoid_sv1","""event"",""trial"",""time""
""fullscreenenter"",""1"",""1392""
","
","
","""event"",""trial"",""time""
""fullscreenenter"",""1"",""1392""
","
","","","","","","null","<div style=""font-size:60px;"">+</div>","null","","fixation","","",""
"memory-trial","278","770322","0.0-18.0-1.116","7718","approach_avoid_sv1","""event"",""trial"",""time""
""fullscreenenter"",""1"",""1392""
","
","
","""event"",""trial"",""time""
""fullscreenenter"",""1"",""1392""
","
","","","","","","1158.800000011921","images/cactus1.png","","","memory_trial","3","maybe_new",""
"html-keyboard-response","279","770823","0.0-18.0-0.117","7718","approach_avoid_sv1","""event"",""trial"",""time""
""fullscreenenter"",""1"",""1392""
","
","
","""event"",""trial"",""time""
""fullscreenenter"",""1"",""1392""
","
","","","","","","null","<div style=""font-size:60px;"">+</div>","null","","fixation","","",""
"memory-trial","280","773242","0.0-18.0-1.117","7718","approach_avoid_sv1","""event"",""trial"",""time""
""fullscreenenter"",""1"",""1392""
","
","
","""event"",""trial"",""time""
""fullscreenenter"",""1"",""1392""
","
","","","","","","1415.4000000059605","images/horse3.png","","","memory_trial","3","maybe_new",""
"html-keyboard-response","281","773743","0.0-18.0-0.118","7718","approach_avoid_sv1","""event"",""trial"",""time""
""fullscreenenter"",""1"",""1392""
","
","
","""event"",""trial"",""time""
""fullscreenenter"",""1"",""1392""
","
","","","","","","null","<div style=""font-size:60px;"">+</div>","null","","fixation","","",""
"memory-trial","282","776681","0.0-18.0-1.118","7718","approach_avoid_sv1","""event"",""trial"",""time""
""fullscreenenter"",""1"",""1392""
","
","
","""event"",""trial"",""time""
""fullscreenenter"",""1"",""1392""
","
","","","","","","1935.5","images/orange6.png","","","memory_trial","3","maybe_new",""
"html-keyboard-response","283","777183","0.0-18.0-0.119","7718","approach_avoid_sv1","""event"",""trial"",""time""
""fullscreenenter"",""1"",""1392""
","
","
","""event"",""trial"",""time""
""fullscreenenter"",""1"",""1392""
","
","","","","","","null","<div style=""font-size:60px;"">+</div>","null","","fixation","","",""
"memory-trial","284","780812","0.0-18.0-1.119","7718","approach_avoid_sv1","""event"",""trial"",""time""
""fullscreenenter"",""1"",""1392""
","
","
","""event"",""trial"",""time""
""fullscreenenter"",""1"",""1392""
","
","","","","","","2623.9000000059605","images/tree7.png","","","memory_trial","1","definitely_old",""
"html-keyboard-response","285","781313","0.0-18.0-0.120","7718","approach_avoid_sv1","""event"",""trial"",""time""
""fullscreenenter"",""1"",""1392""
","
","
","""event"",""trial"",""time""
""fullscreenenter"",""1"",""1392""
","
","","","","","","null","<div style=""font-size:60px;"">+</div>","null","","fixation","","",""
"memory-trial","286","783624","0.0-18.0-1.120","7718","approach_avoid_sv1","""event"",""trial"",""time""
""fullscreenenter"",""1"",""1392""
","
","
","""event"",""trial"",""time""
""fullscreenenter"",""1"",""1392""
","
","","","","","","1300.9000000059605","images/orange4.png","","","memory_trial","3","maybe_new",""
"html-keyboard-response","287","784126","0.0-18.0-0.121","7718","approach_avoid_sv1","""event"",""trial"",""time""
""fullscreenenter"",""1"",""1392""
","
","
","""event"",""trial"",""time""
""fullscreenenter"",""1"",""1392""
","
","","","","","","null","<div style=""font-size:60px;"">+</div>","null","","fixation","","",""
"memory-trial","288","786741","0.0-18.0-1.121","7718","approach_avoid_sv1","""event"",""trial"",""time""
""fullscreenenter"",""1"",""1392""
","
","
","""event"",""trial"",""time""
""fullscreenenter"",""1"",""1392""
","
","","","","","","1608.0999999940395","images/boat7.png","","","memory_trial","3","maybe_new",""
"html-keyboard-response","289","787242","0.0-18.0-0.122","7718","approach_avoid_sv1","""event"",""trial"",""time""
""fullscreenenter"",""1"",""1392""
","
","
","""event"",""trial"",""time""
""fullscreenenter"",""1"",""1392""
","
","","","","","","null","<div style=""font-size:60px;"">+</div>","null","","fixation","","",""
"memory-trial","290","789458","0.0-18.0-1.122","7718","approach_avoid_sv1","""event"",""trial"",""time""
""fullscreenenter"",""1"",""1392""
","
","
","""event"",""trial"",""time""
""fullscreenenter"",""1"",""1392""
","
","","","","","","1212.4000000059605","images/chair6.png","","","memory_trial","3","maybe_new",""
"html-keyboard-response","291","789960","0.0-18.0-0.123","7718","approach_avoid_sv1","""event"",""trial"",""time""
""fullscreenenter"",""1"",""1392""
","
","
","""event"",""trial"",""time""
""fullscreenenter"",""1"",""1392""
","
","","","","","","null","<div style=""font-size:60px;"">+</div>","null","","fixation","","",""
"memory-trial","292","792226","0.0-18.0-1.123","7718","approach_avoid_sv1","""event"",""trial"",""time""
""fullscreenenter"",""1"",""1392""
","
","
","""event"",""trial"",""time""
""fullscreenenter"",""1"",""1392""
","
","","","","","","1263.5999999940395","images/sheep1.png","","","memory_trial","3","maybe_new",""
"html-keyboard-response","293","792727","0.0-18.0-0.124","7718","approach_avoid_sv1","""event"",""trial"",""time""
""fullscreenenter"",""1"",""1392""
","
","
","""event"",""trial"",""time""
""fullscreenenter"",""1"",""1392""
","
","","","","","","null","<div style=""font-size:60px;"">+</div>","null","","fixation","","",""
"memory-trial","294","794994","0.0-18.0-1.124","7718","approach_avoid_sv1","""event"",""trial"",""time""
""fullscreenenter"",""1"",""1392""
","
","
","""event"",""trial"",""time""
""fullscreenenter"",""1"",""1392""
","
","","","","","","1262.300000011921","images/sheep5.png","","","memory_trial","4","definitely_new",""
"html-keyboard-response","295","795496","0.0-18.0-0.125","7718","approach_avoid_sv1","""event"",""trial"",""time""
""fullscreenenter"",""1"",""1392""
","
","
","""event"",""trial"",""time""
""fullscreenenter"",""1"",""1392""
","
","","","","","","null","<div style=""font-size:60px;"">+</div>","null","","fixation","","",""
"memory-trial","296","798164","0.0-18.0-1.125","7718","approach_avoid_sv1","""event"",""trial"",""time""
""fullscreenenter"",""1"",""1392""
","
","
","""event"",""trial"",""time""
""fullscreenenter"",""1"",""1392""
","
","","","","","","1663","images/truck8.png","","","memory_trial","2","maybe_old",""
"html-keyboard-response","297","798666","0.0-18.0-0.126","7718","approach_avoid_sv1","""event"",""trial"",""time""
""fullscreenenter"",""1"",""1392""
","
","
","""event"",""trial"",""time""
""fullscreenenter"",""1"",""1392""
","
