"trial_type","trial_index","time_elapsed","internal_node_id","subject_id","task_version","interactions","blur_events","focus_events","fullscreenenter_events","fullscreenexit_events","success","timeout","failed_images","failed_audio","failed_video","rt","stimulus","response","button_pressed","task_part","key_press","answer","correct"
"pavlovia","0","8","0.0-0.0","5905","approach_avoid_sv1","""event"",""trial"",""time""
""fullscreenenter"",""1"",""2828""
","
","
","""event"",""trial"",""time""
""fullscreenenter"",""1"",""2828""
","
","","","","","","","","","","","","",""
"fullscreen","1","3809","0.0-1.0","5905","approach_avoid_sv1","""event"",""trial"",""time""
""fullscreenenter"",""1"",""2828""
","
","
","""event"",""trial"",""time""
""fullscreenenter"",""1"",""2828""
","
","true","","","","","","","","","","","",""
"preload","2","38360","0.0-2.0","5905","approach_avoid_sv1","""event"",""trial"",""time""
""fullscreenenter"",""1"",""2828""
","
","
","""event"",""trial"",""time""
""fullscreenenter"",""1"",""2828""
","
","true","false","[]","[]","[]","","","","","","","",""
"preload","3","76730","0.0-3.0","5905","approach_avoid_sv1","""event"",""trial"",""time""
""fullscreenenter"",""1"",""2828""
","
","
","""event"",""trial"",""time""
""fullscreenenter"",""1"",""2828""
","
","true","false","[]","[]","[]","","","","","","","",""
"preload","4","79944","0.0-4.0","5905","approach_avoid_sv1","""event"",""trial"",""time""
""fullscreenenter"",""1"",""2828""
","
","
","""event"",""trial"",""time""
""fullscreenenter"",""1"",""2828""
","
","true","false","[]","[]","[]","","","","","","","",""
"audio-keyboard-response","5","82898","0.0-5.0","5905","approach_avoid_sv1","""event"",""trial"",""time""
""fullscreenenter"",""1"",""2828""
","
","
","""event"",""trial"",""time""
""fullscreenenter"",""1"",""2828""
","
","","","","","","2949.3333333333335","audio/beep_loop.wav"," ","","","","",""
"audio-button-response","6","85079","0.0-6.0","5905","approach_avoid_sv1","""event"",""trial"",""time""
""fullscreenenter"",""1"",""2828""
","
","
","""event"",""trial"",""time""
""fullscreenenter"",""1"",""2828""
","
","","","","","","2179","audio/turtle.wav","3","","","","",""
"audio-button-response","7","87970","0.0-7.0","5905","approach_avoid_sv1","""event"",""trial"",""time""
""fullscreenenter"",""1"",""2828""
","
","
","""event"",""trial"",""time""
""fullscreenenter"",""1"",""2828""
","
","","","","","","1869","audio/shark.wav","2","","","","",""
"preload","8","127254","0.0-8.0","5905","approach_avoid_sv1","""event"",""trial"",""time""
""fullscreenenter"",""1"",""2828""
","
","
","""event"",""trial"",""time""
""fullscreenenter"",""1"",""2828""
","
","true","false","[]","[]","[]","","","","","","","",""
"learning-instructions","9","134833","0.0-9.0-0.0","5905","approach_avoid_sv1","""event"",""trial"",""time""
""fullscreenenter"",""1"",""2828""
","
","
","""event"",""trial"",""time""
""fullscreenenter"",""1"",""2828""
","
","","","","","","2830.7999997138977","<p> Welcome back! </p><p> Last week, you had to make choices about lots of different items.  </p>","","0","instructions","","",""
"learning-instructions","10","144335","0.0-9.0-0.1","5905","approach_avoid_sv1","""event"",""trial"",""time""
""fullscreenenter"",""1"",""2828""
","
","
","""event"",""trial"",""time""
""fullscreenenter"",""1"",""2828""
","
","","","","","","5383.199999809265","<p> Today, we are going to ask you to try to remember all the items. </p>","","0","instructions","","",""
"learning-instructions","11","167911","0.0-9.0-0.2","5905","approach_avoid_sv1","""event"",""trial"",""time""
""fullscreenenter"",""1"",""2828""
","
","
","""event"",""trial"",""time""
""fullscreenenter"",""1"",""2828""
","
","","","","","","13439.700000286102","<p> On every trial, you will see an image. </p><p> The image may be an OLD image you saw during the games last week or it may be a NEW image that was not presented. </p>","","0","instructions","","",""
"learning-instructions","12","182212","0.0-9.0-0.3","5905","approach_avoid_sv1","""event"",""trial"",""time""
""fullscreenenter"",""1"",""2828""
","
","
","""event"",""trial"",""time""
""fullscreenenter"",""1"",""2828""
","
","","","","","","5769.699999809265","<p> You need to select whether the image is:  </p><p>  'Definitely old', 'Maybe old', 'Maybe new', or 'Definitely new.'  </p><div class=""mem-choice-instructions-grid""><div class=""choice-option"" id=""choice-option-1"" ><img src=""images/definitely_old_1.png"" id=""choice-option-img-1"" class=""choice-option-img"" stage=""1""></div><div class=""choice-option"" id=""choice-option-2"" ><img src=""images/maybe_old_1.png"" id=""choice-option-img-2"" class=""choice-option-img"" stage=""1""></div><div class=""choice-option"" id=""choice-option-3"" ><img src=""images/maybe_new_1.png"" id=""choice-option-img-3"" class=""choice-option-img"" stage=""1""></div><div class=""choice-option"" id=""choice-option-4"" > <img src=""images/definitely_new_1.png"" id=""choice-option-img-4"" class=""choice-option-img"" stage=""1""></div></div>","","0","instructions","","",""
"learning-instructions","13","189886","0.0-9.0-0.4","5905","approach_avoid_sv1","""event"",""trial"",""time""
""fullscreenenter"",""1"",""2828""
","
","
","""event"",""trial"",""time""
""fullscreenenter"",""1"",""2828""
","
","","","","","","1153.9000000953674","<p> You should use the 1, 2, 3, and 4 keys to make your responses.  </p><div class=""mem-choice-instructions-grid""><div class=""choice-option"" id=""choice-option-1"" ><img src=""images/definitely_old.png"" id=""choice-option-img-1"" class=""choice-option-img"" stage=""1""></div><div class=""choice-option"" id=""choice-option-2"" ><img src=""images/maybe_old.png"" id=""choice-option-img-2"" class=""choice-option-img"" stage=""1""></div><div class=""choice-option"" id=""choice-option-3"" ><img src=""images/maybe_new.png"" id=""choice-option-img-3"" class=""choice-option-img"" stage=""1""></div><div class=""choice-option"" id=""choice-option-4"" > <img src=""images/definitely_new.png"" id=""choice-option-img-4"" class=""choice-option-img"" stage=""1""></div></div>","","0","instructions","","",""
"learning-instructions","14","200165","0.0-9.0-0.5","5905","approach_avoid_sv1","""event"",""trial"",""time""
""fullscreenenter"",""1"",""2828""
","
","
","""event"",""trial"",""time""
""fullscreenenter"",""1"",""2828""
","
","","","","","","3943.800000190735","<p> You will have 10 seconds to make each response.  </p><p>  Make sure to respond before time runs out! </p>","","0","instructions","","",""
"learning-instructions","15","220302","0.0-9.0-0.6","5905","approach_avoid_sv1","""event"",""trial"",""time""
""fullscreenenter"",""1"",""2828""
","
","
","""event"",""trial"",""time""
""fullscreenenter"",""1"",""2828""
","
","","","","","","13050.299999713898","<p> Today, you will see each image ONCE only.  </p><p>  That means none of the images will repeat. </p>","","0","instructions","","",""
"learning-instructions","16","240387","0.0-9.0-0.7","5905","approach_avoid_sv1","""event"",""trial"",""time""
""fullscreenenter"",""1"",""2828""
","
","
","""event"",""trial"",""time""
""fullscreenenter"",""1"",""2828""
","
","","","","","","7396.099999904633","<p> Before you play the real game, it is time to practice. </p><p>  Just like in the real game, some of the images in the practice will be ones you have seen before. </p><p>  Others will be entirely new. </p>","","0","instructions","","",""
"html-button-response","17","252371","0.0-10.0","5905","approach_avoid_sv1","""event"",""trial"",""time""
""fullscreenenter"",""1"",""2828""
","
","
","""event"",""trial"",""time""
""fullscreenenter"",""1"",""2828""
","
","","","","","","11864.799999713898","<p> Ready to practice? </p><p> Remember, use the 1, 2, 3, and 4 keys to make your responses. </p>","0","","instructions","","",""
"html-keyboard-response","18","252999","0.0-11.0-0.0","5905","approach_avoid_sv1","""event"",""trial"",""time""
""fullscreenenter"",""1"",""2828""
","
","
","""event"",""trial"",""time""
""fullscreenenter"",""1"",""2828""
","
","","","","","","null","<div style=""font-size:60px;"">+</div>","null","","fixation","","",""
"memory-trial","19","258570","0.0-11.0-1.0","5905","approach_avoid_sv1","""event"",""trial"",""time""
""fullscreenenter"",""1"",""2828""
","
","
","""event"",""trial"",""time""
""fullscreenenter"",""1"",""2828""
","
","","","","","","4555.699999809265","images/racket3.png","","","practice","1","definitely_old",""
"html-keyboard-response","20","259080","0.0-11.0-0.1","5905","approach_avoid_sv1","""event"",""trial"",""time""
""fullscreenenter"",""1"",""2828""
","
","
","""event"",""trial"",""time""
""fullscreenenter"",""1"",""2828""
","
","","","","","","null","<div style=""font-size:60px;"">+</div>","null","","fixation","","",""
"memory-trial","21","264432","0.0-11.0-1.1","5905","approach_avoid_sv1","""event"",""trial"",""time""
""fullscreenenter"",""1"",""2828""
","
","
","""event"",""trial"",""time""
""fullscreenenter"",""1"",""2828""
","
","","","","","","4342","images/ball3.png","","","practice","4","definitely_new",""
"html-keyboard-response","22","264941","0.0-11.0-0.2","5905","approach_avoid_sv1","""event"",""trial"",""time""
""fullscreenenter"",""1"",""2828""
","
","
","""event"",""trial"",""time""
""fullscreenenter"",""1"",""2828""
","
","","","","","","null","<div style=""font-size:60px;"">+</div>","null","","fixation","","",""
"memory-trial","23","267959","0.0-11.0-1.2","5905","approach_avoid_sv1","""event"",""trial"",""time""
""fullscreenenter"",""1"",""2828""
","
","
","""event"",""trial"",""time""
""fullscreenenter"",""1"",""2828""
","
","","","","","","2007.1999998092651","images/racket5.png","","","practice","1","definitely_old",""
"html-keyboard-response","24","268467","0.0-11.0-0.3","5905","approach_avoid_sv1","""event"",""trial"",""time""
""fullscreenenter"",""1"",""2828""
","
","
","""event"",""trial"",""time""
""fullscreenenter"",""1"",""2828""
","
","","","","","","null","<div style=""font-size:60px;"">+</div>","null","","fixation","","",""
"memory-trial","25","272853","0.0-11.0-1.3","5905","approach_avoid_sv1","""event"",""trial"",""time""
""fullscreenenter"",""1"",""2828""
","
","
","""event"",""trial"",""time""
""fullscreenenter"",""1"",""2828""
","
","","","","","","3372.5","images/racket2.png","","","practice","4","definitely_new",""
"html-keyboard-response","26","273354","0.0-11.0-0.4","5905","approach_avoid_sv1","""event"",""trial"",""time""
""fullscreenenter"",""1"",""2828""
","
","
","""event"",""trial"",""time""
""fullscreenenter"",""1"",""2828""
","
","","","","","","null","<div style=""font-size:60px;"">+</div>","null","","fixation","","",""
"memory-trial","27","275978","0.0-11.0-1.4","5905","approach_avoid_sv1","""event"",""trial"",""time""
""fullscreenenter"",""1"",""2828""
","
","
","""event"",""trial"",""time""
""fullscreenenter"",""1"",""2828""
","
","","","","","","1616.5999999046326","images/ball2.png","","","practice","1","definitely_old",""
"html-keyboard-response","28","276488","0.0-11.0-0.5","5905","approach_avoid_sv1","""event"",""trial"",""time""
""fullscreenenter"",""1"",""2828""
","
","
","""event"",""trial"",""time""
""fullscreenenter"",""1"",""2828""
","
","","","","","","null","<div style=""font-size:60px;"">+</div>","null","","fixation","","",""
"memory-trial","29","279795","0.0-11.0-1.5","5905","approach_avoid_sv1","""event"",""trial"",""time""
""fullscreenenter"",""1"",""2828""
","
","
","""event"",""trial"",""time""
""fullscreenenter"",""1"",""2828""
","
","","","","","","2291.4000000953674","images/ball5.png","","","practice","1","definitely_old",""
"html-keyboard-response","30","280301","0.0-11.0-0.6","5905","approach_avoid_sv1","""event"",""trial"",""time""
""fullscreenenter"",""1"",""2828""
","
","
","""event"",""trial"",""time""
""fullscreenenter"",""1"",""2828""
","
","","","","","","null","<div style=""font-size:60px;"">+</div>","null","","fixation","","",""
"memory-trial","31","283192","0.0-11.0-1.6","5905","approach_avoid_sv1","""event"",""trial"",""time""
""fullscreenenter"",""1"",""2828""
","
","
","""event"",""trial"",""time""
""fullscreenenter"",""1"",""2828""
","
","","","","","","1873.1000003814697","images/racket1.png","","","practice","1","definitely_old",""
"html-keyboard-response","32","283706","0.0-11.0-0.7","5905","approach_avoid_sv1","""event"",""trial"",""time""
""fullscreenenter"",""1"",""2828""
","
","
","""event"",""trial"",""time""
""fullscreenenter"",""1"",""2828""
","
","","","","","","null","<div style=""font-size:60px;"">+</div>","null","","fixation","","",""
"memory-trial","33","286121","0.0-11.0-1.7","5905","approach_avoid_sv1","""event"",""trial"",""time""
""fullscreenenter"",""1"",""2828""
","
","
","""event"",""trial"",""time""
""fullscreenenter"",""1"",""2828""
","
","","","","","","1404.2000002861023","images/ball1.png","","","practice","1","definitely_old",""
"learning-instructions","34","301601","0.0-12.0-0.0","5905","approach_avoid_sv1","""event"",""trial"",""time""
""fullscreenenter"",""1"",""2828""
","
","
","""event"",""trial"",""time""
""fullscreenenter"",""1"",""2828""
","
","","","","","","7448.799999713898","<p> Great! You have completed the practice. </p><p> Before you start, we're going to ask you a few questions about how the game works.  </p>","","0","instructions","","",""
"preload","35","337753","0.0-13.0","5905","approach_avoid_sv1","""event"",""trial"",""time""
""fullscreenenter"",""1"",""2828""
","
","
","""event"",""trial"",""time""
""fullscreenenter"",""1"",""2828""
","
","true","false","[]","[]","[]","","","","","","","",""
"comp-q","36","345471","0.0-14.0-0.0","5905","approach_avoid_sv1","""event"",""trial"",""time""
""fullscreenenter"",""1"",""2828""
","
","
","""event"",""trial"",""time""
""fullscreenenter"",""1"",""2828""
","
","","","","","","1670","<p> <b> True or False? </b> </p><p> In this game, you will only see each image once. </p>","","0","comp_question","","","true"
"comp-q","37","354349","0.0-14.0-1.0","5905","approach_avoid_sv1","""event"",""trial"",""time""
""fullscreenenter"",""1"",""2828""
","
","
","""event"",""trial"",""time""
""fullscreenenter"",""1"",""2828""
","
","","","","","","2527.7000002861023","<p> <b> That's right! </b> You will see many different images <i> one time each </i> in this game. </p>","","0","comp_answer","","",""
"comp-q","38","360368","0.0-15.0-0.0","5905","approach_avoid_sv1","""event"",""trial"",""time""
""fullscreenenter"",""1"",""2828""
","
","
","""event"",""trial"",""time""
""fullscreenenter"",""1"",""2828""
","
","","","","","","1006.7999997138977","<p> <b> True or False? </b> </p><p> You should use the mouse and click to make your response. </p>","","1","comp_question","","","true"
"comp-q","39","368451","0.0-15.0-1.0","5905","approach_avoid_sv1","""event"",""trial"",""time""
""fullscreenenter"",""1"",""2828""
","
","
","""event"",""trial"",""time""
""fullscreenenter"",""1"",""2828""
","
","","","","","","1559.7999997138977","<p><b> That's right! </b> You should use the '1', '2', '3', and '4' keys to make your response. </p>","","0","comp_answer","","",""
"comp-q","40","375083","0.0-16.0-0.0","5905","approach_avoid_sv1","""event"",""trial"",""time""
""fullscreenenter"",""1"",""2828""
","
","
","""event"",""trial"",""time""
""fullscreenenter"",""1"",""2828""
","
","","","","","","941","<p> <b> True or False? </b> </p><p> You will have as much time as you want to make each choice. </p>","","1","comp_question","","","true"
"comp-q","41","383083","0.0-16.0-1.0","5905","approach_avoid_sv1","""event"",""trial"",""time""
""fullscreenenter"",""1"",""2828""
","
","
","""event"",""trial"",""time""
""fullscreenenter"",""1"",""2828""
","
","","","","","","3290.800000190735","<p> <b> That's right! </b> You will only have 10 seconds to make each choice. </p>","","0","comp_answer","","",""
"learning-instructions","42","396572","0.0-17.0","5905","approach_avoid_sv1","""event"",""trial"",""time""
""fullscreenenter"",""1"",""2828""
","
","
","""event"",""trial"",""time""
""fullscreenenter"",""1"",""2828""
","
","","","","","","4819.700000286102","<p> Great! You are now ready to begin the game. </p><p> Remember, use the 1, 2, 3, and 4 keys to make your responses. </p>","","0","instructions","","",""
"html-keyboard-response","43","397196","0.0-18.0-0.0","5905","approach_avoid_sv1","""event"",""trial"",""time""
""fullscreenenter"",""1"",""2828""
","
","
","""event"",""trial"",""time""
""fullscreenenter"",""1"",""2828""
","
","","","","","","null","<div style=""font-size:60px;"">+</div>","null","","fixation","","",""
"memory-trial","44","400251","0.0-18.0-1.0","5905","approach_avoid_sv1","""event"",""trial"",""time""
""fullscreenenter"",""1"",""2828""
","
","
","""event"",""trial"",""time""
""fullscreenenter"",""1"",""2828""
","
","","","","","","2040.2999997138977","images/chair3.png","","","memory_trial","4","definitely_new",""
"html-keyboard-response","45","400760","0.0-18.0-0.1","5905","approach_avoid_sv1","""event"",""trial"",""time""
""fullscreenenter"",""1"",""2828""
","
","
","""event"",""trial"",""time""
""fullscreenenter"",""1"",""2828""
","
","","","","","","null","<div style=""font-size:60px;"">+</div>","null","","fixation","","",""
"memory-trial","46","403070","0.0-18.0-1.1","5905","approach_avoid_sv1","""event"",""trial"",""time""
""fullscreenenter"",""1"",""2828""
","
","
","""event"",""trial"",""time""
""fullscreenenter"",""1"",""2828""
","
","","","","","","1295.5","images/rodent2.png","","","memory_trial","4","definitely_new",""
"html-keyboard-response","47","403590","0.0-18.0-0.2","5905","approach_avoid_sv1","""event"",""trial"",""time""
""fullscreenenter"",""1"",""2828""
","
","
","""event"",""trial"",""time""
""fullscreenenter"",""1"",""2828""
","
","","","","","","null","<div style=""font-size:60px;"">+</div>","null","","fixation","","",""
"memory-trial","48","405580","0.0-18.0-1.2","5905","approach_avoid_sv1","""event"",""trial"",""time""
""fullscreenenter"",""1"",""2828""
","
","
","""event"",""trial"",""time""
""fullscreenenter"",""1"",""2828""
","
","","","","","","983","images/dog6.png","","","memory_trial","1","definitely_old",""
"html-keyboard-response","49","406100","0.0-18.0-0.3","5905","approach_avoid_sv1","""event"",""trial"",""time""
""fullscreenenter"",""1"",""2828""
","
","
","""event"",""trial"",""time""
""fullscreenenter"",""1"",""2828""
","
","","","","","","null","<div style=""font-size:60px;"">+</div>","null","","fixation","","",""
"memory-trial","50","408760","0.0-18.0-1.3","5905","approach_avoid_sv1","""event"",""trial"",""time""
""fullscreenenter"",""1"",""2828""
","
","
","""event"",""trial"",""time""
""fullscreenenter"",""1"",""2828""
","
","","","","","","1648.7999997138977","images/train1.png","","","memory_trial","1","definitely_old",""
"html-keyboard-response","51","409270","0.0-18.0-0.4","5905","approach_avoid_sv1","""event"",""trial"",""time""
""fullscreenenter"",""1"",""2828""
","
","
","""event"",""trial"",""time""
""fullscreenenter"",""1"",""2828""
","
","","","","","","null","<div style=""font-size:60px;"">+</div>","null","","fixation","","",""
"memory-trial","52","411131","0.0-18.0-1.4","5905","approach_avoid_sv1","""event"",""trial"",""time""
""fullscreenenter"",""1"",""2828""
","
","
","""event"",""trial"",""time""
""fullscreenenter"",""1"",""2828""
","
","","","","","","844.5","images/bed1.png","","","memory_trial","1","definitely_old",""
"html-keyboard-response","53","411651","0.0-18.0-0.5","5905","approach_avoid_sv1","""event"",""trial"",""time""
""fullscreenenter"",""1"",""2828""
","
","
","""event"",""trial"",""time""
""fullscreenenter"",""1"",""2828""
","
","","","","","","null","<div style=""font-size:60px;"">+</div>","null","","fixation","","",""
"memory-trial","54","413527","0.0-18.0-1.5","5905","approach_avoid_sv1","""event"",""trial"",""time""
""fullscreenenter"",""1"",""2828""
","
","
","""event"",""trial"",""time""
""fullscreenenter"",""1"",""2828""
","
","","","","","","867.8000001907349","images/apple6.png","","","memory_trial","4","definitely_new",""
"html-keyboard-response","55","414050","0.0-18.0-0.6","5905","approach_avoid_sv1","""event"",""trial"",""time""
""fullscreenenter"",""1"",""2828""
","
","
","""event"",""trial"",""time""
""fullscreenenter"",""1"",""2828""
","
","","","","","","null","<div style=""font-size:60px;"">+</div>","null","","fixation","","",""
"memory-trial","56","416620","0.0-18.0-1.6","5905","approach_avoid_sv1","""event"",""trial"",""time""
""fullscreenenter"",""1"",""2828""
","
","
","""event"",""trial"",""time""
""fullscreenenter"",""1"",""2828""
","
","","","","","","1549.3999996185303","images/horse5.png","","","memory_trial","4","definitely_new",""
"html-keyboard-response","57","417140","0.0-18.0-0.7","5905","approach_avoid_sv1","""event"",""trial"",""time""
""fullscreenenter"",""1"",""2828""
","
","
","""event"",""trial"",""time""
""fullscreenenter"",""1"",""2828""
","
","","","","","","null","<div style=""font-size:60px;"">+</div>","null","","fixation","","",""
"memory-trial","58","419470","0.0-18.0-1.7","5905","approach_avoid_sv1","""event"",""trial"",""time""
""fullscreenenter"",""1"",""2828""
","
","
","""event"",""trial"",""time""
""fullscreenenter"",""1"",""2828""
","
","","","","","","1315.8000001907349","images/cow1.png","","","memory_trial","4","definitely_new",""
"html-keyboard-response","59","419980","0.0-18.0-0.8","5905","approach_avoid_sv1","""event"",""trial"",""time""
""fullscreenenter"",""1"",""2828""
","
","
","""event"",""trial"",""time""
""fullscreenenter"",""1"",""2828""
","
","","","","","","null","<div style=""font-size:60px;"">+</div>","null","","fixation","","",""
"memory-trial","60","421920","0.0-18.0-1.8","5905","approach_avoid_sv1","""event"",""trial"",""time""
""fullscreenenter"",""1"",""2828""
","
","
","""event"",""trial"",""time""
""fullscreenenter"",""1"",""2828""
","
","","","","","","930.8000001907349","images/truck6.png","","","memory_trial","1","definitely_old",""
"html-keyboard-response","61","422429","0.0-18.0-0.9","5905","approach_avoid_sv1","""event"",""trial"",""time""
""fullscreenenter"",""1"",""2828""
","
","
","""event"",""trial"",""time""
""fullscreenenter"",""1"",""2828""
","
","","","","","","null","<div style=""font-size:60px;"">+</div>","null","","fixation","","",""
"memory-trial","62","424202","0.0-18.0-1.9","5905","approach_avoid_sv1","""event"",""trial"",""time""
""fullscreenenter"",""1"",""2828""
","
","
","""event"",""trial"",""time""
""fullscreenenter"",""1"",""2828""
","
","","","","","","757.3000001907349","images/cactus4.png","","","memory_trial","1","definitely_old",""
"html-keyboard-response","63","424709","0.0-18.0-0.10","5905","approach_avoid_sv1","""event"",""trial"",""time""
""fullscreenenter"",""1"",""2828""
","
","
","""event"",""trial"",""time""
""fullscreenenter"",""1"",""2828""
","
","","","","","","null","<div style=""font-size:60px;"">+</div>","null","","fixation","","",""
"memory-trial","64","426682","0.0-18.0-1.10","5905","approach_avoid_sv1","""event"",""trial"",""time""
""fullscreenenter"",""1"",""2828""
","
","
","""event"",""trial"",""time""
""fullscreenenter"",""1"",""2828""
","
","","","","","","956.5999999046326","images/banana5.png","","","memory_trial","1","definitely_old",""
"html-keyboard-response","65","427189","0.0-18.0-0.11","5905","approach_avoid_sv1","""event"",""trial"",""time""
""fullscreenenter"",""1"",""2828""
","
","
","""event"",""trial"",""time""
""fullscreenenter"",""1"",""2828""
","
","","","","","","null","<div style=""font-size:60px;"">+</div>","null","","fixation","","",""
"memory-trial","66","429037","0.0-18.0-1.11","5905","approach_avoid_sv1","""event"",""trial"",""time""
""fullscreenenter"",""1"",""2828""
","
","
","""event"",""trial"",""time""
""fullscreenenter"",""1"",""2828""
","
","","","","","","839.8999996185303","images/sofa4.png","","","memory_trial","1","definitely_old",""
"html-keyboard-response","67","429546","0.0-18.0-0.12","5905","approach_avoid_sv1","""event"",""trial"",""time""
""fullscreenenter"",""1"",""2828""
","
","
","""event"",""trial"",""time""
""fullscreenenter"",""1"",""2828""
","
","","","","","","null","<div style=""font-size:60px;"">+</div>","null","","fixation","","",""
"memory-trial","68","431408","0.0-18.0-1.12","5905","approach_avoid_sv1","""event"",""trial"",""time""
""fullscreenenter"",""1"",""2828""
","
","
","""event"",""trial"",""time""
""fullscreenenter"",""1"",""2828""
","
","","","","","","852.8000001907349","images/boat8.png","","","memory_trial","4","definitely_new",""
"html-keyboard-response","69","431923","0.0-18.0-0.13","5905","approach_avoid_sv1","""event"",""trial"",""time""
""fullscreenenter"",""1"",""2828""
","
","
","""event"",""trial"",""time""
""fullscreenenter"",""1"",""2828""
","
","","","","","","null","<div style=""font-size:60px;"">+</div>","null","","fixation","","",""
"memory-trial","70","434019","0.0-18.0-1.13","5905","approach_avoid_sv1","""event"",""trial"",""time""
""fullscreenenter"",""1"",""2828""
","
","
","""event"",""trial"",""time""
""fullscreenenter"",""1"",""2828""
","
","","","","","","1077.8000001907349","images/tree6.png","","","memory_trial","1","definitely_old",""
"html-keyboard-response","71","434528","0.0-18.0-0.14","5905","approach_avoid_sv1","""event"",""trial"",""time""
""fullscreenenter"",""1"",""2828""
","
","
","""event"",""trial"",""time""
""fullscreenenter"",""1"",""2828""
","
","","","","","","null","<div style=""font-size:60px;"">+</div>","null","","fixation","","",""
"memory-trial","72","436457","0.0-18.0-1.14","5905","approach_avoid_sv1","""event"",""trial"",""time""
""fullscreenenter"",""1"",""2828""
","
","
","""event"",""trial"",""time""
""fullscreenenter"",""1"",""2828""
","
","","","","","","915.3000001907349","images/banana8.png","","","memory_trial","4","definitely_new",""
"html-keyboard-response","73","436974","0.0-18.0-0.15","5905","approach_avoid_sv1","""event"",""trial"",""time""
""fullscreenenter"",""1"",""2828""
","
","
","""event"",""trial"",""time""
""fullscreenenter"",""1"",""2828""
","
","","","","","","null","<div style=""font-size:60px;"">+</div>","null","","fixation","","",""
"memory-trial","74","438993","0.0-18.0-1.15","5905","approach_avoid_sv1","""event"",""trial"",""time""
""fullscreenenter"",""1"",""2828""
","
","
","""event"",""trial"",""time""
""fullscreenenter"",""1"",""2828""
","
","","","","","","995.9000000953674","images/table5.png","","","memory_trial","1","definitely_old",""
"html-keyboard-response","75","439506","0.0-18.0-0.16","5905","approach_avoid_sv1","""event"",""trial"",""time""
""fullscreenenter"",""1"",""2828""
","
","
","""event"",""trial"",""time""
""fullscreenenter"",""1"",""2828""
","
","","","","","","null","<div style=""font-size:60px;"">+</div>","null","","fixation","","",""
"memory-trial","76","441296","0.0-18.0-1.16","5905","approach_avoid_sv1","""event"",""trial"",""time""
""fullscreenenter"",""1"",""2828""
","
","
","""event"",""trial"",""time""
""fullscreenenter"",""1"",""2828""
","
","","","","","","776.9000000953674","images/cactus6.png","","","memory_trial","1","definitely_old",""
"html-keyboard-response","77","441817","0.0-18.0-0.17","5905","approach_avoid_sv1","""event"",""trial"",""time""
""fullscreenenter"",""1"",""2828""
","
","
","""event"",""trial"",""time""
""fullscreenenter"",""1"",""2828""
","
","","","","","","null","<div style=""font-size:60px;"">+</div>","null","","fixation","","",""
"memory-trial","78","443923","0.0-18.0-1.17","5905","approach_avoid_sv1","""event"",""trial"",""time""
""fullscreenenter"",""1"",""2828""
","
","
","""event"",""trial"",""time""
""fullscreenenter"",""1"",""2828""
","
","","","","","","1098.9000000953674","images/bush3.png","","","memory_trial","1","definitely_old",""
"html-keyboard-response","79","444433","0.0-18.0-0.18","5905","approach_avoid_sv1","""event"",""trial"",""time""
""fullscreenenter"",""1"",""2828""
","
","
","""event"",""trial"",""time""
""fullscreenenter"",""1"",""2828""
","
","","","","","","null","<div style=""font-size:60px;"">+</div>","null","","fixation","","",""
"memory-trial","80","446778","0.0-18.0-1.18","5905","approach_avoid_sv1","""event"",""trial"",""time""
""fullscreenenter"",""1"",""2828""
","
","
","""event"",""trial"",""time""
""fullscreenenter"",""1"",""2828""
","
","","","","","","1334","images/horse4.png","","","memory_trial","4","definitely_new",""
"html-keyboard-response","81","447292","0.0-18.0-0.19","5905","approach_avoid_sv1","""event"",""trial"",""time""
""fullscreenenter"",""1"",""2828""
","
","
","""event"",""trial"",""time""
""fullscreenenter"",""1"",""2828""
","
","","","","","","null","<div style=""font-size:60px;"">+</div>","null","","fixation","","",""
"memory-trial","82","449085","0.0-18.0-1.19","5905","approach_avoid_sv1","""event"",""trial"",""time""
""fullscreenenter"",""1"",""2828""
","
","
","""event"",""trial"",""time""
""fullscreenenter"",""1"",""2828""
","
","","","","","","779.9000000953674","images/orange2.png","","","memory_trial","4","definitely_new",""
"html-keyboard-response","83","449591","0.0-18.0-0.20","5905","approach_avoid_sv1","""event"",""trial"",""time""
""fullscreenenter"",""1"",""2828""
","
","
","""event"",""trial"",""time""
""fullscreenenter"",""1"",""2828""
","
","","","","","","null","<div style=""font-size:60px;"">+</div>","null","","fixation","","",""
"memory-trial","84","451723","0.0-18.0-1.20","5905","approach_avoid_sv1","""event"",""trial"",""time""
""fullscreenenter"",""1"",""2828""
","
","
","""event"",""trial"",""time""
""fullscreenenter"",""1"",""2828""
","
","","","","","","1116.6999998092651","images/plane1.png","","","memory_trial","4","definitely_new",""
"html-keyboard-response","85","452231","0.0-18.0-0.21","5905","approach_avoid_sv1","""event"",""trial"",""time""
""fullscreenenter"",""1"",""2828""
","
","
","""event"",""trial"",""time""
""fullscreenenter"",""1"",""2828""
","
","","","","","","null","<div style=""font-size:60px;"">+</div>","null","","fixation","","",""
"memory-trial","86","454168","0.0-18.0-1.21","5905","approach_avoid_sv1","""event"",""trial"",""time""
""fullscreenenter"",""1"",""2828""
","
","
","""event"",""trial"",""time""
""fullscreenenter"",""1"",""2828""
","
","","","","","","926.4000000953674","images/straw5.png","","","memory_trial","1","definitely_old",""
"html-keyboard-response","87","454688","0.0-18.0-0.22","5905","approach_avoid_sv1","""event"",""trial"",""time""
""fullscreenenter"",""1"",""2828""
","
","
","""event"",""trial"",""time""
""fullscreenenter"",""1"",""2828""
","
","","","","","","null","<div style=""font-size:60px;"">+</div>","null","","fixation","","",""
"memory-trial","88","456769","0.0-18.0-1.22","5905","approach_avoid_sv1","""event"",""trial"",""time""
""fullscreenenter"",""1"",""2828""
","
","
","""event"",""trial"",""time""
""fullscreenenter"",""1"",""2828""
","
","","","","","","1070.8000001907349","images/horse3.png","","","memory_trial","4","definitely_new",""
"html-keyboard-response","89","457279","0.0-18.0-0.23","5905","approach_avoid_sv1","""event"",""trial"",""time""
""fullscreenenter"",""1"",""2828""
","
","
","""event"",""trial"",""time""
""fullscreenenter"",""1"",""2828""
","
","","","","","","null","<div style=""font-size:60px;"">+</div>","null","","fixation","","",""
"memory-trial","90","459528","0.0-18.0-1.23","5905","approach_avoid_sv1","""event"",""trial"",""time""
""fullscreenenter"",""1"",""2828""
","
","
","""event"",""trial"",""time""
""fullscreenenter"",""1"",""2828""
","
","","","","","","1234.5999999046326","images/sheep4.png","","","memory_trial","4","definitely_new",""
"html-keyboard-response","91","460043","0.0-18.0-0.24","5905","approach_avoid_sv1","""event"",""trial"",""time""
""fullscreenenter"",""1"",""2828""
","
","
","""event"",""trial"",""time""
""fullscreenenter"",""1"",""2828""
","
","","","","","","null","<div style=""font-size:60px;"">+</div>","null","","fixation","","",""
"memory-trial","92","462667","0.0-18.0-1.24","5905","approach_avoid_sv1","""event"",""trial"",""time""
""fullscreenenter"",""1"",""2828""
","
","
","""event"",""trial"",""time""
""fullscreenenter"",""1"",""2828""
","
","","","","","","1611.8000001907349","images/bed7.png","","","memory_trial","4","definitely_new",""
"html-keyboard-response","93","463172","0.0-18.0-0.25","5905","approach_avoid_sv1","""event"",""trial"",""time""
""fullscreenenter"",""1"",""2828""
","
","
","""event"",""trial"",""time""
""fullscreenenter"",""1"",""2828""
","
","","","","","","null","<div style=""font-size:60px;"">+</div>","null","","fixation","","",""
"memory-trial","94","465412","0.0-18.0-1.25","5905","approach_avoid_sv1","""event"",""trial"",""time""
""fullscreenenter"",""1"",""2828""
","
","
","""event"",""trial"",""time""
""fullscreenenter"",""1"",""2828""
","
","","","","","","1222.1000003814697","images/goat7.png","","","memory_trial","4","definitely_new",""
"html-keyboard-response","95","465918","0.0-18.0-0.26","5905","approach_avoid_sv1","""event"",""trial"",""time""
""fullscreenenter"",""1"",""2828""
","
","
","""event"",""trial"",""time""
""fullscreenenter"",""1"",""2828""
","
","","","","","","null","<div style=""font-size:60px;"">+</div>","null","","fixation","","",""
"memory-trial","96","468388","0.0-18.0-1.26","5905","approach_avoid_sv1","""event"",""trial"",""time""
""fullscreenenter"",""1"",""2828""
","
","
","""event"",""trial"",""time""
""fullscreenenter"",""1"",""2828""
","
","","","","","","1458.8000001907349","images/cat8.png","","","memory_trial","4","definitely_new",""
"html-keyboard-response","97","468900","0.0-18.0-0.27","5905","approach_avoid_sv1","""event"",""trial"",""time""
""fullscreenenter"",""1"",""2828""
","
","
","""event"",""trial"",""time""
""fullscreenenter"",""1"",""2828""
","
","","","","","","null","<div style=""font-size:60px;"">+</div>","null","","fixation","","",""
"memory-trial","98","471775","0.0-18.0-1.27","5905","approach_avoid_sv1","""event"",""trial"",""time""
""fullscreenenter"",""1"",""2828""
","
","
","""event"",""trial"",""time""
""fullscreenenter"",""1"",""2828""
","
","","","","","","1856.4000000953674","images/flower3.png","","","memory_trial","4","definitely_new",""
"html-keyboard-response","99","472283","0.0-18.0-0.28","5905","approach_avoid_sv1","""event"",""trial"",""time""
""fullscreenenter"",""1"",""2828""
","
","
","""event"",""trial"",""time""
""fullscreenenter"",""1"",""2828""
","
","","","","","","null","<div style=""font-size:60px;"">+</div>","null","","fixation","","",""
"memory-trial","100","474758","0.0-18.0-1.28","5905","approach_avoid_sv1","""event"",""trial"",""time""
""fullscreenenter"",""1"",""2828""
","
","
","""event"",""trial"",""time""
""fullscreenenter"",""1"",""2828""
","
","","","","","","1463","images/straw7.png","","","memory_trial","1","definitely_old",""
"html-keyboard-response","101","475269","0.0-18.0-0.29","5905","approach_avoid_sv1","""event"",""trial"",""time""
""fullscreenenter"",""1"",""2828""
","
","
","""event"",""trial"",""time""
""fullscreenenter"",""1"",""2828""
","
","","","","","","null","<div style=""font-size:60px;"">+</div>","null","","fixation","","",""
"memory-trial","102","478043","0.0-18.0-1.29","5905","approach_avoid_sv1","""event"",""trial"",""time""
""fullscreenenter"",""1"",""2828""
","
","
","""event"",""trial"",""time""
""fullscreenenter"",""1"",""2828""
","
","","","","","","1755.5","images/cat2.png","","","memory_trial","1","definitely_old",""
"html-keyboard-response","103","478555","0.0-18.0-0.30","5905","approach_avoid_sv1","""event"",""trial"",""time""
""fullscreenenter"",""1"",""2828""
","
","
","""event"",""trial"",""time""
""fullscreenenter"",""1"",""2828""
","
","","","","","","null","<div style=""font-size:60px;"">+</div>","null","","fixation","","",""
"memory-trial","104","481377","0.0-18.0-1.30","5905","approach_avoid_sv1","""event"",""trial"",""time""
""fullscreenenter"",""1"",""2828""
","
","
","""event"",""trial"",""time""
""fullscreenenter"",""1"",""2828""
","
","","","","","","1807.1000003814697","images/boat4.png","","","memory_trial","4","definitely_new",""
"html-keyboard-response","105","481886","0.0-18.0-0.31","5905","approach_avoid_sv1","""event"",""trial"",""time""
""fullscreenenter"",""1"",""2828""
","
","
","""event"",""trial"",""time""
""fullscreenenter"",""1"",""2828""
","
","","","","","","null","<div style=""font-size:60px;"">+</div>","null","","fixation","","",""
"memory-trial","106","484169","0.0-18.0-1.31","5905","approach_avoid_sv1","""event"",""trial"",""time""
""fullscreenenter"",""1"",""2828""
","
","
","""event"",""trial"",""time""
""fullscreenenter"",""1"",""2828""
","
","","","","","","1267.6999998092651","images/banana1.png","","","memory_trial","4","definitely_new",""
"html-keyboard-response","107","484678","0.0-18.0-0.32","5905","approach_avoid_sv1","""event"",""trial"",""time""
""fullscreenenter"",""1"",""2828""
","
","
","""event"",""trial"",""time""
""fullscreenenter"",""1"",""2828""
","
","","","","","","null","<div style=""font-size:60px;"">+</div>","null","","fixation","","",""
"memory-trial","108","486858","0.0-18.0-1.32","5905","approach_avoid_sv1","""event"",""trial"",""time""
""fullscreenenter"",""1"",""2828""
","
","
","""event"",""trial"",""time""
""fullscreenenter"",""1"",""2828""
","
","","","","","","1166.7000002861023","images/dog3.png","","","memory_trial","4","definitely_new",""
"html-keyboard-response","109","487372","0.0-18.0-0.33","5905","approach_avoid_sv1","""event"",""trial"",""time""
""fullscreenenter"",""1"",""2828""
","
","
","""event"",""trial"",""time""
""fullscreenenter"",""1"",""2828""
","
","","","","","","null","<div style=""font-size:60px;"">+</div>","null","","fixation","","",""
"memory-trial","110","489472","0.0-18.0-1.33","5905","approach_avoid_sv1","""event"",""trial"",""time""
""fullscreenenter"",""1"",""2828""
","
","
","""event"",""trial"",""time""
""fullscreenenter"",""1"",""2828""
","
","","","","","","1089.9000000953674","images/sheep7.png","","","memory_trial","4","definitely_new",""
"html-keyboard-response","111","489991","0.0-18.0-0.34","5905","approach_avoid_sv1","""event"",""trial"",""time""
""fullscreenenter"",""1"",""2828""
","
","
","""event"",""trial"",""time""
""fullscreenenter"",""1"",""2828""
","
","","","","","","null","<div style=""font-size:60px;"">+</div>","null","","fixation","","",""
"memory-trial","112","492905","0.0-18.0-1.34","5905","approach_avoid_sv1","""event"",""trial"",""time""
""fullscreenenter"",""1"",""2828""
","
","
","""event"",""trial"",""time""
""fullscreenenter"",""1"",""2828""
","
","","","","","","1901.5","images/rodent6.png","","","memory_trial","4","definitely_new",""
"html-keyboard-response","113","493416","0.0-18.0-0.35","5905","approach_avoid_sv1","""event"",""trial"",""time""
""fullscreenenter"",""1"",""2828""
","
","
","""event"",""trial"",""time""
""fullscreenenter"",""1"",""2828""
","
","","","","","","null","<div style=""font-size:60px;"">+</div>","null","","fixation","","",""
"memory-trial","114","495675","0.0-18.0-1.35","5905","approach_avoid_sv1","""event"",""trial"",""time""
""fullscreenenter"",""1"",""2828""
","
","
","""event"",""trial"",""time""
""fullscreenenter"",""1"",""2828""
","
","","","","","","1239.9000000953674","images/bed5.png","","","memory_trial","1","definitely_old",""
"html-keyboard-response","115","496184","0.0-18.0-0.36","5905","approach_avoid_sv1","""event"",""trial"",""time""
""fullscreenenter"",""1"",""2828""
","
","
","""event"",""trial"",""time""
""fullscreenenter"",""1"",""2828""
","
","","","","","","null","<div style=""font-size:60px;"">+</div>","null","","fixation","","",""
"memory-trial","116","498295","0.0-18.0-1.36","5905","approach_avoid_sv1","""event"",""trial"",""time""
""fullscreenenter"",""1"",""2828""
","
","
","""event"",""trial"",""time""
""fullscreenenter"",""1"",""2828""
","
","","","","","","1096.2000002861023","images/train7.png","","","memory_trial","1","definitely_old",""
"html-keyboard-response","117","498805","0.0-18.0-0.37","5905","approach_avoid_sv1","""event"",""trial"",""time""
""fullscreenenter"",""1"",""2828""
","
","
","""event"",""trial"",""time""
""fullscreenenter"",""1"",""2828""
","
","","","","","","null","<div style=""font-size:60px;"">+</div>","null","","fixation","","",""
"memory-trial","118","501433","0.0-18.0-1.37","5905","approach_avoid_sv1","""event"",""trial"",""time""
""fullscreenenter"",""1"",""2828""
","
","
","""event"",""trial"",""time""
""fullscreenenter"",""1"",""2828""
","
","","","","","","1615.6999998092651","images/rabbit1.png","","","memory_trial","1","definitely_old",""
"html-keyboard-response","119","501947","0.0-18.0-0.38","5905","approach_avoid_sv1","""event"",""trial"",""time""
""fullscreenenter"",""1"",""2828""
","
","
","""event"",""trial"",""time""
""fullscreenenter"",""1"",""2828""
","
","","","","","","null","<div style=""font-size:60px;"">+</div>","null","","fixation","","",""
"memory-trial","120","503721","0.0-18.0-1.38","5905","approach_avoid_sv1","""event"",""trial"",""time""
""fullscreenenter"",""1"",""2828""
","
","
","""event"",""trial"",""time""
""fullscreenenter"",""1"",""2828""
","
","","","","","","761","images/cow7.png","","","memory_trial","1","definitely_old",""
"html-keyboard-response","121","504241","0.0-18.0-0.39","5905","approach_avoid_sv1","""event"",""trial"",""time""
""fullscreenenter"",""1"",""2828""
","
","
","""event"",""trial"",""time""
""fullscreenenter"",""1"",""2828""
","
","","","","","","null","<div style=""font-size:60px;"">+</div>","null","","fixation","","",""
"memory-trial","122","506594","0.0-18.0-1.39","5905","approach_avoid_sv1","""event"",""trial"",""time""
""fullscreenenter"",""1"",""2828""
","
","
","""event"",""trial"",""time""
""fullscreenenter"",""1"",""2828""
","
","","","","","","1340.3000001907349","images/plane7.png","","","memory_trial","4","definitely_new",""
"html-keyboard-response","123","507108","0.0-18.0-0.40","5905","approach_avoid_sv1","""event"",""trial"",""time""
""fullscreenenter"",""1"",""2828""
","
","
","""event"",""trial"",""time""
""fullscreenenter"",""1"",""2828""
","
","","","","","","null","<div style=""font-size:60px;"">+</div>","null","","fixation","","",""
"memory-trial","124","509381","0.0-18.0-1.40","5905","approach_avoid_sv1","""event"",""trial"",""time""
""fullscreenenter"",""1"",""2828""
","
","
","""event"",""trial"",""time""
""fullscreenenter"",""1"",""2828""
","
","","","","","","1261.1000003814697","images/boat3.png","","","memory_trial","4","definitely_new",""
"html-keyboard-response","125","509895","0.0-18.0-0.41","5905","approach_avoid_sv1","""event"",""trial"",""time""
""fullscreenenter"",""1"",""2828""
","
","
","""event"",""trial"",""time""
""fullscreenenter"",""1"",""2828""
","
","","","","","","null","<div style=""font-size:60px;"">+</div>","null","","fixation","","",""
"memory-trial","126","512267","0.0-18.0-1.41","5905","approach_avoid_sv1","""event"",""trial"",""time""
""fullscreenenter"",""1"",""2828""
","
","
","""event"",""trial"",""time""
""fullscreenenter"",""1"",""2828""
","
","","","","","","1355.4000000953674","images/bush6.png","","","memory_trial","1","definitely_old",""
"html-button-response","127","584664","0.0-18.0-2.41-0.41","5905","approach_avoid_sv1","""event"",""trial"",""time""
""fullscreenenter"",""1"",""2828""
","
","
","""event"",""trial"",""time""
""fullscreenenter"",""1"",""2828""
","
","","","","","","72395.09999990463","<p> Take a break! </p><p> Click the button to continue. </p>","0","","break","","",""
"html-keyboard-response","128","585171","0.0-18.0-0.42","5905","approach_avoid_sv1","""event"",""trial"",""time""
""fullscreenenter"",""1"",""2828""
","
","
","""event"",""trial"",""time""
""fullscreenenter"",""1"",""2828""
","
","","","","","","null","<div style=""font-size:60px;"">+</div>","null","","fixation","","",""
"memory-trial","129","588705","0.0-18.0-1.42","5905","approach_avoid_sv1","""event"",""trial"",""time""
""fullscreenenter"",""1"",""2828""
","
","
","""event"",""trial"",""time""
""fullscreenenter"",""1"",""2828""
","
","","","","","","2517.5","images/straw1.png","","","memory_trial","4","definitely_new",""
"html-keyboard-response","130","589211","0.0-18.0-0.43","5905","approach_avoid_sv1","""event"",""trial"",""time""
""fullscreenenter"",""1"",""2828""
","
","
","""event"",""trial"",""time""
""fullscreenenter"",""1"",""2828""
","
","","","","","","null","<div style=""font-size:60px;"">+</div>","null","","fixation","","",""
"memory-trial","131","591121","0.0-18.0-1.43","5905","approach_avoid_sv1","""event"",""trial"",""time""
""fullscreenenter"",""1"",""2828""
","
","
","""event"",""trial"",""time""
""fullscreenenter"",""1"",""2828""
","
","","","","","","897.0999999046326","images/table4.png","","","memory_trial","1","definitely_old",""
"html-keyboard-response","132","591629","0.0-18.0-0.44","5905","approach_avoid_sv1","""event"",""trial"",""time""
""fullscreenenter"",""1"",""2828""
","
","
","""event"",""trial"",""time""
""fullscreenenter"",""1"",""2828""
","
","","","","","","null","<div style=""font-size:60px;"">+</div>","null","","fixation","","",""
"memory-trial","133","594063","0.0-18.0-1.44","5905","approach_avoid_sv1","""event"",""trial"",""time""
""fullscreenenter"",""1"",""2828""
","
","
","""event"",""trial"",""time""
""fullscreenenter"",""1"",""2828""
","
","","","","","","1421.3000001907349","images/cat3.png","","","memory_trial","1","definitely_old",""
"html-keyboard-response","134","594576","0.0-18.0-0.45","5905","approach_avoid_sv1","""event"",""trial"",""time""
""fullscreenenter"",""1"",""2828""
","
","
","""event"",""trial"",""time""
""fullscreenenter"",""1"",""2828""
","
","","","","","","null","<div style=""font-size:60px;"">+</div>","null","","fixation","","",""
"memory-trial","135","596297","0.0-18.0-1.45","5905","approach_avoid_sv1","""event"",""trial"",""time""
""fullscreenenter"",""1"",""2828""
","
","
","""event"",""trial"",""time""
""fullscreenenter"",""1"",""2828""
","
","","","","","","706.0999999046326","images/chair4.png","","","memory_trial","4","definitely_new",""
"html-keyboard-response","136","596804","0.0-18.0-0.46","5905","approach_avoid_sv1","""event"",""trial"",""time""
""fullscreenenter"",""1"",""2828""
","
","
","""event"",""trial"",""time""
""fullscreenenter"",""1"",""2828""
","
","","","","","","null","<div style=""font-size:60px;"">+</div>","null","","fixation","","",""
"memory-trial","137","598753","0.0-18.0-1.46","5905","approach_avoid_sv1","""event"",""trial"",""time""
""fullscreenenter"",""1"",""2828""
","
","
","""event"",""trial"",""time""
""fullscreenenter"",""1"",""2828""
","
","","","","","","931.1999998092651","images/chair7.png","","","memory_trial","4","definitely_new",""
"html-keyboard-response","138","599261","0.0-18.0-0.47","5905","approach_avoid_sv1","""event"",""trial"",""time""
""fullscreenenter"",""1"",""2828""
","
","
","""event"",""trial"",""time""
""fullscreenenter"",""1"",""2828""
","
","","","","","","null","<div style=""font-size:60px;"">+</div>","null","","fixation","","",""
"memory-trial","139","601040","0.0-18.0-1.47","5905","approach_avoid_sv1","""event"",""trial"",""time""
""fullscreenenter"",""1"",""2828""
","
","
","""event"",""trial"",""time""
""fullscreenenter"",""1"",""2828""
","
","","","","","","768.8000001907349","images/table2.png","","","memory_trial","1","definitely_old",""
"html-keyboard-response","140","601553","0.0-18.0-0.48","5905","approach_avoid_sv1","""event"",""trial"",""time""
""fullscreenenter"",""1"",""2828""
","
","
","""event"",""trial"",""time""
""fullscreenenter"",""1"",""2828""
","
","","","","","","null","<div style=""font-size:60px;"">+</div>","null","","fixation","","",""
"memory-trial","141","603895","0.0-18.0-1.48","5905","approach_avoid_sv1","""event"",""trial"",""time""
""fullscreenenter"",""1"",""2828""
","
","
","""event"",""trial"",""time""
""fullscreenenter"",""1"",""2828""
","
","","","","","","1332.5999999046326","images/table6.png","","","memory_trial","4","definitely_new",""
"html-keyboard-response","142","604403","0.0-18.0-0.49","5905","approach_avoid_sv1","""event"",""trial"",""time""
""fullscreenenter"",""1"",""2828""
","
","
","""event"",""trial"",""time""
""fullscreenenter"",""1"",""2828""
","
","","","","","","null","<div style=""font-size:60px;"">+</div>","null","","fixation","","",""
"memory-trial","143","606599","0.0-18.0-1.49","5905","approach_avoid_sv1","""event"",""trial"",""time""
""fullscreenenter"",""1"",""2828""
","
","
","""event"",""trial"",""time""
""fullscreenenter"",""1"",""2828""
","
","","","","","","1179.5","images/dog1.png","","","memory_trial","4","definitely_new",""
"html-keyboard-response","144","607111","0.0-18.0-0.50","5905","approach_avoid_sv1","""event"",""trial"",""time""
""fullscreenenter"",""1"",""2828""
","
","
","""event"",""trial"",""time""
""fullscreenenter"",""1"",""2828""
","
","","","","","","null","<div style=""font-size:60px;"">+</div>","null","","fixation","","",""
"memory-trial","145","609106","0.0-18.0-1.50","5905","approach_avoid_sv1","""event"",""trial"",""time""
""fullscreenenter"",""1"",""2828""
","
","
","""event"",""trial"",""time""
""fullscreenenter"",""1"",""2828""
","
","","","","","","977.5999999046326","images/sofa1.png","","","memory_trial","1","definitely_old",""
"html-keyboard-response","146","609610","0.0-18.0-0.51","5905","approach_avoid_sv1","""event"",""trial"",""time""
""fullscreenenter"",""1"",""2828""
","
","
","""event"",""trial"",""time""
""fullscreenenter"",""1"",""2828""
","
","","","","","","null","<div style=""font-size:60px;"">+</div>","null","","fixation","","",""
"memory-trial","147","611623","0.0-18.0-1.51","5905","approach_avoid_sv1","""event"",""trial"",""time""
""fullscreenenter"",""1"",""2828""
","
","
","""event"",""trial"",""time""
""fullscreenenter"",""1"",""2828""
","
","","","","","","997.9000000953674","images/cat1.png","","","memory_trial","4","definitely_new",""
"html-keyboard-response","148","612133","0.0-18.0-0.52","5905","approach_avoid_sv1","""event"",""trial"",""time""
""fullscreenenter"",""1"",""2828""
","
","
","""event"",""trial"",""time""
""fullscreenenter"",""1"",""2828""
","
","","","","","","null","<div style=""font-size:60px;"">+</div>","null","","fixation","","",""
"memory-trial","149","614266","0.0-18.0-1.52","5905","approach_avoid_sv1","""event"",""trial"",""time""
""fullscreenenter"",""1"",""2828""
","
","
","""event"",""trial"",""time""
""fullscreenenter"",""1"",""2828""
","
","","","","","","1107","images/horse8.png","","","memory_trial","4","definitely_new",""
"html-keyboard-response","150","614771","0.0-18.0-0.53","5905","approach_avoid_sv1","""event"",""trial"",""time""
""fullscreenenter"",""1"",""2828""
","
","
","""event"",""trial"",""time""
""fullscreenenter"",""1"",""2828""
","
","","","","","","null","<div style=""font-size:60px;"">+</div>","null","","fixation","","",""
"memory-trial","151","616887","0.0-18.0-1.53","5905","approach_avoid_sv1","""event"",""trial"",""time""
""fullscreenenter"",""1"",""2828""
","
","
","""event"",""trial"",""time""
""fullscreenenter"",""1"",""2828""
","
","","","","","","1094.9000000953674","images/rodent7.png","","","memory_trial","4","definitely_new",""
"html-keyboard-response","152","617401","0.0-18.0-0.54","5905","approach_avoid_sv1","""event"",""trial"",""time""
""fullscreenenter"",""1"",""2828""
","
","
","""event"",""trial"",""time""
""fullscreenenter"",""1"",""2828""
","
","","","","","","null","<div style=""font-size:60px;"">+</div>","null","","fixation","","",""
"memory-trial","153","619479","0.0-18.0-1.54","5905","approach_avoid_sv1","""event"",""trial"",""time""
""fullscreenenter"",""1"",""2828""
","
","
","""event"",""trial"",""time""
""fullscreenenter"",""1"",""2828""
","
","","","","","","1056.8000001907349","images/sheep6.png","","","memory_trial","1","definitely_old",""
"html-keyboard-response","154","619987","0.0-18.0-0.55","5905","approach_avoid_sv1","""event"",""trial"",""time""
""fullscreenenter"",""1"",""2828""
","
","
","""event"",""trial"",""time""
""fullscreenenter"",""1"",""2828""
","
","","","","","","null","<div style=""font-size:60px;"">+</div>","null","","fixation","","",""
"memory-trial","155","622044","0.0-18.0-1.55","5905","approach_avoid_sv1","""event"",""trial"",""time""
""fullscreenenter"",""1"",""2828""
","
","
","""event"",""trial"",""time""
""fullscreenenter"",""1"",""2828""
","
","","","","","","1037","images/plane2.png","","","memory_trial","4","definitely_new",""
"html-keyboard-response","156","622554","0.0-18.0-0.56","5905","approach_avoid_sv1","""event"",""trial"",""time""
""fullscreenenter"",""1"",""2828""
","
","
","""event"",""trial"",""time""
""fullscreenenter"",""1"",""2828""
","
","","","","","","null","<div style=""font-size:60px;"">+</div>","null","","fixation","","",""
"memory-trial","157","624503","0.0-18.0-1.56","5905","approach_avoid_sv1","""event"",""trial"",""time""
""fullscreenenter"",""1"",""2828""
","
","
","""event"",""trial"",""time""
""fullscreenenter"",""1"",""2828""
","
","","","","","","933.5999999046326","images/apple1.png","","","memory_trial","4","definitely_new",""
"html-keyboard-response","158","625013","0.0-18.0-0.57","5905","approach_avoid_sv1","""event"",""trial"",""time""
""fullscreenenter"",""1"",""2828""
","
","
","""event"",""trial"",""time""
""fullscreenenter"",""1"",""2828""
","
","","","","","","null","<div style=""font-size:60px;"">+</div>","null","","fixation","","",""
"memory-trial","159","627907","0.0-18.0-1.57","5905","approach_avoid_sv1","""event"",""trial"",""time""
""fullscreenenter"",""1"",""2828""
","
","
","""event"",""trial"",""time""
""fullscreenenter"",""1"",""2828""
","
","","","","","","1875.5999999046326","images/cat4.png","","","memory_trial","1","definitely_old",""
"html-keyboard-response","160","628414","0.0-18.0-0.58","5905","approach_avoid_sv1","""event"",""trial"",""time""
""fullscreenenter"",""1"",""2828""
","
","
","""event"",""trial"",""time""
""fullscreenenter"",""1"",""2828""
","
","","","","","","null","<div style=""font-size:60px;"">+</div>","null","","fixation","","",""
"memory-trial","161","631047","0.0-18.0-1.58","5905","approach_avoid_sv1","""event"",""trial"",""time""
""fullscreenenter"",""1"",""2828""
","
","
","""event"",""trial"",""time""
""fullscreenenter"",""1"",""2828""
","
","","","","","","1622","images/train3.png","","","memory_trial","1","definitely_old",""
"html-keyboard-response","162","631560","0.0-18.0-0.59","5905","approach_avoid_sv1","""event"",""trial"",""time""
""fullscreenenter"",""1"",""2828""
","
","
","""event"",""trial"",""time""
""fullscreenenter"",""1"",""2828""
","
","","","","","","null","<div style=""font-size:60px;"">+</div>","null","","fixation","","",""
"memory-trial","163","634148","0.0-18.0-1.59","5905","approach_avoid_sv1","""event"",""trial"",""time""
""fullscreenenter"",""1"",""2828""
","
","
","""event"",""trial"",""time""
""fullscreenenter"",""1"",""2828""
","
","","","","","","1577.3000001907349","images/dog2.png","","","memory_trial","4","definitely_new",""
"html-keyboard-response","164","634657","0.0-18.0-0.60","5905","approach_avoid_sv1","""event"",""trial"",""time""
""fullscreenenter"",""1"",""2828""
","
","
","""event"",""trial"",""time""
""fullscreenenter"",""1"",""2828""
","
","","","","","","null","<div style=""font-size:60px;"">+</div>","null","","fixation","","",""
"memory-trial","165","637316","0.0-18.0-1.60","5905","approach_avoid_sv1","""event"",""trial"",""time""
""fullscreenenter"",""1"",""2828""
","
","
","""event"",""trial"",""time""
""fullscreenenter"",""1"",""2828""
","
","","","","","","1652.9000000953674","images/sofa8.png","","","memory_trial","1","definitely_old",""
"html-keyboard-response","166","637831","0.0-18.0-0.61","5905","approach_avoid_sv1","""event"",""trial"",""time""
""fullscreenenter"",""1"",""2828""
","
","
","""event"",""trial"",""time""
""fullscreenenter"",""1"",""2828""
","
","","","","","","null","<div style=""font-size:60px;"">+</div>","null","","fixation","","",""
"memory-trial","167","640042","0.0-18.0-1.61","5905","approach_avoid_sv1","""event"",""trial"",""time""
""fullscreenenter"",""1"",""2828""
","
","
","""event"",""trial"",""time""
""fullscreenenter"",""1"",""2828""
","
","","","","","","1194.5999999046326","images/train4.png","","","memory_trial","4","definitely_new",""
"html-keyboard-response","168","640547","0.0-18.0-0.62","5905","approach_avoid_sv1","""event"",""trial"",""time""
""fullscreenenter"",""1"",""2828""
","
","
","""event"",""trial"",""time""
""fullscreenenter"",""1"",""2828""
","
","","","","","","null","<div style=""font-size:60px;"">+</div>","null","","fixation","","",""
"memory-trial","169","643264","0.0-18.0-1.62","5905","approach_avoid_sv1","""event"",""trial"",""time""
""fullscreenenter"",""1"",""2828""
","
","
","""event"",""trial"",""time""
""fullscreenenter"",""1"",""2828""
","
","","","","","","1700.8000001907349","images/rodent1.png","","","memory_trial","4","definitely_new",""
"html-keyboard-response","170","643778","0.0-18.0-0.63","5905","approach_avoid_sv1","""event"",""trial"",""time""
""fullscreenenter"",""1"",""2828""
","
","
","""event"",""trial"",""time""
""fullscreenenter"",""1"",""2828""
","
","","","","","","null","<div style=""font-size:60px;"">+</div>","null","","fixation","","",""
"memory-trial","171","645787","0.0-18.0-1.63","5905","approach_avoid_sv1","""event"",""trial"",""time""
""fullscreenenter"",""1"",""2828""
","
","
","""event"",""trial"",""time""
""fullscreenenter"",""1"",""2828""
","
","","","","","","988.1999998092651","images/train6.png","","","memory_trial","4","definitely_new",""
"html-keyboard-response","172","646292","0.0-18.0-0.64","5905","approach_avoid_sv1","""event"",""trial"",""time""
""fullscreenenter"",""1"",""2828""
","
","
","""event"",""trial"",""time""
""fullscreenenter"",""1"",""2828""
","
","","","","","","null","<div style=""font-size:60px;"">+</div>","null","","fixation","","",""
"memory-trial","173","648151","0.0-18.0-1.64","5905","approach_avoid_sv1","""event"",""trial"",""time""
""fullscreenenter"",""1"",""2828""
","
","
","""event"",""trial"",""time""
""fullscreenenter"",""1"",""2828""
","
","","","","","","846.2999997138977","images/plane5.png","","","memory_trial","4","definitely_new",""
"html-keyboard-response","174","648674","0.0-18.0-0.65","5905","approach_avoid_sv1","""event"",""trial"",""time""
""fullscreenenter"",""1"",""2828""
","
","
","""event"",""trial"",""time""
""fullscreenenter"",""1"",""2828""
","
","","","","","","null","<div style=""font-size:60px;"">+</div>","null","","fixation","","",""
"memory-trial","175","650469","0.0-18.0-1.65","5905","approach_avoid_sv1","""event"",""trial"",""time""
""fullscreenenter"",""1"",""2828""
","
","
","""event"",""trial"",""time""
""fullscreenenter"",""1"",""2828""
","
","","","","","","787.1999998092651","images/banana2.png","","","memory_trial","4","definitely_new",""
"html-keyboard-response","176","650983","0.0-18.0-0.66","5905","approach_avoid_sv1","""event"",""trial"",""time""
""fullscreenenter"",""1"",""2828""
","
","
","""event"",""trial"",""time""
""fullscreenenter"",""1"",""2828""
","
","","","","","","null","<div style=""font-size:60px;"">+</div>","null","","fixation","","",""
"memory-trial","177","653001","0.0-18.0-1.66","5905","approach_avoid_sv1","""event"",""trial"",""time""
""fullscreenenter"",""1"",""2828""
","
","
","""event"",""trial"",""time""
""fullscreenenter"",""1"",""2828""
","
","","","","","","999.5","images/straw8.png","","","memory_trial","4","definitely_new",""
"html-keyboard-response","178","653514","0.0-18.0-0.67","5905","approach_avoid_sv1","""event"",""trial"",""time""
""fullscreenenter"",""1"",""2828""
","
","
","""event"",""trial"",""time""
""fullscreenenter"",""1"",""2828""
","
","","","","","","null","<div style=""font-size:60px;"">+</div>","null","","fixation","","",""
"memory-trial","179","655556","0.0-18.0-1.67","5905","approach_avoid_sv1","""event"",""trial"",""time""
""fullscreenenter"",""1"",""2828""
","
","
","""event"",""trial"",""time""
""fullscreenenter"",""1"",""2828""
","
","","","","","","1031.5999999046326","images/sofa3.png","","","memory_trial","4","definitely_new",""
"html-keyboard-response","180","656067","0.0-18.0-0.68","5905","approach_avoid_sv1","""event"",""trial"",""time""
""fullscreenenter"",""1"",""2828""
","
","
","""event"",""trial"",""time""
""fullscreenenter"",""1"",""2828""
","
","","","","","","null","<div style=""font-size:60px;"">+</div>","null","","fixation","","",""
"memory-trial","181","657922","0.0-18.0-1.68","5905","approach_avoid_sv1","""event"",""trial"",""time""
""fullscreenenter"",""1"",""2828""
","
","
","""event"",""trial"",""time""
""fullscreenenter"",""1"",""2828""
","
","","","","","","842.6000003814697","images/cactus3.png","","","memory_trial","1","definitely_old",""
"html-keyboard-response","182","658427","0.0-18.0-0.69","5905","approach_avoid_sv1","""event"",""trial"",""time""
""fullscreenenter"",""1"",""2828""
","
","
","""event"",""trial"",""time""
""fullscreenenter"",""1"",""2828""
","
","","","","","","null","<div style=""font-size:60px;"">+</div>","null","","fixation","","",""
"memory-trial","183","660874","0.0-18.0-1.69","5905","approach_avoid_sv1","""event"",""trial"",""time""
""fullscreenenter"",""1"",""2828""
","
","
","""event"",""trial"",""time""
""fullscreenenter"",""1"",""2828""
","
","","","","","","1436","images/bush8.png","","","memory_trial","1","definitely_old",""
"html-keyboard-response","184","661386","0.0-18.0-0.70","5905","approach_avoid_sv1","""event"",""trial"",""time""
""fullscreenenter"",""1"",""2828""
","
","
","""event"",""trial"",""time""
""fullscreenenter"",""1"",""2828""
","
","","","","","","null","<div style=""font-size:60px;"">+</div>","null","","fixation","","",""
"memory-trial","185","663674","0.0-18.0-1.70","5905","approach_avoid_sv1","""event"",""trial"",""time""
""fullscreenenter"",""1"",""2828""
","
","
","""event"",""trial"",""time""
""fullscreenenter"",""1"",""2828""
","
","","","","","","1276.6999998092651","images/cactus5.png","","","memory_trial","4","definitely_new",""
"html-keyboard-response","186","664184","0.0-18.0-0.71","5905","approach_avoid_sv1","""event"",""trial"",""time""
""fullscreenenter"",""1"",""2828""
","
","
","""event"",""trial"",""time""
""fullscreenenter"",""1"",""2828""
","
","","","","","","null","<div style=""font-size:60px;"">+</div>","null","","fixation","","",""
"memory-trial","187","667524","0.0-18.0-1.71","5905","approach_avoid_sv1","""event"",""trial"",""time""
""fullscreenenter"",""1"",""2828""
","
","
","""event"",""trial"",""time""
""fullscreenenter"",""1"",""2828""
","
","","","","","","2318.7999997138977","images/goat5.png","","","memory_trial","4","definitely_new",""
"html-keyboard-response","188","668042","0.0-18.0-0.72","5905","approach_avoid_sv1","""event"",""trial"",""time""
""fullscreenenter"",""1"",""2828""
","
","
","""event"",""trial"",""time""
""fullscreenenter"",""1"",""2828""
","
","","","","","","null","<div style=""font-size:60px;"">+</div>","null","","fixation","","",""
"memory-trial","189","670834","0.0-18.0-1.72","5905","approach_avoid_sv1","""event"",""trial"",""time""
""fullscreenenter"",""1"",""2828""
","
","
","""event"",""trial"",""time""
""fullscreenenter"",""1"",""2828""
","
","","","","","","1776.7000002861023","images/goat8.png","","","memory_trial","4","definitely_new",""
"html-keyboard-response","190","671344","0.0-18.0-0.73","5905","approach_avoid_sv1","""event"",""trial"",""time""
""fullscreenenter"",""1"",""2828""
","
","
","""event"",""trial"",""time""
""fullscreenenter"",""1"",""2828""
","
","","","","","","null","<div style=""font-size:60px;"">+</div>","null","","fixation","","",""
"memory-trial","191","673455","0.0-18.0-1.73","5905","approach_avoid_sv1","""event"",""trial"",""time""
""fullscreenenter"",""1"",""2828""
","
","
","""event"",""trial"",""time""
""fullscreenenter"",""1"",""2828""
","
","","","","","","1097.2000002861023","images/chair1.png","","","memory_trial","4","definitely_new",""
"html-keyboard-response","192","673965","0.0-18.0-0.74","5905","approach_avoid_sv1","""event"",""trial"",""time""
""fullscreenenter"",""1"",""2828""
","
","
","""event"",""trial"",""time""
""fullscreenenter"",""1"",""2828""
","
","","","","","","null","<div style=""font-size:60px;"">+</div>","null","","fixation","","",""
"memory-trial","193","676270","0.0-18.0-1.74","5905","approach_avoid_sv1","""event"",""trial"",""time""
""fullscreenenter"",""1"",""2828""
","
","
","""event"",""trial"",""time""
""fullscreenenter"",""1"",""2828""
","
","","","","","","1295.7000002861023","images/rabbit4.png","","","memory_trial","1","definitely_old",""
"html-keyboard-response","194","676784","0.0-18.0-0.75","5905","approach_avoid_sv1","""event"",""trial"",""time""
""fullscreenenter"",""1"",""2828""
","
","
","""event"",""trial"",""time""
""fullscreenenter"",""1"",""2828""
","
","","","","","","null","<div style=""font-size:60px;"">+</div>","null","","fixation","","",""
"memory-trial","195","679022","0.0-18.0-1.75","5905","approach_avoid_sv1","""event"",""trial"",""time""
""fullscreenenter"",""1"",""2828""
","
","
","""event"",""trial"",""time""
""fullscreenenter"",""1"",""2828""
","
","","","","","","1230.0999999046326","images/bed8.png","","","memory_trial","4","definitely_new",""
"html-keyboard-response","196","679539","0.0-18.0-0.76","5905","approach_avoid_sv1","""event"",""trial"",""time""
""fullscreenenter"",""1"",""2828""
","
","
","""event"",""trial"",""time""
""fullscreenenter"",""1"",""2828""
","
","","","","","","null","<div style=""font-size:60px;"">+</div>","null","","fixation","","",""
"memory-trial","197","682005","0.0-18.0-1.76","5905","approach_avoid_sv1","""event"",""trial"",""time""
""fullscreenenter"",""1"",""2828""
","
","
","""event"",""trial"",""time""
""fullscreenenter"",""1"",""2828""
","
","","","","","","1451.5999999046326","images/rodent4.png","","","memory_trial","4","definitely_new",""
"html-keyboard-response","198","682517","0.0-18.0-0.77","5905","approach_avoid_sv1","""event"",""trial"",""time""
""fullscreenenter"",""1"",""2828""
","
","
","""event"",""trial"",""time""
""fullscreenenter"",""1"",""2828""
","
","","","","","","null","<div style=""font-size:60px;"">+</div>","null","","fixation","","",""
"memory-trial","199","684917","0.0-18.0-1.77","5905","approach_avoid_sv1","""event"",""trial"",""time""
""fullscreenenter"",""1"",""2828""
","
","
","""event"",""trial"",""time""
""fullscreenenter"",""1"",""2828""
","
","","","","","","1390","images/flower5.png","","","memory_trial","4","definitely_new",""
"html-keyboard-response","200","685426","0.0-18.0-0.78","5905","approach_avoid_sv1","""event"",""trial"",""time""
""fullscreenenter"",""1"",""2828""
","
","
","""event"",""trial"",""time""
""fullscreenenter"",""1"",""2828""
","
","","","","","","null","<div style=""font-size:60px;"">+</div>","null","","fixation","","",""
"memory-trial","201","687523","0.0-18.0-1.78","5905","approach_avoid_sv1","""event"",""trial"",""time""
""fullscreenenter"",""1"",""2828""
","
","
","""event"",""trial"",""time""
""fullscreenenter"",""1"",""2828""
","
","","","","","","1082.4000000953674","images/apple7.png","","","memory_trial","4","definitely_new",""
"html-keyboard-response","202","688026","0.0-18.0-0.79","5905","approach_avoid_sv1","""event"",""trial"",""time""
""fullscreenenter"",""1"",""2828""
","
","
","""event"",""trial"",""time""
""fullscreenenter"",""1"",""2828""
","
","","","","","","null","<div style=""font-size:60px;"">+</div>","null","","fixation","","",""
"memory-trial","203","690145","0.0-18.0-1.79","5905","approach_avoid_sv1","""event"",""trial"",""time""
""fullscreenenter"",""1"",""2828""
","
","
","""event"",""trial"",""time""
""fullscreenenter"",""1"",""2828""
","
","","","","","","1107.1999998092651","images/straw6.png","","","memory_trial","4","definitely_new",""
"html-keyboard-response","204","690651","0.0-18.0-0.80","5905","approach_avoid_sv1","""event"",""trial"",""time""
""fullscreenenter"",""1"",""2828""
","
","
","""event"",""trial"",""time""
""fullscreenenter"",""1"",""2828""
","
","","","","","","null","<div style=""font-size:60px;"">+</div>","null","","fixation","","",""
"memory-trial","205","692449","0.0-18.0-1.80","5905","approach_avoid_sv1","""event"",""trial"",""time""
""fullscreenenter"",""1"",""2828""
","
","
","""event"",""trial"",""time""
""fullscreenenter"",""1"",""2828""
","
","","","","","","783.9000000953674","images/rodent3.png","","","memory_trial","4","definitely_new",""
"html-keyboard-response","206","692963","0.0-18.0-0.81","5905","approach_avoid_sv1","""event"",""trial"",""time""
""fullscreenenter"",""1"",""2828""
","
","
","""event"",""trial"",""time""
""fullscreenenter"",""1"",""2828""
","
","","","","","","null","<div style=""font-size:60px;"">+</div>","null","","fixation","","",""
"memory-trial","207","694743","0.0-18.0-1.81","5905","approach_avoid_sv1","""event"",""trial"",""time""
""fullscreenenter"",""1"",""2828""
","
","
","""event"",""trial"",""time""
""fullscreenenter"",""1"",""2828""
","
","","","","","","766","images/chair2.png","","","memory_trial","4","definitely_new",""
"html-keyboard-response","208","695251","0.0-18.0-0.82","5905","approach_avoid_sv1","""event"",""trial"",""time""
""fullscreenenter"",""1"",""2828""
","
","
","""event"",""trial"",""time""
""fullscreenenter"",""1"",""2828""
","
","","","","","","null","<div style=""font-size:60px;"">+</div>","null","","fixation","","",""
"memory-trial","209","697479","0.0-18.0-1.82","5905","approach_avoid_sv1","""event"",""trial"",""time""
""fullscreenenter"",""1"",""2828""
","
","
","""event"",""trial"",""time""
""fullscreenenter"",""1"",""2828""
","
","","","","","","1214.2000002861023","images/banana4.png","","","memory_trial","1","definitely_old",""
"html-keyboard-response","210","697997","0.0-18.0-0.83","5905","approach_avoid_sv1","""event"",""trial"",""time""
""fullscreenenter"",""1"",""2828""
","
","
","""event"",""trial"",""time""
""fullscreenenter"",""1"",""2828""
","
","","","","","","null","<div style=""font-size:60px;"">+</div>","null","","fixation","","",""
"memory-trial","211","702039","0.0-18.0-1.83","5905","approach_avoid_sv1","""event"",""trial"",""time""
""fullscreenenter"",""1"",""2828""
","
","
","""event"",""trial"",""time""
""fullscreenenter"",""1"",""2828""
","
","","","","","","3031.5","images/train8.png","","","memory_trial","1","definitely_old",""
"html-keyboard-response","212","702555","0.0-18.0-0.84","5905","approach_avoid_sv1","""event"",""trial"",""time""
""fullscreenenter"",""1"",""2828""
","
","
","""event"",""trial"",""time""
""fullscreenenter"",""1"",""2828""
","
","","","","","","null","<div style=""font-size:60px;"">+</div>","null","","fixation","","",""
"memory-trial","213","704536","0.0-18.0-1.84","5905","approach_avoid_sv1","""event"",""trial"",""time""
""fullscreenenter"",""1"",""2828""
","
","
","""event"",""trial"",""time""
""fullscreenenter"",""1"",""2828""
","
","","","","","","965","images/rabbit3.png","","","memory_trial","1","definitely_old",""
"html-keyboard-response","214","705043","0.0-18.0-0.85","5905","approach_avoid_sv1","""event"",""trial"",""time""
""fullscreenenter"",""1"",""2828""
","
","
","""event"",""trial"",""time""
""fullscreenenter"",""1"",""2828""
","
","","","","","","null","<div style=""font-size:60px;"">+</div>","null","","fixation","","",""
"memory-trial","215","708456","0.0-18.0-1.85","5905","approach_avoid_sv1","""event"",""trial"",""time""
""fullscreenenter"",""1"",""2828""
","
","
","""event"",""trial"",""time""
""fullscreenenter"",""1"",""2828""
","
","","","","","","2404.699999809265","images/dog4.png","","","memory_trial","1","definitely_old",""
"html-keyboard-response","216","708972","0.0-18.0-0.86","5905","approach_avoid_sv1","""event"",""trial"",""time""
""fullscreenenter"",""1"",""2828""
","
","
","""event"",""trial"",""time""
""fullscreenenter"",""1"",""2828""
","
","","","","","","null","<div style=""font-size:60px;"">+</div>","null","","fixation","","",""
"memory-trial","217","711495","0.0-18.0-1.86","5905","approach_avoid_sv1","""event"",""trial"",""time""
""fullscreenenter"",""1"",""2828""
","
","
","""event"",""trial"",""time""
""fullscreenenter"",""1"",""2828""
","
","","","","","","1514.4000000953674","images/orange5.png","","","memory_trial","4","definitely_new",""
"html-keyboard-response","218","712016","0.0-18.0-0.87","5905","approach_avoid_sv1","""event"",""trial"",""time""
""fullscreenenter"",""1"",""2828""
","
","
","""event"",""trial"",""time""
""fullscreenenter"",""1"",""2828""
","
","","","","","","null","<div style=""font-size:60px;"">+</div>","null","","fixation","","",""
"memory-trial","219","713584","0.0-18.0-1.87","5905","approach_avoid_sv1","""event"",""trial"",""time""
""fullscreenenter"",""1"",""2828""
","
","
","""event"",""trial"",""time""
""fullscreenenter"",""1"",""2828""
","
","","","","","","553.3999996185303","images/flower6.png","","","memory_trial","4","definitely_new",""
"html-keyboard-response","220","714093","0.0-18.0-0.88","5905","approach_avoid_sv1","""event"",""trial"",""time""
""fullscreenenter"",""1"",""2828""
","
","
","""event"",""trial"",""time""
""fullscreenenter"",""1"",""2828""
","
","","","","","","null","<div style=""font-size:60px;"">+</div>","null","","fixation","","",""
"memory-trial","221","715610","0.0-18.0-1.88","5905","approach_avoid_sv1","""event"",""trial"",""time""
""fullscreenenter"",""1"",""2828""
","
","
","""event"",""trial"",""time""
""fullscreenenter"",""1"",""2828""
","
","","","","","","493.40000009536743","images/straw3.png","","","memory_trial","4","definitely_new",""
"html-keyboard-response","222","716115","0.0-18.0-0.89","5905","approach_avoid_sv1","""event"",""trial"",""time""
""fullscreenenter"",""1"",""2828""
","
","
","""event"",""trial"",""time""
""fullscreenenter"",""1"",""2828""
","
","","","","","","null","<div style=""font-size:60px;"">+</div>","null","","fixation","","",""
"memory-trial","223","717476","0.0-18.0-1.89","5905","approach_avoid_sv1","""event"",""trial"",""time""
""fullscreenenter"",""1"",""2828""
","
","
","""event"",""trial"",""time""
""fullscreenenter"",""1"",""2828""
","
","","","","","","351.2000002861023","images/rabbit2.png","","","memory_trial","4","definitely_new",""
"html-keyboard-response","224","717981","0.0-18.0-0.90","5905","approach_avoid_sv1","""event"",""trial"",""time""
""fullscreenenter"",""1"",""2828""
","
","
","""event"",""trial"",""time""
""fullscreenenter"",""1"",""2828""
","
","","","","","","null","<div style=""font-size:60px;"">+</div>","null","","fixation","","",""
"memory-trial","225","720059","0.0-18.0-1.90","5905","approach_avoid_sv1","""event"",""trial"",""time""
""fullscreenenter"",""1"",""2828""
","
","
","""event"",""trial"",""time""
""fullscreenenter"",""1"",""2828""
","
","","","","","","1072.5","images/chair8.png","","","memory_trial","4","definitely_new",""
"html-keyboard-response","226","720563","0.0-18.0-0.91","5905","approach_avoid_sv1","""event"",""trial"",""time""
""fullscreenenter"",""1"",""2828""
","
","
","""event"",""trial"",""time""
""fullscreenenter"",""1"",""2828""
","
","","","","","","null","<div style=""font-size:60px;"">+</div>","null","","fixation","","",""
"memory-trial","227","722572","0.0-18.0-1.91","5905","approach_avoid_sv1","""event"",""trial"",""time""
""fullscreenenter"",""1"",""2828""
","
","
","""event"",""trial"",""time""
""fullscreenenter"",""1"",""2828""
","
","","","","","","992.5999999046326","images/apple2.png","","","memory_trial","4","definitely_new",""
"html-button-response","228","896998","0.0-18.0-2.91-0.91","5905","approach_avoid_sv1","""event"",""trial"",""time""
""fullscreenenter"",""1"",""2828""
","
","
","""event"",""trial"",""time""
""fullscreenenter"",""1"",""2828""
","
","","","","","","174423.40000009537","<p> Take a break! </p><p> Click the button to continue. </p>","0","","break","","",""
"html-keyboard-response","229","897504","0.0-18.0-0.92","5905","approach_avoid_sv1","""event"",""trial"",""time""
""fullscreenenter"",""1"",""2828""
","
","
","""event"",""trial"",""time""
""fullscreenenter"",""1"",""2828""
","
","","","","","","null","<div style=""font-size:60px;"">+</div>","null","","fixation","","",""
"memory-trial","230","899867","0.0-18.0-1.92","5905","approach_avoid_sv1","""event"",""trial"",""time""
""fullscreenenter"",""1"",""2828""
","
","
","""event"",""trial"",""time""
""fullscreenenter"",""1"",""2828""
","
","","","","","","1352.6999998092651","images/tree2.png","","","memory_trial","1","definitely_old",""
"html-keyboard-response","231","900373","0.0-18.0-0.93","5905","approach_avoid_sv1","""event"",""trial"",""time""
""fullscreenenter"",""1"",""2828""
","
","
","""event"",""trial"",""time""
""fullscreenenter"",""1"",""2828""
","
","","","","","","null","<div style=""font-size:60px;"">+</div>","null","","fixation","","",""
"memory-trial","232","902375","0.0-18.0-1.93","5905","approach_avoid_sv1","""event"",""trial"",""time""
""fullscreenenter"",""1"",""2828""
","
","
","""event"",""trial"",""time""
""fullscreenenter"",""1"",""2828""
","
","","","","","","989.5","images/orange6.png","","","memory_trial","4","definitely_new",""
"html-keyboard-response","233","902884","0.0-18.0-0.94","5905","approach_avoid_sv1","""event"",""trial"",""time""
""fullscreenenter"",""1"",""2828""
","
","
","""event"",""trial"",""time""
""fullscreenenter"",""1"",""2828""
","
","","","","","","null","<div style=""font-size:60px;"">+</div>","null","","fixation","","",""
"memory-trial","234","905056","0.0-18.0-1.94","5905","approach_avoid_sv1","""event"",""trial"",""time""
""fullscreenenter"",""1"",""2828""
","
","
","""event"",""trial"",""time""
""fullscreenenter"",""1"",""2828""
","
","","","","","","1162.4000000953674","images/train5.png","","","memory_trial","1","definitely_old",""
"html-keyboard-response","235","905576","0.0-18.0-0.95","5905","approach_avoid_sv1","""event"",""trial"",""time""
""fullscreenenter"",""1"",""2828""
","
","
","""event"",""trial"",""time""
""fullscreenenter"",""1"",""2828""
","
","","","","","","null","<div style=""font-size:60px;"">+</div>","null","","fixation","","",""
"memory-trial","236","907995","0.0-18.0-1.95","5905","approach_avoid_sv1","""event"",""trial"",""time""
""fullscreenenter"",""1"",""2828""
","
","
","""event"",""trial"",""time""
""fullscreenenter"",""1"",""2828""
","
","","","","","","1405.0999999046326","images/boat2.png","","","memory_trial","4","definitely_new",""
"html-keyboard-response","237","908515","0.0-18.0-0.96","5905","approach_avoid_sv1","""event"",""trial"",""time""
""fullscreenenter"",""1"",""2828""
","
","
","""event"",""trial"",""time""
""fullscreenenter"",""1"",""2828""
","
","","","","","","null","<div style=""font-size:60px;"">+</div>","null","","fixation","","",""
"memory-trial","238","910548","0.0-18.0-1.96","5905","approach_avoid_sv1","""event"",""trial"",""time""
""fullscreenenter"",""1"",""2828""
","
","
","""event"",""trial"",""time""
""fullscreenenter"",""1"",""2828""
","
","","","","","","1023.7999997138977","images/boat5.png","","","memory_trial","4","definitely_new",""
"html-keyboard-response","239","911053","0.0-18.0-0.97","5905","approach_avoid_sv1","""event"",""trial"",""time""
""fullscreenenter"",""1"",""2828""
","
","
","""event"",""trial"",""time""
""fullscreenenter"",""1"",""2828""
","
","","","","","","null","<div style=""font-size:60px;"">+</div>","null","","fixation","","",""
"memory-trial","240","912801","0.0-18.0-1.97","5905","approach_avoid_sv1","""event"",""trial"",""time""
""fullscreenenter"",""1"",""2828""
","
","
","""event"",""trial"",""time""
""fullscreenenter"",""1"",""2828""
","
","","","","","","723.0999999046326","images/rodent8.png","","","memory_trial","4","definitely_new",""
"html-keyboard-response","241","913312","0.0-18.0-0.98","5905","approach_avoid_sv1","""event"",""trial"",""time""
""fullscreenenter"",""1"",""2828""
","
","
","""event"",""trial"",""time""
""fullscreenenter"",""1"",""2828""
","
","","","","","","null","<div style=""font-size:60px;"">+</div>","null","","fixation","","",""
"memory-trial","242","915115","0.0-18.0-1.98","5905","approach_avoid_sv1","""event"",""trial"",""time""
""fullscreenenter"",""1"",""2828""
","
","
","""event"",""trial"",""time""
""fullscreenenter"",""1"",""2828""
","
","","","","","","790.9000000953674","images/cactus1.png","","","memory_trial","1","definitely_old",""
"html-keyboard-response","243","915627","0.0-18.0-0.99","5905","approach_avoid_sv1","""event"",""trial"",""time""
""fullscreenenter"",""1"",""2828""
","
","
","""event"",""trial"",""time""
""fullscreenenter"",""1"",""2828""
","
","","","","","","null","<div style=""font-size:60px;"">+</div>","null","","fixation","","",""
"memory-trial","244","918251","0.0-18.0-1.99","5905","approach_avoid_sv1","""event"",""trial"",""time""
""fullscreenenter"",""1"",""2828""
","
","
","""event"",""trial"",""time""
""fullscreenenter"",""1"",""2828""
","
","","","","","","1610.5999999046326","images/table8.png","","","memory_trial","1","definitely_old",""
"html-keyboard-response","245","918758","0.0-18.0-0.100","5905","approach_avoid_sv1","""event"",""trial"",""time""
""fullscreenenter"",""1"",""2828""
","
","
","""event"",""trial"",""time""
""fullscreenenter"",""1"",""2828""
","
","","","","","","null","<div style=""font-size:60px;"">+</div>","null","","fixation","","",""
"memory-trial","246","920708","0.0-18.0-1.100","5905","approach_avoid_sv1","""event"",""trial"",""time""
""fullscreenenter"",""1"",""2828""
","
","
","""event"",""trial"",""time""
""fullscreenenter"",""1"",""2828""
","
","","","","","","931.8000001907349","images/horse7.png","","","memory_trial","4","definitely_new",""
"html-keyboard-response","247","921218","0.0-18.0-0.101","5905","approach_avoid_sv1","""event"",""trial"",""time""
""fullscreenenter"",""1"",""2828""
","
","
","""event"",""trial"",""time""
""fullscreenenter"",""1"",""2828""
","
","","","","","","null","<div style=""font-size:60px;"">+</div>","null","","fixation","","",""
"memory-trial","248","923275","0.0-18.0-1.101","5905","approach_avoid_sv1","""event"",""trial"",""time""
""fullscreenenter"",""1"",""2828""
","
","
","""event"",""trial"",""time""
""fullscreenenter"",""1"",""2828""
","
","","","","","","1047.0999999046326","images/orange1.png","","","memory_trial","4","definitely_new",""
"html-keyboard-response","249","923788","0.0-18.0-0.102","5905","approach_avoid_sv1","""event"",""trial"",""time""
""fullscreenenter"",""1"",""2828""
","
","
","""event"",""trial"",""time""
""fullscreenenter"",""1"",""2828""
","
","","","","","","null","<div style=""font-size:60px;"">+</div>","null","","fixation","","",""
"memory-trial","250","925845","0.0-18.0-1.102","5905","approach_avoid_sv1","""event"",""trial"",""time""
""fullscreenenter"",""1"",""2828""
","
","
","""event"",""trial"",""time""
""fullscreenenter"",""1"",""2828""
","
","","","","","","1043.6000003814697","images/orange8.png","","","memory_trial","4","definitely_new",""
"html-keyboard-response","251","926358","0.0-18.0-0.103","5905","approach_avoid_sv1","""event"",""trial"",""time""
""fullscreenenter"",""1"",""2828""
","
","
","""event"",""trial"",""time""
""fullscreenenter"",""1"",""2828""
","
","","","","","","null","<div style=""font-size:60px;"">+</div>","null","","fixation","","",""
"memory-trial","252","928976","0.0-18.0-1.103","5905","approach_avoid_sv1","""event"",""trial"",""time""
""fullscreenenter"",""1"",""2828""
","
","
","""event"",""trial"",""time""
""fullscreenenter"",""1"",""2828""
","
","","","","","","1607.4000000953674","images/banana7.png","","","memory_trial","1","definitely_old",""
"html-keyboard-response","253","929492","0.0-18.0-0.104","5905","approach_avoid_sv1","""event"",""trial"",""time""
""fullscreenenter"",""1"",""2828""
","
","
","""event"",""trial"",""time""
""fullscreenenter"",""1"",""2828""
","
","","","","","","null","<div style=""font-size:60px;"">+</div>","null","","fixation","","",""
"memory-trial","254","931428","0.0-18.0-1.104","5905","approach_avoid_sv1","""event"",""trial"",""time""
""fullscreenenter"",""1"",""2828""
","
","
","""event"",""trial"",""time""
""fullscreenenter"",""1"",""2828""
","
","","","","","","926.6999998092651","images/tree4.png","","","memory_trial","4","definitely_new",""
"html-keyboard-response","255","931939","0.0-18.0-0.105","5905","approach_avoid_sv1","""event"",""trial"",""time""
""fullscreenenter"",""1"",""2828""
","
","
","""event"",""trial"",""time""
""fullscreenenter"",""1"",""2828""
","
","","","","","","null","<div style=""font-size:60px;"">+</div>","null","","fixation","","",""
"memory-trial","256","933619","0.0-18.0-1.105","5905","approach_avoid_sv1","""event"",""trial"",""time""
""fullscreenenter"",""1"",""2828""
","
","
","""event"",""trial"",""time""
""fullscreenenter"",""1"",""2828""
","
","","","","","","666.6000003814697","images/boat7.png","","","memory_trial","4","definitely_new",""
"html-keyboard-response","257","934127","0.0-18.0-0.106","5905","approach_avoid_sv1","""event"",""trial"",""time""
""fullscreenenter"",""1"",""2828""
","
","
","""event"",""trial"",""time""
""fullscreenenter"",""1"",""2828""
","
","","","","","","null","<div style=""font-size:60px;"">+</div>","null","","fixation","","",""
"memory-trial","258","936727","0.0-18.0-1.106","5905","approach_avoid_sv1","""event"",""trial"",""time""
""fullscreenenter"",""1"",""2828""
","
","
","""event"",""trial"",""time""
""fullscreenenter"",""1"",""2828""
","
","","","","","","1583.7999997138977","images/sheep2.png","","","memory_trial","1","definitely_old",""
"html-keyboard-response","259","937240","0.0-18.0-0.107","5905","approach_avoid_sv1","""event"",""trial"",""time""
""fullscreenenter"",""1"",""2828""
","
","
","""event"",""trial"",""time""
""fullscreenenter"",""1"",""2828""
","
","","","","","","null","<div style=""font-size:60px;"">+</div>","null","","fixation","","",""
"memory-trial","260","939103","0.0-18.0-1.107","5905","approach_avoid_sv1","""event"",""trial"",""time""
""fullscreenenter"",""1"",""2828""
","
","
","""event"",""trial"",""time""
""fullscreenenter"",""1"",""2828""
","
","","","","","","855.3999996185303","images/bed2.png","","","memory_trial","4","definitely_new",""
"html-keyboard-response","261","939617","0.0-18.0-0.108","5905","approach_avoid_sv1","""event"",""trial"",""time""
""fullscreenenter"",""1"",""2828""
","
","
","""event"",""trial"",""time""
""fullscreenenter"",""1"",""2828""
","
","","","","","","null","<div style=""font-size:60px;"">+</div>","null","","fixation","","",""
"memory-trial","262","941555","0.0-18.0-1.108","5905","approach_avoid_sv1","""event"",""trial"",""time""
""fullscreenenter"",""1"",""2828""
","
","
","""event"",""trial"",""time""
""fullscreenenter"",""1"",""2828""
","
","","","","","","926.5999999046326","images/rabbit7.png","","","memory_trial","1","definitely_old",""
"html-keyboard-response","263","942063","0.0-18.0-0.109","5905","approach_avoid_sv1","""event"",""trial"",""time""
""fullscreenenter"",""1"",""2828""
","
","
","""event"",""trial"",""time""
""fullscreenenter"",""1"",""2828""
","
","","","","","","null","<div style=""font-size:60px;"">+</div>","null","","fixation","","",""
"memory-trial","264","944619","0.0-18.0-1.109","5905","approach_avoid_sv1","""event"",""trial"",""time""
""fullscreenenter"",""1"",""2828""
","
","
","""event"",""trial"",""time""
""fullscreenenter"",""1"",""2828""
","
","","","","","","1549.0999999046326","images/straw2.png","","","memory_trial","4","definitely_new",""
"html-keyboard-response","265","945126","0.0-18.0-0.110","5905","approach_avoid_sv1","""event"",""trial"",""time""
""fullscreenenter"",""1"",""2828""
","
","
","""event"",""trial"",""time""
""fullscreenenter"",""1"",""2828""
","
","","","","","","null","<div style=""font-size:60px;"">+</div>","null","","fixation","","",""
"memory-trial","266","947389","0.0-18.0-1.110","5905","approach_avoid_sv1","""event"",""trial"",""time""
""fullscreenenter"",""1"",""2828""
","
","
","""event"",""trial"",""time""
""fullscreenenter"",""1"",""2828""
","
","","","","","","1256.2000002861023","images/sofa2.png","","","memory_trial","4","definitely_new",""
"html-keyboard-response","267","947897","0.0-18.0-0.111","5905","approach_avoid_sv1","""event"",""trial"",""time""
""fullscreenenter"",""1"",""2828""
","
","
","""event"",""trial"",""time""
""fullscreenenter"",""1"",""2828""
","
","","","","","","null","<div style=""font-size:60px;"">+</div>","null","","fixation","","",""
"memory-trial","268","950850","0.0-18.0-1.111","5905","approach_avoid_sv1","""event"",""trial"",""time""
""fullscreenenter"",""1"",""2828""
","
","
","""event"",""trial"",""time""
""fullscreenenter"",""1"",""2828""
","
","","","","","","1930.5999999046326","images/dog7.png","","","memory_trial","4","definitely_new",""
"html-keyboard-response","269","951363","0.0-18.0-0.112","5905","approach_avoid_sv1","""event"",""trial"",""time""
""fullscreenenter"",""1"",""2828""
","
","
","""event"",""trial"",""time""
""fullscreenenter"",""1"",""2828""
","
","","","","","","null","<div style=""font-size:60px;"">+</div>","null","","fixation","","",""
"memory-trial","270","953702","0.0-18.0-1.112","5905","approach_avoid_sv1","""event"",""trial"",""time""
""fullscreenenter"",""1"",""2828""
","
","
","""event"",""trial"",""time""
""fullscreenenter"",""1"",""2828""
","
","","","","","","1332.6000003814697","images/straw4.png","","","memory_trial","4","definitely_new",""
"html-keyboard-response","271","954212","0.0-18.0-0.113","5905","approach_avoid_sv1","""event"",""trial"",""time""
""fullscreenenter"",""1"",""2828""
","
","
","""event"",""trial"",""time""
""fullscreenenter"",""1"",""2828""
","
","","","","","","null","<div style=""font-size:60px;"">+</div>","null","","fixation","","",""
"memory-trial","272","956464","0.0-18.0-1.113","5905","approach_avoid_sv1","""event"",""trial"",""time""
""fullscreenenter"",""1"",""2828""
","
","
","""event"",""trial"",""time""
""fullscreenenter"",""1"",""2828""
","
","","","","","","1241.6999998092651","images/apple8.png","","","memory_trial","4","definitely_new",""
"html-keyboard-response","273","956976","0.0-18.0-0.114","5905","approach_avoid_sv1","""event"",""trial"",""time""
""fullscreenenter"",""1"",""2828""
","
","
","""event"",""trial"",""time""
""fullscreenenter"",""1"",""2828""
","
","","","","","","null","<div style=""font-size:60px;"">+</div>","null","","fixation","","",""
"memory-trial","274","958722","0.0-18.0-1.114","5905","approach_avoid_sv1","""event"",""trial"",""time""
""fullscreenenter"",""1"",""2828""
","
","
","""event"",""trial"",""time""
""fullscreenenter"",""1"",""2828""
","
","","","","","","735.3000001907349","images/cactus7.png","","","memory_trial","1","definitely_old",""
"html-keyboard-response","275","959235","0.0-18.0-0.115","5905","approach_avoid_sv1","""event"",""trial"",""time""
""fullscreenenter"",""1"",""2828""
","
","
","""event"",""trial"",""time""
""fullscreenenter"",""1"",""2828""
","
","","","","","","null","<div style=""font-size:60px;"">+</div>","null","","fixation","","",""
"memory-trial","276","961307","0.0-18.0-1.115","5905","approach_avoid_sv1","""event"",""trial"",""time""
""fullscreenenter"",""1"",""2828""
","
","
","""event"",""trial"",""time""
""fullscreenenter"",""1"",""2828""
","
","","","","","","1044.9000000953674","images/bush1.png","","","memory_trial","4","definitely_new",""
"html-keyboard-response","277","961811","0.0-18.0-0.116","5905","approach_avoid_sv1","""event"",""trial"",""time""
""fullscreenenter"",""1"",""2828""
","
","
","""event"",""trial"",""time""
""fullscreenenter"",""1"",""2828""
","
","","","","","","null","<div style=""font-size:60px;"">+</div>","null","","fixation","","",""
"memory-trial","278","965416","0.0-18.0-1.116","5905","approach_avoid_sv1","""event"",""trial"",""time""
""fullscreenenter"",""1"",""2828""
","
","
","""event"",""trial"",""time""
""fullscreenenter"",""1"",""2828""
","
","","","","","","2591.0999999046326","images/tree5.png","","","memory_trial","4","definitely_new",""
"html-keyboard-response","279","965923","0.0-18.0-0.117","5905","approach_avoid_sv1","""event"",""trial"",""time""
""fullscreenenter"",""1"",""2828""
","
","
","""event"",""trial"",""time""
""fullscreenenter"",""1"",""2828""
","
","","","","","","null","<div style=""font-size:60px;"">+</div>","null","","fixation","","",""
"memory-trial","280","967606","0.0-18.0-1.117","5905","approach_avoid_sv1","""event"",""trial"",""time""
""fullscreenenter"",""1"",""2828""
","
","
","""event"",""trial"",""time""
""fullscreenenter"",""1"",""2828""
","
","","","","","","674.8000001907349","images/rodent5.png","","","memory_trial","4","definitely_new",""
"html-keyboard-response","281","968122","0.0-18.0-0.118","5905","approach_avoid_sv1","""event"",""trial"",""time""
""fullscreenenter"",""1"",""2828""
","
","
","""event"",""trial"",""time""
""fullscreenenter"",""1"",""2828""
","
","","","","","","null","<div style=""font-size:60px;"">+</div>","null","","fixation","","",""
"memory-trial","282","969997","0.0-18.0-1.118","5905","approach_avoid_sv1","""event"",""trial"",""time""
""fullscreenenter"",""1"",""2828""
","
","
","""event"",""trial"",""time""
""fullscreenenter"",""1"",""2828""
","
","","","","","","863.9000000953674","images/cow2.png","","","memory_trial","4","definitely_new",""
"html-keyboard-response","283","970499","0.0-18.0-0.119","5905","approach_avoid_sv1","""event"",""trial"",""time""
""fullscreenenter"",""1"",""2828""
","
","
","""event"",""trial"",""time""
""fullscreenenter"",""1"",""2828""
","
","","","","","","null","<div style=""font-size:60px;"">+</div>","null","","fixation","","",""
"memory-trial","284","972899","0.0-18.0-1.119","5905","approach_avoid_sv1","""event"",""trial"",""time""
""fullscreenenter"",""1"",""2828""
","
","
","""event"",""trial"",""time""
""fullscreenenter"",""1"",""2828""
","
","","","","","","1374.3999996185303","images/boat6.png","","","memory_trial","4","definitely_new",""
"html-keyboard-response","285","973406","0.0-18.0-0.120","5905","approach_avoid_sv1","""event"",""trial"",""time""
""fullscreenenter"",""1"",""2828""
","
","
","""event"",""trial"",""time""
""fullscreenenter"",""1"",""2828""
","
","","","","","","null","<div style=""font-size:60px;"">+</div>","null","","fixation","","",""
"memory-trial","286","975708","0.0-18.0-1.120","5905","approach_avoid_sv1","""event"",""trial"",""time""
""fullscreenenter"",""1"",""2828""
","
","
","""event"",""trial"",""time""
""fullscreenenter"",""1"",""2828""
","
","","","","","","1287.8000001907349","images/truck2.png","","","memory_trial","1","definitely_old",""
"html-keyboard-response","287","976214","0.0-18.0-0.121","5905","approach_avoid_sv1","""event"",""trial"",""time""
""fullscreenenter"",""1"",""2828""
","
","
","""event"",""trial"",""time""
""fullscreenenter"",""1"",""2828""
","
","","","","","","null","<div style=""font-size:60px;"">+</div>","null","","fixation","","",""
"memory-trial","288","978181","0.0-18.0-1.121","5905","approach_avoid_sv1","""event"",""trial"",""time""
""fullscreenenter"",""1"",""2828""
","
","
","""event"",""trial"",""time""
""fullscreenenter"",""1"",""2828""
","
","","","","","","955.8000001907349","images/bush4.png","","","memory_trial","1","definitely_old",""
"html-keyboard-response","289","978708","0.0-18.0-0.122","5905","approach_avoid_sv1","""event"",""trial"",""time""
""fullscreenenter"",""1"",""2828""
","
","
","""event"",""trial"",""time""
""fullscreenenter"",""1"",""2828""
","
","","","","","","null","<div style=""font-size:60px;"">+</div>","null","","fixation","","",""
"memory-trial","290","980606","0.0-18.0-1.122","5905","approach_avoid_sv1","""event"",""trial"",""time""
""fullscreenenter"",""1"",""2828""
","
","
","""event"",""trial"",""time""
""fullscreenenter"",""1"",""2828""
","
","","","","","","891.8000001907349","images/sofa5.png","","","memory_trial","4","definitely_new",""
"html-keyboard-response","291","981117","0.0-18.0-0.123","5905","approach_avoid_sv1","""event"",""trial"",""time""
""fullscreenenter"",""1"",""2828""
","
","
","""event"",""trial"",""time""
""fullscreenenter"",""1"",""2828""
","
","","","","","","null","<div style=""font-size:60px;"">+</div>","null","","fixation","","",""
"memory-trial","292","984436","0.0-18.0-1.123","5905","approach_avoid_sv1","""event"",""trial"",""time""
""fullscreenenter"",""1"",""2828""
","
","
","""event"",""trial"",""time""
""fullscreenenter"",""1"",""2828""
","
","","","","","","2307","images/tree1.png","","","memory_trial","4","definitely_new",""
"html-keyboard-response","293","984944","0.0-18.0-0.124","5905","approach_avoid_sv1","""event"",""trial"",""time""
""fullscreenenter"",""1"",""2828""
","
","
","""event"",""trial"",""time""
""fullscreenenter"",""1"",""2828""
","
","","","","","","null","<div style=""font-size:60px;"">+</div>","null","","fixation","","",""
"memory-trial","294","987552","0.0-18.0-1.124","5905","approach_avoid_sv1","""event"",""trial"",""time""
""fullscreenenter"",""1"",""2828""
","
","
","""event"",""trial"",""time""
""fullscreenenter"",""1"",""2828""
","
","","","","","","1590.1999998092651","images/goat2.png","","","memory_trial","4","definitely_new",""
"html-keyboard-response","295","988067","0.0-18.0-0.125","5905","approach_avoid_sv1","""event"",""trial"",""time""
""fullscreenenter"",""1"",""2828""
","
","
","""event"",""trial"",""time""
""fullscreenenter"",""1"",""2828""
","
","","","","","","null","<div style=""font-size:60px;"">+</div>","null","","fixation","","",""
"memory-trial","296","991278","0.0-18.0-1.125","5905","approach_avoid_sv1","""event"",""trial"",""time""
""fullscreenenter"",""1"",""2828""
","
","
","""event"",""trial"",""time""
""fullscreenenter"",""1"",""2828""
