"trial_type","trial_index","time_elapsed","internal_node_id","subject_id","task_version","interactions","blur_events","focus_events","fullscreenenter_events","fullscreenexit_events","success","timeout","failed_images","failed_audio","failed_video","rt","stimulus","response","button_pressed","task_part","key_press","answer","correct"
"pavlovia","0","3","0.0-0.0","5596","approach_avoid_sv1","""event"",""trial"",""time""
""fullscreenenter"",""1"",""4275""
","
","
","""event"",""trial"",""time""
""fullscreenenter"",""1"",""4275""
","
","","","","","","","","","","","","",""
"fullscreen","1","5278","0.0-1.0","5596","approach_avoid_sv1","""event"",""trial"",""time""
""fullscreenenter"",""1"",""4275""
","
","
","""event"",""trial"",""time""
""fullscreenenter"",""1"",""4275""
","
","true","","","","","","","","","","","",""
"preload","2","7195","0.0-2.0","5596","approach_avoid_sv1","""event"",""trial"",""time""
""fullscreenenter"",""1"",""4275""
","
","
","""event"",""trial"",""time""
""fullscreenenter"",""1"",""4275""
","
","true","false","[]","[]","[]","","","","","","","",""
"preload","3","8681","0.0-3.0","5596","approach_avoid_sv1","""event"",""trial"",""time""
""fullscreenenter"",""1"",""4275""
","
","
","""event"",""trial"",""time""
""fullscreenenter"",""1"",""4275""
","
","true","false","[]","[]","[]","","","","","","","",""
"preload","4","9015","0.0-4.0","5596","approach_avoid_sv1","""event"",""trial"",""time""
""fullscreenenter"",""1"",""4275""
","
","
","""event"",""trial"",""time""
""fullscreenenter"",""1"",""4275""
","
","true","false","[]","[]","[]","","","","","","","",""
"audio-keyboard-response","5","11269","0.0-5.0","5596","approach_avoid_sv1","""event"",""trial"",""time""
""fullscreenenter"",""1"",""4275""
","
","
","""event"",""trial"",""time""
""fullscreenenter"",""1"",""4275""
","
","","","","","","2250.6666666666674","audio/beep_loop.wav"," ","","","","",""
"audio-button-response","6","12759","0.0-6.0","5596","approach_avoid_sv1","""event"",""trial"",""time""
""fullscreenenter"",""1"",""4275""
","
","
","""event"",""trial"",""time""
""fullscreenenter"",""1"",""4275""
","
","","","","","","1491","audio/turtle.wav","3","","","","",""
"audio-button-response","7","14926","0.0-7.0","5596","approach_avoid_sv1","""event"",""trial"",""time""
""fullscreenenter"",""1"",""4275""
","
","
","""event"",""trial"",""time""
""fullscreenenter"",""1"",""4275""
","
","","","","","","1160","audio/shark.wav","2","","","","",""
"preload","8","18737","0.0-8.0","5596","approach_avoid_sv1","""event"",""trial"",""time""
""fullscreenenter"",""1"",""4275""
","
","
","""event"",""trial"",""time""
""fullscreenenter"",""1"",""4275""
","
","true","false","[]","[]","[]","","","","","","","",""
"learning-instructions","9","27399","0.0-9.0-0.0","5596","approach_avoid_sv1","""event"",""trial"",""time""
""fullscreenenter"",""1"",""4275""
","
","
","""event"",""trial"",""time""
""fullscreenenter"",""1"",""4275""
","
","","","","","","4183.099999904633","<p> Welcome back! </p><p> Last week, you had to make choices about lots of different items.  </p>","","0","instructions","","",""
"learning-instructions","10","39487","0.0-9.0-0.1","5596","approach_avoid_sv1","""event"",""trial"",""time""
""fullscreenenter"",""1"",""4275""
","
","
","""event"",""trial"",""time""
""fullscreenenter"",""1"",""4275""
","
","","","","","","7971","<p> Today, we are going to ask you to try to remember all the items. </p>","","0","instructions","","",""
"learning-instructions","11","52469","0.0-9.0-0.2","5596","approach_avoid_sv1","""event"",""trial"",""time""
""fullscreenenter"",""1"",""4275""
","
","
","""event"",""trial"",""time""
""fullscreenenter"",""1"",""4275""
","
","","","","","","2843.4000000953674","<p> On every trial, you will see an image. </p><p> The image may be an OLD image you saw during the games last week or it may be a NEW image that was not presented. </p>","","0","instructions","","",""
"learning-instructions","12","63438","0.0-9.0-0.3","5596","approach_avoid_sv1","""event"",""trial"",""time""
""fullscreenenter"",""1"",""4275""
","
","
","""event"",""trial"",""time""
""fullscreenenter"",""1"",""4275""
","
","","","","","","2472.600000143051","<p> You need to select whether the image is:  </p><p>  'Definitely old', 'Maybe old', 'Maybe new', or 'Definitely new.'  </p><div class=""mem-choice-instructions-grid""><div class=""choice-option"" id=""choice-option-1"" ><img src=""images/definitely_old_1.png"" id=""choice-option-img-1"" class=""choice-option-img"" stage=""1""></div><div class=""choice-option"" id=""choice-option-2"" ><img src=""images/maybe_old_1.png"" id=""choice-option-img-2"" class=""choice-option-img"" stage=""1""></div><div class=""choice-option"" id=""choice-option-3"" ><img src=""images/maybe_new_1.png"" id=""choice-option-img-3"" class=""choice-option-img"" stage=""1""></div><div class=""choice-option"" id=""choice-option-4"" > <img src=""images/definitely_new_1.png"" id=""choice-option-img-4"" class=""choice-option-img"" stage=""1""></div></div>","","0","instructions","","",""
"learning-instructions","13","75436","0.0-9.0-0.4","5596","approach_avoid_sv1","""event"",""trial"",""time""
""fullscreenenter"",""1"",""4275""
","
","
","""event"",""trial"",""time""
""fullscreenenter"",""1"",""4275""
","
","","","","","","5480.700000047684","<p> You should use the 1, 2, 3, and 4 keys to make your responses.  </p><div class=""mem-choice-instructions-grid""><div class=""choice-option"" id=""choice-option-1"" ><img src=""images/definitely_old.png"" id=""choice-option-img-1"" class=""choice-option-img"" stage=""1""></div><div class=""choice-option"" id=""choice-option-2"" ><img src=""images/maybe_old.png"" id=""choice-option-img-2"" class=""choice-option-img"" stage=""1""></div><div class=""choice-option"" id=""choice-option-3"" ><img src=""images/maybe_new.png"" id=""choice-option-img-3"" class=""choice-option-img"" stage=""1""></div><div class=""choice-option"" id=""choice-option-4"" > <img src=""images/definitely_new.png"" id=""choice-option-img-4"" class=""choice-option-img"" stage=""1""></div></div>","","0","instructions","","",""
"learning-instructions","14","82103","0.0-9.0-0.5","5596","approach_avoid_sv1","""event"",""trial"",""time""
""fullscreenenter"",""1"",""4275""
","
","
","""event"",""trial"",""time""
""fullscreenenter"",""1"",""4275""
","
","","","","","","329.2999999523163","<p> You will have 10 seconds to make each response.  </p><p>  Make sure to respond before time runs out! </p>","","0","instructions","","",""
"learning-instructions","15","90264","0.0-9.0-0.6","5596","approach_avoid_sv1","""event"",""trial"",""time""
""fullscreenenter"",""1"",""4275""
","
","
","""event"",""trial"",""time""
""fullscreenenter"",""1"",""4275""
","
","","","","","","1078","<p> Today, you will see each image ONCE only.  </p><p>  That means none of the images will repeat. </p>","","0","instructions","","",""
"learning-instructions","16","105096","0.0-9.0-0.7","5596","approach_avoid_sv1","""event"",""trial"",""time""
""fullscreenenter"",""1"",""4275""
","
","
","""event"",""trial"",""time""
""fullscreenenter"",""1"",""4275""
","
","","","","","","2151.600000143051","<p> Before you play the real game, it is time to practice. </p><p>  Just like in the real game, some of the images in the practice will be ones you have seen before. </p><p>  Others will be entirely new. </p>","","0","instructions","","",""
"html-button-response","17","107196","0.0-10.0","5596","approach_avoid_sv1","""event"",""trial"",""time""
""fullscreenenter"",""1"",""4275""
","
","
","""event"",""trial"",""time""
""fullscreenenter"",""1"",""4275""
","
","","","","","","1982.5999999046326","<p> Ready to practice? </p><p> Remember, use the 1, 2, 3, and 4 keys to make your responses. </p>","0","","instructions","","",""
"html-keyboard-response","18","107825","0.0-11.0-0.0","5596","approach_avoid_sv1","""event"",""trial"",""time""
""fullscreenenter"",""1"",""4275""
","
","
","""event"",""trial"",""time""
""fullscreenenter"",""1"",""4275""
","
","","","","","","null","<div style=""font-size:60px;"">+</div>","null","","fixation","","",""
"memory-trial","19","113379","0.0-11.0-1.0","5596","approach_avoid_sv1","""event"",""trial"",""time""
""fullscreenenter"",""1"",""4275""
","
","
","""event"",""trial"",""time""
""fullscreenenter"",""1"",""4275""
","
","","","","","","4535.5","images/ball2.png","","","practice","1","definitely_old",""
"html-keyboard-response","20","113888","0.0-11.0-0.1","5596","approach_avoid_sv1","""event"",""trial"",""time""
""fullscreenenter"",""1"",""4275""
","
","
","""event"",""trial"",""time""
""fullscreenenter"",""1"",""4275""
","
","","","","","","null","<div style=""font-size:60px;"">+</div>","null","","fixation","","",""
"memory-trial","21","117409","0.0-11.0-1.1","5596","approach_avoid_sv1","""event"",""trial"",""time""
""fullscreenenter"",""1"",""4275""
","
","
","""event"",""trial"",""time""
""fullscreenenter"",""1"",""4275""
","
","","","","","","2499.2000000476837","images/racket2.png","","","practice","2","maybe_old",""
"html-keyboard-response","22","117924","0.0-11.0-0.2","5596","approach_avoid_sv1","""event"",""trial"",""time""
""fullscreenenter"",""1"",""4275""
","
","
","""event"",""trial"",""time""
""fullscreenenter"",""1"",""4275""
","
","","","","","","null","<div style=""font-size:60px;"">+</div>","null","","fixation","","",""
"memory-trial","23","121897","0.0-11.0-1.2","5596","approach_avoid_sv1","""event"",""trial"",""time""
""fullscreenenter"",""1"",""4275""
","
","
","""event"",""trial"",""time""
""fullscreenenter"",""1"",""4275""
","
","","","","","","2958","images/ball5.png","","","practice","3","maybe_new",""
"html-keyboard-response","24","122413","0.0-11.0-0.3","5596","approach_avoid_sv1","""event"",""trial"",""time""
""fullscreenenter"",""1"",""4275""
","
","
","""event"",""trial"",""time""
""fullscreenenter"",""1"",""4275""
","
","","","","","","null","<div style=""font-size:60px;"">+</div>","null","","fixation","","",""
"memory-trial","25","124832","0.0-11.0-1.3","5596","approach_avoid_sv1","""event"",""trial"",""time""
""fullscreenenter"",""1"",""4275""
","
","
","""event"",""trial"",""time""
""fullscreenenter"",""1"",""4275""
","
","","","","","","1402.5","images/ball1.png","","","practice","3","maybe_new",""
"html-keyboard-response","26","125358","0.0-11.0-0.4","5596","approach_avoid_sv1","""event"",""trial"",""time""
""fullscreenenter"",""1"",""4275""
","
","
","""event"",""trial"",""time""
""fullscreenenter"",""1"",""4275""
","
","","","","","","null","<div style=""font-size:60px;"">+</div>","null","","fixation","","",""
"memory-trial","27","128150","0.0-11.0-1.4","5596","approach_avoid_sv1","""event"",""trial"",""time""
""fullscreenenter"",""1"",""4275""
","
","
","""event"",""trial"",""time""
""fullscreenenter"",""1"",""4275""
","
","","","","","","1780.4000000953674","images/ball3.png","","","practice","4","definitely_new",""
"html-keyboard-response","28","128659","0.0-11.0-0.5","5596","approach_avoid_sv1","""event"",""trial"",""time""
""fullscreenenter"",""1"",""4275""
","
","
","""event"",""trial"",""time""
""fullscreenenter"",""1"",""4275""
","
","","","","","","null","<div style=""font-size:60px;"">+</div>","null","","fixation","","",""
"memory-trial","29","130674","0.0-11.0-1.5","5596","approach_avoid_sv1","""event"",""trial"",""time""
""fullscreenenter"",""1"",""4275""
","
","
","""event"",""trial"",""time""
""fullscreenenter"",""1"",""4275""
","
","","","","","","998.8999998569489","images/racket5.png","","","practice","3","maybe_new",""
"html-keyboard-response","30","131185","0.0-11.0-0.6","5596","approach_avoid_sv1","""event"",""trial"",""time""
""fullscreenenter"",""1"",""4275""
","
","
","""event"",""trial"",""time""
""fullscreenenter"",""1"",""4275""
","
","","","","","","null","<div style=""font-size:60px;"">+</div>","null","","fixation","","",""
"memory-trial","31","133630","0.0-11.0-1.6","5596","approach_avoid_sv1","""event"",""trial"",""time""
""fullscreenenter"",""1"",""4275""
","
","
","""event"",""trial"",""time""
""fullscreenenter"",""1"",""4275""
","
","","","","","","1430.2000000476837","images/racket3.png","","","practice","1","definitely_old",""
"html-keyboard-response","32","134141","0.0-11.0-0.7","5596","approach_avoid_sv1","""event"",""trial"",""time""
""fullscreenenter"",""1"",""4275""
","
","
","""event"",""trial"",""time""
""fullscreenenter"",""1"",""4275""
","
","","","","","","null","<div style=""font-size:60px;"">+</div>","null","","fixation","","",""
"memory-trial","33","136281","0.0-11.0-1.7","5596","approach_avoid_sv1","""event"",""trial"",""time""
""fullscreenenter"",""1"",""4275""
","
","
","""event"",""trial"",""time""
""fullscreenenter"",""1"",""4275""
","
","","","","","","1127.8999998569489","images/racket1.png","","","practice","1","definitely_old",""
"learning-instructions","34","145647","0.0-12.0-0.0","5596","approach_avoid_sv1","""event"",""trial"",""time""
""fullscreenenter"",""1"",""4275""
","
","
","""event"",""trial"",""time""
""fullscreenenter"",""1"",""4275""
","
","","","","","","2065.2000000476837","<p> Great! You have completed the practice. </p><p> Before you start, we're going to ask you a few questions about how the game works.  </p>","","0","instructions","","",""
"preload","35","147452","0.0-13.0","5596","approach_avoid_sv1","""event"",""trial"",""time""
""fullscreenenter"",""1"",""4275""
","
","
","""event"",""trial"",""time""
""fullscreenenter"",""1"",""4275""
","
","true","false","[]","[]","[]","","","","","","","",""
"comp-q","36","154572","0.0-14.0-0.0","5596","approach_avoid_sv1","""event"",""trial"",""time""
""fullscreenenter"",""1"",""4275""
","
","
","""event"",""trial"",""time""
""fullscreenenter"",""1"",""4275""
","
","","","","","","1290.9000000953674","<p> <b> True or False? </b> </p><p> In this game, you will only see each image once. </p>","","0","comp_question","","","true"
"comp-q","37","163000","0.0-14.0-1.0","5596","approach_avoid_sv1","""event"",""trial"",""time""
""fullscreenenter"",""1"",""4275""
","
","
","""event"",""trial"",""time""
""fullscreenenter"",""1"",""4275""
","
","","","","","","2088.5999999046326","<p> <b> That's right! </b> You will see many different images <i> one time each </i> in this game. </p>","","0","comp_answer","","",""
"comp-q","38","169412","0.0-15.0-0.0","5596","approach_avoid_sv1","""event"",""trial"",""time""
""fullscreenenter"",""1"",""4275""
","
","
","""event"",""trial"",""time""
""fullscreenenter"",""1"",""4275""
","
","","","","","","1391.7999999523163","<p> <b> True or False? </b> </p><p> You should use the mouse and click to make your response. </p>","","1","comp_question","","","true"
"comp-q","39","178126","0.0-15.0-1.0","5596","approach_avoid_sv1","""event"",""trial"",""time""
""fullscreenenter"",""1"",""4275""
","
","
","""event"",""trial"",""time""
""fullscreenenter"",""1"",""4275""
","
","","","","","","2195.199999809265","<p><b> That's right! </b> You should use the '1', '2', '3', and '4' keys to make your response. </p>","","0","comp_answer","","",""
"comp-q","40","184598","0.0-16.0-0.0","5596","approach_avoid_sv1","""event"",""trial"",""time""
""fullscreenenter"",""1"",""4275""
","
","
","""event"",""trial"",""time""
""fullscreenenter"",""1"",""4275""
","
","","","","","","788.0999999046326","<p> <b> True or False? </b> </p><p> You will have as much time as you want to make each choice. </p>","","1","comp_question","","","true"
"comp-q","41","192394","0.0-16.0-1.0","5596","approach_avoid_sv1","""event"",""trial"",""time""
""fullscreenenter"",""1"",""4275""
","
","
","""event"",""trial"",""time""
""fullscreenenter"",""1"",""4275""
","
","","","","","","3092.7999999523163","<p> <b> That's right! </b> You will only have 10 seconds to make each choice. </p>","","0","comp_answer","","",""
"learning-instructions","42","203879","0.0-17.0","5596","approach_avoid_sv1","""event"",""trial"",""time""
""fullscreenenter"",""1"",""4275""
","
","
","""event"",""trial"",""time""
""fullscreenenter"",""1"",""4275""
","
","","","","","","2797.9000000953674","<p> Great! You are now ready to begin the game. </p><p> Remember, use the 1, 2, 3, and 4 keys to make your responses. </p>","","0","instructions","","",""
"html-keyboard-response","43","204492","0.0-18.0-0.0","5596","approach_avoid_sv1","""event"",""trial"",""time""
""fullscreenenter"",""1"",""4275""
","
","
","""event"",""trial"",""time""
""fullscreenenter"",""1"",""4275""
","
","","","","","","null","<div style=""font-size:60px;"">+</div>","null","","fixation","","",""
"memory-trial","44","207365","0.0-18.0-1.0","5596","approach_avoid_sv1","""event"",""trial"",""time""
""fullscreenenter"",""1"",""4275""
","
","
","""event"",""trial"",""time""
""fullscreenenter"",""1"",""4275""
","
","","","","","","1860.5999999046326","images/sofa6.png","","","memory_trial","1","definitely_old",""
"html-keyboard-response","45","207880","0.0-18.0-0.1","5596","approach_avoid_sv1","""event"",""trial"",""time""
""fullscreenenter"",""1"",""4275""
","
","
","""event"",""trial"",""time""
""fullscreenenter"",""1"",""4275""
","
","","","","","","null","<div style=""font-size:60px;"">+</div>","null","","fixation","","",""
"memory-trial","46","211566","0.0-18.0-1.1","5596","approach_avoid_sv1","""event"",""trial"",""time""
""fullscreenenter"",""1"",""4275""
","
","
","""event"",""trial"",""time""
""fullscreenenter"",""1"",""4275""
","
","","","","","","2666.5999999046326","images/rabbit2.png","","","memory_trial","2","maybe_old",""
"html-keyboard-response","47","212078","0.0-18.0-0.2","5596","approach_avoid_sv1","""event"",""trial"",""time""
""fullscreenenter"",""1"",""4275""
","
","
","""event"",""trial"",""time""
""fullscreenenter"",""1"",""4275""
","
","","","","","","null","<div style=""font-size:60px;"">+</div>","null","","fixation","","",""
"memory-trial","48","214516","0.0-18.0-1.2","5596","approach_avoid_sv1","""event"",""trial"",""time""
""fullscreenenter"",""1"",""4275""
","
","
","""event"",""trial"",""time""
""fullscreenenter"",""1"",""4275""
","
","","","","","","1414.2999999523163","images/sheep4.png","","","memory_trial","4","definitely_new",""
"html-keyboard-response","49","215029","0.0-18.0-0.3","5596","approach_avoid_sv1","""event"",""trial"",""time""
""fullscreenenter"",""1"",""4275""
","
","
","""event"",""trial"",""time""
""fullscreenenter"",""1"",""4275""
","
","","","","","","null","<div style=""font-size:60px;"">+</div>","null","","fixation","","",""
"memory-trial","50","217889","0.0-18.0-1.3","5596","approach_avoid_sv1","""event"",""trial"",""time""
""fullscreenenter"",""1"",""4275""
","
","
","""event"",""trial"",""time""
""fullscreenenter"",""1"",""4275""
","
","","","","","","1846.2999999523163","images/cactus2.png","","","memory_trial","1","definitely_old",""
"html-keyboard-response","51","218403","0.0-18.0-0.4","5596","approach_avoid_sv1","""event"",""trial"",""time""
""fullscreenenter"",""1"",""4275""
","
","
","""event"",""trial"",""time""
""fullscreenenter"",""1"",""4275""
","
","","","","","","null","<div style=""font-size:60px;"">+</div>","null","","fixation","","",""
"memory-trial","52","220550","0.0-18.0-1.4","5596","approach_avoid_sv1","""event"",""trial"",""time""
""fullscreenenter"",""1"",""4275""
","
","
","""event"",""trial"",""time""
""fullscreenenter"",""1"",""4275""
","
","","","","","","1125.2000000476837","images/straw6.png","","","memory_trial","1","definitely_old",""
"html-keyboard-response","53","221066","0.0-18.0-0.5","5596","approach_avoid_sv1","""event"",""trial"",""time""
""fullscreenenter"",""1"",""4275""
","
","
","""event"",""trial"",""time""
""fullscreenenter"",""1"",""4275""
","
","","","","","","null","<div style=""font-size:60px;"">+</div>","null","","fixation","","",""
"memory-trial","54","223873","0.0-18.0-1.5","5596","approach_avoid_sv1","""event"",""trial"",""time""
""fullscreenenter"",""1"",""4275""
","
","
","""event"",""trial"",""time""
""fullscreenenter"",""1"",""4275""
","
","","","","","","1785.7000000476837","images/boat8.png","","","memory_trial","3","maybe_new",""
"html-keyboard-response","55","224388","0.0-18.0-0.6","5596","approach_avoid_sv1","""event"",""trial"",""time""
""fullscreenenter"",""1"",""4275""
","
","
","""event"",""trial"",""time""
""fullscreenenter"",""1"",""4275""
","
","","","","","","null","<div style=""font-size:60px;"">+</div>","null","","fixation","","",""
"memory-trial","56","227639","0.0-18.0-1.6","5596","approach_avoid_sv1","""event"",""trial"",""time""
""fullscreenenter"",""1"",""4275""
","
","
","""event"",""trial"",""time""
""fullscreenenter"",""1"",""4275""
","
","","","","","","2225","images/straw1.png","","","memory_trial","3","maybe_new",""
"html-keyboard-response","57","228143","0.0-18.0-0.7","5596","approach_avoid_sv1","""event"",""trial"",""time""
""fullscreenenter"",""1"",""4275""
","
","
","""event"",""trial"",""time""
""fullscreenenter"",""1"",""4275""
","
","","","","","","null","<div style=""font-size:60px;"">+</div>","null","","fixation","","",""
"memory-trial","58","230998","0.0-18.0-1.7","5596","approach_avoid_sv1","""event"",""trial"",""time""
""fullscreenenter"",""1"",""4275""
","
","
","""event"",""trial"",""time""
""fullscreenenter"",""1"",""4275""
","
","","","","","","1846.6000001430511","images/truck6.png","","","memory_trial","3","maybe_new",""
"html-keyboard-response","59","231502","0.0-18.0-0.8","5596","approach_avoid_sv1","""event"",""trial"",""time""
""fullscreenenter"",""1"",""4275""
","
","
","""event"",""trial"",""time""
""fullscreenenter"",""1"",""4275""
","
","","","","","","null","<div style=""font-size:60px;"">+</div>","null","","fixation","","",""
"memory-trial","60","233771","0.0-18.0-1.8","5596","approach_avoid_sv1","""event"",""trial"",""time""
""fullscreenenter"",""1"",""4275""
","
","
","""event"",""trial"",""time""
""fullscreenenter"",""1"",""4275""
","
","","","","","","1257.2999999523163","images/cow3.png","","","memory_trial","1","definitely_old",""
"html-keyboard-response","61","234282","0.0-18.0-0.9","5596","approach_avoid_sv1","""event"",""trial"",""time""
""fullscreenenter"",""1"",""4275""
","
","
","""event"",""trial"",""time""
""fullscreenenter"",""1"",""4275""
","
","","","","","","null","<div style=""font-size:60px;"">+</div>","null","","fixation","","",""
"memory-trial","62","236457","0.0-18.0-1.9","5596","approach_avoid_sv1","""event"",""trial"",""time""
""fullscreenenter"",""1"",""4275""
","
","
","""event"",""trial"",""time""
""fullscreenenter"",""1"",""4275""
","
","","","","","","1162.5999999046326","images/chair7.png","","","memory_trial","1","definitely_old",""
"html-keyboard-response","63","236970","0.0-18.0-0.10","5596","approach_avoid_sv1","""event"",""trial"",""time""
""fullscreenenter"",""1"",""4275""
","
","
","""event"",""trial"",""time""
""fullscreenenter"",""1"",""4275""
","
","","","","","","null","<div style=""font-size:60px;"">+</div>","null","","fixation","","",""
"memory-trial","64","239349","0.0-18.0-1.10","5596","approach_avoid_sv1","""event"",""trial"",""time""
""fullscreenenter"",""1"",""4275""
","
","
","""event"",""trial"",""time""
""fullscreenenter"",""1"",""4275""
","
","","","","","","1355","images/boat2.png","","","memory_trial","2","maybe_old",""
"html-keyboard-response","65","239857","0.0-18.0-0.11","5596","approach_avoid_sv1","""event"",""trial"",""time""
""fullscreenenter"",""1"",""4275""
","
","
","""event"",""trial"",""time""
""fullscreenenter"",""1"",""4275""
","
","","","","","","null","<div style=""font-size:60px;"">+</div>","null","","fixation","","",""
"memory-trial","66","242661","0.0-18.0-1.11","5596","approach_avoid_sv1","""event"",""trial"",""time""
""fullscreenenter"",""1"",""4275""
","
","
","""event"",""trial"",""time""
""fullscreenenter"",""1"",""4275""
","
","","","","","","1786.5","images/rodent8.png","","","memory_trial","3","maybe_new",""
"html-keyboard-response","67","243170","0.0-18.0-0.12","5596","approach_avoid_sv1","""event"",""trial"",""time""
""fullscreenenter"",""1"",""4275""
","
","
","""event"",""trial"",""time""
""fullscreenenter"",""1"",""4275""
","
","","","","","","null","<div style=""font-size:60px;"">+</div>","null","","fixation","","",""
"memory-trial","68","246093","0.0-18.0-1.12","5596","approach_avoid_sv1","""event"",""trial"",""time""
""fullscreenenter"",""1"",""4275""
","
","
","""event"",""trial"",""time""
""fullscreenenter"",""1"",""4275""
","
","","","","","","1915.5","images/cat3.png","","","memory_trial","2","maybe_old",""
"html-keyboard-response","69","246604","0.0-18.0-0.13","5596","approach_avoid_sv1","""event"",""trial"",""time""
""fullscreenenter"",""1"",""4275""
","
","
","""event"",""trial"",""time""
""fullscreenenter"",""1"",""4275""
","
","","","","","","null","<div style=""font-size:60px;"">+</div>","null","","fixation","","",""
"memory-trial","70","249137","0.0-18.0-1.13","5596","approach_avoid_sv1","""event"",""trial"",""time""
""fullscreenenter"",""1"",""4275""
","
","
","""event"",""trial"",""time""
""fullscreenenter"",""1"",""4275""
","
","","","","","","1519.5","images/orange5.png","","","memory_trial","3","maybe_new",""
"html-keyboard-response","71","249646","0.0-18.0-0.14","5596","approach_avoid_sv1","""event"",""trial"",""time""
""fullscreenenter"",""1"",""4275""
","
","
","""event"",""trial"",""time""
""fullscreenenter"",""1"",""4275""
","
","","","","","","null","<div style=""font-size:60px;"">+</div>","null","","fixation","","",""
"memory-trial","72","254425","0.0-18.0-1.14","5596","approach_avoid_sv1","""event"",""trial"",""time""
""fullscreenenter"",""1"",""4275""
","
","
","""event"",""trial"",""time""
""fullscreenenter"",""1"",""4275""
","
","","","","","","3768.4000000953674","images/horse4.png","","","memory_trial","1","definitely_old",""
"html-keyboard-response","73","254934","0.0-18.0-0.15","5596","approach_avoid_sv1","""event"",""trial"",""time""
""fullscreenenter"",""1"",""4275""
","
","
","""event"",""trial"",""time""
""fullscreenenter"",""1"",""4275""
","
","","","","","","null","<div style=""font-size:60px;"">+</div>","null","","fixation","","",""
"memory-trial","74","257774","0.0-18.0-1.15","5596","approach_avoid_sv1","""event"",""trial"",""time""
""fullscreenenter"",""1"",""4275""
","
","
","""event"",""trial"",""time""
""fullscreenenter"",""1"",""4275""
","
","","","","","","1825.1999998092651","images/dog3.png","","","memory_trial","3","maybe_new",""
"html-keyboard-response","75","258284","0.0-18.0-0.16","5596","approach_avoid_sv1","""event"",""trial"",""time""
""fullscreenenter"",""1"",""4275""
","
","
","""event"",""trial"",""time""
""fullscreenenter"",""1"",""4275""
","
","","","","","","null","<div style=""font-size:60px;"">+</div>","null","","fixation","","",""
"memory-trial","76","261358","0.0-18.0-1.16","5596","approach_avoid_sv1","""event"",""trial"",""time""
""fullscreenenter"",""1"",""4275""
","
","
","""event"",""trial"",""time""
""fullscreenenter"",""1"",""4275""
","
","","","","","","2058.0999999046326","images/dog2.png","","","memory_trial","4","definitely_new",""
"html-keyboard-response","77","261875","0.0-18.0-0.17","5596","approach_avoid_sv1","""event"",""trial"",""time""
""fullscreenenter"",""1"",""4275""
","
","
","""event"",""trial"",""time""
""fullscreenenter"",""1"",""4275""
","
","","","","","","null","<div style=""font-size:60px;"">+</div>","null","","fixation","","",""
"memory-trial","78","264063","0.0-18.0-1.17","5596","approach_avoid_sv1","""event"",""trial"",""time""
""fullscreenenter"",""1"",""4275""
","
","
","""event"",""trial"",""time""
""fullscreenenter"",""1"",""4275""
","
","","","","","","1173.3999998569489","images/cat8.png","","","memory_trial","3","maybe_new",""
"html-keyboard-response","79","264581","0.0-18.0-0.18","5596","approach_avoid_sv1","""event"",""trial"",""time""
""fullscreenenter"",""1"",""4275""
","
","
","""event"",""trial"",""time""
""fullscreenenter"",""1"",""4275""
","
","","","","","","null","<div style=""font-size:60px;"">+</div>","null","","fixation","","",""
"memory-trial","80","267146","0.0-18.0-1.18","5596","approach_avoid_sv1","""event"",""trial"",""time""
""fullscreenenter"",""1"",""4275""
","
","
","""event"",""trial"",""time""
""fullscreenenter"",""1"",""4275""
","
","","","","","","1550.5","images/banana2.png","","","memory_trial","1","definitely_old",""
"html-keyboard-response","81","267664","0.0-18.0-0.19","5596","approach_avoid_sv1","""event"",""trial"",""time""
""fullscreenenter"",""1"",""4275""
","
","
","""event"",""trial"",""time""
""fullscreenenter"",""1"",""4275""
","
","","","","","","null","<div style=""font-size:60px;"">+</div>","null","","fixation","","",""
"memory-trial","82","270272","0.0-18.0-1.19","5596","approach_avoid_sv1","""event"",""trial"",""time""
""fullscreenenter"",""1"",""4275""
","
","
","""event"",""trial"",""time""
""fullscreenenter"",""1"",""4275""
","
","","","","","","1592.8000001907349","images/cactus1.png","","","memory_trial","4","definitely_new",""
"html-keyboard-response","83","270786","0.0-18.0-0.20","5596","approach_avoid_sv1","""event"",""trial"",""time""
""fullscreenenter"",""1"",""4275""
","
","
","""event"",""trial"",""time""
""fullscreenenter"",""1"",""4275""
","
","","","","","","null","<div style=""font-size:60px;"">+</div>","null","","fixation","","",""
"memory-trial","84","272717","0.0-18.0-1.20","5596","approach_avoid_sv1","""event"",""trial"",""time""
""fullscreenenter"",""1"",""4275""
","
","
","""event"",""trial"",""time""
""fullscreenenter"",""1"",""4275""
","
","","","","","","922.0999999046326","images/dog6.png","","","memory_trial","4","definitely_new",""
"html-keyboard-response","85","273223","0.0-18.0-0.21","5596","approach_avoid_sv1","""event"",""trial"",""time""
""fullscreenenter"",""1"",""4275""
","
","
","""event"",""trial"",""time""
""fullscreenenter"",""1"",""4275""
","
","","","","","","null","<div style=""font-size:60px;"">+</div>","null","","fixation","","",""
"memory-trial","86","275740","0.0-18.0-1.21","5596","approach_avoid_sv1","""event"",""trial"",""time""
""fullscreenenter"",""1"",""4275""
","
","
","""event"",""trial"",""time""
""fullscreenenter"",""1"",""4275""
","
","","","","","","1505","images/chair8.png","","","memory_trial","1","definitely_old",""
"html-keyboard-response","87","276252","0.0-18.0-0.22","5596","approach_avoid_sv1","""event"",""trial"",""time""
""fullscreenenter"",""1"",""4275""
","
","
","""event"",""trial"",""time""
""fullscreenenter"",""1"",""4275""
","
","","","","","","null","<div style=""font-size:60px;"">+</div>","null","","fixation","","",""
"memory-trial","88","278382","0.0-18.0-1.22","5596","approach_avoid_sv1","""event"",""trial"",""time""
""fullscreenenter"",""1"",""4275""
","
","
","""event"",""trial"",""time""
""fullscreenenter"",""1"",""4275""
","
","","","","","","1119.5","images/train1.png","","","memory_trial","4","definitely_new",""
"html-keyboard-response","89","278901","0.0-18.0-0.23","5596","approach_avoid_sv1","""event"",""trial"",""time""
""fullscreenenter"",""1"",""4275""
","
","
","""event"",""trial"",""time""
""fullscreenenter"",""1"",""4275""
","
","","","","","","null","<div style=""font-size:60px;"">+</div>","null","","fixation","","",""
"memory-trial","90","281250","0.0-18.0-1.23","5596","approach_avoid_sv1","""event"",""trial"",""time""
""fullscreenenter"",""1"",""4275""
","
","
","""event"",""trial"",""time""
""fullscreenenter"",""1"",""4275""
","
","","","","","","1337.0999999046326","images/sofa2.png","","","memory_trial","3","maybe_new",""
"html-keyboard-response","91","281753","0.0-18.0-0.24","5596","approach_avoid_sv1","""event"",""trial"",""time""
""fullscreenenter"",""1"",""4275""
","
","
","""event"",""trial"",""time""
""fullscreenenter"",""1"",""4275""
","
","","","","","","null","<div style=""font-size:60px;"">+</div>","null","","fixation","","",""
"memory-trial","92","284157","0.0-18.0-1.24","5596","approach_avoid_sv1","""event"",""trial"",""time""
""fullscreenenter"",""1"",""4275""
","
","
","""event"",""trial"",""time""
""fullscreenenter"",""1"",""4275""
","
","","","","","","1386.8000001907349","images/horse1.png","","","memory_trial","1","definitely_old",""
"html-keyboard-response","93","284666","0.0-18.0-0.25","5596","approach_avoid_sv1","""event"",""trial"",""time""
""fullscreenenter"",""1"",""4275""
","
","
","""event"",""trial"",""time""
""fullscreenenter"",""1"",""4275""
","
","","","","","","null","<div style=""font-size:60px;"">+</div>","null","","fixation","","",""
"memory-trial","94","286673","0.0-18.0-1.25","5596","approach_avoid_sv1","""event"",""trial"",""time""
""fullscreenenter"",""1"",""4275""
","
","
","""event"",""trial"",""time""
""fullscreenenter"",""1"",""4275""
","
","","","","","","1001.2999999523163","images/sofa1.png","","","memory_trial","3","maybe_new",""
"html-keyboard-response","95","287181","0.0-18.0-0.26","5596","approach_avoid_sv1","""event"",""trial"",""time""
""fullscreenenter"",""1"",""4275""
","
","
","""event"",""trial"",""time""
""fullscreenenter"",""1"",""4275""
","
","","","","","","null","<div style=""font-size:60px;"">+</div>","null","","fixation","","",""
"memory-trial","96","288949","0.0-18.0-1.26","5596","approach_avoid_sv1","""event"",""trial"",""time""
""fullscreenenter"",""1"",""4275""
","
","
","""event"",""trial"",""time""
""fullscreenenter"",""1"",""4275""
","
","","","","","","754.4000000953674","images/rabbit1.png","","","memory_trial","3","maybe_new",""
"html-keyboard-response","97","289464","0.0-18.0-0.27","5596","approach_avoid_sv1","""event"",""trial"",""time""
""fullscreenenter"",""1"",""4275""
","
","
","""event"",""trial"",""time""
""fullscreenenter"",""1"",""4275""
","
","","","","","","null","<div style=""font-size:60px;"">+</div>","null","","fixation","","",""
"memory-trial","98","291666","0.0-18.0-1.27","5596","approach_avoid_sv1","""event"",""trial"",""time""
""fullscreenenter"",""1"",""4275""
","
","
","""event"",""trial"",""time""
""fullscreenenter"",""1"",""4275""
","
","","","","","","1183.7000000476837","images/rodent2.png","","","memory_trial","1","definitely_old",""
"html-keyboard-response","99","292173","0.0-18.0-0.28","5596","approach_avoid_sv1","""event"",""trial"",""time""
""fullscreenenter"",""1"",""4275""
","
","
","""event"",""trial"",""time""
""fullscreenenter"",""1"",""4275""
","
","","","","","","null","<div style=""font-size:60px;"">+</div>","null","","fixation","","",""
"memory-trial","100","294351","0.0-18.0-1.28","5596","approach_avoid_sv1","""event"",""trial"",""time""
""fullscreenenter"",""1"",""4275""
","
","
","""event"",""trial"",""time""
""fullscreenenter"",""1"",""4275""
","
","","","","","","1160","images/boat4.png","","","memory_trial","3","maybe_new",""
"html-keyboard-response","101","294861","0.0-18.0-0.29","5596","approach_avoid_sv1","""event"",""trial"",""time""
""fullscreenenter"",""1"",""4275""
","
","
","""event"",""trial"",""time""
""fullscreenenter"",""1"",""4275""
","
","","","","","","null","<div style=""font-size:60px;"">+</div>","null","","fixation","","",""
"memory-trial","102","297039","0.0-18.0-1.29","5596","approach_avoid_sv1","""event"",""trial"",""time""
""fullscreenenter"",""1"",""4275""
","
","
","""event"",""trial"",""time""
""fullscreenenter"",""1"",""4275""
","
","","","","","","1161.3000001907349","images/apple4.png","","","memory_trial","4","definitely_new",""
"html-keyboard-response","103","297548","0.0-18.0-0.30","5596","approach_avoid_sv1","""event"",""trial"",""time""
""fullscreenenter"",""1"",""4275""
","
","
","""event"",""trial"",""time""
""fullscreenenter"",""1"",""4275""
","
","","","","","","null","<div style=""font-size:60px;"">+</div>","null","","fixation","","",""
"memory-trial","104","299202","0.0-18.0-1.30","5596","approach_avoid_sv1","""event"",""trial"",""time""
""fullscreenenter"",""1"",""4275""
","
","
","""event"",""trial"",""time""
""fullscreenenter"",""1"",""4275""
","
","","","","","","645.6000001430511","images/flower2.png","","","memory_trial","4","definitely_new",""
"html-keyboard-response","105","299711","0.0-18.0-0.31","5596","approach_avoid_sv1","""event"",""trial"",""time""
""fullscreenenter"",""1"",""4275""
","
","
","""event"",""trial"",""time""
""fullscreenenter"",""1"",""4275""
","
","","","","","","null","<div style=""font-size:60px;"">+</div>","null","","fixation","","",""
"memory-trial","106","301786","0.0-18.0-1.31","5596","approach_avoid_sv1","""event"",""trial"",""time""
""fullscreenenter"",""1"",""4275""
","
","
","""event"",""trial"",""time""
""fullscreenenter"",""1"",""4275""
","
","","","","","","1064.5","images/table7.png","","","memory_trial","4","definitely_new",""
"html-keyboard-response","107","302295","0.0-18.0-0.32","5596","approach_avoid_sv1","""event"",""trial"",""time""
""fullscreenenter"",""1"",""4275""
","
","
","""event"",""trial"",""time""
""fullscreenenter"",""1"",""4275""
","
","","","","","","null","<div style=""font-size:60px;"">+</div>","null","","fixation","","",""
"memory-trial","108","303965","0.0-18.0-1.32","5596","approach_avoid_sv1","""event"",""trial"",""time""
""fullscreenenter"",""1"",""4275""
","
","
","""event"",""trial"",""time""
""fullscreenenter"",""1"",""4275""
","
","","","","","","660.7999999523163","images/plane6.png","","","memory_trial","4","definitely_new",""
"html-keyboard-response","109","304485","0.0-18.0-0.33","5596","approach_avoid_sv1","""event"",""trial"",""time""
""fullscreenenter"",""1"",""4275""
","
","
","""event"",""trial"",""time""
""fullscreenenter"",""1"",""4275""
","
","","","","","","null","<div style=""font-size:60px;"">+</div>","null","","fixation","","",""
"memory-trial","110","306572","0.0-18.0-1.33","5596","approach_avoid_sv1","""event"",""trial"",""time""
""fullscreenenter"",""1"",""4275""
","
","
","""event"",""trial"",""time""
""fullscreenenter"",""1"",""4275""
","
","","","","","","1074.5999999046326","images/cat2.png","","","memory_trial","4","definitely_new",""
"html-keyboard-response","111","307087","0.0-18.0-0.34","5596","approach_avoid_sv1","""event"",""trial"",""time""
""fullscreenenter"",""1"",""4275""
","
","
","""event"",""trial"",""time""
""fullscreenenter"",""1"",""4275""
","
","","","","","","null","<div style=""font-size:60px;"">+</div>","null","","fixation","","",""
"memory-trial","112","309459","0.0-18.0-1.34","5596","approach_avoid_sv1","""event"",""trial"",""time""
""fullscreenenter"",""1"",""4275""
","
","
","""event"",""trial"",""time""
""fullscreenenter"",""1"",""4275""
","
","","","","","","1361.3999998569489","images/apple8.png","","","memory_trial","3","maybe_new",""
"html-keyboard-response","113","309974","0.0-18.0-0.35","5596","approach_avoid_sv1","""event"",""trial"",""time""
""fullscreenenter"",""1"",""4275""
","
","
","""event"",""trial"",""time""
""fullscreenenter"",""1"",""4275""
","
","","","","","","null","<div style=""font-size:60px;"">+</div>","null","","fixation","","",""
"memory-trial","114","312319","0.0-18.0-1.35","5596","approach_avoid_sv1","""event"",""trial"",""time""
""fullscreenenter"",""1"",""4275""
","
","
","""event"",""trial"",""time""
""fullscreenenter"",""1"",""4275""
","
","","","","","","1334.8999998569489","images/orange4.png","","","memory_trial","1","definitely_old",""
"html-keyboard-response","115","312831","0.0-18.0-0.36","5596","approach_avoid_sv1","""event"",""trial"",""time""
""fullscreenenter"",""1"",""4275""
","
","
","""event"",""trial"",""time""
""fullscreenenter"",""1"",""4275""
","
","","","","","","null","<div style=""font-size:60px;"">+</div>","null","","fixation","","",""
"memory-trial","116","314908","0.0-18.0-1.36","5596","approach_avoid_sv1","""event"",""trial"",""time""
""fullscreenenter"",""1"",""4275""
","
","
","""event"",""trial"",""time""
""fullscreenenter"",""1"",""4275""
","
","","","","","","1055.2000000476837","images/apple2.png","","","memory_trial","4","definitely_new",""
"html-keyboard-response","117","315423","0.0-18.0-0.37","5596","approach_avoid_sv1","""event"",""trial"",""time""
""fullscreenenter"",""1"",""4275""
","
","
","""event"",""trial"",""time""
""fullscreenenter"",""1"",""4275""
","
","","","","","","null","<div style=""font-size:60px;"">+</div>","null","","fixation","","",""
"memory-trial","118","317193","0.0-18.0-1.37","5596","approach_avoid_sv1","""event"",""trial"",""time""
""fullscreenenter"",""1"",""4275""
","
","
","""event"",""trial"",""time""
""fullscreenenter"",""1"",""4275""
","
","","","","","","762.5","images/table2.png","","","memory_trial","4","definitely_new",""
"html-keyboard-response","119","317700","0.0-18.0-0.38","5596","approach_avoid_sv1","""event"",""trial"",""time""
""fullscreenenter"",""1"",""4275""
","
","
","""event"",""trial"",""time""
""fullscreenenter"",""1"",""4275""
","
","","","","","","null","<div style=""font-size:60px;"">+</div>","null","","fixation","","",""
"memory-trial","120","321389","0.0-18.0-1.38","5596","approach_avoid_sv1","""event"",""trial"",""time""
""fullscreenenter"",""1"",""4275""
","
","
","""event"",""trial"",""time""
""fullscreenenter"",""1"",""4275""
","
","","","","","","2676.9000000953674","images/horse5.png","","","memory_trial","3","maybe_new",""
"html-keyboard-response","121","321902","0.0-18.0-0.39","5596","approach_avoid_sv1","""event"",""trial"",""time""
""fullscreenenter"",""1"",""4275""
","
","
","""event"",""trial"",""time""
""fullscreenenter"",""1"",""4275""
","
","","","","","","null","<div style=""font-size:60px;"">+</div>","null","","fixation","","",""
"memory-trial","122","324076","0.0-18.0-1.39","5596","approach_avoid_sv1","""event"",""trial"",""time""
""fullscreenenter"",""1"",""4275""
","
","
","""event"",""trial"",""time""
""fullscreenenter"",""1"",""4275""
","
","","","","","","1162.1000001430511","images/cow8.png","","","memory_trial","1","definitely_old",""
"html-keyboard-response","123","324584","0.0-18.0-0.40","5596","approach_avoid_sv1","""event"",""trial"",""time""
""fullscreenenter"",""1"",""4275""
","
","
","""event"",""trial"",""time""
""fullscreenenter"",""1"",""4275""
","
","","","","","","null","<div style=""font-size:60px;"">+</div>","null","","fixation","","",""
"memory-trial","124","328061","0.0-18.0-1.40","5596","approach_avoid_sv1","""event"",""trial"",""time""
""fullscreenenter"",""1"",""4275""
","
","
","""event"",""trial"",""time""
""fullscreenenter"",""1"",""4275""
","
","","","","","","2460.800000190735","images/apple6.png","","","memory_trial","4","definitely_new",""
"html-keyboard-response","125","328570","0.0-18.0-0.41","5596","approach_avoid_sv1","""event"",""trial"",""time""
""fullscreenenter"",""1"",""4275""
","
","
","""event"",""trial"",""time""
""fullscreenenter"",""1"",""4275""
","
","","","","","","null","<div style=""font-size:60px;"">+</div>","null","","fixation","","",""
"memory-trial","126","330471","0.0-18.0-1.41","5596","approach_avoid_sv1","""event"",""trial"",""time""
""fullscreenenter"",""1"",""4275""
","
","
","""event"",""trial"",""time""
""fullscreenenter"",""1"",""4275""
","
","","","","","","889","images/cat5.png","","","memory_trial","4","definitely_new",""
"html-button-response","127","333483","0.0-18.0-2.41-0.41","5596","approach_avoid_sv1","""event"",""trial"",""time""
""fullscreenenter"",""1"",""4275""
","
","
","""event"",""trial"",""time""
""fullscreenenter"",""1"",""4275""
","
","","","","","","3009.600000143051","<p> Take a break! </p><p> Click the button to continue. </p>","0","","break","","",""
"html-keyboard-response","128","334001","0.0-18.0-0.42","5596","approach_avoid_sv1","""event"",""trial"",""time""
""fullscreenenter"",""1"",""4275""
","
","
","""event"",""trial"",""time""
""fullscreenenter"",""1"",""4275""
","
","","","","","","null","<div style=""font-size:60px;"">+</div>","null","","fixation","","",""
"memory-trial","129","335924","0.0-18.0-1.42","5596","approach_avoid_sv1","""event"",""trial"",""time""
""fullscreenenter"",""1"",""4275""
","
","
","""event"",""trial"",""time""
""fullscreenenter"",""1"",""4275""
","
","","","","","","909.0999999046326","images/plane1.png","","","memory_trial","4","definitely_new",""
"html-keyboard-response","130","336434","0.0-18.0-0.43","5596","approach_avoid_sv1","""event"",""trial"",""time""
""fullscreenenter"",""1"",""4275""
","
","
","""event"",""trial"",""time""
""fullscreenenter"",""1"",""4275""
","
","","","","","","null","<div style=""font-size:60px;"">+</div>","null","","fixation","","",""
"memory-trial","131","339608","0.0-18.0-1.43","5596","approach_avoid_sv1","""event"",""trial"",""time""
""fullscreenenter"",""1"",""4275""
","
","
","""event"",""trial"",""time""
""fullscreenenter"",""1"",""4275""
","
","","","","","","2155.5","images/cow4.png","","","memory_trial","3","maybe_new",""
"html-keyboard-response","132","340121","0.0-18.0-0.44","5596","approach_avoid_sv1","""event"",""trial"",""time""
""fullscreenenter"",""1"",""4275""
","
","
","""event"",""trial"",""time""
""fullscreenenter"",""1"",""4275""
","
","","","","","","null","<div style=""font-size:60px;"">+</div>","null","","fixation","","",""
"memory-trial","133","344473","0.0-18.0-1.44","5596","approach_avoid_sv1","""event"",""trial"",""time""
""fullscreenenter"",""1"",""4275""
","
","
","""event"",""trial"",""time""
""fullscreenenter"",""1"",""4275""
","
","","","","","","3338.9000000953674","images/truck2.png","","","memory_trial","2","maybe_old",""
"html-keyboard-response","134","344976","0.0-18.0-0.45","5596","approach_avoid_sv1","""event"",""trial"",""time""
""fullscreenenter"",""1"",""4275""
","
","
","""event"",""trial"",""time""
""fullscreenenter"",""1"",""4275""
","
","","","","","","null","<div style=""font-size:60px;"">+</div>","null","","fixation","","",""
"memory-trial","135","347474","0.0-18.0-1.45","5596","approach_avoid_sv1","""event"",""trial"",""time""
""fullscreenenter"",""1"",""4275""
","
","
","""event"",""trial"",""time""
""fullscreenenter"",""1"",""4275""
","
","","","","","","1490.5","images/dog4.png","","","memory_trial","1","definitely_old",""
"html-keyboard-response","136","347989","0.0-18.0-0.46","5596","approach_avoid_sv1","""event"",""trial"",""time""
""fullscreenenter"",""1"",""4275""
","
","
","""event"",""trial"",""time""
""fullscreenenter"",""1"",""4275""
","
","","","","","","null","<div style=""font-size:60px;"">+</div>","null","","fixation","","",""
"memory-trial","137","351789","0.0-18.0-1.46","5596","approach_avoid_sv1","""event"",""trial"",""time""
""fullscreenenter"",""1"",""4275""
","
","
","""event"",""trial"",""time""
""fullscreenenter"",""1"",""4275""
","
","","","","","","2788.800000190735","images/plane8.png","","","memory_trial","3","maybe_new",""
"html-keyboard-response","138","352302","0.0-18.0-0.47","5596","approach_avoid_sv1","""event"",""trial"",""time""
""fullscreenenter"",""1"",""4275""
","
","
","""event"",""trial"",""time""
""fullscreenenter"",""1"",""4275""
","
","","","","","","null","<div style=""font-size:60px;"">+</div>","null","","fixation","","",""
"memory-trial","139","353992","0.0-18.0-1.47","5596","approach_avoid_sv1","""event"",""trial"",""time""
""fullscreenenter"",""1"",""4275""
","
","
","""event"",""trial"",""time""
""fullscreenenter"",""1"",""4275""
","
","","","","","","678.2999999523163","images/train8.png","","","memory_trial","3","maybe_new",""
"html-keyboard-response","140","354501","0.0-18.0-0.48","5596","approach_avoid_sv1","""event"",""trial"",""time""
""fullscreenenter"",""1"",""4275""
","
","
","""event"",""trial"",""time""
""fullscreenenter"",""1"",""4275""
","
","","","","","","null","<div style=""font-size:60px;"">+</div>","null","","fixation","","",""
"memory-trial","141","357192","0.0-18.0-1.48","5596","approach_avoid_sv1","""event"",""trial"",""time""
""fullscreenenter"",""1"",""4275""
","
","
","""event"",""trial"",""time""
""fullscreenenter"",""1"",""4275""
","
","","","","","","1675.3999998569489","images/goat1.png","","","memory_trial","1","definitely_old",""
"html-keyboard-response","142","357701","0.0-18.0-0.49","5596","approach_avoid_sv1","""event"",""trial"",""time""
""fullscreenenter"",""1"",""4275""
","
","
","""event"",""trial"",""time""
""fullscreenenter"",""1"",""4275""
","
","","","","","","null","<div style=""font-size:60px;"">+</div>","null","","fixation","","",""
"memory-trial","143","359722","0.0-18.0-1.49","5596","approach_avoid_sv1","""event"",""trial"",""time""
""fullscreenenter"",""1"",""4275""
","
","
","""event"",""trial"",""time""
""fullscreenenter"",""1"",""4275""
","
","","","","","","1012.5999999046326","images/bed7.png","","","memory_trial","1","definitely_old",""
"html-keyboard-response","144","360224","0.0-18.0-0.50","5596","approach_avoid_sv1","""event"",""trial"",""time""
""fullscreenenter"",""1"",""4275""
","
","
","""event"",""trial"",""time""
""fullscreenenter"",""1"",""4275""
","
","","","","","","null","<div style=""font-size:60px;"">+</div>","null","","fixation","","",""
"memory-trial","145","362571","0.0-18.0-1.50","5596","approach_avoid_sv1","""event"",""trial"",""time""
""fullscreenenter"",""1"",""4275""
","
","
","""event"",""trial"",""time""
""fullscreenenter"",""1"",""4275""
","
","","","","","","1334.7999999523163","images/bed2.png","","","memory_trial","1","definitely_old",""
"html-keyboard-response","146","363080","0.0-18.0-0.51","5596","approach_avoid_sv1","""event"",""trial"",""time""
""fullscreenenter"",""1"",""4275""
","
","
","""event"",""trial"",""time""
""fullscreenenter"",""1"",""4275""
","
","","","","","","null","<div style=""font-size:60px;"">+</div>","null","","fixation","","",""
"memory-trial","147","367446","0.0-18.0-1.51","5596","approach_avoid_sv1","""event"",""trial"",""time""
""fullscreenenter"",""1"",""4275""
","
","
","""event"",""trial"",""time""
""fullscreenenter"",""1"",""4275""
","
","","","","","","3353.5999999046326","images/apple5.png","","","memory_trial","3","maybe_new",""
"html-keyboard-response","148","367959","0.0-18.0-0.52","5596","approach_avoid_sv1","""event"",""trial"",""time""
""fullscreenenter"",""1"",""4275""
","
","
","""event"",""trial"",""time""
""fullscreenenter"",""1"",""4275""
","
","","","","","","null","<div style=""font-size:60px;"">+</div>","null","","fixation","","",""
"memory-trial","149","370078","0.0-18.0-1.52","5596","approach_avoid_sv1","""event"",""trial"",""time""
""fullscreenenter"",""1"",""4275""
","
","
","""event"",""trial"",""time""
""fullscreenenter"",""1"",""4275""
","
","","","","","","1102.1000001430511","images/sofa8.png","","","memory_trial","4","definitely_new",""
"html-keyboard-response","150","370596","0.0-18.0-0.53","5596","approach_avoid_sv1","""event"",""trial"",""time""
""fullscreenenter"",""1"",""4275""
","
","
","""event"",""trial"",""time""
""fullscreenenter"",""1"",""4275""
","
","","","","","","null","<div style=""font-size:60px;"">+</div>","null","","fixation","","",""
"memory-trial","151","372738","0.0-18.0-1.53","5596","approach_avoid_sv1","""event"",""trial"",""time""
""fullscreenenter"",""1"",""4275""
","
","
","""event"",""trial"",""time""
""fullscreenenter"",""1"",""4275""
","
","","","","","","1128.6000001430511","images/cactus5.png","","","memory_trial","4","definitely_new",""
"html-keyboard-response","152","373243","0.0-18.0-0.54","5596","approach_avoid_sv1","""event"",""trial"",""time""
""fullscreenenter"",""1"",""4275""
","
","
","""event"",""trial"",""time""
""fullscreenenter"",""1"",""4275""
","
","","","","","","null","<div style=""font-size:60px;"">+</div>","null","","fixation","","",""
"memory-trial","153","376221","0.0-18.0-1.54","5596","approach_avoid_sv1","""event"",""trial"",""time""
""fullscreenenter"",""1"",""4275""
","
","
","""event"",""trial"",""time""
""fullscreenenter"",""1"",""4275""
","
","","","","","","1961.7999999523163","images/orange3.png","","","memory_trial","3","maybe_new",""
"html-keyboard-response","154","376737","0.0-18.0-0.55","5596","approach_avoid_sv1","""event"",""trial"",""time""
""fullscreenenter"",""1"",""4275""
","
","
","""event"",""trial"",""time""
""fullscreenenter"",""1"",""4275""
","
","","","","","","null","<div style=""font-size:60px;"">+</div>","null","","fixation","","",""
"memory-trial","155","378435","0.0-18.0-1.55","5596","approach_avoid_sv1","""event"",""trial"",""time""
""fullscreenenter"",""1"",""4275""
","
","
","""event"",""trial"",""time""
""fullscreenenter"",""1"",""4275""
","
","","","","","","686.7000000476837","images/cactus4.png","","","memory_trial","3","maybe_new",""
"html-keyboard-response","156","378938","0.0-18.0-0.56","5596","approach_avoid_sv1","""event"",""trial"",""time""
""fullscreenenter"",""1"",""4275""
","
","
","""event"",""trial"",""time""
""fullscreenenter"",""1"",""4275""
","
","","","","","","null","<div style=""font-size:60px;"">+</div>","null","","fixation","","",""
"memory-trial","157","380885","0.0-18.0-1.56","5596","approach_avoid_sv1","""event"",""trial"",""time""
""fullscreenenter"",""1"",""4275""
","
","
","""event"",""trial"",""time""
""fullscreenenter"",""1"",""4275""
","
","","","","","","931.8999998569489","images/banana7.png","","","memory_trial","3","maybe_new",""
"html-keyboard-response","158","381395","0.0-18.0-0.57","5596","approach_avoid_sv1","""event"",""trial"",""time""
""fullscreenenter"",""1"",""4275""
","
","
","""event"",""trial"",""time""
""fullscreenenter"",""1"",""4275""
","
","","","","","","null","<div style=""font-size:60px;"">+</div>","null","","fixation","","",""
"memory-trial","159","384434","0.0-18.0-1.57","5596","approach_avoid_sv1","""event"",""trial"",""time""
""fullscreenenter"",""1"",""4275""
","
","
","""event"",""trial"",""time""
""fullscreenenter"",""1"",""4275""
","
","","","","","","2026.0999999046326","images/goat2.png","","","memory_trial","2","maybe_old",""
"html-keyboard-response","160","384941","0.0-18.0-0.58","5596","approach_avoid_sv1","""event"",""trial"",""time""
""fullscreenenter"",""1"",""4275""
","
","
","""event"",""trial"",""time""
""fullscreenenter"",""1"",""4275""
","
","","","","","","null","<div style=""font-size:60px;"">+</div>","null","","fixation","","",""
"memory-trial","161","388172","0.0-18.0-1.58","5596","approach_avoid_sv1","""event"",""trial"",""time""
""fullscreenenter"",""1"",""4275""
","
","
","""event"",""trial"",""time""
""fullscreenenter"",""1"",""4275""
","
","","","","","","2219.600000143051","images/boat5.png","","","memory_trial","3","maybe_new",""
"html-keyboard-response","162","388685","0.0-18.0-0.59","5596","approach_avoid_sv1","""event"",""trial"",""time""
""fullscreenenter"",""1"",""4275""
","
","
","""event"",""trial"",""time""
""fullscreenenter"",""1"",""4275""
","
","","","","","","null","<div style=""font-size:60px;"">+</div>","null","","fixation","","",""
"memory-trial","163","390523","0.0-18.0-1.59","5596","approach_avoid_sv1","""event"",""trial"",""time""
""fullscreenenter"",""1"",""4275""
","
","
","""event"",""trial"",""time""
""fullscreenenter"",""1"",""4275""
","
","","","","","","830.6000001430511","images/table8.png","","","memory_trial","4","definitely_new",""
"html-keyboard-response","164","391030","0.0-18.0-0.60","5596","approach_avoid_sv1","""event"",""trial"",""time""
""fullscreenenter"",""1"",""4275""
","
","
","""event"",""trial"",""time""
""fullscreenenter"",""1"",""4275""
","
","","","","","","null","<div style=""font-size:60px;"">+</div>","null","","fixation","","",""
"memory-trial","165","392990","0.0-18.0-1.60","5596","approach_avoid_sv1","""event"",""trial"",""time""
""fullscreenenter"",""1"",""4275""
","
","
","""event"",""trial"",""time""
""fullscreenenter"",""1"",""4275""
","
","","","","","","945.8000001907349","images/cactus3.png","","","memory_trial","4","definitely_new",""
"html-keyboard-response","166","393499","0.0-18.0-0.61","5596","approach_avoid_sv1","""event"",""trial"",""time""
""fullscreenenter"",""1"",""4275""
","
","
","""event"",""trial"",""time""
""fullscreenenter"",""1"",""4275""
","
","","","","","","null","<div style=""font-size:60px;"">+</div>","null","","fixation","","",""
"memory-trial","167","396645","0.0-18.0-1.61","5596","approach_avoid_sv1","""event"",""trial"",""time""
""fullscreenenter"",""1"",""4275""
","
","
","""event"",""trial"",""time""
""fullscreenenter"",""1"",""4275""
","
","","","","","","2134","images/bush2.png","","","memory_trial","2","maybe_old",""
"html-keyboard-response","168","397155","0.0-18.0-0.62","5596","approach_avoid_sv1","""event"",""trial"",""time""
""fullscreenenter"",""1"",""4275""
","
","
","""event"",""trial"",""time""
""fullscreenenter"",""1"",""4275""
","
","","","","","","null","<div style=""font-size:60px;"">+</div>","null","","fixation","","",""
"memory-trial","169","399709","0.0-18.0-1.62","5596","approach_avoid_sv1","""event"",""trial"",""time""
""fullscreenenter"",""1"",""4275""
","
","
","""event"",""trial"",""time""
""fullscreenenter"",""1"",""4275""
","
","","","","","","1545.7999999523163","images/banana5.png","","","memory_trial","4","definitely_new",""
"html-keyboard-response","170","400223","0.0-18.0-0.63","5596","approach_avoid_sv1","""event"",""trial"",""time""
""fullscreenenter"",""1"",""4275""
","
","
","""event"",""trial"",""time""
""fullscreenenter"",""1"",""4275""
","
","","","","","","null","<div style=""font-size:60px;"">+</div>","null","","fixation","","",""
"memory-trial","171","402207","0.0-18.0-1.63","5596","approach_avoid_sv1","""event"",""trial"",""time""
""fullscreenenter"",""1"",""4275""
","
","
","""event"",""trial"",""time""
""fullscreenenter"",""1"",""4275""
","
","","","","","","967.7000000476837","images/chair3.png","","","memory_trial","4","definitely_new",""
"html-keyboard-response","172","402720","0.0-18.0-0.64","5596","approach_avoid_sv1","""event"",""trial"",""time""
""fullscreenenter"",""1"",""4275""
","
","
","""event"",""trial"",""time""
""fullscreenenter"",""1"",""4275""
","
","","","","","","null","<div style=""font-size:60px;"">+</div>","null","","fixation","","",""
"memory-trial","173","404705","0.0-18.0-1.64","5596","approach_avoid_sv1","""event"",""trial"",""time""
""fullscreenenter"",""1"",""4275""
","
","
","""event"",""trial"",""time""
""fullscreenenter"",""1"",""4275""
","
","","","","","","972.8000001907349","images/sofa4.png","","","memory_trial","4","definitely_new",""
"html-keyboard-response","174","405213","0.0-18.0-0.65","5596","approach_avoid_sv1","""event"",""trial"",""time""
""fullscreenenter"",""1"",""4275""
","
","
","""event"",""trial"",""time""
""fullscreenenter"",""1"",""4275""
","
","","","","","","null","<div style=""font-size:60px;"">+</div>","null","","fixation","","",""
"memory-trial","175","407320","0.0-18.0-1.65","5596","approach_avoid_sv1","""event"",""trial"",""time""
""fullscreenenter"",""1"",""4275""
","
","
","""event"",""trial"",""time""
""fullscreenenter"",""1"",""4275""
","
","","","","","","1089","images/horse7.png","","","memory_trial","4","definitely_new",""
"html-keyboard-response","176","407829","0.0-18.0-0.66","5596","approach_avoid_sv1","""event"",""trial"",""time""
""fullscreenenter"",""1"",""4275""
","
","
","""event"",""trial"",""time""
""fullscreenenter"",""1"",""4275""
","
","","","","","","null","<div style=""font-size:60px;"">+</div>","null","","fixation","","",""
"memory-trial","177","409486","0.0-18.0-1.66","5596","approach_avoid_sv1","""event"",""trial"",""time""
""fullscreenenter"",""1"",""4275""
","
","
","""event"",""trial"",""time""
""fullscreenenter"",""1"",""4275""
","
","","","","","","643.9000000953674","images/table5.png","","","memory_trial","4","definitely_new",""
"html-keyboard-response","178","409999","0.0-18.0-0.67","5596","approach_avoid_sv1","""event"",""trial"",""time""
""fullscreenenter"",""1"",""4275""
","
","
","""event"",""trial"",""time""
""fullscreenenter"",""1"",""4275""
","
","","","","","","null","<div style=""font-size:60px;"">+</div>","null","","fixation","","",""
"memory-trial","179","411660","0.0-18.0-1.67","5596","approach_avoid_sv1","""event"",""trial"",""time""
""fullscreenenter"",""1"",""4275""
","
","
","""event"",""trial"",""time""
""fullscreenenter"",""1"",""4275""
","
","","","","","","653.3999998569489","images/boat7.png","","","memory_trial","4","definitely_new",""
"html-keyboard-response","180","412172","0.0-18.0-0.68","5596","approach_avoid_sv1","""event"",""trial"",""time""
""fullscreenenter"",""1"",""4275""
","
","
","""event"",""trial"",""time""
""fullscreenenter"",""1"",""4275""
","
","","","","","","null","<div style=""font-size:60px;"">+</div>","null","","fixation","","",""
"memory-trial","181","413874","0.0-18.0-1.68","5596","approach_avoid_sv1","""event"",""trial"",""time""
""fullscreenenter"",""1"",""4275""
","
","
","""event"",""trial"",""time""
""fullscreenenter"",""1"",""4275""
","
","","","","","","695.9000000953674","images/flower6.png","","","memory_trial","4","definitely_new",""
"html-keyboard-response","182","414382","0.0-18.0-0.69","5596","approach_avoid_sv1","""event"",""trial"",""time""
""fullscreenenter"",""1"",""4275""
","
","
","""event"",""trial"",""time""
""fullscreenenter"",""1"",""4275""
","
","","","","","","null","<div style=""font-size:60px;"">+</div>","null","","fixation","","",""
"memory-trial","183","417490","0.0-18.0-1.69","5596","approach_avoid_sv1","""event"",""trial"",""time""
""fullscreenenter"",""1"",""4275""
","
","
","""event"",""trial"",""time""
""fullscreenenter"",""1"",""4275""
","
","","","","","","2090","images/plane5.png","","","memory_trial","3","maybe_new",""
"html-keyboard-response","184","417995","0.0-18.0-0.70","5596","approach_avoid_sv1","""event"",""trial"",""time""
""fullscreenenter"",""1"",""4275""
","
","
","""event"",""trial"",""time""
""fullscreenenter"",""1"",""4275""
","
","","","","","","null","<div style=""font-size:60px;"">+</div>","null","","fixation","","",""
"memory-trial","185","420008","0.0-18.0-1.70","5596","approach_avoid_sv1","""event"",""trial"",""time""
""fullscreenenter"",""1"",""4275""
","
","
","""event"",""trial"",""time""
""fullscreenenter"",""1"",""4275""
","
","","","","","","1004.9000000953674","images/plane7.png","","","memory_trial","3","maybe_new",""
"html-keyboard-response","186","420513","0.0-18.0-0.71","5596","approach_avoid_sv1","""event"",""trial"",""time""
""fullscreenenter"",""1"",""4275""
","
","
","""event"",""trial"",""time""
""fullscreenenter"",""1"",""4275""
","
","","","","","","null","<div style=""font-size:60px;"">+</div>","null","","fixation","","",""
"memory-trial","187","422685","0.0-18.0-1.71","5596","approach_avoid_sv1","""event"",""trial"",""time""
""fullscreenenter"",""1"",""4275""
","
","
","""event"",""trial"",""time""
""fullscreenenter"",""1"",""4275""
","
","","","","","","1151.2000000476837","images/rodent7.png","","","memory_trial","4","definitely_new",""
"html-keyboard-response","188","423195","0.0-18.0-0.72","5596","approach_avoid_sv1","""event"",""trial"",""time""
""fullscreenenter"",""1"",""4275""
","
","
","""event"",""trial"",""time""
""fullscreenenter"",""1"",""4275""
","
","","","","","","null","<div style=""font-size:60px;"">+</div>","null","","fixation","","",""
"memory-trial","189","427711","0.0-18.0-1.72","5596","approach_avoid_sv1","""event"",""trial"",""time""
""fullscreenenter"",""1"",""4275""
","
","
","""event"",""trial"",""time""
""fullscreenenter"",""1"",""4275""
","
","","","","","","3500.5","images/horse3.png","","","memory_trial","3","maybe_new",""
"html-keyboard-response","190","428222","0.0-18.0-0.73","5596","approach_avoid_sv1","""event"",""trial"",""time""
""fullscreenenter"",""1"",""4275""
","
","
","""event"",""trial"",""time""
""fullscreenenter"",""1"",""4275""
","
","","","","","","null","<div style=""font-size:60px;"">+</div>","null","","fixation","","",""
"memory-trial","191","430847","0.0-18.0-1.73","5596","approach_avoid_sv1","""event"",""trial"",""time""
""fullscreenenter"",""1"",""4275""
","
","
","""event"",""trial"",""time""
""fullscreenenter"",""1"",""4275""
","
","","","","","","1615.2999999523163","images/bush4.png","","","memory_trial","3","maybe_new",""
"html-keyboard-response","192","431364","0.0-18.0-0.74","5596","approach_avoid_sv1","""event"",""trial"",""time""
""fullscreenenter"",""1"",""4275""
","
","
","""event"",""trial"",""time""
""fullscreenenter"",""1"",""4275""
","
","","","","","","null","<div style=""font-size:60px;"">+</div>","null","","fixation","","",""
"memory-trial","193","433886","0.0-18.0-1.74","5596","approach_avoid_sv1","""event"",""trial"",""time""
""fullscreenenter"",""1"",""4275""
","
","
","""event"",""trial"",""time""
""fullscreenenter"",""1"",""4275""
","
","","","","","","1509.5","images/cat4.png","","","memory_trial","4","definitely_new",""
"html-keyboard-response","194","434400","0.0-18.0-0.75","5596","approach_avoid_sv1","""event"",""trial"",""time""
""fullscreenenter"",""1"",""4275""
","
","
","""event"",""trial"",""time""
""fullscreenenter"",""1"",""4275""
","
","","","","","","null","<div style=""font-size:60px;"">+</div>","null","","fixation","","",""
"memory-trial","195","437286","0.0-18.0-1.75","5596","approach_avoid_sv1","""event"",""trial"",""time""
""fullscreenenter"",""1"",""4275""
","
","
","""event"",""trial"",""time""
""fullscreenenter"",""1"",""4275""
","
","","","","","","1875.4000000953674","images/truck8.png","","","memory_trial","2","maybe_old",""
"html-keyboard-response","196","437803","0.0-18.0-0.76","5596","approach_avoid_sv1","""event"",""trial"",""time""
""fullscreenenter"",""1"",""4275""
","
","
","""event"",""trial"",""time""
""fullscreenenter"",""1"",""4275""
","
","","","","","","null","<div style=""font-size:60px;"">+</div>","null","","fixation","","",""
"memory-trial","197","440202","0.0-18.0-1.76","5596","approach_avoid_sv1","""event"",""trial"",""time""
""fullscreenenter"",""1"",""4275""
","
","
","""event"",""trial"",""time""
""fullscreenenter"",""1"",""4275""
","
","","","","","","1385","images/bush6.png","","","memory_trial","2","maybe_old",""
"html-keyboard-response","198","440706","0.0-18.0-0.77","5596","approach_avoid_sv1","""event"",""trial"",""time""
""fullscreenenter"",""1"",""4275""
","
","
","""event"",""trial"",""time""
""fullscreenenter"",""1"",""4275""
","
","","","","","","null","<div style=""font-size:60px;"">+</div>","null","","fixation","","",""
"memory-trial","199","443076","0.0-18.0-1.77","5596","approach_avoid_sv1","""event"",""trial"",""time""
""fullscreenenter"",""1"",""4275""
","
","
","""event"",""trial"",""time""
""fullscreenenter"",""1"",""4275""
","
","","","","","","1361.7000000476837","images/chair6.png","","","memory_trial","1","definitely_old",""
"html-keyboard-response","200","443583","0.0-18.0-0.78","5596","approach_avoid_sv1","""event"",""trial"",""time""
""fullscreenenter"",""1"",""4275""
","
","
","""event"",""trial"",""time""
""fullscreenenter"",""1"",""4275""
","
","","","","","","null","<div style=""font-size:60px;"">+</div>","null","","fixation","","",""
"memory-trial","201","445820","0.0-18.0-1.78","5596","approach_avoid_sv1","""event"",""trial"",""time""
""fullscreenenter"",""1"",""4275""
","
","
","""event"",""trial"",""time""
""fullscreenenter"",""1"",""4275""
","
","","","","","","1230.0999999046326","images/bush8.png","","","memory_trial","2","maybe_old",""
"html-keyboard-response","202","446325","0.0-18.0-0.79","5596","approach_avoid_sv1","""event"",""trial"",""time""
""fullscreenenter"",""1"",""4275""
","
","
","""event"",""trial"",""time""
""fullscreenenter"",""1"",""4275""
","
","","","","","","null","<div style=""font-size:60px;"">+</div>","null","","fixation","","",""
"memory-trial","203","448633","0.0-18.0-1.79","5596","approach_avoid_sv1","""event"",""trial"",""time""
""fullscreenenter"",""1"",""4275""
","
","
","""event"",""trial"",""time""
""fullscreenenter"",""1"",""4275""
","
","","","","","","1296","images/rabbit8.png","","","memory_trial","3","maybe_new",""
"html-keyboard-response","204","449146","0.0-18.0-0.80","5596","approach_avoid_sv1","""event"",""trial"",""time""
""fullscreenenter"",""1"",""4275""
","
","
","""event"",""trial"",""time""
""fullscreenenter"",""1"",""4275""
","
","","","","","","null","<div style=""font-size:60px;"">+</div>","null","","fixation","","",""
"memory-trial","205","451782","0.0-18.0-1.80","5596","approach_avoid_sv1","""event"",""trial"",""time""
""fullscreenenter"",""1"",""4275""
","
","
","""event"",""trial"",""time""
""fullscreenenter"",""1"",""4275""
","
","","","","","","1622","images/chair1.png","","","memory_trial","2","maybe_old",""
"html-keyboard-response","206","452291","0.0-18.0-0.81","5596","approach_avoid_sv1","""event"",""trial"",""time""
""fullscreenenter"",""1"",""4275""
","
","
","""event"",""trial"",""time""
""fullscreenenter"",""1"",""4275""
","
","","","","","","null","<div style=""font-size:60px;"">+</div>","null","","fixation","","",""
"memory-trial","207","454604","0.0-18.0-1.81","5596","approach_avoid_sv1","""event"",""trial"",""time""
""fullscreenenter"",""1"",""4275""
","
","
","""event"",""trial"",""time""
""fullscreenenter"",""1"",""4275""
","
","","","","","","1300.2999999523163","images/banana3.png","","","memory_trial","4","definitely_new",""
"html-keyboard-response","208","455107","0.0-18.0-0.82","5596","approach_avoid_sv1","""event"",""trial"",""time""
""fullscreenenter"",""1"",""4275""
","
","
","""event"",""trial"",""time""
""fullscreenenter"",""1"",""4275""
","
","","","","","","null","<div style=""font-size:60px;"">+</div>","null","","fixation","","",""
"memory-trial","209","457923","0.0-18.0-1.82","5596","approach_avoid_sv1","""event"",""trial"",""time""
""fullscreenenter"",""1"",""4275""
","
","
","""event"",""trial"",""time""
""fullscreenenter"",""1"",""4275""
","
","","","","","","1796.8000001907349","images/sofa7.png","","","memory_trial","2","maybe_old",""
"html-keyboard-response","210","458427","0.0-18.0-0.83","5596","approach_avoid_sv1","""event"",""trial"",""time""
""fullscreenenter"",""1"",""4275""
","
","
","""event"",""trial"",""time""
""fullscreenenter"",""1"",""4275""
","
","","","","","","null","<div style=""font-size:60px;"">+</div>","null","","fixation","","",""
"memory-trial","211","460414","0.0-18.0-1.83","5596","approach_avoid_sv1","""event"",""trial"",""time""
""fullscreenenter"",""1"",""4275""
","
","
","""event"",""trial"",""time""
""fullscreenenter"",""1"",""4275""
","
","","","","","","972","images/bed4.png","","","memory_trial","1","definitely_old",""
"html-keyboard-response","212","460925","0.0-18.0-0.84","5596","approach_avoid_sv1","""event"",""trial"",""time""
""fullscreenenter"",""1"",""4275""
","
","
","""event"",""trial"",""time""
""fullscreenenter"",""1"",""4275""
","
","","","","","","null","<div style=""font-size:60px;"">+</div>","null","","fixation","","",""
"memory-trial","213","464811","0.0-18.0-1.84","5596","approach_avoid_sv1","""event"",""trial"",""time""
""fullscreenenter"",""1"",""4275""
","
","
","""event"",""trial"",""time""
""fullscreenenter"",""1"",""4275""
","
","","","","","","2877.199999809265","images/train2.png","","","memory_trial","3","maybe_new",""
"html-keyboard-response","214","465317","0.0-18.0-0.85","5596","approach_avoid_sv1","""event"",""trial"",""time""
""fullscreenenter"",""1"",""4275""
","
","
","""event"",""trial"",""time""
""fullscreenenter"",""1"",""4275""
","
","","","","","","null","<div style=""font-size:60px;"">+</div>","null","","fixation","","",""
"memory-trial","215","467778","0.0-18.0-1.85","5596","approach_avoid_sv1","""event"",""trial"",""time""
""fullscreenenter"",""1"",""4275""
","
","
","""event"",""trial"",""time""
""fullscreenenter"",""1"",""4275""
","
","","","","","","1449.3999998569489","images/boat6.png","","","memory_trial","3","maybe_new",""
"html-keyboard-response","216","468284","0.0-18.0-0.86","5596","approach_avoid_sv1","""event"",""trial"",""time""
""fullscreenenter"",""1"",""4275""
","
","
","""event"",""trial"",""time""
""fullscreenenter"",""1"",""4275""
","
","","","","","","null","<div style=""font-size:60px;"">+</div>","null","","fixation","","",""
"memory-trial","217","471205","0.0-18.0-1.86","5596","approach_avoid_sv1","""event"",""trial"",""time""
""fullscreenenter"",""1"",""4275""
","
","
","""event"",""trial"",""time""
""fullscreenenter"",""1"",""4275""
","
","","","","","","1912.3000001907349","images/bush3.png","","","memory_trial","3","maybe_new",""
"html-keyboard-response","218","471718","0.0-18.0-0.87","5596","approach_avoid_sv1","""event"",""trial"",""time""
""fullscreenenter"",""1"",""4275""
","
","
","""event"",""trial"",""time""
""fullscreenenter"",""1"",""4275""
","
","","","","","","null","<div style=""font-size:60px;"">+</div>","null","","fixation","","",""
"memory-trial","219","473767","0.0-18.0-1.87","5596","approach_avoid_sv1","""event"",""trial"",""time""
""fullscreenenter"",""1"",""4275""
","
","
","""event"",""trial"",""time""
""fullscreenenter"",""1"",""4275""
","
","","","","","","1035.5","images/plane2.png","","","memory_trial","4","definitely_new",""
"html-keyboard-response","220","474281","0.0-18.0-0.88","5596","approach_avoid_sv1","""event"",""trial"",""time""
""fullscreenenter"",""1"",""4275""
","
","
","""event"",""trial"",""time""
""fullscreenenter"",""1"",""4275""
","
","","","","","","null","<div style=""font-size:60px;"">+</div>","null","","fixation","","",""
"memory-trial","221","476828","0.0-18.0-1.88","5596","approach_avoid_sv1","""event"",""trial"",""time""
""fullscreenenter"",""1"",""4275""
","
","
","""event"",""trial"",""time""
""fullscreenenter"",""1"",""4275""
","
","","","","","","1528.2999999523163","images/bush1.png","","","memory_trial","2","maybe_old",""
"html-keyboard-response","222","477331","0.0-18.0-0.89","5596","approach_avoid_sv1","""event"",""trial"",""time""
""fullscreenenter"",""1"",""4275""
","
","
","""event"",""trial"",""time""
""fullscreenenter"",""1"",""4275""
","
","","","","","","null","<div style=""font-size:60px;"">+</div>","null","","fixation","","",""
"memory-trial","223","479748","0.0-18.0-1.89","5596","approach_avoid_sv1","""event"",""trial"",""time""
""fullscreenenter"",""1"",""4275""
","
","
","""event"",""trial"",""time""
""fullscreenenter"",""1"",""4275""
","
","","","","","","1407.5999999046326","images/dog7.png","","","memory_trial","2","maybe_old",""
"html-keyboard-response","224","480251","0.0-18.0-0.90","5596","approach_avoid_sv1","""event"",""trial"",""time""
""fullscreenenter"",""1"",""4275""
","
","
","""event"",""trial"",""time""
""fullscreenenter"",""1"",""4275""
","
","","","","","","null","<div style=""font-size:60px;"">+</div>","null","","fixation","","",""
"memory-trial","225","482785","0.0-18.0-1.90","5596","approach_avoid_sv1","""event"",""trial"",""time""
""fullscreenenter"",""1"",""4275""
","
","
","""event"",""trial"",""time""
""fullscreenenter"",""1"",""4275""
","
","","","","","","1520.7000000476837","images/banana1.png","","","memory_trial","1","definitely_old",""
"html-keyboard-response","226","483291","0.0-18.0-0.91","5596","approach_avoid_sv1","""event"",""trial"",""time""
""fullscreenenter"",""1"",""4275""
","
","
","""event"",""trial"",""time""
""fullscreenenter"",""1"",""4275""
","
","","","","","","null","<div style=""font-size:60px;"">+</div>","null","","fixation","","",""
"memory-trial","227","485672","0.0-18.0-1.91","5596","approach_avoid_sv1","""event"",""trial"",""time""
""fullscreenenter"",""1"",""4275""
","
","
","""event"",""trial"",""time""
""fullscreenenter"",""1"",""4275""
","
","","","","","","1368","images/rodent3.png","","","memory_trial","3","maybe_new",""
"html-button-response","228","487314","0.0-18.0-2.91-0.91","5596","approach_avoid_sv1","""event"",""trial"",""time""
""fullscreenenter"",""1"",""4275""
","
","
","""event"",""trial"",""time""
""fullscreenenter"",""1"",""4275""
","
","","","","","","1639.6000001430511","<p> Take a break! </p><p> Click the button to continue. </p>","0","","break","","",""
"html-keyboard-response","229","487824","0.0-18.0-0.92","5596","approach_avoid_sv1","""event"",""trial"",""time""
""fullscreenenter"",""1"",""4275""
","
","
","""event"",""trial"",""time""
""fullscreenenter"",""1"",""4275""
","
","","","","","","null","<div style=""font-size:60px;"">+</div>","null","","fixation","","",""
"memory-trial","230","490005","0.0-18.0-1.92","5596","approach_avoid_sv1","""event"",""trial"",""time""
""fullscreenenter"",""1"",""4275""
","
","
","""event"",""trial"",""time""
""fullscreenenter"",""1"",""4275""
","
","","","","","","1175.4000000953674","images/chair4.png","","","memory_trial","4","definitely_new",""
"html-keyboard-response","231","490517","0.0-18.0-0.93","5596","approach_avoid_sv1","""event"",""trial"",""time""
""fullscreenenter"",""1"",""4275""
","
","
","""event"",""trial"",""time""
""fullscreenenter"",""1"",""4275""
","
","","","","","","null","<div style=""font-size:60px;"">+</div>","null","","fixation","","",""
"memory-trial","232","494992","0.0-18.0-1.93","5596","approach_avoid_sv1","""event"",""trial"",""time""
""fullscreenenter"",""1"",""4275""
","
","
","""event"",""trial"",""time""
""fullscreenenter"",""1"",""4275""
","
","","","","","","3459.899999856949","images/bed6.png","","","memory_trial","2","maybe_old",""
"html-keyboard-response","233","495504","0.0-18.0-0.94","5596","approach_avoid_sv1","""event"",""trial"",""time""
""fullscreenenter"",""1"",""4275""
","
","
","""event"",""trial"",""time""
""fullscreenenter"",""1"",""4275""
","
","","","","","","null","<div style=""font-size:60px;"">+</div>","null","","fixation","","",""
"memory-trial","234","500146","0.0-18.0-1.94","5596","approach_avoid_sv1","""event"",""trial"",""time""
""fullscreenenter"",""1"",""4275""
","
","
","""event"",""trial"",""time""
""fullscreenenter"",""1"",""4275""
","
","","","","","","3624.4000000953674","images/sheep6.png","","","memory_trial","2","maybe_old",""
"html-keyboard-response","235","500664","0.0-18.0-0.95","5596","approach_avoid_sv1","""event"",""trial"",""time""
""fullscreenenter"",""1"",""4275""
","
","
","""event"",""trial"",""time""
""fullscreenenter"",""1"",""4275""
","
","","","","","","null","<div style=""font-size:60px;"">+</div>","null","","fixation","","",""
"memory-trial","236","503538","0.0-18.0-1.95","5596","approach_avoid_sv1","""event"",""trial"",""time""
""fullscreenenter"",""1"",""4275""
","
","
","""event"",""trial"",""time""
""fullscreenenter"",""1"",""4275""
","
","","","","","","1859.2000000476837","images/cow5.png","","","memory_trial","3","maybe_new",""
"html-keyboard-response","237","504043","0.0-18.0-0.96","5596","approach_avoid_sv1","""event"",""trial"",""time""
""fullscreenenter"",""1"",""4275""
","
","
","""event"",""trial"",""time""
""fullscreenenter"",""1"",""4275""
","
","","","","","","null","<div style=""font-size:60px;"">+</div>","null","","fixation","","",""
"memory-trial","238","506584","0.0-18.0-1.96","5596","approach_avoid_sv1","""event"",""trial"",""time""
""fullscreenenter"",""1"",""4275""
","
","
","""event"",""trial"",""time""
""fullscreenenter"",""1"",""4275""
","
","","","","","","1529.5999999046326","images/sofa5.png","","","memory_trial","4","definitely_new",""
"html-keyboard-response","239","507099","0.0-18.0-0.97","5596","approach_avoid_sv1","""event"",""trial"",""time""
""fullscreenenter"",""1"",""4275""
","
","
","""event"",""trial"",""time""
""fullscreenenter"",""1"",""4275""
","
","","","","","","null","<div style=""font-size:60px;"">+</div>","null","","fixation","","",""
"memory-trial","240","509924","0.0-18.0-1.97","5596","approach_avoid_sv1","""event"",""trial"",""time""
""fullscreenenter"",""1"",""4275""
","
","
","""event"",""trial"",""time""
""fullscreenenter"",""1"",""4275""
","
","","","","","","1816","images/orange1.png","","","memory_trial","2","maybe_old",""
"html-keyboard-response","241","510428","0.0-18.0-0.98","5596","approach_avoid_sv1","""event"",""trial"",""time""
""fullscreenenter"",""1"",""4275""
","
","
","""event"",""trial"",""time""
""fullscreenenter"",""1"",""4275""
","
","","","","","","null","<div style=""font-size:60px;"">+</div>","null","","fixation","","",""
"memory-trial","242","514081","0.0-18.0-1.98","5596","approach_avoid_sv1","""event"",""trial"",""time""
""fullscreenenter"",""1"",""4275""
","
","
","""event"",""trial"",""time""
""fullscreenenter"",""1"",""4275""
","
","","","","","","2640.5","images/flower1.png","","","memory_trial","2","maybe_old",""
"html-keyboard-response","243","514593","0.0-18.0-0.99","5596","approach_avoid_sv1","""event"",""trial"",""time""
""fullscreenenter"",""1"",""4275""
","
","
","""event"",""trial"",""time""
""fullscreenenter"",""1"",""4275""
","
","","","","","","null","<div style=""font-size:60px;"">+</div>","null","","fixation","","",""
"memory-trial","244","517616","0.0-18.0-1.99","5596","approach_avoid_sv1","""event"",""trial"",""time""
""fullscreenenter"",""1"",""4275""
","
","
","""event"",""trial"",""time""
""fullscreenenter"",""1"",""4275""
","
","","","","","","2012.1000001430511","images/train4.png","","","memory_trial","2","maybe_old",""
"html-keyboard-response","245","518128","0.0-18.0-0.100","5596","approach_avoid_sv1","""event"",""trial"",""time""
""fullscreenenter"",""1"",""4275""
","
","
","""event"",""trial"",""time""
""fullscreenenter"",""1"",""4275""
","
","","","","","","null","<div style=""font-size:60px;"">+</div>","null","","fixation","","",""
"memory-trial","246","522242","0.0-18.0-1.100","5596","approach_avoid_sv1","""event"",""trial"",""time""
""fullscreenenter"",""1"",""4275""
","
","
","""event"",""trial"",""time""
""fullscreenenter"",""1"",""4275""
","
","","","","","","3100.5999999046326","images/straw5.png","","","memory_trial","3","maybe_new",""
"html-keyboard-response","247","522752","0.0-18.0-0.101","5596","approach_avoid_sv1","""event"",""trial"",""time""
""fullscreenenter"",""1"",""4275""
","
","
","""event"",""trial"",""time""
""fullscreenenter"",""1"",""4275""
","
","","","","","","null","<div style=""font-size:60px;"">+</div>","null","","fixation","","",""
"memory-trial","248","524690","0.0-18.0-1.101","5596","approach_avoid_sv1","""event"",""trial"",""time""
""fullscreenenter"",""1"",""4275""
","
","
","""event"",""trial"",""time""
""fullscreenenter"",""1"",""4275""
","
","","","","","","923.7999999523163","images/sheep2.png","","","memory_trial","3","maybe_new",""
"html-keyboard-response","249","525199","0.0-18.0-0.102","5596","approach_avoid_sv1","""event"",""trial"",""time""
""fullscreenenter"",""1"",""4275""
","
","
","""event"",""trial"",""time""
""fullscreenenter"",""1"",""4275""
","
","","","","","","null","<div style=""font-size:60px;"">+</div>","null","","fixation","","",""
"memory-trial","250","528222","0.0-18.0-1.102","5596","approach_avoid_sv1","""event"",""trial"",""time""
""fullscreenenter"",""1"",""4275""
","
","
","""event"",""trial"",""time""
""fullscreenenter"",""1"",""4275""
","
","","","","","","2012.1999998092651","images/truck5.png","","","memory_trial","3","maybe_new",""
"html-keyboard-response","251","528734","0.0-18.0-0.103","5596","approach_avoid_sv1","""event"",""trial"",""time""
""fullscreenenter"",""1"",""4275""
","
","
","""event"",""trial"",""time""
""fullscreenenter"",""1"",""4275""
","
","","","","","","null","<div style=""font-size:60px;"">+</div>","null","","fixation","","",""
"memory-trial","252","531009","0.0-18.0-1.103","5596","approach_avoid_sv1","""event"",""trial"",""time""
""fullscreenenter"",""1"",""4275""
","
","
","""event"",""trial"",""time""
""fullscreenenter"",""1"",""4275""
","
","","","","","","1263","images/truck7.png","","","memory_trial","2","maybe_old",""
"html-keyboard-response","253","531523","0.0-18.0-0.104","5596","approach_avoid_sv1","""event"",""trial"",""time""
""fullscreenenter"",""1"",""4275""
","
","
","""event"",""trial"",""time""
""fullscreenenter"",""1"",""4275""
","
","","","","","","null","<div style=""font-size:60px;"">+</div>","null","","fixation","","",""
"memory-trial","254","533700","0.0-18.0-1.104","5596","approach_avoid_sv1","""event"",""trial"",""time""
""fullscreenenter"",""1"",""4275""
","
","
","""event"",""trial"",""time""
""fullscreenenter"",""1"",""4275""
","
","","","","","","1164.5","images/apple1.png","","","memory_trial","4","definitely_new",""
"html-keyboard-response","255","534204","0.0-18.0-0.105","5596","approach_avoid_sv1","""event"",""trial"",""time""
""fullscreenenter"",""1"",""4275""
","
","
","""event"",""trial"",""time""
""fullscreenenter"",""1"",""4275""
","
","","","","","","null","<div style=""font-size:60px;"">+</div>","null","","fixation","","",""
"memory-trial","256","536468","0.0-18.0-1.105","5596","approach_avoid_sv1","""event"",""trial"",""time""
""fullscreenenter"",""1"",""4275""
","
","
","""event"",""trial"",""time""
""fullscreenenter"",""1"",""4275""
","
","","","","","","1243.7000000476837","images/horse8.png","","","memory_trial","4","definitely_new",""
"html-keyboard-response","257","536971","0.0-18.0-0.106","5596","approach_avoid_sv1","""event"",""trial"",""time""
""fullscreenenter"",""1"",""4275""
","
","
","""event"",""trial"",""time""
""fullscreenenter"",""1"",""4275""
","
","","","","","","null","<div style=""font-size:60px;"">+</div>","null","","fixation","","",""
"memory-trial","258","539468","0.0-18.0-1.106","5596","approach_avoid_sv1","""event"",""trial"",""time""
""fullscreenenter"",""1"",""4275""
","
","
","""event"",""trial"",""time""
""fullscreenenter"",""1"",""4275""
","
","","","","","","1492.1000001430511","images/cactus7.png","","","memory_trial","2","maybe_old",""
"html-keyboard-response","259","539971","0.0-18.0-0.107","5596","approach_avoid_sv1","""event"",""trial"",""time""
""fullscreenenter"",""1"",""4275""
","
","
","""event"",""trial"",""time""
""fullscreenenter"",""1"",""4275""
","
","","","","","","null","<div style=""font-size:60px;"">+</div>","null","","fixation","","",""
"memory-trial","260","542457","0.0-18.0-1.107","5596","approach_avoid_sv1","""event"",""trial"",""time""
""fullscreenenter"",""1"",""4275""
","
","
","""event"",""trial"",""time""
""fullscreenenter"",""1"",""4275""
","
","","","","","","1471.2000000476837","images/cow1.png","","","memory_trial","4","definitely_new",""
"html-keyboard-response","261","542966","0.0-18.0-0.108","5596","approach_avoid_sv1","""event"",""trial"",""time""
""fullscreenenter"",""1"",""4275""
","
","
","""event"",""trial"",""time""
""fullscreenenter"",""1"",""4275""
","
","","","","","","null","<div style=""font-size:60px;"">+</div>","null","","fixation","","",""
"memory-trial","262","545834","0.0-18.0-1.108","5596","approach_avoid_sv1","""event"",""trial"",""time""
""fullscreenenter"",""1"",""4275""
","
","
","""event"",""trial"",""time""
""fullscreenenter"",""1"",""4275""
","
","","","","","","1852.2000000476837","images/apple7.png","","","memory_trial","2","maybe_old",""
"html-keyboard-response","263","546340","0.0-18.0-0.109","5596","approach_avoid_sv1","""event"",""trial"",""time""
""fullscreenenter"",""1"",""4275""
","
","
","""event"",""trial"",""time""
""fullscreenenter"",""1"",""4275""
","
","","","","","","null","<div style=""font-size:60px;"">+</div>","null","","fixation","","",""
"memory-trial","264","549626","0.0-18.0-1.109","5596","approach_avoid_sv1","""event"",""trial"",""time""
""fullscreenenter"",""1"",""4275""
","
","
","""event"",""trial"",""time""
""fullscreenenter"",""1"",""4275""
","
","","","","","","2277.5","images/goat4.png","","","memory_trial","4","definitely_new",""
"html-keyboard-response","265","550134","0.0-18.0-0.110","5596","approach_avoid_sv1","""event"",""trial"",""time""
""fullscreenenter"",""1"",""4275""
","
","
","""event"",""trial"",""time""
""fullscreenenter"",""1"",""4275""
","
","","","","","","null","<div style=""font-size:60px;"">+</div>","null","","fixation","","",""
"memory-trial","266","552782","0.0-18.0-1.110","5596","approach_avoid_sv1","""event"",""trial"",""time""
""fullscreenenter"",""1"",""4275""
","
","
","""event"",""trial"",""time""
""fullscreenenter"",""1"",""4275""
","
","","","","","","1625.4000000953674","images/bed5.png","","","memory_trial","3","maybe_new",""
"html-keyboard-response","267","553292","0.0-18.0-0.111","5596","approach_avoid_sv1","""event"",""trial"",""time""
""fullscreenenter"",""1"",""4275""
","
","
","""event"",""trial"",""time""
""fullscreenenter"",""1"",""4275""
","
","","","","","","null","<div style=""font-size:60px;"">+</div>","null","","fixation","","",""
"memory-trial","268","555360","0.0-18.0-1.111","5596","approach_avoid_sv1","""event"",""trial"",""time""
""fullscreenenter"",""1"",""4275""
","
","
","""event"",""trial"",""time""
""fullscreenenter"",""1"",""4275""
","
","","","","","","1050.2000000476837","images/cat6.png","","","memory_trial","4","definitely_new",""
"html-keyboard-response","269","555874","0.0-18.0-0.112","5596","approach_avoid_sv1","""event"",""trial"",""time""
""fullscreenenter"",""1"",""4275""
","
","
","""event"",""trial"",""time""
""fullscreenenter"",""1"",""4275""
","
","","","","","","null","<div style=""font-size:60px;"">+</div>","null","","fixation","","",""
"memory-trial","270","559206","0.0-18.0-1.112","5596","approach_avoid_sv1","""event"",""trial"",""time""
""fullscreenenter"",""1"",""4275""
","
","
","""event"",""trial"",""time""
""fullscreenenter"",""1"",""4275""
","
","","","","","","2314.7999999523163","images/orange2.png","","","memory_trial","1","definitely_old",""
"html-keyboard-response","271","559715","0.0-18.0-0.113","5596","approach_avoid_sv1","""event"",""trial"",""time""
""fullscreenenter"",""1"",""4275""
","
","
","""event"",""trial"",""time""
""fullscreenenter"",""1"",""4275""
","
","","","","","","null","<div style=""font-size:60px;"">+</div>","null","","fixation","","",""
"memory-trial","272","562818","0.0-18.0-1.113","5596","approach_avoid_sv1","""event"",""trial"",""time""
""fullscreenenter"",""1"",""4275""
","
","
","""event"",""trial"",""time""
""fullscreenenter"",""1"",""4275""
","
","","","","","","2083.5","images/sheep3.png","","","memory_trial","4","definitely_new",""
"html-keyboard-response","273","563328","0.0-18.0-0.114","5596","approach_avoid_sv1","""event"",""trial"",""time""
""fullscreenenter"",""1"",""4275""
","
","
","""event"",""trial"",""time""
""fullscreenenter"",""1"",""4275""
","
","","","","","","null","<div style=""font-size:60px;"">+</div>","null","","fixation","","",""
"memory-trial","274","566246","0.0-18.0-1.114","5596","approach_avoid_sv1","""event"",""trial"",""time""
""fullscreenenter"",""1"",""4275""
","
","
","""event"",""trial"",""time""
""fullscreenenter"",""1"",""4275""
","
","","","","","","1897.2000000476837","images/bush7.png","","","memory_trial","4","definitely_new",""
"html-keyboard-response","275","566757","0.0-18.0-0.115","5596","approach_avoid_sv1","""event"",""trial"",""time""
""fullscreenenter"",""1"",""4275""
","
","
","""event"",""trial"",""time""
""fullscreenenter"",""1"",""4275""
","
","","","","","","null","<div style=""font-size:60px;"">+</div>","null","","fixation","","",""
"memory-trial","276","571518","0.0-18.0-1.115","5596","approach_avoid_sv1","""event"",""trial"",""time""
""fullscreenenter"",""1"",""4275""
","
","
","""event"",""trial"",""time""
""fullscreenenter"",""1"",""4275""
","
","","","","","","3741.7999999523163","images/rodent4.png","","","memory_trial","2","maybe_old",""
"html-keyboard-response","277","572031","0.0-18.0-0.116","5596","approach_avoid_sv1","""event"",""trial"",""time""
""fullscreenenter"",""1"",""4275""
","
","
","""event"",""trial"",""time""
""fullscreenenter"",""1"",""4275""
","
","","","","","","null","<div style=""font-size:60px;"">+</div>","null","","fixation","","",""
"memory-trial","278","574033","0.0-18.0-1.116","5596","approach_avoid_sv1","""event"",""trial"",""time""
""fullscreenenter"",""1"",""4275""
","
","
","""event"",""trial"",""time""
""fullscreenenter"",""1"",""4275""
","
","","","","","","995.2000000476837","images/straw8.png","","","memory_trial","1","definitely_old",""
"html-keyboard-response","279","574544","0.0-18.0-0.117","5596","approach_avoid_sv1","""event"",""trial"",""time""
""fullscreenenter"",""1"",""4275""
","
","
","""event"",""trial"",""time""
""fullscreenenter"",""1"",""4275""
","
","","","","","","null","<div style=""font-size:60px;"">+</div>","null","","fixation","","",""
"memory-trial","280","577130","0.0-18.0-1.117","5596","approach_avoid_sv1","""event"",""trial"",""time""
""fullscreenenter"",""1"",""4275""
","
","
","""event"",""trial"",""time""
""fullscreenenter"",""1"",""4275""
","
","","","","","","1573.5","images/tree6.png","","","memory_trial","1","definitely_old",""
"html-keyboard-response","281","577639","0.0-18.0-0.118","5596","approach_avoid_sv1","""event"",""trial"",""time""
""fullscreenenter"",""1"",""4275""
","
","
","""event"",""trial"",""time""
""fullscreenenter"",""1"",""4275""
","
","","","","","","null","<div style=""font-size:60px;"">+</div>","null","","fixation","","",""
"memory-trial","282","580295","0.0-18.0-1.118","5596","approach_avoid_sv1","""event"",""trial"",""time""
""fullscreenenter"",""1"",""4275""
","
","
","""event"",""trial"",""time""
""fullscreenenter"",""1"",""4275""
","
","","","","","","1635.7999999523163","images/bed3.png","","","memory_trial","3","maybe_new",""
"html-keyboard-response","283","580814","0.0-18.0-0.119","5596","approach_avoid_sv1","""event"",""trial"",""time""
""fullscreenenter"",""1"",""4275""
","
","
","""event"",""trial"",""time""
""fullscreenenter"",""1"",""4275""
","
","","","","","","null","<div style=""font-size:60px;"">+</div>","null","","fixation","","",""
"memory-trial","284","583456","0.0-18.0-1.119","5596","approach_avoid_sv1","""event"",""trial"",""time""
""fullscreenenter"",""1"",""4275""
","
","
","""event"",""trial"",""time""
""fullscreenenter"",""1"",""4275""
","
","","","","","","1627.7999999523163","images/bed1.png","","","memory_trial","2","maybe_old",""
"html-keyboard-response","285","583971","0.0-18.0-0.120","5596","approach_avoid_sv1","""event"",""trial"",""time""
""fullscreenenter"",""1"",""4275""
","
","
","""event"",""trial"",""time""
""fullscreenenter"",""1"",""4275""
","
","","","","","","null","<div style=""font-size:60px;"">+</div>","null","","fixation","","",""
"memory-trial","286","586586","0.0-18.0-1.120","5596","approach_avoid_sv1","""event"",""trial"",""time""
""fullscreenenter"",""1"",""4275""
","
","
","""event"",""trial"",""time""
""fullscreenenter"",""1"",""4275""
","
","","","","","","1599.8999998569489","images/goat6.png","","","memory_trial","3","maybe_new",""
"html-keyboard-response","287","587091","0.0-18.0-0.121","5596","approach_avoid_sv1","""event"",""trial"",""time""
""fullscreenenter"",""1"",""4275""
","
","
","""event"",""trial"",""time""
""fullscreenenter"",""1"",""4275""
","
","","","","","","null","<div style=""font-size:60px;"">+</div>","null","","fixation","","",""
"memory-trial","288","589032","0.0-18.0-1.121","5596","approach_avoid_sv1","""event"",""trial"",""time""
""fullscreenenter"",""1"",""4275""
","
","
","""event"",""trial"",""time""
""fullscreenenter"",""1"",""4275""
","
","","","","","","928.7000000476837","images/flower7.png","","","memory_trial","4","definitely_new",""
"html-keyboard-response","289","589543","0.0-18.0-0.122","5596","approach_avoid_sv1","""event"",""trial"",""time""
""fullscreenenter"",""1"",""4275""
","
","
","""event"",""trial"",""time""
""fullscreenenter"",""1"",""4275""
","
","","","","","","null","<div style=""font-size:60px;"">+</div>","null","","fixation","","",""
"memory-trial","290","591567","0.0-18.0-1.122","5596","approach_avoid_sv1","""event"",""trial"",""time""
""fullscreenenter"",""1"",""4275""
","
","
","""event"",""trial"",""time""
""fullscreenenter"",""1"",""4275""
","
","","","","","","1007.5","images/bed8.png","","","memory_trial","4","definitely_new",""
"html-keyboard-response","291","592074","0.0-18.0-0.123","5596","approach_avoid_sv1","""event"",""trial"",""time""
""fullscreenenter"",""1"",""4275""
","
","
","""event"",""trial"",""time""
""fullscreenenter"",""1"",""4275""
","
","","","","","","null","<div style=""font-size:60px;"">+</div>","null","","fixation","","",""
"memory-trial","292","594762","0.0-18.0-1.123","5596","approach_avoid_sv1","""event"",""trial"",""time""
""fullscreenenter"",""1"",""4275""
","
","
","""event"",""trial"",""time""
""fullscreenenter"",""1"",""4275""
","
","","","","","","1664","images/truck3.png","","","memory_trial","1","definitely_old",""
"html-keyboard-response","293","595268","0.0-18.0-0.124","5596","approach_avoid_sv1","""event"",""trial"",""time""
""fullscreenenter"",""1"",""4275""
","
","
","""event"",""trial"",""time""
""fullscreenenter"",""1"",""4275""
","
","","","","","","null","<div style=""font-size:60px;"">+</div>","null","","fixation","","",""
"memory-trial","294","597365","0.0-18.0-1.124","5596","approach_avoid_sv1","""event"",""trial"",""time""
""fullscreenenter"",""1"",""4275""
","
","
","""event"",""trial"",""time""
""fullscreenenter"",""1"",""4275""
","
","","","","","","1086.5","images/cow7.png","","","memory_trial","1","definitely_old",""
"html-keyboard-response","295","597878","0.0-18.0-0.125","5596","approach_avoid_sv1","""event"",""trial"",""time""
""fullscreenenter"",""1"",""4275""
","
","
","""event"",""trial"",""time""
""fullscreenenter"",""1"",""4275""
","
","","","","","","null","<div style=""font-size:60px;"">+</div>","null","","fixation","","",""
"memory-trial","296","600820","0.0-18.0-1.125","5596","approach_avoid_sv1","""event"",""trial"",""time""
""fullscreenenter"",""1"",""4275""
","
","
","""event"",""trial"",""time""
""fullscreenenter"",""1"",""4275""
","
","","","","","","1932.2999999523163","images/apple3.png","","","memory_trial","4","definitely_new",""
"html-keyboard-response","297","601336","0.0-18.0-0.126","5596","approach_avoid_sv1","""event"",""trial"",""time""
""fullscreenenter"",""1"",""4275""
","
","
","""event"",""trial"",""time""
""fullscreenenter"",""1"",""4275""
","
","","","","","","null","<div style=""font-size:60px;"">+</div>","null","","fixation","","",""
