"trial_type","trial_index","time_elapsed","internal_node_id","subject_id","task_version","interactions","blur_events","focus_events","fullscreenenter_events","fullscreenexit_events","success","timeout","failed_images","failed_audio","failed_video","rt","stimulus","response","button_pressed","task_part","key_press","answer","correct"
"pavlovia","0","2","0.0-0.0","5037","approach_avoid_sv1","""event"",""trial"",""time""
""fullscreenenter"",""1"",""1740""
","
","
","""event"",""trial"",""time""
""fullscreenenter"",""1"",""1740""
","
","","","","","","","","","","","","",""
"fullscreen","1","2720","0.0-1.0","5037","approach_avoid_sv1","""event"",""trial"",""time""
""fullscreenenter"",""1"",""1740""
","
","
","""event"",""trial"",""time""
""fullscreenenter"",""1"",""1740""
","
","true","","","","","","","","","","","",""
"preload","2","4856","0.0-2.0","5037","approach_avoid_sv1","""event"",""trial"",""time""
""fullscreenenter"",""1"",""1740""
","
","
","""event"",""trial"",""time""
""fullscreenenter"",""1"",""1740""
","
","true","false","[]","[]","[]","","","","","","","",""
"preload","3","6982","0.0-3.0","5037","approach_avoid_sv1","""event"",""trial"",""time""
""fullscreenenter"",""1"",""1740""
","
","
","""event"",""trial"",""time""
""fullscreenenter"",""1"",""1740""
","
","true","false","[]","[]","[]","","","","","","","",""
"preload","4","7255","0.0-4.0","5037","approach_avoid_sv1","""event"",""trial"",""time""
""fullscreenenter"",""1"",""1740""
","
","
","""event"",""trial"",""time""
""fullscreenenter"",""1"",""1740""
","
","true","false","[]","[]","[]","","","","","","","",""
"audio-keyboard-response","5","8916","0.0-5.0","5037","approach_avoid_sv1","""event"",""trial"",""time""
""fullscreenenter"",""1"",""1740""
","
","
","""event"",""trial"",""time""
""fullscreenenter"",""1"",""1740""
","
","","","","","","1658.6666666666667","audio/beep_loop.wav"," ","","","","",""
"audio-button-response","6","11198","0.0-6.0","5037","approach_avoid_sv1","""event"",""trial"",""time""
""fullscreenenter"",""1"",""1740""
","
","
","""event"",""trial"",""time""
""fullscreenenter"",""1"",""1740""
","
","","","","","","2280","audio/turtle.wav","3","","","","",""
"audio-button-response","7","13675","0.0-7.0","5037","approach_avoid_sv1","""event"",""trial"",""time""
""fullscreenenter"",""1"",""1740""
","
","
","""event"",""trial"",""time""
""fullscreenenter"",""1"",""1740""
","
","","","","","","1469","audio/shark.wav","2","","","","",""
"preload","8","19682","0.0-8.0","5037","approach_avoid_sv1","""event"",""trial"",""time""
""fullscreenenter"",""1"",""1740""
","
","
","""event"",""trial"",""time""
""fullscreenenter"",""1"",""1740""
","
","true","false","[]","[]","[]","","","","","","","",""
"learning-instructions","9","31218","0.0-9.0-0.0","5037","approach_avoid_sv1","""event"",""trial"",""time""
""fullscreenenter"",""1"",""1740""
","
","
","""event"",""trial"",""time""
""fullscreenenter"",""1"",""1740""
","
","","","","","","7051.5999999996275","<p> Welcome back! </p><p> Last week, you had to make choices about lots of different items.  </p>","","0","instructions","","",""
"learning-instructions","10","36036","0.0-9.0-0.1","5037","approach_avoid_sv1","""event"",""trial"",""time""
""fullscreenenter"",""1"",""1740""
","
","
","""event"",""trial"",""time""
""fullscreenenter"",""1"",""1740""
","
","","","","","","690.2000000001863","<p> Today, we are going to ask you to try to remember all the items. </p>","","0","instructions","","",""
"learning-instructions","11","46884","0.0-9.0-0.2","5037","approach_avoid_sv1","""event"",""trial"",""time""
""fullscreenenter"",""1"",""1740""
","
","
","""event"",""trial"",""time""
""fullscreenenter"",""1"",""1740""
","
","","","","","","709.7999999998137","<p> On every trial, you will see an image. </p><p> The image may be an OLD image you saw during the games last week or it may be a NEW image that was not presented. </p>","","0","instructions","","",""
"learning-instructions","12","58554","0.0-9.0-0.3","5037","approach_avoid_sv1","""event"",""trial"",""time""
""fullscreenenter"",""1"",""1740""
","
","
","""event"",""trial"",""time""
""fullscreenenter"",""1"",""1740""
","
","","","","","","3148.5999999996275","<p> You need to select whether the image is:  </p><p>  'Definitely old', 'Maybe old', 'Maybe new', or 'Definitely new.'  </p><div class=""mem-choice-instructions-grid""><div class=""choice-option"" id=""choice-option-1"" ><img src=""images/definitely_old_1.png"" id=""choice-option-img-1"" class=""choice-option-img"" stage=""1""></div><div class=""choice-option"" id=""choice-option-2"" ><img src=""images/maybe_old_1.png"" id=""choice-option-img-2"" class=""choice-option-img"" stage=""1""></div><div class=""choice-option"" id=""choice-option-3"" ><img src=""images/maybe_new_1.png"" id=""choice-option-img-3"" class=""choice-option-img"" stage=""1""></div><div class=""choice-option"" id=""choice-option-4"" > <img src=""images/definitely_new_1.png"" id=""choice-option-img-4"" class=""choice-option-img"" stage=""1""></div></div>","","0","instructions","","",""
"learning-instructions","13","66054","0.0-9.0-0.4","5037","approach_avoid_sv1","""event"",""trial"",""time""
""fullscreenenter"",""1"",""1740""
","
","
","""event"",""trial"",""time""
""fullscreenenter"",""1"",""1740""
","
","","","","","","969.1000000005588","<p> You should use the 1, 2, 3, and 4 keys to make your responses.  </p><div class=""mem-choice-instructions-grid""><div class=""choice-option"" id=""choice-option-1"" ><img src=""images/definitely_old.png"" id=""choice-option-img-1"" class=""choice-option-img"" stage=""1""></div><div class=""choice-option"" id=""choice-option-2"" ><img src=""images/maybe_old.png"" id=""choice-option-img-2"" class=""choice-option-img"" stage=""1""></div><div class=""choice-option"" id=""choice-option-3"" ><img src=""images/maybe_new.png"" id=""choice-option-img-3"" class=""choice-option-img"" stage=""1""></div><div class=""choice-option"" id=""choice-option-4"" > <img src=""images/definitely_new.png"" id=""choice-option-img-4"" class=""choice-option-img"" stage=""1""></div></div>","","0","instructions","","",""
"learning-instructions","14","73255","0.0-9.0-0.5","5037","approach_avoid_sv1","""event"",""trial"",""time""
""fullscreenenter"",""1"",""1740""
","
","
","""event"",""trial"",""time""
""fullscreenenter"",""1"",""1740""
","
","","","","","","859.9000000003725","<p> You will have 10 seconds to make each response.  </p><p>  Make sure to respond before time runs out! </p>","","0","instructions","","",""
"learning-instructions","15","81065","0.0-9.0-0.6","5037","approach_avoid_sv1","""event"",""trial"",""time""
""fullscreenenter"",""1"",""1740""
","
","
","""event"",""trial"",""time""
""fullscreenenter"",""1"",""1740""
","
","","","","","","730.5999999996275","<p> Today, you will see each image ONCE only.  </p><p>  That means none of the images will repeat. </p>","","0","instructions","","",""
"learning-instructions","16","94684","0.0-9.0-0.7","5037","approach_avoid_sv1","""event"",""trial"",""time""
""fullscreenenter"",""1"",""1740""
","
","
","""event"",""trial"",""time""
""fullscreenenter"",""1"",""1740""
","
","","","","","","929.5","<p> Before you play the real game, it is time to practice. </p><p>  Just like in the real game, some of the images in the practice will be ones you have seen before. </p><p>  Others will be entirely new. </p>","","0","instructions","","",""
"html-button-response","17","97194","0.0-10.0","5037","approach_avoid_sv1","""event"",""trial"",""time""
""fullscreenenter"",""1"",""1740""
","
","
","""event"",""trial"",""time""
""fullscreenenter"",""1"",""1740""
","
","","","","","","2390.5","<p> Ready to practice? </p><p> Remember, use the 1, 2, 3, and 4 keys to make your responses. </p>","0","","instructions","","",""
"html-keyboard-response","18","97823","0.0-11.0-0.0","5037","approach_avoid_sv1","""event"",""trial"",""time""
""fullscreenenter"",""1"",""1740""
","
","
","""event"",""trial"",""time""
""fullscreenenter"",""1"",""1740""
","
","","","","","","null","<div style=""font-size:60px;"">+</div>","null","","fixation","","",""
"memory-trial","19","101374","0.0-11.0-1.0","5037","approach_avoid_sv1","""event"",""trial"",""time""
""fullscreenenter"",""1"",""1740""
","
","
","""event"",""trial"",""time""
""fullscreenenter"",""1"",""1740""
","
","","","","","","2525.5","images/ball3.png","","","practice","1","definitely_old",""
"html-keyboard-response","20","101893","0.0-11.0-0.1","5037","approach_avoid_sv1","""event"",""trial"",""time""
""fullscreenenter"",""1"",""1740""
","
","
","""event"",""trial"",""time""
""fullscreenenter"",""1"",""1740""
","
","","","","","","null","<div style=""font-size:60px;"">+</div>","null","","fixation","","",""
"memory-trial","21","105173","0.0-11.0-1.1","5037","approach_avoid_sv1","""event"",""trial"",""time""
""fullscreenenter"",""1"",""1740""
","
","
","""event"",""trial"",""time""
""fullscreenenter"",""1"",""1740""
","
","","","","","","2266.7999999998137","images/ball5.png","","","practice","2","maybe_old",""
"html-keyboard-response","22","105683","0.0-11.0-0.2","5037","approach_avoid_sv1","""event"",""trial"",""time""
""fullscreenenter"",""1"",""1740""
","
","
","""event"",""trial"",""time""
""fullscreenenter"",""1"",""1740""
","
","","","","","","null","<div style=""font-size:60px;"">+</div>","null","","fixation","","",""
"memory-trial","23","108503","0.0-11.0-1.2","5037","approach_avoid_sv1","""event"",""trial"",""time""
""fullscreenenter"",""1"",""1740""
","
","
","""event"",""trial"",""time""
""fullscreenenter"",""1"",""1740""
","
","","","","","","1797.800000000745","images/ball2.png","","","practice","3","maybe_new",""
"html-keyboard-response","24","109023","0.0-11.0-0.3","5037","approach_avoid_sv1","""event"",""trial"",""time""
""fullscreenenter"",""1"",""1740""
","
","
","""event"",""trial"",""time""
""fullscreenenter"",""1"",""1740""
","
","","","","","","null","<div style=""font-size:60px;"">+</div>","null","","fixation","","",""
"memory-trial","25","111802","0.0-11.0-1.3","5037","approach_avoid_sv1","""event"",""trial"",""time""
""fullscreenenter"",""1"",""1740""
","
","
","""event"",""trial"",""time""
""fullscreenenter"",""1"",""1740""
","
","","","","","","1759.7999999998137","images/racket2.png","","","practice","1","definitely_old",""
"html-keyboard-response","26","112322","0.0-11.0-0.4","5037","approach_avoid_sv1","""event"",""trial"",""time""
""fullscreenenter"",""1"",""1740""
","
","
","""event"",""trial"",""time""
""fullscreenenter"",""1"",""1740""
","
","","","","","","null","<div style=""font-size:60px;"">+</div>","null","","fixation","","",""
"memory-trial","27","114814","0.0-11.0-1.4","5037","approach_avoid_sv1","""event"",""trial"",""time""
""fullscreenenter"",""1"",""1740""
","
","
","""event"",""trial"",""time""
""fullscreenenter"",""1"",""1740""
","
","","","","","","1480.5999999996275","images/racket1.png","","","practice","1","definitely_old",""
"html-keyboard-response","28","115323","0.0-11.0-0.5","5037","approach_avoid_sv1","""event"",""trial"",""time""
""fullscreenenter"",""1"",""1740""
","
","
","""event"",""trial"",""time""
""fullscreenenter"",""1"",""1740""
","
","","","","","","null","<div style=""font-size:60px;"">+</div>","null","","fixation","","",""
"memory-trial","29","118182","0.0-11.0-1.5","5037","approach_avoid_sv1","""event"",""trial"",""time""
""fullscreenenter"",""1"",""1740""
","
","
","""event"",""trial"",""time""
""fullscreenenter"",""1"",""1740""
","
","","","","","","1852.9000000003725","images/racket3.png","","","practice","3","maybe_new",""
"html-keyboard-response","30","118692","0.0-11.0-0.6","5037","approach_avoid_sv1","""event"",""trial"",""time""
""fullscreenenter"",""1"",""1740""
","
","
","""event"",""trial"",""time""
""fullscreenenter"",""1"",""1740""
","
","","","","","","null","<div style=""font-size:60px;"">+</div>","null","","fixation","","",""
"memory-trial","31","121122","0.0-11.0-1.6","5037","approach_avoid_sv1","""event"",""trial"",""time""
""fullscreenenter"",""1"",""1740""
","
","
","""event"",""trial"",""time""
""fullscreenenter"",""1"",""1740""
","
","","","","","","1410.5999999996275","images/racket5.png","","","practice","3","maybe_new",""
"html-keyboard-response","32","121642","0.0-11.0-0.7","5037","approach_avoid_sv1","""event"",""trial"",""time""
""fullscreenenter"",""1"",""1740""
","
","
","""event"",""trial"",""time""
""fullscreenenter"",""1"",""1740""
","
","","","","","","null","<div style=""font-size:60px;"">+</div>","null","","fixation","","",""
"memory-trial","33","124365","0.0-11.0-1.7","5037","approach_avoid_sv1","""event"",""trial"",""time""
""fullscreenenter"",""1"",""1740""
","
","
","""event"",""trial"",""time""
""fullscreenenter"",""1"",""1740""
","
","","","","","","1706.0999999996275","images/ball1.png","","","practice","2","maybe_old",""
"learning-instructions","34","133305","0.0-12.0-0.0","5037","approach_avoid_sv1","""event"",""trial"",""time""
""fullscreenenter"",""1"",""1740""
","
","
","""event"",""trial"",""time""
""fullscreenenter"",""1"",""1740""
","
","","","","","","1639.7000000001863","<p> Great! You have completed the practice. </p><p> Before you start, we're going to ask you a few questions about how the game works.  </p>","","0","instructions","","",""
"preload","35","150307","0.0-13.0","5037","approach_avoid_sv1","""event"",""trial"",""time""
""fullscreenenter"",""1"",""1740""
","
","
","""event"",""trial"",""time""
""fullscreenenter"",""1"",""1740""
","
","true","false","[]","[]","[]","","","","","","","",""
"comp-q","36","158267","0.0-14.0-0.0","5037","approach_avoid_sv1","""event"",""trial"",""time""
""fullscreenenter"",""1"",""1740""
","
","
","""event"",""trial"",""time""
""fullscreenenter"",""1"",""1740""
","
","","","","","","2130.5999999996275","<p> <b> True or False? </b> </p><p> In this game, you will only see each image once. </p>","","0","comp_question","","","true"
"comp-q","37","166077","0.0-14.0-1.0","5037","approach_avoid_sv1","""event"",""trial"",""time""
""fullscreenenter"",""1"",""1740""
","
","
","""event"",""trial"",""time""
""fullscreenenter"",""1"",""1740""
","
","","","","","","1471.2999999998137","<p> <b> That's right! </b> You will see many different images <i> one time each </i> in this game. </p>","","0","comp_answer","","",""
"comp-q","38","172355","0.0-15.0-0.0","5037","approach_avoid_sv1","""event"",""trial"",""time""
""fullscreenenter"",""1"",""1740""
","
","
","""event"",""trial"",""time""
""fullscreenenter"",""1"",""1740""
","
","","","","","","1249.9000000003725","<p> <b> True or False? </b> </p><p> You should use the mouse and click to make your response. </p>","","1","comp_question","","","true"
"comp-q","39","180185","0.0-15.0-1.0","5037","approach_avoid_sv1","""event"",""trial"",""time""
""fullscreenenter"",""1"",""1740""
","
","
","""event"",""trial"",""time""
""fullscreenenter"",""1"",""1740""
","
","","","","","","1329.6000000005588","<p><b> That's right! </b> You should use the '1', '2', '3', and '4' keys to make your response. </p>","","0","comp_answer","","",""
"comp-q","40","187966","0.0-16.0-0.0","5037","approach_avoid_sv1","""event"",""trial"",""time""
""fullscreenenter"",""1"",""1740""
","
","
","""event"",""trial"",""time""
""fullscreenenter"",""1"",""1740""
","
","","","","","","2101","<p> <b> True or False? </b> </p><p> You will have as much time as you want to make each choice. </p>","","0","comp_question","","","false"
"comp-q","41","194345","0.0-16.0-1.0","5037","approach_avoid_sv1","""event"",""trial"",""time""
""fullscreenenter"",""1"",""1740""
","
","
","""event"",""trial"",""time""
""fullscreenenter"",""1"",""1740""
","
","","","","","","1629.2000000001863","<p> <b>Incorrect.</b> You will only have 10 seconds to make each choice.</p>","","0","comp_answer","","",""
"comp-q","42","200997","0.0-16.1-0.1","5037","approach_avoid_sv1","""event"",""trial"",""time""
""fullscreenenter"",""1"",""1740""
","
","
","""event"",""trial"",""time""
""fullscreenenter"",""1"",""1740""
","
","","","","","","960.5","<p> <b> True or False? </b> </p><p> You will have as much time as you want to make each choice. </p>","","1","comp_question","","","true"
"comp-q","43","207317","0.0-16.1-1.1","5037","approach_avoid_sv1","""event"",""trial"",""time""
""fullscreenenter"",""1"",""1740""
","
","
","""event"",""trial"",""time""
""fullscreenenter"",""1"",""1740""
","
","","","","","","1610.7999999998137","<p> <b> That's right! </b> You will only have 10 seconds to make each choice. </p>","","0","comp_answer","","",""
"learning-instructions","44","217335","0.0-17.0","5037","approach_avoid_sv1","""event"",""trial"",""time""
""fullscreenenter"",""1"",""1740""
","
","
","""event"",""trial"",""time""
""fullscreenenter"",""1"",""1740""
","
","","","","","","1340","<p> Great! You are now ready to begin the game. </p><p> Remember, use the 1, 2, 3, and 4 keys to make your responses. </p>","","0","instructions","","",""
"html-keyboard-response","45","217953","0.0-18.0-0.0","5037","approach_avoid_sv1","""event"",""trial"",""time""
""fullscreenenter"",""1"",""1740""
","
","
","""event"",""trial"",""time""
""fullscreenenter"",""1"",""1740""
","
","","","","","","null","<div style=""font-size:60px;"">+</div>","null","","fixation","","",""
"memory-trial","46","220634","0.0-18.0-1.0","5037","approach_avoid_sv1","""event"",""trial"",""time""
""fullscreenenter"",""1"",""1740""
","
","
","""event"",""trial"",""time""
""fullscreenenter"",""1"",""1740""
","
","","","","","","1661.5","images/straw8.png","","","memory_trial","1","definitely_old",""
"html-keyboard-response","47","221144","0.0-18.0-0.1","5037","approach_avoid_sv1","""event"",""trial"",""time""
""fullscreenenter"",""1"",""1740""
","
","
","""event"",""trial"",""time""
""fullscreenenter"",""1"",""1740""
","
","","","","","","null","<div style=""font-size:60px;"">+</div>","null","","fixation","","",""
"memory-trial","48","224013","0.0-18.0-1.1","5037","approach_avoid_sv1","""event"",""trial"",""time""
""fullscreenenter"",""1"",""1740""
","
","
","""event"",""trial"",""time""
""fullscreenenter"",""1"",""1740""
","
","","","","","","1857.7999999998137","images/rodent8.png","","","memory_trial","2","maybe_old",""
"html-keyboard-response","49","224523","0.0-18.0-0.2","5037","approach_avoid_sv1","""event"",""trial"",""time""
""fullscreenenter"",""1"",""1740""
","
","
","""event"",""trial"",""time""
""fullscreenenter"",""1"",""1740""
","
","","","","","","null","<div style=""font-size:60px;"">+</div>","null","","fixation","","",""
"memory-trial","50","226933","0.0-18.0-1.2","5037","approach_avoid_sv1","""event"",""trial"",""time""
""fullscreenenter"",""1"",""1740""
","
","
","""event"",""trial"",""time""
""fullscreenenter"",""1"",""1740""
","
","","","","","","1384.4000000003725","images/cactus4.png","","","memory_trial","1","definitely_old",""
"html-keyboard-response","51","227453","0.0-18.0-0.3","5037","approach_avoid_sv1","""event"",""trial"",""time""
""fullscreenenter"",""1"",""1740""
","
","
","""event"",""trial"",""time""
""fullscreenenter"",""1"",""1740""
","
","","","","","","null","<div style=""font-size:60px;"">+</div>","null","","fixation","","",""
"memory-trial","52","230484","0.0-18.0-1.3","5037","approach_avoid_sv1","""event"",""trial"",""time""
""fullscreenenter"",""1"",""1740""
","
","
","""event"",""trial"",""time""
""fullscreenenter"",""1"",""1740""
","
","","","","","","2014.2999999998137","images/chair3.png","","","memory_trial","4","definitely_new",""
"html-keyboard-response","53","230993","0.0-18.0-0.4","5037","approach_avoid_sv1","""event"",""trial"",""time""
""fullscreenenter"",""1"",""1740""
","
","
","""event"",""trial"",""time""
""fullscreenenter"",""1"",""1740""
","
","","","","","","null","<div style=""font-size:60px;"">+</div>","null","","fixation","","",""
"memory-trial","54","234810","0.0-18.0-1.4","5037","approach_avoid_sv1","""event"",""trial"",""time""
""fullscreenenter"",""1"",""1740""
","
","
","""event"",""trial"",""time""
""fullscreenenter"",""1"",""1740""
","
","","","","","","2805.2999999998137","images/table4.png","","","memory_trial","1","definitely_old",""
"html-keyboard-response","55","235324","0.0-18.0-0.5","5037","approach_avoid_sv1","""event"",""trial"",""time""
""fullscreenenter"",""1"",""1740""
","
","
","""event"",""trial"",""time""
""fullscreenenter"",""1"",""1740""
","
","","","","","","null","<div style=""font-size:60px;"">+</div>","null","","fixation","","",""
"memory-trial","56","237623","0.0-18.0-1.5","5037","approach_avoid_sv1","""event"",""trial"",""time""
""fullscreenenter"",""1"",""1740""
","
","
","""event"",""trial"",""time""
""fullscreenenter"",""1"",""1740""
","
","","","","","","1279.5999999996275","images/plane2.png","","","memory_trial","4","definitely_new",""
"html-keyboard-response","57","238143","0.0-18.0-0.6","5037","approach_avoid_sv1","""event"",""trial"",""time""
""fullscreenenter"",""1"",""1740""
","
","
","""event"",""trial"",""time""
""fullscreenenter"",""1"",""1740""
","
","","","","","","null","<div style=""font-size:60px;"">+</div>","null","","fixation","","",""
"memory-trial","58","240734","0.0-18.0-1.6","5037","approach_avoid_sv1","""event"",""trial"",""time""
""fullscreenenter"",""1"",""1740""
","
","
","""event"",""trial"",""time""
""fullscreenenter"",""1"",""1740""
","
","","","","","","1568.5999999996275","images/dog3.png","","","memory_trial","4","definitely_new",""
"html-keyboard-response","59","241250","0.0-18.0-0.7","5037","approach_avoid_sv1","""event"",""trial"",""time""
""fullscreenenter"",""1"",""1740""
","
","
","""event"",""trial"",""time""
""fullscreenenter"",""1"",""1740""
","
","","","","","","null","<div style=""font-size:60px;"">+</div>","null","","fixation","","",""
"memory-trial","60","243893","0.0-18.0-1.7","5037","approach_avoid_sv1","""event"",""trial"",""time""
""fullscreenenter"",""1"",""1740""
","
","
","""event"",""trial"",""time""
""fullscreenenter"",""1"",""1740""
","
","","","","","","1620.8999999994412","images/rodent6.png","","","memory_trial","2","maybe_old",""
"html-keyboard-response","61","244413","0.0-18.0-0.8","5037","approach_avoid_sv1","""event"",""trial"",""time""
""fullscreenenter"",""1"",""1740""
","
","
","""event"",""trial"",""time""
""fullscreenenter"",""1"",""1740""
","
","","","","","","null","<div style=""font-size:60px;"">+</div>","null","","fixation","","",""
"memory-trial","62","246715","0.0-18.0-1.8","5037","approach_avoid_sv1","""event"",""trial"",""time""
""fullscreenenter"",""1"",""1740""
","
","
","""event"",""trial"",""time""
""fullscreenenter"",""1"",""1740""
","
","","","","","","1296.6000000005588","images/rodent4.png","","","memory_trial","1","definitely_old",""
"html-keyboard-response","63","247226","0.0-18.0-0.9","5037","approach_avoid_sv1","""event"",""trial"",""time""
""fullscreenenter"",""1"",""1740""
","
","
","""event"",""trial"",""time""
""fullscreenenter"",""1"",""1740""
","
","","","","","","null","<div style=""font-size:60px;"">+</div>","null","","fixation","","",""
"memory-trial","64","249533","0.0-18.0-1.9","5037","approach_avoid_sv1","""event"",""trial"",""time""
""fullscreenenter"",""1"",""1740""
","
","
","""event"",""trial"",""time""
""fullscreenenter"",""1"",""1740""
","
","","","","","","1300.5","images/table1.png","","","memory_trial","1","definitely_old",""
"html-keyboard-response","65","250043","0.0-18.0-0.10","5037","approach_avoid_sv1","""event"",""trial"",""time""
""fullscreenenter"",""1"",""1740""
","
","
","""event"",""trial"",""time""
""fullscreenenter"",""1"",""1740""
","
","","","","","","null","<div style=""font-size:60px;"">+</div>","null","","fixation","","",""
"memory-trial","66","252090","0.0-18.0-1.10","5037","approach_avoid_sv1","""event"",""trial"",""time""
""fullscreenenter"",""1"",""1740""
","
","
","""event"",""trial"",""time""
""fullscreenenter"",""1"",""1740""
","
","","","","","","1032.300000000745","images/truck2.png","","","memory_trial","1","definitely_old",""
"html-keyboard-response","67","252596","0.0-18.0-0.11","5037","approach_avoid_sv1","""event"",""trial"",""time""
""fullscreenenter"",""1"",""1740""
","
","
","""event"",""trial"",""time""
""fullscreenenter"",""1"",""1740""
","
","","","","","","null","<div style=""font-size:60px;"">+</div>","null","","fixation","","",""
"memory-trial","68","254563","0.0-18.0-1.11","5037","approach_avoid_sv1","""event"",""trial"",""time""
""fullscreenenter"",""1"",""1740""
","
","
","""event"",""trial"",""time""
""fullscreenenter"",""1"",""1740""
","
","","","","","","956.6000000005588","images/bed7.png","","","memory_trial","1","definitely_old",""
"html-keyboard-response","69","255071","0.0-18.0-0.12","5037","approach_avoid_sv1","""event"",""trial"",""time""
""fullscreenenter"",""1"",""1740""
","
","
","""event"",""trial"",""time""
""fullscreenenter"",""1"",""1740""
","
","","","","","","null","<div style=""font-size:60px;"">+</div>","null","","fixation","","",""
"memory-trial","70","257232","0.0-18.0-1.12","5037","approach_avoid_sv1","""event"",""trial"",""time""
""fullscreenenter"",""1"",""1740""
","
","
","""event"",""trial"",""time""
""fullscreenenter"",""1"",""1740""
","
","","","","","","1150.1000000005588","images/boat8.png","","","memory_trial","4","definitely_new",""
"html-keyboard-response","71","257739","0.0-18.0-0.13","5037","approach_avoid_sv1","""event"",""trial"",""time""
""fullscreenenter"",""1"",""1740""
","
","
","""event"",""trial"",""time""
""fullscreenenter"",""1"",""1740""
","
","","","","","","null","<div style=""font-size:60px;"">+</div>","null","","fixation","","",""
"memory-trial","72","262043","0.0-18.0-1.13","5037","approach_avoid_sv1","""event"",""trial"",""time""
""fullscreenenter"",""1"",""1740""
","
","
","""event"",""trial"",""time""
""fullscreenenter"",""1"",""1740""
","
","","","","","","3301.100000000559","images/orange2.png","","","memory_trial","2","maybe_old",""
"html-keyboard-response","73","262560","0.0-18.0-0.14","5037","approach_avoid_sv1","""event"",""trial"",""time""
""fullscreenenter"",""1"",""1740""
","
","
","""event"",""trial"",""time""
""fullscreenenter"",""1"",""1740""
","
","","","","","","null","<div style=""font-size:60px;"">+</div>","null","","fixation","","",""
"memory-trial","74","267149","0.0-18.0-1.14","5037","approach_avoid_sv1","""event"",""trial"",""time""
""fullscreenenter"",""1"",""1740""
","
","
","""event"",""trial"",""time""
""fullscreenenter"",""1"",""1740""
","
","","","","","","3578.600000000559","images/cactus5.png","","","memory_trial","2","maybe_old",""
"html-keyboard-response","75","267672","0.0-18.0-0.15","5037","approach_avoid_sv1","""event"",""trial"",""time""
""fullscreenenter"",""1"",""1740""
","
","
","""event"",""trial"",""time""
""fullscreenenter"",""1"",""1740""
","
","","","","","","null","<div style=""font-size:60px;"">+</div>","null","","fixation","","",""
"memory-trial","76","270413","0.0-18.0-1.15","5037","approach_avoid_sv1","""event"",""trial"",""time""
""fullscreenenter"",""1"",""1740""
","
","
","""event"",""trial"",""time""
""fullscreenenter"",""1"",""1740""
","
","","","","","","1731.5","images/cow8.png","","","memory_trial","1","definitely_old",""
"html-keyboard-response","77","270919","0.0-18.0-0.16","5037","approach_avoid_sv1","""event"",""trial"",""time""
""fullscreenenter"",""1"",""1740""
","
","
","""event"",""trial"",""time""
""fullscreenenter"",""1"",""1740""
","
","","","","","","null","<div style=""font-size:60px;"">+</div>","null","","fixation","","",""
"memory-trial","78","273181","0.0-18.0-1.16","5037","approach_avoid_sv1","""event"",""trial"",""time""
""fullscreenenter"",""1"",""1740""
","
","
","""event"",""trial"",""time""
""fullscreenenter"",""1"",""1740""
","
","","","","","","1255.2000000001863","images/horse7.png","","","memory_trial","1","definitely_old",""
"html-keyboard-response","79","273683","0.0-18.0-0.17","5037","approach_avoid_sv1","""event"",""trial"",""time""
""fullscreenenter"",""1"",""1740""
","
","
","""event"",""trial"",""time""
""fullscreenenter"",""1"",""1740""
","
","","","","","","null","<div style=""font-size:60px;"">+</div>","null","","fixation","","",""
"memory-trial","80","276172","0.0-18.0-1.17","5037","approach_avoid_sv1","""event"",""trial"",""time""
""fullscreenenter"",""1"",""1740""
","
","
","""event"",""trial"",""time""
""fullscreenenter"",""1"",""1740""
","
","","","","","","1474.5","images/rabbit4.png","","","memory_trial","4","definitely_new",""
"html-keyboard-response","81","276688","0.0-18.0-0.18","5037","approach_avoid_sv1","""event"",""trial"",""time""
""fullscreenenter"",""1"",""1740""
","
","
","""event"",""trial"",""time""
""fullscreenenter"",""1"",""1740""
","
","","","","","","null","<div style=""font-size:60px;"">+</div>","null","","fixation","","",""
"memory-trial","82","278641","0.0-18.0-1.18","5037","approach_avoid_sv1","""event"",""trial"",""time""
""fullscreenenter"",""1"",""1740""
","
","
","""event"",""trial"",""time""
""fullscreenenter"",""1"",""1740""
","
","","","","","","936.5","images/truck8.png","","","memory_trial","1","definitely_old",""
"html-keyboard-response","83","279158","0.0-18.0-0.19","5037","approach_avoid_sv1","""event"",""trial"",""time""
""fullscreenenter"",""1"",""1740""
","
","
","""event"",""trial"",""time""
""fullscreenenter"",""1"",""1740""
","
","","","","","","null","<div style=""font-size:60px;"">+</div>","null","","fixation","","",""
"memory-trial","84","280973","0.0-18.0-1.19","5037","approach_avoid_sv1","""event"",""trial"",""time""
""fullscreenenter"",""1"",""1740""
","
","
","""event"",""trial"",""time""
""fullscreenenter"",""1"",""1740""
","
","","","","","","796.4000000003725","images/tree5.png","","","memory_trial","1","definitely_old",""
"html-keyboard-response","85","281483","0.0-18.0-0.20","5037","approach_avoid_sv1","""event"",""trial"",""time""
""fullscreenenter"",""1"",""1740""
","
","
","""event"",""trial"",""time""
""fullscreenenter"",""1"",""1740""
","
","","","","","","null","<div style=""font-size:60px;"">+</div>","null","","fixation","","",""
"memory-trial","86","284932","0.0-18.0-1.20","5037","approach_avoid_sv1","""event"",""trial"",""time""
""fullscreenenter"",""1"",""1740""
","
","
","""event"",""trial"",""time""
""fullscreenenter"",""1"",""1740""
","
","","","","","","2437.699999999255","images/tree7.png","","","memory_trial","3","maybe_new",""
"html-keyboard-response","87","285436","0.0-18.0-0.21","5037","approach_avoid_sv1","""event"",""trial"",""time""
""fullscreenenter"",""1"",""1740""
","
","
","""event"",""trial"",""time""
""fullscreenenter"",""1"",""1740""
","
","","","","","","null","<div style=""font-size:60px;"">+</div>","null","","fixation","","",""
"memory-trial","88","287959","0.0-18.0-1.21","5037","approach_avoid_sv1","""event"",""trial"",""time""
""fullscreenenter"",""1"",""1740""
","
","
","""event"",""trial"",""time""
""fullscreenenter"",""1"",""1740""
","
","","","","","","1502","images/banana6.png","","","memory_trial","4","definitely_new",""
"html-keyboard-response","89","288474","0.0-18.0-0.22","5037","approach_avoid_sv1","""event"",""trial"",""time""
""fullscreenenter"",""1"",""1740""
","
","
","""event"",""trial"",""time""
""fullscreenenter"",""1"",""1740""
","
","","","","","","null","<div style=""font-size:60px;"">+</div>","null","","fixation","","",""
"memory-trial","90","291088","0.0-18.0-1.22","5037","approach_avoid_sv1","""event"",""trial"",""time""
""fullscreenenter"",""1"",""1740""
","
","
","""event"",""trial"",""time""
""fullscreenenter"",""1"",""1740""
","
","","","","","","1597.4000000003725","images/truck7.png","","","memory_trial","3","maybe_new",""
"html-keyboard-response","91","291597","0.0-18.0-0.23","5037","approach_avoid_sv1","""event"",""trial"",""time""
""fullscreenenter"",""1"",""1740""
","
","
","""event"",""trial"",""time""
""fullscreenenter"",""1"",""1740""
","
","","","","","","null","<div style=""font-size:60px;"">+</div>","null","","fixation","","",""
"memory-trial","92","293758","0.0-18.0-1.23","5037","approach_avoid_sv1","""event"",""trial"",""time""
""fullscreenenter"",""1"",""1740""
","
","
","""event"",""trial"",""time""
""fullscreenenter"",""1"",""1740""
","
","","","","","","1153.5","images/sofa6.png","","","memory_trial","4","definitely_new",""
"html-keyboard-response","93","294273","0.0-18.0-0.24","5037","approach_avoid_sv1","""event"",""trial"",""time""
""fullscreenenter"",""1"",""1740""
","
","
","""event"",""trial"",""time""
""fullscreenenter"",""1"",""1740""
","
","","","","","","null","<div style=""font-size:60px;"">+</div>","null","","fixation","","",""
"memory-trial","94","297352","0.0-18.0-1.24","5037","approach_avoid_sv1","""event"",""trial"",""time""
""fullscreenenter"",""1"",""1740""
","
","
","""event"",""trial"",""time""
""fullscreenenter"",""1"",""1740""
","
","","","","","","2067.100000000559","images/dog1.png","","","memory_trial","3","maybe_new",""
"html-keyboard-response","95","297864","0.0-18.0-0.25","5037","approach_avoid_sv1","""event"",""trial"",""time""
""fullscreenenter"",""1"",""1740""
","
","
","""event"",""trial"",""time""
""fullscreenenter"",""1"",""1740""
","
","","","","","","null","<div style=""font-size:60px;"">+</div>","null","","fixation","","",""
"memory-trial","96","300073","0.0-18.0-1.25","5037","approach_avoid_sv1","""event"",""trial"",""time""
""fullscreenenter"",""1"",""1740""
","
","
","""event"",""trial"",""time""
""fullscreenenter"",""1"",""1740""
","
","","","","","","1183","images/cactus7.png","","","memory_trial","1","definitely_old",""
"html-keyboard-response","97","300580","0.0-18.0-0.26","5037","approach_avoid_sv1","""event"",""trial"",""time""
""fullscreenenter"",""1"",""1740""
","
","
","""event"",""trial"",""time""
""fullscreenenter"",""1"",""1740""
","
","","","","","","null","<div style=""font-size:60px;"">+</div>","null","","fixation","","",""
"memory-trial","98","303165","0.0-18.0-1.26","5037","approach_avoid_sv1","""event"",""trial"",""time""
""fullscreenenter"",""1"",""1740""
","
","
","""event"",""trial"",""time""
""fullscreenenter"",""1"",""1740""
","
","","","","","","1572.1000000005588","images/tree8.png","","","memory_trial","3","maybe_new",""
"html-keyboard-response","99","303673","0.0-18.0-0.27","5037","approach_avoid_sv1","""event"",""trial"",""time""
""fullscreenenter"",""1"",""1740""
","
","
","""event"",""trial"",""time""
""fullscreenenter"",""1"",""1740""
","
","","","","","","null","<div style=""font-size:60px;"">+</div>","null","","fixation","","",""
"memory-trial","100","305855","0.0-18.0-1.27","5037","approach_avoid_sv1","""event"",""trial"",""time""
""fullscreenenter"",""1"",""1740""
","
","
","""event"",""trial"",""time""
""fullscreenenter"",""1"",""1740""
","
","","","","","","1168.2999999998137","images/boat4.png","","","memory_trial","4","definitely_new",""
"html-keyboard-response","101","306365","0.0-18.0-0.28","5037","approach_avoid_sv1","""event"",""trial"",""time""
""fullscreenenter"",""1"",""1740""
","
","
","""event"",""trial"",""time""
""fullscreenenter"",""1"",""1740""
","
","","","","","","null","<div style=""font-size:60px;"">+</div>","null","","fixation","","",""
"memory-trial","102","308473","0.0-18.0-1.28","5037","approach_avoid_sv1","""event"",""trial"",""time""
""fullscreenenter"",""1"",""1740""
","
","
","""event"",""trial"",""time""
""fullscreenenter"",""1"",""1740""
","
","","","","","","1095.4000000003725","images/straw6.png","","","memory_trial","1","definitely_old",""
"html-keyboard-response","103","308983","0.0-18.0-0.29","5037","approach_avoid_sv1","""event"",""trial"",""time""
""fullscreenenter"",""1"",""1740""
","
","
","""event"",""trial"",""time""
""fullscreenenter"",""1"",""1740""
","
","","","","","","null","<div style=""font-size:60px;"">+</div>","null","","fixation","","",""
"memory-trial","104","311885","0.0-18.0-1.29","5037","approach_avoid_sv1","""event"",""trial"",""time""
""fullscreenenter"",""1"",""1740""
","
","
","""event"",""trial"",""time""
""fullscreenenter"",""1"",""1740""
","
","","","","","","1890.1000000005588","images/boat6.png","","","memory_trial","3","maybe_new",""
"html-keyboard-response","105","312395","0.0-18.0-0.30","5037","approach_avoid_sv1","""event"",""trial"",""time""
""fullscreenenter"",""1"",""1740""
","
","
","""event"",""trial"",""time""
""fullscreenenter"",""1"",""1740""
","
","","","","","","null","<div style=""font-size:60px;"">+</div>","null","","fixation","","",""
"memory-trial","106","315022","0.0-18.0-1.30","5037","approach_avoid_sv1","""event"",""trial"",""time""
""fullscreenenter"",""1"",""1740""
","
","
","""event"",""trial"",""time""
""fullscreenenter"",""1"",""1740""
","
","","","","","","1614.1000000005588","images/plane6.png","","","memory_trial","2","maybe_old",""
"html-keyboard-response","107","315533","0.0-18.0-0.31","5037","approach_avoid_sv1","""event"",""trial"",""time""
""fullscreenenter"",""1"",""1740""
","
","
","""event"",""trial"",""time""
""fullscreenenter"",""1"",""1740""
","
","","","","","","null","<div style=""font-size:60px;"">+</div>","null","","fixation","","",""
"memory-trial","108","317418","0.0-18.0-1.31","5037","approach_avoid_sv1","""event"",""trial"",""time""
""fullscreenenter"",""1"",""1740""
","
","
","""event"",""trial"",""time""
""fullscreenenter"",""1"",""1740""
","
","","","","","","866","images/bush1.png","","","memory_trial","1","definitely_old",""
"html-keyboard-response","109","317931","0.0-18.0-0.32","5037","approach_avoid_sv1","""event"",""trial"",""time""
""fullscreenenter"",""1"",""1740""
","
","
","""event"",""trial"",""time""
""fullscreenenter"",""1"",""1740""
","
","","","","","","null","<div style=""font-size:60px;"">+</div>","null","","fixation","","",""
"memory-trial","110","320162","0.0-18.0-1.32","5037","approach_avoid_sv1","""event"",""trial"",""time""
""fullscreenenter"",""1"",""1740""
","
","
","""event"",""trial"",""time""
""fullscreenenter"",""1"",""1740""
","
","","","","","","1217.7999999998137","images/chair8.png","","","memory_trial","1","definitely_old",""
"html-keyboard-response","111","320673","0.0-18.0-0.33","5037","approach_avoid_sv1","""event"",""trial"",""time""
""fullscreenenter"",""1"",""1740""
","
","
","""event"",""trial"",""time""
""fullscreenenter"",""1"",""1740""
","
","","","","","","null","<div style=""font-size:60px;"">+</div>","null","","fixation","","",""
"memory-trial","112","323428","0.0-18.0-1.33","5037","approach_avoid_sv1","""event"",""trial"",""time""
""fullscreenenter"",""1"",""1740""
","
","
","""event"",""trial"",""time""
""fullscreenenter"",""1"",""1740""
","
","","","","","","1742.5","images/flower8.png","","","memory_trial","3","maybe_new",""
"html-keyboard-response","113","323933","0.0-18.0-0.34","5037","approach_avoid_sv1","""event"",""trial"",""time""
""fullscreenenter"",""1"",""1740""
","
","
","""event"",""trial"",""time""
""fullscreenenter"",""1"",""1740""
","
","","","","","","null","<div style=""font-size:60px;"">+</div>","null","","fixation","","",""
"memory-trial","114","326123","0.0-18.0-1.34","5037","approach_avoid_sv1","""event"",""trial"",""time""
""fullscreenenter"",""1"",""1740""
","
","
","""event"",""trial"",""time""
""fullscreenenter"",""1"",""1740""
","
","","","","","","1179","images/orange4.png","","","memory_trial","1","definitely_old",""
"html-keyboard-response","115","326633","0.0-18.0-0.35","5037","approach_avoid_sv1","""event"",""trial"",""time""
""fullscreenenter"",""1"",""1740""
","
","
","""event"",""trial"",""time""
""fullscreenenter"",""1"",""1740""
","
","","","","","","null","<div style=""font-size:60px;"">+</div>","null","","fixation","","",""
"memory-trial","116","328834","0.0-18.0-1.35","5037","approach_avoid_sv1","""event"",""trial"",""time""
""fullscreenenter"",""1"",""1740""
","
","
","""event"",""trial"",""time""
""fullscreenenter"",""1"",""1740""
","
","","","","","","1187.1000000005588","images/flower6.png","","","memory_trial","4","definitely_new",""
"html-keyboard-response","117","329346","0.0-18.0-0.36","5037","approach_avoid_sv1","""event"",""trial"",""time""
""fullscreenenter"",""1"",""1740""
","
","
","""event"",""trial"",""time""
""fullscreenenter"",""1"",""1740""
","
","","","","","","null","<div style=""font-size:60px;"">+</div>","null","","fixation","","",""
"memory-trial","118","331404","0.0-18.0-1.36","5037","approach_avoid_sv1","""event"",""trial"",""time""
""fullscreenenter"",""1"",""1740""
","
","
","""event"",""trial"",""time""
""fullscreenenter"",""1"",""1740""
","
","","","","","","1045.5999999996275","images/cactus2.png","","","memory_trial","1","definitely_old",""
"html-keyboard-response","119","331912","0.0-18.0-0.37","5037","approach_avoid_sv1","""event"",""trial"",""time""
""fullscreenenter"",""1"",""1740""
","
","
","""event"",""trial"",""time""
""fullscreenenter"",""1"",""1740""
","
","","","","","","null","<div style=""font-size:60px;"">+</div>","null","","fixation","","",""
"memory-trial","120","333705","0.0-18.0-1.37","5037","approach_avoid_sv1","""event"",""trial"",""time""
""fullscreenenter"",""1"",""1740""
","
","
","""event"",""trial"",""time""
""fullscreenenter"",""1"",""1740""
","
","","","","","","779.2999999998137","images/tree1.png","","","memory_trial","1","definitely_old",""
"html-keyboard-response","121","334220","0.0-18.0-0.38","5037","approach_avoid_sv1","""event"",""trial"",""time""
""fullscreenenter"",""1"",""1740""
","
","
","""event"",""trial"",""time""
""fullscreenenter"",""1"",""1740""
","
","","","","","","null","<div style=""font-size:60px;"">+</div>","null","","fixation","","",""
"memory-trial","122","336294","0.0-18.0-1.38","5037","approach_avoid_sv1","""event"",""trial"",""time""
""fullscreenenter"",""1"",""1740""
","
","
","""event"",""trial"",""time""
""fullscreenenter"",""1"",""1740""
","
","","","","","","1052.5","images/bush2.png","","","memory_trial","1","definitely_old",""
"html-keyboard-response","123","336812","0.0-18.0-0.39","5037","approach_avoid_sv1","""event"",""trial"",""time""
""fullscreenenter"",""1"",""1740""
","
","
","""event"",""trial"",""time""
""fullscreenenter"",""1"",""1740""
","
","","","","","","null","<div style=""font-size:60px;"">+</div>","null","","fixation","","",""
"memory-trial","124","339005","0.0-18.0-1.39","5037","approach_avoid_sv1","""event"",""trial"",""time""
""fullscreenenter"",""1"",""1740""
","
","
","""event"",""trial"",""time""
""fullscreenenter"",""1"",""1740""
","
","","","","","","1187.2999999998137","images/cat8.png","","","memory_trial","1","definitely_old",""
"html-keyboard-response","125","339510","0.0-18.0-0.40","5037","approach_avoid_sv1","""event"",""trial"",""time""
""fullscreenenter"",""1"",""1740""
","
","
","""event"",""trial"",""time""
""fullscreenenter"",""1"",""1740""
","
","","","","","","null","<div style=""font-size:60px;"">+</div>","null","","fixation","","",""
"memory-trial","126","343106","0.0-18.0-1.40","5037","approach_avoid_sv1","""event"",""trial"",""time""
""fullscreenenter"",""1"",""1740""
","
","
","""event"",""trial"",""time""
""fullscreenenter"",""1"",""1740""
","
","","","","","","2582.2999999998137","images/tree3.png","","","memory_trial","3","maybe_new",""
"html-keyboard-response","127","343615","0.0-18.0-0.41","5037","approach_avoid_sv1","""event"",""trial"",""time""
""fullscreenenter"",""1"",""1740""
","
","
","""event"",""trial"",""time""
""fullscreenenter"",""1"",""1740""
","
","","","","","","null","<div style=""font-size:60px;"">+</div>","null","","fixation","","",""
"memory-trial","128","345872","0.0-18.0-1.41","5037","approach_avoid_sv1","""event"",""trial"",""time""
""fullscreenenter"",""1"",""1740""
","
","
","""event"",""trial"",""time""
""fullscreenenter"",""1"",""1740""
","
","","","","","","1240.4000000003725","images/orange3.png","","","memory_trial","1","definitely_old",""
"html-button-response","129","350145","0.0-18.0-2.41-0.41","5037","approach_avoid_sv1","""event"",""trial"",""time""
""fullscreenenter"",""1"",""1740""
","
","
","""event"",""trial"",""time""
""fullscreenenter"",""1"",""1740""
","
","","","","","","4271","<p> Take a break! </p><p> Click the button to continue. </p>","0","","break","","",""
"html-keyboard-response","130","350655","0.0-18.0-0.42","5037","approach_avoid_sv1","""event"",""trial"",""time""
""fullscreenenter"",""1"",""1740""
","
","
","""event"",""trial"",""time""
""fullscreenenter"",""1"",""1740""
","
","","","","","","null","<div style=""font-size:60px;"">+</div>","null","","fixation","","",""
"memory-trial","131","353374","0.0-18.0-1.42","5037","approach_avoid_sv1","""event"",""trial"",""time""
""fullscreenenter"",""1"",""1740""
","
","
","""event"",""trial"",""time""
""fullscreenenter"",""1"",""1740""
","
","","","","","","1705.2000000001863","images/straw5.png","","","memory_trial","2","maybe_old",""
"html-keyboard-response","132","353884","0.0-18.0-0.43","5037","approach_avoid_sv1","""event"",""trial"",""time""
""fullscreenenter"",""1"",""1740""
","
","
","""event"",""trial"",""time""
""fullscreenenter"",""1"",""1740""
","
","","","","","","null","<div style=""font-size:60px;"">+</div>","null","","fixation","","",""
"memory-trial","133","357447","0.0-18.0-1.43","5037","approach_avoid_sv1","""event"",""trial"",""time""
""fullscreenenter"",""1"",""1740""
","
","
","""event"",""trial"",""time""
""fullscreenenter"",""1"",""1740""
","
","","","","","","2542.9000000003725","images/sheep1.png","","","memory_trial","3","maybe_new",""
"html-keyboard-response","134","357961","0.0-18.0-0.44","5037","approach_avoid_sv1","""event"",""trial"",""time""
""fullscreenenter"",""1"",""1740""
","
","
","""event"",""trial"",""time""
""fullscreenenter"",""1"",""1740""
","
","","","","","","null","<div style=""font-size:60px;"">+</div>","null","","fixation","","",""
"memory-trial","135","361173","0.0-18.0-1.44","5037","approach_avoid_sv1","""event"",""trial"",""time""
""fullscreenenter"",""1"",""1740""
","
","
","""event"",""trial"",""time""
""fullscreenenter"",""1"",""1740""
","
","","","","","","2202.199999999255","images/banana1.png","","","memory_trial","2","maybe_old",""
"html-keyboard-response","136","361684","0.0-18.0-0.45","5037","approach_avoid_sv1","""event"",""trial"",""time""
""fullscreenenter"",""1"",""1740""
","
","
","""event"",""trial"",""time""
""fullscreenenter"",""1"",""1740""
","
","","","","","","null","<div style=""font-size:60px;"">+</div>","null","","fixation","","",""
"memory-trial","137","364204","0.0-18.0-1.45","5037","approach_avoid_sv1","""event"",""trial"",""time""
""fullscreenenter"",""1"",""1740""
","
","
","""event"",""trial"",""time""
""fullscreenenter"",""1"",""1740""
","
","","","","","","1502.5","images/straw3.png","","","memory_trial","3","maybe_new",""
"html-keyboard-response","138","364713","0.0-18.0-0.46","5037","approach_avoid_sv1","""event"",""trial"",""time""
""fullscreenenter"",""1"",""1740""
","
","
","""event"",""trial"",""time""
""fullscreenenter"",""1"",""1740""
","
","","","","","","null","<div style=""font-size:60px;"">+</div>","null","","fixation","","",""
"memory-trial","139","367002","0.0-18.0-1.46","5037","approach_avoid_sv1","""event"",""trial"",""time""
""fullscreenenter"",""1"",""1740""
","
","
","""event"",""trial"",""time""
""fullscreenenter"",""1"",""1740""
","
","","","","","","1270.2999999998137","images/rodent3.png","","","memory_trial","1","definitely_old",""
"html-keyboard-response","140","367510","0.0-18.0-0.47","5037","approach_avoid_sv1","""event"",""trial"",""time""
""fullscreenenter"",""1"",""1740""
","
","
","""event"",""trial"",""time""
""fullscreenenter"",""1"",""1740""
","
","","","","","","null","<div style=""font-size:60px;"">+</div>","null","","fixation","","",""
"memory-trial","141","370327","0.0-18.0-1.47","5037","approach_avoid_sv1","""event"",""trial"",""time""
""fullscreenenter"",""1"",""1740""
","
","
","""event"",""trial"",""time""
""fullscreenenter"",""1"",""1740""
","
","","","","","","1808.5","images/cow7.png","","","memory_trial","3","maybe_new",""
"html-keyboard-response","142","370836","0.0-18.0-0.48","5037","approach_avoid_sv1","""event"",""trial"",""time""
""fullscreenenter"",""1"",""1740""
","
","
","""event"",""trial"",""time""
""fullscreenenter"",""1"",""1740""
","
","","","","","","null","<div style=""font-size:60px;"">+</div>","null","","fixation","","",""
"memory-trial","143","374134","0.0-18.0-1.48","5037","approach_avoid_sv1","""event"",""trial"",""time""
""fullscreenenter"",""1"",""1740""
","
","
","""event"",""trial"",""time""
""fullscreenenter"",""1"",""1740""
","
","","","","","","2291.2999999998137","images/dog2.png","","","memory_trial","2","maybe_old",""
"html-keyboard-response","144","374644","0.0-18.0-0.49","5037","approach_avoid_sv1","""event"",""trial"",""time""
""fullscreenenter"",""1"",""1740""
","
","
","""event"",""trial"",""time""
""fullscreenenter"",""1"",""1740""
","
","","","","","","null","<div style=""font-size:60px;"">+</div>","null","","fixation","","",""
"memory-trial","145","376935","0.0-18.0-1.49","5037","approach_avoid_sv1","""event"",""trial"",""time""
""fullscreenenter"",""1"",""1740""
","
","
","""event"",""trial"",""time""
""fullscreenenter"",""1"",""1740""
","
","","","","","","1281.9000000003725","images/train6.png","","","memory_trial","1","definitely_old",""
"html-keyboard-response","146","377449","0.0-18.0-0.50","5037","approach_avoid_sv1","""event"",""trial"",""time""
""fullscreenenter"",""1"",""1740""
","
","
","""event"",""trial"",""time""
""fullscreenenter"",""1"",""1740""
","
","","","","","","null","<div style=""font-size:60px;"">+</div>","null","","fixation","","",""
"memory-trial","147","380396","0.0-18.0-1.50","5037","approach_avoid_sv1","""event"",""trial"",""time""
""fullscreenenter"",""1"",""1740""
","
","
","""event"",""trial"",""time""
""fullscreenenter"",""1"",""1740""
","
","","","","","","1940.7999999998137","images/boat1.png","","","memory_trial","3","maybe_new",""
"html-keyboard-response","148","380904","0.0-18.0-0.51","5037","approach_avoid_sv1","""event"",""trial"",""time""
""fullscreenenter"",""1"",""1740""
","
","
","""event"",""trial"",""time""
""fullscreenenter"",""1"",""1740""
","
","","","","","","null","<div style=""font-size:60px;"">+</div>","null","","fixation","","",""
"memory-trial","149","383821","0.0-18.0-1.51","5037","approach_avoid_sv1","""event"",""trial"",""time""
""fullscreenenter"",""1"",""1740""
","
","
","""event"",""trial"",""time""
""fullscreenenter"",""1"",""1740""
","
","","","","","","1895.2000000001863","images/apple6.png","","","memory_trial","2","maybe_old",""
"html-keyboard-response","150","384330","0.0-18.0-0.52","5037","approach_avoid_sv1","""event"",""trial"",""time""
""fullscreenenter"",""1"",""1740""
","
","
","""event"",""trial"",""time""
""fullscreenenter"",""1"",""1740""
","
","","","","","","null","<div style=""font-size:60px;"">+</div>","null","","fixation","","",""
"memory-trial","151","388364","0.0-18.0-1.52","5037","approach_avoid_sv1","""event"",""trial"",""time""
""fullscreenenter"",""1"",""1740""
","
","
","""event"",""trial"",""time""
""fullscreenenter"",""1"",""1740""
","
","","","","","","3023.199999999255","images/apple5.png","","","memory_trial","2","maybe_old",""
"html-keyboard-response","152","388880","0.0-18.0-0.53","5037","approach_avoid_sv1","""event"",""trial"",""time""
""fullscreenenter"",""1"",""1740""
","
","
","""event"",""trial"",""time""
""fullscreenenter"",""1"",""1740""
","
","","","","","","null","<div style=""font-size:60px;"">+</div>","null","","fixation","","",""
"memory-trial","153","394474","0.0-18.0-1.53","5037","approach_avoid_sv1","""event"",""trial"",""time""
""fullscreenenter"",""1"",""1740""
","
","
","""event"",""trial"",""time""
""fullscreenenter"",""1"",""1740""
","
","","","","","","4582.0999999996275","images/straw2.png","","","memory_trial","3","maybe_new",""
"html-keyboard-response","154","394983","0.0-18.0-0.54","5037","approach_avoid_sv1","""event"",""trial"",""time""
""fullscreenenter"",""1"",""1740""
","
","
","""event"",""trial"",""time""
""fullscreenenter"",""1"",""1740""
","
","","","","","","null","<div style=""font-size:60px;"">+</div>","null","","fixation","","",""
"memory-trial","155","399588","0.0-18.0-1.54","5037","approach_avoid_sv1","""event"",""trial"",""time""
""fullscreenenter"",""1"",""1740""
","
","
","""event"",""trial"",""time""
""fullscreenenter"",""1"",""1740""
","
","","","","","","3588.899999999441","images/straw4.png","","","memory_trial","2","maybe_old",""
"html-keyboard-response","156","400094","0.0-18.0-0.55","5037","approach_avoid_sv1","""event"",""trial"",""time""
""fullscreenenter"",""1"",""1740""
","
","
","""event"",""trial"",""time""
""fullscreenenter"",""1"",""1740""
","
","","","","","","null","<div style=""font-size:60px;"">+</div>","null","","fixation","","",""
"memory-trial","157","404071","0.0-18.0-1.55","5037","approach_avoid_sv1","""event"",""trial"",""time""
""fullscreenenter"",""1"",""1740""
","
","
","""event"",""trial"",""time""
""fullscreenenter"",""1"",""1740""
","
","","","","","","2962.7000000001863","images/plane3.png","","","memory_trial","3","maybe_new",""
"html-keyboard-response","158","404583","0.0-18.0-0.56","5037","approach_avoid_sv1","""event"",""trial"",""time""
""fullscreenenter"",""1"",""1740""
","
","
","""event"",""trial"",""time""
""fullscreenenter"",""1"",""1740""
","
","","","","","","null","<div style=""font-size:60px;"">+</div>","null","","fixation","","",""
"memory-trial","159","406916","0.0-18.0-1.56","5037","approach_avoid_sv1","""event"",""trial"",""time""
""fullscreenenter"",""1"",""1740""
","
","
","""event"",""trial"",""time""
""fullscreenenter"",""1"",""1740""
","
","","","","","","1318.5999999996275","images/dog5.png","","","memory_trial","4","definitely_new",""
"html-keyboard-response","160","407424","0.0-18.0-0.57","5037","approach_avoid_sv1","""event"",""trial"",""time""
""fullscreenenter"",""1"",""1740""
","
","
","""event"",""trial"",""time""
""fullscreenenter"",""1"",""1740""
","
","","","","","","null","<div style=""font-size:60px;"">+</div>","null","","fixation","","",""
"memory-trial","161","409421","0.0-18.0-1.57","5037","approach_avoid_sv1","""event"",""trial"",""time""
""fullscreenenter"",""1"",""1740""
","
","
","""event"",""trial"",""time""
""fullscreenenter"",""1"",""1740""
","
","","","","","","977.6999999992549","images/boat7.png","","","memory_trial","4","definitely_new",""
"html-keyboard-response","162","409938","0.0-18.0-0.58","5037","approach_avoid_sv1","""event"",""trial"",""time""
""fullscreenenter"",""1"",""1740""
","
","
","""event"",""trial"",""time""
""fullscreenenter"",""1"",""1740""
","
","","","","","","null","<div style=""font-size:60px;"">+</div>","null","","fixation","","",""
"memory-trial","163","411840","0.0-18.0-1.58","5037","approach_avoid_sv1","""event"",""trial"",""time""
""fullscreenenter"",""1"",""1740""
","
","
","""event"",""trial"",""time""
""fullscreenenter"",""1"",""1740""
","
","","","","","","887.6000000005588","images/chair7.png","","","memory_trial","1","definitely_old",""
"html-keyboard-response","164","412354","0.0-18.0-0.59","5037","approach_avoid_sv1","""event"",""trial"",""time""
""fullscreenenter"",""1"",""1740""
","
","
","""event"",""trial"",""time""
""fullscreenenter"",""1"",""1740""
","
","","","","","","null","<div style=""font-size:60px;"">+</div>","null","","fixation","","",""
"memory-trial","165","414923","0.0-18.0-1.59","5037","approach_avoid_sv1","""event"",""trial"",""time""
""fullscreenenter"",""1"",""1740""
","
","
","""event"",""trial"",""time""
""fullscreenenter"",""1"",""1740""
","
","","","","","","1551","images/flower4.png","","","memory_trial","4","definitely_new",""
"html-keyboard-response","166","415436","0.0-18.0-0.60","5037","approach_avoid_sv1","""event"",""trial"",""time""
""fullscreenenter"",""1"",""1740""
","
","
","""event"",""trial"",""time""
""fullscreenenter"",""1"",""1740""
","
","","","","","","null","<div style=""font-size:60px;"">+</div>","null","","fixation","","",""
"memory-trial","167","418645","0.0-18.0-1.60","5037","approach_avoid_sv1","""event"",""trial"",""time""
""fullscreenenter"",""1"",""1740""
","
","
","""event"",""trial"",""time""
""fullscreenenter"",""1"",""1740""
","
","","","","","","2195","images/goat3.png","","","memory_trial","3","maybe_new",""
"html-keyboard-response","168","419162","0.0-18.0-0.61","5037","approach_avoid_sv1","""event"",""trial"",""time""
""fullscreenenter"",""1"",""1740""
","
","
","""event"",""trial"",""time""
""fullscreenenter"",""1"",""1740""
","
","","","","","","null","<div style=""font-size:60px;"">+</div>","null","","fixation","","",""
"memory-trial","169","421460","0.0-18.0-1.61","5037","approach_avoid_sv1","""event"",""trial"",""time""
""fullscreenenter"",""1"",""1740""
","
","
","""event"",""trial"",""time""
""fullscreenenter"",""1"",""1740""
","
","","","","","","1277.699999999255","images/truck1.png","","","memory_trial","1","definitely_old",""
"html-keyboard-response","170","421970","0.0-18.0-0.62","5037","approach_avoid_sv1","""event"",""trial"",""time""
""fullscreenenter"",""1"",""1740""
","
","
","""event"",""trial"",""time""
""fullscreenenter"",""1"",""1740""
","
","","","","","","null","<div style=""font-size:60px;"">+</div>","null","","fixation","","",""
"memory-trial","171","424393","0.0-18.0-1.62","5037","approach_avoid_sv1","""event"",""trial"",""time""
""fullscreenenter"",""1"",""1740""
","
","
","""event"",""trial"",""time""
""fullscreenenter"",""1"",""1740""
","
","","","","","","1410","images/orange8.png","","","memory_trial","1","definitely_old",""
"html-keyboard-response","172","424910","0.0-18.0-0.63","5037","approach_avoid_sv1","""event"",""trial"",""time""
""fullscreenenter"",""1"",""1740""
","
","
","""event"",""trial"",""time""
""fullscreenenter"",""1"",""1740""
","
","","","","","","null","<div style=""font-size:60px;"">+</div>","null","","fixation","","",""
"memory-trial","173","427140","0.0-18.0-1.63","5037","approach_avoid_sv1","""event"",""trial"",""time""
""fullscreenenter"",""1"",""1740""
","
","
","""event"",""trial"",""time""
""fullscreenenter"",""1"",""1740""
","
","","","","","","1221.7000000001863","images/dog8.png","","","memory_trial","4","definitely_new",""
"html-keyboard-response","174","427650","0.0-18.0-0.64","5037","approach_avoid_sv1","""event"",""trial"",""time""
""fullscreenenter"",""1"",""1740""
","
","
","""event"",""trial"",""time""
""fullscreenenter"",""1"",""1740""
","
","","","","","","null","<div style=""font-size:60px;"">+</div>","null","","fixation","","",""
"memory-trial","175","429771","0.0-18.0-1.64","5037","approach_avoid_sv1","""event"",""trial"",""time""
""fullscreenenter"",""1"",""1740""
","
","
","""event"",""trial"",""time""
""fullscreenenter"",""1"",""1740""
","
","","","","","","1108.7999999998137","images/dog4.png","","","memory_trial","4","definitely_new",""
"html-keyboard-response","176","430275","0.0-18.0-0.65","5037","approach_avoid_sv1","""event"",""trial"",""time""
""fullscreenenter"",""1"",""1740""
","
","
","""event"",""trial"",""time""
""fullscreenenter"",""1"",""1740""
","
","","","","","","null","<div style=""font-size:60px;"">+</div>","null","","fixation","","",""
"memory-trial","177","433177","0.0-18.0-1.65","5037","approach_avoid_sv1","""event"",""trial"",""time""
""fullscreenenter"",""1"",""1740""
","
","
","""event"",""trial"",""time""
""fullscreenenter"",""1"",""1740""
","
","","","","","","1891.300000000745","images/tree4.png","","","memory_trial","3","maybe_new",""
"html-keyboard-response","178","433684","0.0-18.0-0.66","5037","approach_avoid_sv1","""event"",""trial"",""time""
""fullscreenenter"",""1"",""1740""
","
","
","""event"",""trial"",""time""
""fullscreenenter"",""1"",""1740""
","
","","","","","","null","<div style=""font-size:60px;"">+</div>","null","","fixation","","",""
"memory-trial","179","436103","0.0-18.0-1.66","5037","approach_avoid_sv1","""event"",""trial"",""time""
""fullscreenenter"",""1"",""1740""
","
","
","""event"",""trial"",""time""
""fullscreenenter"",""1"",""1740""
","
","","","","","","1404","images/bush5.png","","","memory_trial","4","definitely_new",""
"html-keyboard-response","180","436616","0.0-18.0-0.67","5037","approach_avoid_sv1","""event"",""trial"",""time""
""fullscreenenter"",""1"",""1740""
","
","
","""event"",""trial"",""time""
""fullscreenenter"",""1"",""1740""
","
","","","","","","null","<div style=""font-size:60px;"">+</div>","null","","fixation","","",""
"memory-trial","181","439210","0.0-18.0-1.67","5037","approach_avoid_sv1","""event"",""trial"",""time""
""fullscreenenter"",""1"",""1740""
","
","
","""event"",""trial"",""time""
""fullscreenenter"",""1"",""1740""
","
","","","","","","1578.9000000003725","images/cow6.png","","","memory_trial","3","maybe_new",""
"html-keyboard-response","182","439715","0.0-18.0-0.68","5037","approach_avoid_sv1","""event"",""trial"",""time""
""fullscreenenter"",""1"",""1740""
","
","
","""event"",""trial"",""time""
""fullscreenenter"",""1"",""1740""
","
","","","","","","null","<div style=""font-size:60px;"">+</div>","null","","fixation","","",""
"memory-trial","183","442005","0.0-18.0-1.68","5037","approach_avoid_sv1","""event"",""trial"",""time""
""fullscreenenter"",""1"",""1740""
","
","
","""event"",""trial"",""time""
""fullscreenenter"",""1"",""1740""
","
","","","","","","1282.5999999996275","images/sofa3.png","","","memory_trial","4","definitely_new",""
"html-keyboard-response","184","442521","0.0-18.0-0.69","5037","approach_avoid_sv1","""event"",""trial"",""time""
""fullscreenenter"",""1"",""1740""
","
","
","""event"",""trial"",""time""
""fullscreenenter"",""1"",""1740""
","
","","","","","","null","<div style=""font-size:60px;"">+</div>","null","","fixation","","",""
"memory-trial","185","444564","0.0-18.0-1.69","5037","approach_avoid_sv1","""event"",""trial"",""time""
""fullscreenenter"",""1"",""1740""
","
","
","""event"",""trial"",""time""
""fullscreenenter"",""1"",""1740""
","
","","","","","","1035.2999999998137","images/table5.png","","","memory_trial","1","definitely_old",""
"html-keyboard-response","186","445072","0.0-18.0-0.70","5037","approach_avoid_sv1","""event"",""trial"",""time""
""fullscreenenter"",""1"",""1740""
","
","
","""event"",""trial"",""time""
""fullscreenenter"",""1"",""1740""
","
","","","","","","null","<div style=""font-size:60px;"">+</div>","null","","fixation","","",""
"memory-trial","187","447655","0.0-18.0-1.70","5037","approach_avoid_sv1","""event"",""trial"",""time""
""fullscreenenter"",""1"",""1740""
","
","
","""event"",""trial"",""time""
""fullscreenenter"",""1"",""1740""
","
","","","","","","1572.5999999996275","images/rabbit5.png","","","memory_trial","4","definitely_new",""
"html-keyboard-response","188","448173","0.0-18.0-0.71","5037","approach_avoid_sv1","""event"",""trial"",""time""
""fullscreenenter"",""1"",""1740""
","
","
","""event"",""trial"",""time""
""fullscreenenter"",""1"",""1740""
","
","","","","","","null","<div style=""font-size:60px;"">+</div>","null","","fixation","","",""
"memory-trial","189","452290","0.0-18.0-1.71","5037","approach_avoid_sv1","""event"",""trial"",""time""
""fullscreenenter"",""1"",""1740""
","
","
","""event"",""trial"",""time""
""fullscreenenter"",""1"",""1740""
","
","","","","","","3090.7000000001863","images/train3.png","","","memory_trial","2","maybe_old",""
"html-keyboard-response","190","452800","0.0-18.0-0.72","5037","approach_avoid_sv1","""event"",""trial"",""time""
""fullscreenenter"",""1"",""1740""
","
","
","""event"",""trial"",""time""
""fullscreenenter"",""1"",""1740""
","
","","","","","","null","<div style=""font-size:60px;"">+</div>","null","","fixation","","",""
"memory-trial","191","455530","0.0-18.0-1.72","5037","approach_avoid_sv1","""event"",""trial"",""time""
""fullscreenenter"",""1"",""1740""
","
","
","""event"",""trial"",""time""
""fullscreenenter"",""1"",""1740""
","
","","","","","","1717.1000000005588","images/rodent2.png","","","memory_trial","1","definitely_old",""
"html-keyboard-response","192","456040","0.0-18.0-0.73","5037","approach_avoid_sv1","""event"",""trial"",""time""
""fullscreenenter"",""1"",""1740""
","
","
","""event"",""trial"",""time""
""fullscreenenter"",""1"",""1740""
","
","","","","","","null","<div style=""font-size:60px;"">+</div>","null","","fixation","","",""
"memory-trial","193","458304","0.0-18.0-1.73","5037","approach_avoid_sv1","""event"",""trial"",""time""
""fullscreenenter"",""1"",""1740""
","
","
","""event"",""trial"",""time""
""fullscreenenter"",""1"",""1740""
","
","","","","","","1247.5","images/bed5.png","","","memory_trial","1","definitely_old",""
"html-keyboard-response","194","458816","0.0-18.0-0.74","5037","approach_avoid_sv1","""event"",""trial"",""time""
""fullscreenenter"",""1"",""1740""
","
","
","""event"",""trial"",""time""
""fullscreenenter"",""1"",""1740""
","
","","","","","","null","<div style=""font-size:60px;"">+</div>","null","","fixation","","",""
"memory-trial","195","462131","0.0-18.0-1.74","5037","approach_avoid_sv1","""event"",""trial"",""time""
""fullscreenenter"",""1"",""1740""
","
","
","""event"",""trial"",""time""
""fullscreenenter"",""1"",""1740""
","
","","","","","","2305","images/goat7.png","","","memory_trial","2","maybe_old",""
"html-keyboard-response","196","462638","0.0-18.0-0.75","5037","approach_avoid_sv1","""event"",""trial"",""time""
""fullscreenenter"",""1"",""1740""
","
","
","""event"",""trial"",""time""
""fullscreenenter"",""1"",""1740""
","
","","","","","","null","<div style=""font-size:60px;"">+</div>","null","","fixation","","",""
"memory-trial","197","466158","0.0-18.0-1.75","5037","approach_avoid_sv1","""event"",""trial"",""time""
""fullscreenenter"",""1"",""1740""
","
","
","""event"",""trial"",""time""
""fullscreenenter"",""1"",""1740""
","
","","","","","","2508.100000000559","images/horse8.png","","","memory_trial","2","maybe_old",""
"html-keyboard-response","198","466674","0.0-18.0-0.76","5037","approach_avoid_sv1","""event"",""trial"",""time""
""fullscreenenter"",""1"",""1740""
","
","
","""event"",""trial"",""time""
""fullscreenenter"",""1"",""1740""
","
","","","","","","null","<div style=""font-size:60px;"">+</div>","null","","fixation","","",""
"memory-trial","199","470967","0.0-18.0-1.76","5037","approach_avoid_sv1","""event"",""trial"",""time""
""fullscreenenter"",""1"",""1740""
","
","
","""event"",""trial"",""time""
""fullscreenenter"",""1"",""1740""
","
","","","","","","3280.5999999996275","images/apple8.png","","","memory_trial","1","definitely_old",""
"html-keyboard-response","200","471485","0.0-18.0-0.77","5037","approach_avoid_sv1","""event"",""trial"",""time""
""fullscreenenter"",""1"",""1740""
","
","
","""event"",""trial"",""time""
""fullscreenenter"",""1"",""1740""
","
","","","","","","null","<div style=""font-size:60px;"">+</div>","null","","fixation","","",""
"memory-trial","201","475624","0.0-18.0-1.77","5037","approach_avoid_sv1","""event"",""trial"",""time""
""fullscreenenter"",""1"",""1740""
","
","
","""event"",""trial"",""time""
""fullscreenenter"",""1"",""1740""
","
","","","","","","3128.2999999998137","images/cow5.png","","","memory_trial","3","maybe_new",""
"html-keyboard-response","202","476135","0.0-18.0-0.78","5037","approach_avoid_sv1","""event"",""trial"",""time""
""fullscreenenter"",""1"",""1740""
","
","
","""event"",""trial"",""time""
""fullscreenenter"",""1"",""1740""
","
","","","","","","null","<div style=""font-size:60px;"">+</div>","null","","fixation","","",""
"memory-trial","203","479551","0.0-18.0-1.78","5037","approach_avoid_sv1","""event"",""trial"",""time""
""fullscreenenter"",""1"",""1740""
","
","
","""event"",""trial"",""time""
""fullscreenenter"",""1"",""1740""
","
","","","","","","2404.5","images/sofa5.png","","","memory_trial","3","maybe_new",""
"html-keyboard-response","204","480059","0.0-18.0-0.79","5037","approach_avoid_sv1","""event"",""trial"",""time""
""fullscreenenter"",""1"",""1740""
","
","
","""event"",""trial"",""time""
""fullscreenenter"",""1"",""1740""
","
","","","","","","null","<div style=""font-size:60px;"">+</div>","null","","fixation","","",""
"memory-trial","205","482878","0.0-18.0-1.79","5037","approach_avoid_sv1","""event"",""trial"",""time""
""fullscreenenter"",""1"",""1740""
","
","
","""event"",""trial"",""time""
""fullscreenenter"",""1"",""1740""
","
","","","","","","1810.7000000001863","images/apple4.png","","","memory_trial","4","definitely_new",""
"html-keyboard-response","206","483394","0.0-18.0-0.80","5037","approach_avoid_sv1","""event"",""trial"",""time""
""fullscreenenter"",""1"",""1740""
","
","
","""event"",""trial"",""time""
""fullscreenenter"",""1"",""1740""
","
","","","","","","null","<div style=""font-size:60px;"">+</div>","null","","fixation","","",""
"memory-trial","207","486060","0.0-18.0-1.80","5037","approach_avoid_sv1","""event"",""trial"",""time""
""fullscreenenter"",""1"",""1740""
","
","
","""event"",""trial"",""time""
""fullscreenenter"",""1"",""1740""
","
","","","","","","1648.3999999994412","images/sheep6.png","","","memory_trial","3","maybe_new",""
"html-keyboard-response","208","486573","0.0-18.0-0.81","5037","approach_avoid_sv1","""event"",""trial"",""time""
""fullscreenenter"",""1"",""1740""
","
","
","""event"",""trial"",""time""
""fullscreenenter"",""1"",""1740""
","
","","","","","","null","<div style=""font-size:60px;"">+</div>","null","","fixation","","",""
"memory-trial","209","489014","0.0-18.0-1.81","5037","approach_avoid_sv1","""event"",""trial"",""time""
""fullscreenenter"",""1"",""1740""
","
","
","""event"",""trial"",""time""
""fullscreenenter"",""1"",""1740""
","
","","","","","","1435","images/rodent1.png","","","memory_trial","1","definitely_old",""
"html-keyboard-response","210","489524","0.0-18.0-0.82","5037","approach_avoid_sv1","""event"",""trial"",""time""
""fullscreenenter"",""1"",""1740""
","
","
","""event"",""trial"",""time""
""fullscreenenter"",""1"",""1740""
","
","","","","","","null","<div style=""font-size:60px;"">+</div>","null","","fixation","","",""
"memory-trial","211","492316","0.0-18.0-1.82","5037","approach_avoid_sv1","""event"",""trial"",""time""
""fullscreenenter"",""1"",""1740""
","
","
","""event"",""trial"",""time""
""fullscreenenter"",""1"",""1740""
","
","","","","","","1780.7000000001863","images/truck5.png","","","memory_trial","4","definitely_new",""
"html-keyboard-response","212","492822","0.0-18.0-0.83","5037","approach_avoid_sv1","""event"",""trial"",""time""
""fullscreenenter"",""1"",""1740""
","
","
","""event"",""trial"",""time""
""fullscreenenter"",""1"",""1740""
","
","","","","","","null","<div style=""font-size:60px;"">+</div>","null","","fixation","","",""
"memory-trial","213","497174","0.0-18.0-1.83","5037","approach_avoid_sv1","""event"",""trial"",""time""
""fullscreenenter"",""1"",""1740""
","
","
","""event"",""trial"",""time""
""fullscreenenter"",""1"",""1740""
","
","","","","","","3345.9000000003725","images/cat1.png","","","memory_trial","2","maybe_old",""
"html-keyboard-response","214","497690","0.0-18.0-0.84","5037","approach_avoid_sv1","""event"",""trial"",""time""
""fullscreenenter"",""1"",""1740""
","
","
","""event"",""trial"",""time""
""fullscreenenter"",""1"",""1740""
","
","","","","","","null","<div style=""font-size:60px;"">+</div>","null","","fixation","","",""
"memory-trial","215","501192","0.0-18.0-1.84","5037","approach_avoid_sv1","""event"",""trial"",""time""
""fullscreenenter"",""1"",""1740""
","
","
","""event"",""trial"",""time""
""fullscreenenter"",""1"",""1740""
","
","","","","","","2484.7000000001863","images/cow1.png","","","memory_trial","3","maybe_new",""
"html-keyboard-response","216","501704","0.0-18.0-0.85","5037","approach_avoid_sv1","""event"",""trial"",""time""
""fullscreenenter"",""1"",""1740""
","
","
","""event"",""trial"",""time""
""fullscreenenter"",""1"",""1740""
","
","","","","","","null","<div style=""font-size:60px;"">+</div>","null","","fixation","","",""
"memory-trial","217","504824","0.0-18.0-1.85","5037","approach_avoid_sv1","""event"",""trial"",""time""
""fullscreenenter"",""1"",""1740""
","
","
","""event"",""trial"",""time""
""fullscreenenter"",""1"",""1740""
","
","","","","","","2106.399999999441","images/sheep4.png","","","memory_trial","3","maybe_new",""
"html-keyboard-response","218","505340","0.0-18.0-0.86","5037","approach_avoid_sv1","""event"",""trial"",""time""
""fullscreenenter"",""1"",""1740""
","
","
","""event"",""trial"",""time""
""fullscreenenter"",""1"",""1740""
","
","","","","","","null","<div style=""font-size:60px;"">+</div>","null","","fixation","","",""
"memory-trial","219","508655","0.0-18.0-1.86","5037","approach_avoid_sv1","""event"",""trial"",""time""
""fullscreenenter"",""1"",""1740""
","
","
","""event"",""trial"",""time""
""fullscreenenter"",""1"",""1740""
","
","","","","","","2304.600000000559","images/flower5.png","","","memory_trial","4","definitely_new",""
"html-keyboard-response","220","509163","0.0-18.0-0.87","5037","approach_avoid_sv1","""event"",""trial"",""time""
""fullscreenenter"",""1"",""1740""
","
","
","""event"",""trial"",""time""
""fullscreenenter"",""1"",""1740""
","
","","","","","","null","<div style=""font-size:60px;"">+</div>","null","","fixation","","",""
"memory-trial","221","512050","0.0-18.0-1.87","5037","approach_avoid_sv1","""event"",""trial"",""time""
""fullscreenenter"",""1"",""1740""
","
","
","""event"",""trial"",""time""
""fullscreenenter"",""1"",""1740""
","
","","","","","","1869.2999999998137","images/horse3.png","","","memory_trial","2","maybe_old",""
"html-keyboard-response","222","512563","0.0-18.0-0.88","5037","approach_avoid_sv1","""event"",""trial"",""time""
""fullscreenenter"",""1"",""1740""
","
","
","""event"",""trial"",""time""
""fullscreenenter"",""1"",""1740""
","
","","","","","","null","<div style=""font-size:60px;"">+</div>","null","","fixation","","",""
"memory-trial","223","515239","0.0-18.0-1.88","5037","approach_avoid_sv1","""event"",""trial"",""time""
""fullscreenenter"",""1"",""1740""
","
","
","""event"",""trial"",""time""
""fullscreenenter"",""1"",""1740""
","
","","","","","","1667.5","images/train8.png","","","memory_trial","1","definitely_old",""
"html-keyboard-response","224","515754","0.0-18.0-0.89","5037","approach_avoid_sv1","""event"",""trial"",""time""
""fullscreenenter"",""1"",""1740""
","
","
","""event"",""trial"",""time""
""fullscreenenter"",""1"",""1740""
","
","","","","","","null","<div style=""font-size:60px;"">+</div>","null","","fixation","","",""
"memory-trial","225","518405","0.0-18.0-1.89","5037","approach_avoid_sv1","""event"",""trial"",""time""
""fullscreenenter"",""1"",""1740""
","
","
","""event"",""trial"",""time""
""fullscreenenter"",""1"",""1740""
","
","","","","","","1634.2999999998137","images/flower7.png","","","memory_trial","4","definitely_new",""
"html-keyboard-response","226","518913","0.0-18.0-0.90","5037","approach_avoid_sv1","""event"",""trial"",""time""
""fullscreenenter"",""1"",""1740""
","
","
","""event"",""trial"",""time""
""fullscreenenter"",""1"",""1740""
","
","","","","","","null","<div style=""font-size:60px;"">+</div>","null","","fixation","","",""
"memory-trial","227","521938","0.0-18.0-1.90","5037","approach_avoid_sv1","""event"",""trial"",""time""
""fullscreenenter"",""1"",""1740""
","
","
","""event"",""trial"",""time""
""fullscreenenter"",""1"",""1740""
","
","","","","","","2008.7999999998137","images/table7.png","","","memory_trial","3","maybe_new",""
"html-keyboard-response","228","522455","0.0-18.0-0.91","5037","approach_avoid_sv1","""event"",""trial"",""time""
""fullscreenenter"",""1"",""1740""
","
","
","""event"",""trial"",""time""
""fullscreenenter"",""1"",""1740""
","
","","","","","","null","<div style=""font-size:60px;"">+</div>","null","","fixation","","",""
"memory-trial","229","524852","0.0-18.0-1.91","5037","approach_avoid_sv1","""event"",""trial"",""time""
""fullscreenenter"",""1"",""1740""
","
","
","""event"",""trial"",""time""
""fullscreenenter"",""1"",""1740""
","
","","","","","","1380.4000000003725","images/sofa4.png","","","memory_trial","4","definitely_new",""
"html-button-response","230","543467","0.0-18.0-2.91-0.91","5037","approach_avoid_sv1","""event"",""trial"",""time""
""fullscreenenter"",""1"",""1740""
","
","
","""event"",""trial"",""time""
""fullscreenenter"",""1"",""1740""
","
","","","","","","18612.700000000186","<p> Take a break! </p><p> Click the button to continue. </p>","0","","break","","",""
"html-keyboard-response","231","543983","0.0-18.0-0.92","5037","approach_avoid_sv1","""event"",""trial"",""time""
""fullscreenenter"",""1"",""1740""
","
","
","""event"",""trial"",""time""
""fullscreenenter"",""1"",""1740""
","
","","","","","","null","<div style=""font-size:60px;"">+</div>","null","","fixation","","",""
"memory-trial","232","546590","0.0-18.0-1.92","5037","approach_avoid_sv1","""event"",""trial"",""time""
""fullscreenenter"",""1"",""1740""
","
","
","""event"",""trial"",""time""
""fullscreenenter"",""1"",""1740""
","
","","","","","","1595.7000000001863","images/truck3.png","","","memory_trial","1","definitely_old",""
"html-keyboard-response","233","547108","0.0-18.0-0.93","5037","approach_avoid_sv1","""event"",""trial"",""time""
""fullscreenenter"",""1"",""1740""
","
","
","""event"",""trial"",""time""
""fullscreenenter"",""1"",""1740""
","
","","","","","","null","<div style=""font-size:60px;"">+</div>","null","","fixation","","",""
"memory-trial","234","549801","0.0-18.0-1.93","5037","approach_avoid_sv1","""event"",""trial"",""time""
""fullscreenenter"",""1"",""1740""
","
","
","""event"",""trial"",""time""
""fullscreenenter"",""1"",""1740""
","
","","","","","","1679.7000000001863","images/goat2.png","","","memory_trial","3","maybe_new",""
"html-keyboard-response","235","550310","0.0-18.0-0.94","5037","approach_avoid_sv1","""event"",""trial"",""time""
""fullscreenenter"",""1"",""1740""
","
","
","""event"",""trial"",""time""
""fullscreenenter"",""1"",""1740""
","
","","","","","","null","<div style=""font-size:60px;"">+</div>","null","","fixation","","",""
"memory-trial","236","555751","0.0-18.0-1.94","5037","approach_avoid_sv1","""event"",""trial"",""time""
""fullscreenenter"",""1"",""1740""
","
","
","""event"",""trial"",""time""
""fullscreenenter"",""1"",""1740""
","
","","","","","","4422.899999999441","images/horse6.png","","","memory_trial","4","definitely_new",""
"html-keyboard-response","237","556260","0.0-18.0-0.95","5037","approach_avoid_sv1","""event"",""trial"",""time""
""fullscreenenter"",""1"",""1740""
","
","
","""event"",""trial"",""time""
""fullscreenenter"",""1"",""1740""
","
","","","","","","null","<div style=""font-size:60px;"">+</div>","null","","fixation","","",""
"memory-trial","238","559365","0.0-18.0-1.95","5037","approach_avoid_sv1","""event"",""trial"",""time""
""fullscreenenter"",""1"",""1740""
","
","
","""event"",""trial"",""time""
""fullscreenenter"",""1"",""1740""
","
","","","","","","2088.300000000745","images/sheep3.png","","","memory_trial","3","maybe_new",""
"html-keyboard-response","239","559871","0.0-18.0-0.96","5037","approach_avoid_sv1","""event"",""trial"",""time""
""fullscreenenter"",""1"",""1740""
","
","
","""event"",""trial"",""time""
""fullscreenenter"",""1"",""1740""
","
","","","","","","null","<div style=""font-size:60px;"">+</div>","null","","fixation","","",""
"memory-trial","240","562214","0.0-18.0-1.96","5037","approach_avoid_sv1","""event"",""trial"",""time""
""fullscreenenter"",""1"",""1740""
","
","
","""event"",""trial"",""time""
""fullscreenenter"",""1"",""1740""
","
","","","","","","1336.5","images/flower2.png","","","memory_trial","4","definitely_new",""
"html-keyboard-response","241","562723","0.0-18.0-0.97","5037","approach_avoid_sv1","""event"",""trial"",""time""
""fullscreenenter"",""1"",""1740""
","
","
","""event"",""trial"",""time""
""fullscreenenter"",""1"",""1740""
","
","","","","","","null","<div style=""font-size:60px;"">+</div>","null","","fixation","","",""
"memory-trial","242","565654","0.0-18.0-1.97","5037","approach_avoid_sv1","""event"",""trial"",""time""
""fullscreenenter"",""1"",""1740""
","
","
","""event"",""trial"",""time""
""fullscreenenter"",""1"",""1740""
","
","","","","","","1922.2999999998137","images/apple3.png","","","memory_trial","4","definitely_new",""
"html-keyboard-response","243","566166","0.0-18.0-0.98","5037","approach_avoid_sv1","""event"",""trial"",""time""
""fullscreenenter"",""1"",""1740""
","
","
","""event"",""trial"",""time""
""fullscreenenter"",""1"",""1740""
","
","","","","","","null","<div style=""font-size:60px;"">+</div>","null","","fixation","","",""
"memory-trial","244","571282","0.0-18.0-1.98","5037","approach_avoid_sv1","""event"",""trial"",""time""
""fullscreenenter"",""1"",""1740""
","
","
","""event"",""trial"",""time""
""fullscreenenter"",""1"",""1740""
","
","","","","","","4104.5999999996275","images/cow3.png","","","memory_trial","2","maybe_old",""
"html-keyboard-response","245","571794","0.0-18.0-0.99","5037","approach_avoid_sv1","""event"",""trial"",""time""
""fullscreenenter"",""1"",""1740""
","
","
","""event"",""trial"",""time""
""fullscreenenter"",""1"",""1740""
","
","","","","","","null","<div style=""font-size:60px;"">+</div>","null","","fixation","","",""
"memory-trial","246","574856","0.0-18.0-1.99","5037","approach_avoid_sv1","""event"",""trial"",""time""
""fullscreenenter"",""1"",""1740""
","
","
","""event"",""trial"",""time""
""fullscreenenter"",""1"",""1740""
","
","","","","","","2039.4000000003725","images/cat4.png","","","memory_trial","1","definitely_old",""
"html-keyboard-response","247","575371","0.0-18.0-0.100","5037","approach_avoid_sv1","""event"",""trial"",""time""
""fullscreenenter"",""1"",""1740""
","
","
","""event"",""trial"",""time""
""fullscreenenter"",""1"",""1740""
","
","","","","","","null","<div style=""font-size:60px;"">+</div>","null","","fixation","","",""
"memory-trial","248","578098","0.0-18.0-1.100","5037","approach_avoid_sv1","""event"",""trial"",""time""
""fullscreenenter"",""1"",""1740""
","
","
","""event"",""trial"",""time""
""fullscreenenter"",""1"",""1740""
","
","","","","","","1715.7999999998137","images/chair4.png","","","memory_trial","1","definitely_old",""
"html-keyboard-response","249","578607","0.0-18.0-0.101","5037","approach_avoid_sv1","""event"",""trial"",""time""
""fullscreenenter"",""1"",""1740""
","
","
","""event"",""trial"",""time""
""fullscreenenter"",""1"",""1740""
","
","","","","","","null","<div style=""font-size:60px;"">+</div>","null","","fixation","","",""
"memory-trial","250","581294","0.0-18.0-1.101","5037","approach_avoid_sv1","""event"",""trial"",""time""
""fullscreenenter"",""1"",""1740""
","
","
","""event"",""trial"",""time""
""fullscreenenter"",""1"",""1740""
","
","","","","","","1673.4000000003725","images/banana7.png","","","memory_trial","2","maybe_old",""
"html-keyboard-response","251","581809","0.0-18.0-0.102","5037","approach_avoid_sv1","""event"",""trial"",""time""
""fullscreenenter"",""1"",""1740""
","
","
","""event"",""trial"",""time""
""fullscreenenter"",""1"",""1740""
","
","","","","","","null","<div style=""font-size:60px;"">+</div>","null","","fixation","","",""
"memory-trial","252","586468","0.0-18.0-1.102","5037","approach_avoid_sv1","""event"",""trial"",""time""
""fullscreenenter"",""1"",""1740""
","
","
","""event"",""trial"",""time""
""fullscreenenter"",""1"",""1740""
","
","","","","","","3642.5999999996275","images/train2.png","","","memory_trial","2","maybe_old",""
"html-keyboard-response","253","586979","0.0-18.0-0.103","5037","approach_avoid_sv1","""event"",""trial"",""time""
""fullscreenenter"",""1"",""1740""
","
","
","""event"",""trial"",""time""
""fullscreenenter"",""1"",""1740""
","
","","","","","","null","<div style=""font-size:60px;"">+</div>","null","","fixation","","",""
"memory-trial","254","590114","0.0-18.0-1.103","5037","approach_avoid_sv1","""event"",""trial"",""time""
""fullscreenenter"",""1"",""1740""
","
","
","""event"",""trial"",""time""
""fullscreenenter"",""1"",""1740""
","
","","","","","","2117.899999999441","images/cat3.png","","","memory_trial","3","maybe_new",""
"html-keyboard-response","255","590628","0.0-18.0-0.104","5037","approach_avoid_sv1","""event"",""trial"",""time""
""fullscreenenter"",""1"",""1740""
","
","
","""event"",""trial"",""time""
""fullscreenenter"",""1"",""1740""
","
","","","","","","null","<div style=""font-size:60px;"">+</div>","null","","fixation","","",""
"memory-trial","256","593564","0.0-18.0-1.104","5037","approach_avoid_sv1","""event"",""trial"",""time""
""fullscreenenter"",""1"",""1740""
","
","
","""event"",""trial"",""time""
""fullscreenenter"",""1"",""1740""
","
","","","","","","1924.0999999996275","images/tree2.png","","","memory_trial","2","maybe_old",""
"html-keyboard-response","257","594072","0.0-18.0-0.105","5037","approach_avoid_sv1","""event"",""trial"",""time""
""fullscreenenter"",""1"",""1740""
","
","
","""event"",""trial"",""time""
""fullscreenenter"",""1"",""1740""
","
","","","","","","null","<div style=""font-size:60px;"">+</div>","null","","fixation","","",""
"memory-trial","258","597523","0.0-18.0-1.105","5037","approach_avoid_sv1","""event"",""trial"",""time""
""fullscreenenter"",""1"",""1740""
","
","
","""event"",""trial"",""time""
""fullscreenenter"",""1"",""1740""
","
","","","","","","2435","images/cow2.png","","","memory_trial","1","definitely_old",""
"html-keyboard-response","259","598042","0.0-18.0-0.106","5037","approach_avoid_sv1","""event"",""trial"",""time""
""fullscreenenter"",""1"",""1740""
","
","
","""event"",""trial"",""time""
""fullscreenenter"",""1"",""1740""
","
","","","","","","null","<div style=""font-size:60px;"">+</div>","null","","fixation","","",""
"memory-trial","260","600764","0.0-18.0-1.106","5037","approach_avoid_sv1","""event"",""trial"",""time""
""fullscreenenter"",""1"",""1740""
","
","
","""event"",""trial"",""time""
""fullscreenenter"",""1"",""1740""
","
","","","","","","1710.4000000003725","images/boat3.png","","","memory_trial","3","maybe_new",""
"html-keyboard-response","261","601272","0.0-18.0-0.107","5037","approach_avoid_sv1","""event"",""trial"",""time""
""fullscreenenter"",""1"",""1740""
","
","
","""event"",""trial"",""time""
""fullscreenenter"",""1"",""1740""
","
","","","","","","null","<div style=""font-size:60px;"">+</div>","null","","fixation","","",""
"memory-trial","262","604205","0.0-18.0-1.107","5037","approach_avoid_sv1","""event"",""trial"",""time""
""fullscreenenter"",""1"",""1740""
","
","
","""event"",""trial"",""time""
""fullscreenenter"",""1"",""1740""
","
","","","","","","1922.9000000003725","images/train5.png","","","memory_trial","3","maybe_new",""
"html-keyboard-response","263","604720","0.0-18.0-0.108","5037","approach_avoid_sv1","""event"",""trial"",""time""
""fullscreenenter"",""1"",""1740""
","
","
","""event"",""trial"",""time""
""fullscreenenter"",""1"",""1740""
","
","","","","","","null","<div style=""font-size:60px;"">+</div>","null","","fixation","","",""
"memory-trial","264","607466","0.0-18.0-1.108","5037","approach_avoid_sv1","""event"",""trial"",""time""
""fullscreenenter"",""1"",""1740""
","
","
","""event"",""trial"",""time""
""fullscreenenter"",""1"",""1740""
","
","","","","","","1734.3999999994412","images/cactus8.png","","","memory_trial","1","definitely_old",""
"html-keyboard-response","265","607973","0.0-18.0-0.109","5037","approach_avoid_sv1","""event"",""trial"",""time""
""fullscreenenter"",""1"",""1740""
","
","
","""event"",""trial"",""time""
""fullscreenenter"",""1"",""1740""
","
","","","","","","null","<div style=""font-size:60px;"">+</div>","null","","fixation","","",""
"memory-trial","266","612524","0.0-18.0-1.109","5037","approach_avoid_sv1","""event"",""trial"",""time""
""fullscreenenter"",""1"",""1740""
","
","
","""event"",""trial"",""time""
""fullscreenenter"",""1"",""1740""
","
","","","","","","3546","images/straw7.png","","","memory_trial","3","maybe_new",""
"html-keyboard-response","267","613029","0.0-18.0-0.110","5037","approach_avoid_sv1","""event"",""trial"",""time""
""fullscreenenter"",""1"",""1740""
","
","
","""event"",""trial"",""time""
""fullscreenenter"",""1"",""1740""
","
","","","","","","null","<div style=""font-size:60px;"">+</div>","null","","fixation","","",""
"memory-trial","268","615975","0.0-18.0-1.110","5037","approach_avoid_sv1","""event"",""trial"",""time""
""fullscreenenter"",""1"",""1740""
","
","
","""event"",""trial"",""time""
""fullscreenenter"",""1"",""1740""
","
","","","","","","1936.9000000003725","images/rabbit8.png","","","memory_trial","1","definitely_old",""
"html-keyboard-response","269","616491","0.0-18.0-0.111","5037","approach_avoid_sv1","""event"",""trial"",""time""
""fullscreenenter"",""1"",""1740""
","
","
","""event"",""trial"",""time""
""fullscreenenter"",""1"",""1740""
","
","","","","","","null","<div style=""font-size:60px;"">+</div>","null","","fixation","","",""
"memory-trial","270","620637","0.0-18.0-1.111","5037","approach_avoid_sv1","""event"",""trial"",""time""
""fullscreenenter"",""1"",""1740""
","
","
","""event"",""trial"",""time""
""fullscreenenter"",""1"",""1740""
","
","","","","","","3134.9000000003725","images/sofa1.png","","","memory_trial","4","definitely_new",""
"html-keyboard-response","271","621143","0.0-18.0-0.112","5037","approach_avoid_sv1","""event"",""trial"",""time""
""fullscreenenter"",""1"",""1740""
","
","
","""event"",""trial"",""time""
""fullscreenenter"",""1"",""1740""
","
","","","","","","null","<div style=""font-size:60px;"">+</div>","null","","fixation","","",""
"memory-trial","272","623657","0.0-18.0-1.112","5037","approach_avoid_sv1","""event"",""trial"",""time""
""fullscreenenter"",""1"",""1740""
","
","
","""event"",""trial"",""time""
""fullscreenenter"",""1"",""1740""
","
","","","","","","1498.7999999998137","images/cat2.png","","","memory_trial","4","definitely_new",""
"html-keyboard-response","273","624171","0.0-18.0-0.113","5037","approach_avoid_sv1","""event"",""trial"",""time""
""fullscreenenter"",""1"",""1740""
","
","
","""event"",""trial"",""time""
""fullscreenenter"",""1"",""1740""
","
","","","","","","null","<div style=""font-size:60px;"">+</div>","null","","fixation","","",""
"memory-trial","274","627315","0.0-18.0-1.113","5037","approach_avoid_sv1","""event"",""trial"",""time""
""fullscreenenter"",""1"",""1740""
","
","
","""event"",""trial"",""time""
""fullscreenenter"",""1"",""1740""
","
","","","","","","2129.100000000559","images/rabbit3.png","","","memory_trial","1","definitely_old",""
"html-keyboard-response","275","627822","0.0-18.0-0.114","5037","approach_avoid_sv1","""event"",""trial"",""time""
""fullscreenenter"",""1"",""1740""
","
","
","""event"",""trial"",""time""
""fullscreenenter"",""1"",""1740""
","
","","","","","","null","<div style=""font-size:60px;"">+</div>","null","","fixation","","",""
"memory-trial","276","630774","0.0-18.0-1.114","5037","approach_avoid_sv1","""event"",""trial"",""time""
""fullscreenenter"",""1"",""1740""
","
","
","""event"",""trial"",""time""
""fullscreenenter"",""1"",""1740""
","
","","","","","","1943.0999999996275","images/banana2.png","","","memory_trial","2","maybe_old",""
"html-keyboard-response","277","631284","0.0-18.0-0.115","5037","approach_avoid_sv1","""event"",""trial"",""time""
""fullscreenenter"",""1"",""1740""
","
","
","""event"",""trial"",""time""
""fullscreenenter"",""1"",""1740""
","
","","","","","","null","<div style=""font-size:60px;"">+</div>","null","","fixation","","",""
"memory-trial","278","635281","0.0-18.0-1.115","5037","approach_avoid_sv1","""event"",""trial"",""time""
""fullscreenenter"",""1"",""1740""
","
","
","""event"",""trial"",""time""
""fullscreenenter"",""1"",""1740""
","
","","","","","","2986.2000000001863","images/apple1.png","","","memory_trial","3","maybe_new",""
"html-keyboard-response","279","635796","0.0-18.0-0.116","5037","approach_avoid_sv1","""event"",""trial"",""time""
""fullscreenenter"",""1"",""1740""
","
","
","""event"",""trial"",""time""
""fullscreenenter"",""1"",""1740""
","
","","","","","","null","<div style=""font-size:60px;"">+</div>","null","","fixation","","",""
"memory-trial","280","638335","0.0-18.0-1.116","5037","approach_avoid_sv1","""event"",""trial"",""time""
""fullscreenenter"",""1"",""1740""
","
","
","""event"",""trial"",""time""
""fullscreenenter"",""1"",""1740""
","
","","","","","","1530.2999999998137","images/plane5.png","","","memory_trial","1","definitely_old",""
"html-keyboard-response","281","638843","0.0-18.0-0.117","5037","approach_avoid_sv1","""event"",""trial"",""time""
""fullscreenenter"",""1"",""1740""
","
","
","""event"",""trial"",""time""
""fullscreenenter"",""1"",""1740""
","
","","","","","","null","<div style=""font-size:60px;"">+</div>","null","","fixation","","",""
"memory-trial","282","643273","0.0-18.0-1.117","5037","approach_avoid_sv1","""event"",""trial"",""time""
""fullscreenenter"",""1"",""1740""
","
","
","""event"",""trial"",""time""
""fullscreenenter"",""1"",""1740""
","
","","","","","","3412.7000000001863","images/bush7.png","","","memory_trial","3","maybe_new",""
"html-keyboard-response","283","643782","0.0-18.0-0.118","5037","approach_avoid_sv1","""event"",""trial"",""time""
""fullscreenenter"",""1"",""1740""
","
","
","""event"",""trial"",""time""
""fullscreenenter"",""1"",""1740""
","
","","","","","","null","<div style=""font-size:60px;"">+</div>","null","","fixation","","",""
"memory-trial","284","646331","0.0-18.0-1.118","5037","approach_avoid_sv1","""event"",""trial"",""time""
""fullscreenenter"",""1"",""1740""
","
","
","""event"",""trial"",""time""
""fullscreenenter"",""1"",""1740""
","
","","","","","","1535.7999999998137","images/train4.png","","","memory_trial","2","maybe_old",""
"html-keyboard-response","285","646844","0.0-18.0-0.119","5037","approach_avoid_sv1","""event"",""trial"",""time""
""fullscreenenter"",""1"",""1740""
","
","
","""event"",""trial"",""time""
""fullscreenenter"",""1"",""1740""
","
","","","","","","null","<div style=""font-size:60px;"">+</div>","null","","fixation","","",""
"memory-trial","286","649614","0.0-18.0-1.119","5037","approach_avoid_sv1","""event"",""trial"",""time""
""fullscreenenter"",""1"",""1740""
","
","
","""event"",""trial"",""time""
""fullscreenenter"",""1"",""1740""
","
","","","","","","1757.6000000005588","images/bush3.png","","","memory_trial","2","maybe_old",""
"html-keyboard-response","287","650126","0.0-18.0-0.120","5037","approach_avoid_sv1","""event"",""trial"",""time""
""fullscreenenter"",""1"",""1740""
","
","
","""event"",""trial"",""time""
""fullscreenenter"",""1"",""1740""
","
","","","","","","null","<div style=""font-size:60px;"">+</div>","null","","fixation","","",""
"memory-trial","288","654524","0.0-18.0-1.120","5037","approach_avoid_sv1","""event"",""trial"",""time""
""fullscreenenter"",""1"",""1740""
","
","
","""event"",""trial"",""time""
""fullscreenenter"",""1"",""1740""
","
","","","","","","3391.399999999441","images/cactus6.png","","","memory_trial","3","maybe_new",""
"html-keyboard-response","289","655033","0.0-18.0-0.121","5037","approach_avoid_sv1","""event"",""trial"",""time""
""fullscreenenter"",""1"",""1740""
","
","
","""event"",""trial"",""time""
""fullscreenenter"",""1"",""1740""
","
","","","","","","null","<div style=""font-size:60px;"">+</div>","null","","fixation","","",""
"memory-trial","290","657523","0.0-18.0-1.121","5037","approach_avoid_sv1","""event"",""trial"",""time""
""fullscreenenter"",""1"",""1740""
","
","
","""event"",""trial"",""time""
""fullscreenenter"",""1"",""1740""
","
","","","","","","1475.5","images/sheep5.png","","","memory_trial","4","definitely_new",""
"html-keyboard-response","291","658035","0.0-18.0-0.122","5037","approach_avoid_sv1","""event"",""trial"",""time""
""fullscreenenter"",""1"",""1740""
","
","
","""event"",""trial"",""time""
""fullscreenenter"",""1"",""1740""
","
","","","","","","null","<div style=""font-size:60px;"">+</div>","null","","fixation","","",""
"memory-trial","292","660433","0.0-18.0-1.122","5037","approach_avoid_sv1","""event"",""trial"",""time""
""fullscreenenter"",""1"",""1740""
","
","
","""event"",""trial"",""time""
""fullscreenenter"",""1"",""1740""
","
","","","","","","1386.2999999998137","images/plane1.png","","","memory_trial","1","definitely_old",""
"html-keyboard-response","293","660946","0.0-18.0-0.123","5037","approach_avoid_sv1","""event"",""trial"",""time""
""fullscreenenter"",""1"",""1740""
","
","
","""event"",""trial"",""time""
""fullscreenenter"",""1"",""1740""
","
","","","","","","null","<div style=""font-size:60px;"">+</div>","null","","fixation","","",""
"memory-trial","294","666009","0.0-18.0-1.123","5037","approach_avoid_sv1","""event"",""trial"",""time""
""fullscreenenter"",""1"",""1740""
","
","
","""event"",""trial"",""time""
""fullscreenenter"",""1"",""1740""
","
","","","","","","4046.2000000001863","images/bed4.png","","","memory_trial","4","definitely_new",""
"html-keyboard-response","295","666515","0.0-18.0-0.124","5037","approach_avoid_sv1","""event"",""trial"",""time""
""fullscreenenter"",""1"",""1740""
","
","
","""event"",""trial"",""time""
""fullscreenenter"",""1"",""1740""
","
","","","","","","null","<div style=""font-size:60px;"">+</div>","null","","fixation","","",""
"memory-trial","296","669445","0.0-18.0-1.124","5037","approach_avoid_sv1","""event"",""trial"",""time""
""fullscreenenter"",""1"",""1740""
","
","
","""event"",""trial"",""time""
""fullscreenenter"",""1"",""1740""
","
","","","","","","1912.7000000001863","images/rabbit6.png","","","memory_trial","4","definitely_new",""
"html-keyboard-response","297","669957","0.0-18.0-0.125","5037","approach_avoid_sv1","""event"",""trial"",""time""
""fullscreenenter"",""1"",""1740""
","
","
