"trial_type","trial_index","time_elapsed","internal_node_id","subject_id","task_version","interactions","blur_events","focus_events","fullscreenenter_events","fullscreenexit_events","success","timeout","failed_images","failed_audio","failed_video","rt","stimulus","response","button_pressed","task_part","key_press","answer","correct"
"pavlovia","0","5","0.0-0.0","6377","approach_avoid_sv1","""event"",""trial"",""time""
""fullscreenenter"",""1"",""3180""
","
","
","""event"",""trial"",""time""
""fullscreenenter"",""1"",""3180""
","
","","","","","","","","","","","","",""
"fullscreen","1","4060","0.0-1.0","6377","approach_avoid_sv1","""event"",""trial"",""time""
""fullscreenenter"",""1"",""3180""
","
","
","""event"",""trial"",""time""
""fullscreenenter"",""1"",""3180""
","
","true","","","","","","","","","","","",""
"preload","2","6399","0.0-2.0","6377","approach_avoid_sv1","""event"",""trial"",""time""
""fullscreenenter"",""1"",""3180""
","
","
","""event"",""trial"",""time""
""fullscreenenter"",""1"",""3180""
","
","true","false","[]","[]","[]","","","","","","","",""
"preload","3","7498","0.0-3.0","6377","approach_avoid_sv1","""event"",""trial"",""time""
""fullscreenenter"",""1"",""3180""
","
","
","""event"",""trial"",""time""
""fullscreenenter"",""1"",""3180""
","
","true","false","[]","[]","[]","","","","","","","",""
"preload","4","7875","0.0-4.0","6377","approach_avoid_sv1","""event"",""trial"",""time""
""fullscreenenter"",""1"",""3180""
","
","
","""event"",""trial"",""time""
""fullscreenenter"",""1"",""3180""
","
","true","false","[]","[]","[]","","","","","","","",""
"audio-keyboard-response","5","10589","0.0-5.0","6377","approach_avoid_sv1","""event"",""trial"",""time""
""fullscreenenter"",""1"",""3180""
","
","
","""event"",""trial"",""time""
""fullscreenenter"",""1"",""3180""
","
","","","","","","2709.3333333333335","audio/beep_loop.wav"," ","","","","",""
"audio-button-response","6","11927","0.0-6.0","6377","approach_avoid_sv1","""event"",""trial"",""time""
""fullscreenenter"",""1"",""3180""
","
","
","""event"",""trial"",""time""
""fullscreenenter"",""1"",""3180""
","
","","","","","","1341","audio/turtle.wav","3","","","","",""
"audio-button-response","7","13856","0.0-7.0","6377","approach_avoid_sv1","""event"",""trial"",""time""
""fullscreenenter"",""1"",""3180""
","
","
","""event"",""trial"",""time""
""fullscreenenter"",""1"",""3180""
","
","","","","","","920","audio/shark.wav","2","","","","",""
"preload","8","16905","0.0-8.0","6377","approach_avoid_sv1","""event"",""trial"",""time""
""fullscreenenter"",""1"",""3180""
""fullscreenexit"",""9"",""19978""
","
","
","""event"",""trial"",""time""
""fullscreenenter"",""1"",""3180""
","""event"",""trial"",""time""
""fullscreenexit"",""9"",""19978""
","true","false","[]","[]","[]","","","","","","","",""
"learning-instructions","9","22737","0.0-9.0-0.0","6377","approach_avoid_sv1","""event"",""trial"",""time""
""fullscreenenter"",""1"",""3180""
""fullscreenexit"",""9"",""19978""
","
","
","""event"",""trial"",""time""
""fullscreenenter"",""1"",""3180""
","""event"",""trial"",""time""
""fullscreenexit"",""9"",""19978""
","","","","","","1350.6000000238419","<p> Welcome back! </p><p> Last week, you had to make choices about lots of different items.  </p>","","0","instructions","","",""
"learning-instructions","10","27250","0.0-9.0-0.1","6377","approach_avoid_sv1","""event"",""trial"",""time""
""fullscreenenter"",""1"",""3180""
""fullscreenexit"",""9"",""19978""
","
","
","""event"",""trial"",""time""
""fullscreenenter"",""1"",""3180""
","""event"",""trial"",""time""
""fullscreenexit"",""9"",""19978""
","","","","","","394.2999999523163","<p> Today, we are going to ask you to try to remember all the items. </p>","","0","instructions","","",""
"learning-instructions","11","37737","0.0-9.0-0.2","6377","approach_avoid_sv1","""event"",""trial"",""time""
""fullscreenenter"",""1"",""3180""
""fullscreenexit"",""9"",""19978""
","
","
","""event"",""trial"",""time""
""fullscreenenter"",""1"",""3180""
","""event"",""trial"",""time""
""fullscreenexit"",""9"",""19978""
","","","","","","350.6999999284744","<p> On every trial, you will see an image. </p><p> The image may be an OLD image you saw during the games last week or it may be a NEW image that was not presented. </p>","","0","instructions","","",""
"learning-instructions","12","47021","0.0-9.0-0.3","6377","approach_avoid_sv1","""event"",""trial"",""time""
""fullscreenenter"",""1"",""3180""
""fullscreenexit"",""9"",""19978""
","
","
","""event"",""trial"",""time""
""fullscreenenter"",""1"",""3180""
","""event"",""trial"",""time""
""fullscreenexit"",""9"",""19978""
","","","","","","774.7999999523163","<p> You need to select whether the image is:  </p><p>  'Definitely old', 'Maybe old', 'Maybe new', or 'Definitely new.'  </p><div class=""mem-choice-instructions-grid""><div class=""choice-option"" id=""choice-option-1"" ><img src=""images/definitely_old_1.png"" id=""choice-option-img-1"" class=""choice-option-img"" stage=""1""></div><div class=""choice-option"" id=""choice-option-2"" ><img src=""images/maybe_old_1.png"" id=""choice-option-img-2"" class=""choice-option-img"" stage=""1""></div><div class=""choice-option"" id=""choice-option-3"" ><img src=""images/maybe_new_1.png"" id=""choice-option-img-3"" class=""choice-option-img"" stage=""1""></div><div class=""choice-option"" id=""choice-option-4"" > <img src=""images/definitely_new_1.png"" id=""choice-option-img-4"" class=""choice-option-img"" stage=""1""></div></div>","","0","instructions","","",""
"learning-instructions","13","53987","0.0-9.0-0.4","6377","approach_avoid_sv1","""event"",""trial"",""time""
""fullscreenenter"",""1"",""3180""
""fullscreenexit"",""9"",""19978""
","
","
","""event"",""trial"",""time""
""fullscreenenter"",""1"",""3180""
","""event"",""trial"",""time""
""fullscreenexit"",""9"",""19978""
","","","","","","440.8000000715256","<p> You should use the 1, 2, 3, and 4 keys to make your responses.  </p><div class=""mem-choice-instructions-grid""><div class=""choice-option"" id=""choice-option-1"" ><img src=""images/definitely_old.png"" id=""choice-option-img-1"" class=""choice-option-img"" stage=""1""></div><div class=""choice-option"" id=""choice-option-2"" ><img src=""images/maybe_old.png"" id=""choice-option-img-2"" class=""choice-option-img"" stage=""1""></div><div class=""choice-option"" id=""choice-option-3"" ><img src=""images/maybe_new.png"" id=""choice-option-img-3"" class=""choice-option-img"" stage=""1""></div><div class=""choice-option"" id=""choice-option-4"" > <img src=""images/definitely_new.png"" id=""choice-option-img-4"" class=""choice-option-img"" stage=""1""></div></div>","","0","instructions","","",""
"learning-instructions","14","62224","0.0-9.0-0.5","6377","approach_avoid_sv1","""event"",""trial"",""time""
""fullscreenenter"",""1"",""3180""
""fullscreenexit"",""9"",""19978""
","
","
","""event"",""trial"",""time""
""fullscreenenter"",""1"",""3180""
","""event"",""trial"",""time""
""fullscreenexit"",""9"",""19978""
","","","","","","1897.2999999523163","<p> You will have 10 seconds to make each response.  </p><p>  Make sure to respond before time runs out! </p>","","0","instructions","","",""
"learning-instructions","15","70943","0.0-9.0-0.6","6377","approach_avoid_sv1","""event"",""trial"",""time""
""fullscreenenter"",""1"",""3180""
""fullscreenexit"",""9"",""19978""
""blur"",""16"",""126729""
""focus"",""16"",""332936""
""blur"",""16"",""333474""
""focus"",""16"",""381905""
""blur"",""16"",""382336""
""focus"",""16"",""386571""
","""event"",""trial"",""time""
""blur"",""16"",""126729""
""blur"",""16"",""333474""
""blur"",""16"",""382336""
","""event"",""trial"",""time""
""focus"",""16"",""332936""
""focus"",""16"",""381905""
""focus"",""16"",""386571""
","""event"",""trial"",""time""
""fullscreenenter"",""1"",""3180""
","""event"",""trial"",""time""
""fullscreenexit"",""9"",""19978""
","","","","","","1647.3000000715256","<p> Today, you will see each image ONCE only.  </p><p>  That means none of the images will repeat. </p>","","0","instructions","","",""
"learning-instructions","16","389218","0.0-9.0-0.7","6377","approach_avoid_sv1","""event"",""trial"",""time""
""fullscreenenter"",""1"",""3180""
""fullscreenexit"",""9"",""19978""
""blur"",""16"",""126729""
""focus"",""16"",""332936""
""blur"",""16"",""333474""
""focus"",""16"",""381905""
""blur"",""16"",""382336""
""focus"",""16"",""386571""
","""event"",""trial"",""time""
""blur"",""16"",""126729""
""blur"",""16"",""333474""
""blur"",""16"",""382336""
","""event"",""trial"",""time""
""focus"",""16"",""332936""
""focus"",""16"",""381905""
""focus"",""16"",""386571""
","""event"",""trial"",""time""
""fullscreenenter"",""1"",""3180""
","""event"",""trial"",""time""
""fullscreenexit"",""9"",""19978""
","","","","","","305602","<p> Before you play the real game, it is time to practice. </p><p>  Just like in the real game, some of the images in the practice will be ones you have seen before. </p><p>  Others will be entirely new. </p>","","0","instructions","","",""
"html-button-response","17","390676","0.0-10.0","6377","approach_avoid_sv1","""event"",""trial"",""time""
""fullscreenenter"",""1"",""3180""
""fullscreenexit"",""9"",""19978""
""blur"",""16"",""126729""
""focus"",""16"",""332936""
""blur"",""16"",""333474""
""focus"",""16"",""381905""
""blur"",""16"",""382336""
""focus"",""16"",""386571""
","""event"",""trial"",""time""
""blur"",""16"",""126729""
""blur"",""16"",""333474""
""blur"",""16"",""382336""
","""event"",""trial"",""time""
""focus"",""16"",""332936""
""focus"",""16"",""381905""
""focus"",""16"",""386571""
","""event"",""trial"",""time""
""fullscreenenter"",""1"",""3180""
","""event"",""trial"",""time""
""fullscreenexit"",""9"",""19978""
","","","","","","1354.7000000476837","<p> Ready to practice? </p><p> Remember, use the 1, 2, 3, and 4 keys to make your responses. </p>","0","","instructions","","",""
"html-keyboard-response","18","391278","0.0-11.0-0.0","6377","approach_avoid_sv1","""event"",""trial"",""time""
""fullscreenenter"",""1"",""3180""
""fullscreenexit"",""9"",""19978""
""blur"",""16"",""126729""
""focus"",""16"",""332936""
""blur"",""16"",""333474""
""focus"",""16"",""381905""
""blur"",""16"",""382336""
""focus"",""16"",""386571""
","""event"",""trial"",""time""
""blur"",""16"",""126729""
""blur"",""16"",""333474""
""blur"",""16"",""382336""
","""event"",""trial"",""time""
""focus"",""16"",""332936""
""focus"",""16"",""381905""
""focus"",""16"",""386571""
","""event"",""trial"",""time""
""fullscreenenter"",""1"",""3180""
","""event"",""trial"",""time""
""fullscreenexit"",""9"",""19978""
","","","","","","null","<div style=""font-size:60px;"">+</div>","null","","fixation","","",""
"memory-trial","19","394867","0.0-11.0-1.0","6377","approach_avoid_sv1","""event"",""trial"",""time""
""fullscreenenter"",""1"",""3180""
""fullscreenexit"",""9"",""19978""
""blur"",""16"",""126729""
""focus"",""16"",""332936""
""blur"",""16"",""333474""
""focus"",""16"",""381905""
""blur"",""16"",""382336""
""focus"",""16"",""386571""
","""event"",""trial"",""time""
""blur"",""16"",""126729""
""blur"",""16"",""333474""
""blur"",""16"",""382336""
","""event"",""trial"",""time""
""focus"",""16"",""332936""
""focus"",""16"",""381905""
""focus"",""16"",""386571""
","""event"",""trial"",""time""
""fullscreenenter"",""1"",""3180""
","""event"",""trial"",""time""
""fullscreenexit"",""9"",""19978""
","","","","","","2584.7000000476837","images/racket3.png","","","practice","3","maybe_new",""
"html-keyboard-response","20","395368","0.0-11.0-0.1","6377","approach_avoid_sv1","""event"",""trial"",""time""
""fullscreenenter"",""1"",""3180""
""fullscreenexit"",""9"",""19978""
""blur"",""16"",""126729""
""focus"",""16"",""332936""
""blur"",""16"",""333474""
""focus"",""16"",""381905""
""blur"",""16"",""382336""
""focus"",""16"",""386571""
","""event"",""trial"",""time""
""blur"",""16"",""126729""
""blur"",""16"",""333474""
""blur"",""16"",""382336""
","""event"",""trial"",""time""
""focus"",""16"",""332936""
""focus"",""16"",""381905""
""focus"",""16"",""386571""
","""event"",""trial"",""time""
""fullscreenenter"",""1"",""3180""
","""event"",""trial"",""time""
""fullscreenexit"",""9"",""19978""
","","","","","","null","<div style=""font-size:60px;"">+</div>","null","","fixation","","",""
"memory-trial","21","398513","0.0-11.0-1.1","6377","approach_avoid_sv1","""event"",""trial"",""time""
""fullscreenenter"",""1"",""3180""
""fullscreenexit"",""9"",""19978""
""blur"",""16"",""126729""
""focus"",""16"",""332936""
""blur"",""16"",""333474""
""focus"",""16"",""381905""
""blur"",""16"",""382336""
""focus"",""16"",""386571""
","""event"",""trial"",""time""
""blur"",""16"",""126729""
""blur"",""16"",""333474""
""blur"",""16"",""382336""
","""event"",""trial"",""time""
""focus"",""16"",""332936""
""focus"",""16"",""381905""
""focus"",""16"",""386571""
","""event"",""trial"",""time""
""fullscreenenter"",""1"",""3180""
","""event"",""trial"",""time""
""fullscreenexit"",""9"",""19978""
","","","","","","2142.3000000715256","images/ball3.png","","","practice","4","definitely_new",""
"html-keyboard-response","22","399014","0.0-11.0-0.2","6377","approach_avoid_sv1","""event"",""trial"",""time""
""fullscreenenter"",""1"",""3180""
""fullscreenexit"",""9"",""19978""
""blur"",""16"",""126729""
""focus"",""16"",""332936""
""blur"",""16"",""333474""
""focus"",""16"",""381905""
""blur"",""16"",""382336""
""focus"",""16"",""386571""
","""event"",""trial"",""time""
""blur"",""16"",""126729""
""blur"",""16"",""333474""
""blur"",""16"",""382336""
","""event"",""trial"",""time""
""focus"",""16"",""332936""
""focus"",""16"",""381905""
""focus"",""16"",""386571""
","""event"",""trial"",""time""
""fullscreenenter"",""1"",""3180""
","""event"",""trial"",""time""
""fullscreenexit"",""9"",""19978""
","","","","","","null","<div style=""font-size:60px;"">+</div>","null","","fixation","","",""
"memory-trial","23","402624","0.0-11.0-1.2","6377","approach_avoid_sv1","""event"",""trial"",""time""
""fullscreenenter"",""1"",""3180""
""fullscreenexit"",""9"",""19978""
""blur"",""16"",""126729""
""focus"",""16"",""332936""
""blur"",""16"",""333474""
""focus"",""16"",""381905""
""blur"",""16"",""382336""
""focus"",""16"",""386571""
","""event"",""trial"",""time""
""blur"",""16"",""126729""
""blur"",""16"",""333474""
""blur"",""16"",""382336""
","""event"",""trial"",""time""
""focus"",""16"",""332936""
""focus"",""16"",""381905""
""focus"",""16"",""386571""
","""event"",""trial"",""time""
""fullscreenenter"",""1"",""3180""
","""event"",""trial"",""time""
""fullscreenexit"",""9"",""19978""
","","","","","","2608.100000023842","images/racket5.png","","","practice","4","definitely_new",""
"html-keyboard-response","24","403126","0.0-11.0-0.3","6377","approach_avoid_sv1","""event"",""trial"",""time""
""fullscreenenter"",""1"",""3180""
""fullscreenexit"",""9"",""19978""
""blur"",""16"",""126729""
""focus"",""16"",""332936""
""blur"",""16"",""333474""
""focus"",""16"",""381905""
""blur"",""16"",""382336""
""focus"",""16"",""386571""
","""event"",""trial"",""time""
""blur"",""16"",""126729""
""blur"",""16"",""333474""
""blur"",""16"",""382336""
","""event"",""trial"",""time""
""focus"",""16"",""332936""
""focus"",""16"",""381905""
""focus"",""16"",""386571""
","""event"",""trial"",""time""
""fullscreenenter"",""1"",""3180""
","""event"",""trial"",""time""
""fullscreenexit"",""9"",""19978""
","","","","","","null","<div style=""font-size:60px;"">+</div>","null","","fixation","","",""
"memory-trial","25","405344","0.0-11.0-1.3","6377","approach_avoid_sv1","""event"",""trial"",""time""
""fullscreenenter"",""1"",""3180""
""fullscreenexit"",""9"",""19978""
""blur"",""16"",""126729""
""focus"",""16"",""332936""
""blur"",""16"",""333474""
""focus"",""16"",""381905""
""blur"",""16"",""382336""
""focus"",""16"",""386571""
","""event"",""trial"",""time""
""blur"",""16"",""126729""
""blur"",""16"",""333474""
""blur"",""16"",""382336""
","""event"",""trial"",""time""
""focus"",""16"",""332936""
""focus"",""16"",""381905""
""focus"",""16"",""386571""
","""event"",""trial"",""time""
""fullscreenenter"",""1"",""3180""
","""event"",""trial"",""time""
""fullscreenexit"",""9"",""19978""
","","","","","","1216","images/racket2.png","","","practice","3","maybe_new",""
"html-keyboard-response","26","405845","0.0-11.0-0.4","6377","approach_avoid_sv1","""event"",""trial"",""time""
""fullscreenenter"",""1"",""3180""
""fullscreenexit"",""9"",""19978""
""blur"",""16"",""126729""
""focus"",""16"",""332936""
""blur"",""16"",""333474""
""focus"",""16"",""381905""
""blur"",""16"",""382336""
""focus"",""16"",""386571""
","""event"",""trial"",""time""
""blur"",""16"",""126729""
""blur"",""16"",""333474""
""blur"",""16"",""382336""
","""event"",""trial"",""time""
""focus"",""16"",""332936""
""focus"",""16"",""381905""
""focus"",""16"",""386571""
","""event"",""trial"",""time""
""fullscreenenter"",""1"",""3180""
","""event"",""trial"",""time""
""fullscreenexit"",""9"",""19978""
","","","","","","null","<div style=""font-size:60px;"">+</div>","null","","fixation","","",""
"memory-trial","27","408681","0.0-11.0-1.4","6377","approach_avoid_sv1","""event"",""trial"",""time""
""fullscreenenter"",""1"",""3180""
""fullscreenexit"",""9"",""19978""
""blur"",""16"",""126729""
""focus"",""16"",""332936""
""blur"",""16"",""333474""
""focus"",""16"",""381905""
""blur"",""16"",""382336""
""focus"",""16"",""386571""
","""event"",""trial"",""time""
""blur"",""16"",""126729""
""blur"",""16"",""333474""
""blur"",""16"",""382336""
","""event"",""trial"",""time""
""focus"",""16"",""332936""
""focus"",""16"",""381905""
""focus"",""16"",""386571""
","""event"",""trial"",""time""
""fullscreenenter"",""1"",""3180""
","""event"",""trial"",""time""
""fullscreenexit"",""9"",""19978""
","","","","","","1833.3999999761581","images/ball1.png","","","practice","3","maybe_new",""
"html-keyboard-response","28","409182","0.0-11.0-0.5","6377","approach_avoid_sv1","""event"",""trial"",""time""
""fullscreenenter"",""1"",""3180""
""fullscreenexit"",""9"",""19978""
""blur"",""16"",""126729""
""focus"",""16"",""332936""
""blur"",""16"",""333474""
""focus"",""16"",""381905""
""blur"",""16"",""382336""
""focus"",""16"",""386571""
","""event"",""trial"",""time""
""blur"",""16"",""126729""
""blur"",""16"",""333474""
""blur"",""16"",""382336""
","""event"",""trial"",""time""
""focus"",""16"",""332936""
""focus"",""16"",""381905""
""focus"",""16"",""386571""
","""event"",""trial"",""time""
""fullscreenenter"",""1"",""3180""
","""event"",""trial"",""time""
""fullscreenexit"",""9"",""19978""
","","","","","","null","<div style=""font-size:60px;"">+</div>","null","","fixation","","",""
"memory-trial","29","411632","0.0-11.0-1.5","6377","approach_avoid_sv1","""event"",""trial"",""time""
""fullscreenenter"",""1"",""3180""
""fullscreenexit"",""9"",""19978""
""blur"",""16"",""126729""
""focus"",""16"",""332936""
""blur"",""16"",""333474""
""focus"",""16"",""381905""
""blur"",""16"",""382336""
""focus"",""16"",""386571""
","""event"",""trial"",""time""
""blur"",""16"",""126729""
""blur"",""16"",""333474""
""blur"",""16"",""382336""
","""event"",""trial"",""time""
""focus"",""16"",""332936""
""focus"",""16"",""381905""
""focus"",""16"",""386571""
","""event"",""trial"",""time""
""fullscreenenter"",""1"",""3180""
","""event"",""trial"",""time""
""fullscreenexit"",""9"",""19978""
","","","","","","1448.3999999761581","images/racket1.png","","","practice","2","maybe_old",""
"html-keyboard-response","30","412134","0.0-11.0-0.6","6377","approach_avoid_sv1","""event"",""trial"",""time""
""fullscreenenter"",""1"",""3180""
""fullscreenexit"",""9"",""19978""
""blur"",""16"",""126729""
""focus"",""16"",""332936""
""blur"",""16"",""333474""
""focus"",""16"",""381905""
""blur"",""16"",""382336""
""focus"",""16"",""386571""
","""event"",""trial"",""time""
""blur"",""16"",""126729""
""blur"",""16"",""333474""
""blur"",""16"",""382336""
","""event"",""trial"",""time""
""focus"",""16"",""332936""
""focus"",""16"",""381905""
""focus"",""16"",""386571""
","""event"",""trial"",""time""
""fullscreenenter"",""1"",""3180""
","""event"",""trial"",""time""
""fullscreenexit"",""9"",""19978""
","","","","","","null","<div style=""font-size:60px;"">+</div>","null","","fixation","","",""
"memory-trial","31","415762","0.0-11.0-1.6","6377","approach_avoid_sv1","""event"",""trial"",""time""
""fullscreenenter"",""1"",""3180""
""fullscreenexit"",""9"",""19978""
""blur"",""16"",""126729""
""focus"",""16"",""332936""
""blur"",""16"",""333474""
""focus"",""16"",""381905""
""blur"",""16"",""382336""
""focus"",""16"",""386571""
","""event"",""trial"",""time""
""blur"",""16"",""126729""
""blur"",""16"",""333474""
""blur"",""16"",""382336""
","""event"",""trial"",""time""
""focus"",""16"",""332936""
""focus"",""16"",""381905""
""focus"",""16"",""386571""
","""event"",""trial"",""time""
""fullscreenenter"",""1"",""3180""
","""event"",""trial"",""time""
""fullscreenexit"",""9"",""19978""
","","","","","","2624.5","images/ball2.png","","","practice","1","definitely_old",""
"html-keyboard-response","32","416263","0.0-11.0-0.7","6377","approach_avoid_sv1","""event"",""trial"",""time""
""fullscreenenter"",""1"",""3180""
""fullscreenexit"",""9"",""19978""
""blur"",""16"",""126729""
""focus"",""16"",""332936""
""blur"",""16"",""333474""
""focus"",""16"",""381905""
""blur"",""16"",""382336""
""focus"",""16"",""386571""
","""event"",""trial"",""time""
""blur"",""16"",""126729""
""blur"",""16"",""333474""
""blur"",""16"",""382336""
","""event"",""trial"",""time""
""focus"",""16"",""332936""
""focus"",""16"",""381905""
""focus"",""16"",""386571""
","""event"",""trial"",""time""
""fullscreenenter"",""1"",""3180""
","""event"",""trial"",""time""
""fullscreenexit"",""9"",""19978""
","","","","","","null","<div style=""font-size:60px;"">+</div>","null","","fixation","","",""
"memory-trial","33","418409","0.0-11.0-1.7","6377","approach_avoid_sv1","""event"",""trial"",""time""
""fullscreenenter"",""1"",""3180""
""fullscreenexit"",""9"",""19978""
""blur"",""16"",""126729""
""focus"",""16"",""332936""
""blur"",""16"",""333474""
""focus"",""16"",""381905""
""blur"",""16"",""382336""
""focus"",""16"",""386571""
""blur"",""34"",""425108""
""focus"",""34"",""473392""
","""event"",""trial"",""time""
""blur"",""16"",""126729""
""blur"",""16"",""333474""
""blur"",""16"",""382336""
""blur"",""34"",""425108""
","""event"",""trial"",""time""
""focus"",""16"",""332936""
""focus"",""16"",""381905""
""focus"",""16"",""386571""
""focus"",""34"",""473392""
","""event"",""trial"",""time""
""fullscreenenter"",""1"",""3180""
","""event"",""trial"",""time""
""fullscreenexit"",""9"",""19978""
","","","","","","1143.2000000476837","images/ball5.png","","","practice","1","definitely_old",""
"learning-instructions","34","474756","0.0-12.0-0.0","6377","approach_avoid_sv1","""event"",""trial"",""time""
""fullscreenenter"",""1"",""3180""
""fullscreenexit"",""9"",""19978""
""blur"",""16"",""126729""
""focus"",""16"",""332936""
""blur"",""16"",""333474""
""focus"",""16"",""381905""
""blur"",""16"",""382336""
""focus"",""16"",""386571""
""blur"",""34"",""425108""
""focus"",""34"",""473392""
","""event"",""trial"",""time""
""blur"",""16"",""126729""
""blur"",""16"",""333474""
""blur"",""16"",""382336""
""blur"",""34"",""425108""
","""event"",""trial"",""time""
""focus"",""16"",""332936""
""focus"",""16"",""381905""
""focus"",""16"",""386571""
""focus"",""34"",""473392""
","""event"",""trial"",""time""
""fullscreenenter"",""1"",""3180""
","""event"",""trial"",""time""
""fullscreenexit"",""9"",""19978""
","","","","","","48630.800000071526","<p> Great! You have completed the practice. </p><p> Before you start, we're going to ask you a few questions about how the game works.  </p>","","0","instructions","","",""
"preload","35","477396","0.0-13.0","6377","approach_avoid_sv1","""event"",""trial"",""time""
""fullscreenenter"",""1"",""3180""
""fullscreenexit"",""9"",""19978""
""blur"",""16"",""126729""
""focus"",""16"",""332936""
""blur"",""16"",""333474""
""focus"",""16"",""381905""
""blur"",""16"",""382336""
""focus"",""16"",""386571""
""blur"",""34"",""425108""
""focus"",""34"",""473392""
","""event"",""trial"",""time""
""blur"",""16"",""126729""
""blur"",""16"",""333474""
""blur"",""16"",""382336""
""blur"",""34"",""425108""
","""event"",""trial"",""time""
""focus"",""16"",""332936""
""focus"",""16"",""381905""
""focus"",""16"",""386571""
""focus"",""34"",""473392""
","""event"",""trial"",""time""
""fullscreenenter"",""1"",""3180""
","""event"",""trial"",""time""
""fullscreenexit"",""9"",""19978""
","true","false","[]","[]","[]","","","","","","","",""
"comp-q","36","484022","0.0-14.0-0.0","6377","approach_avoid_sv1","""event"",""trial"",""time""
""fullscreenenter"",""1"",""3180""
""fullscreenexit"",""9"",""19978""
""blur"",""16"",""126729""
""focus"",""16"",""332936""
""blur"",""16"",""333474""
""focus"",""16"",""381905""
""blur"",""16"",""382336""
""focus"",""16"",""386571""
""blur"",""34"",""425108""
""focus"",""34"",""473392""
","""event"",""trial"",""time""
""blur"",""16"",""126729""
""blur"",""16"",""333474""
""blur"",""16"",""382336""
""blur"",""34"",""425108""
","""event"",""trial"",""time""
""focus"",""16"",""332936""
""focus"",""16"",""381905""
""focus"",""16"",""386571""
""focus"",""34"",""473392""
","""event"",""trial"",""time""
""fullscreenenter"",""1"",""3180""
","""event"",""trial"",""time""
""fullscreenexit"",""9"",""19978""
","","","","","","763.8999999761581","<p> <b> True or False? </b> </p><p> In this game, you will only see each image once. </p>","","0","comp_question","","","true"
"comp-q","37","491262","0.0-14.0-1.0","6377","approach_avoid_sv1","""event"",""trial"",""time""
""fullscreenenter"",""1"",""3180""
""fullscreenexit"",""9"",""19978""
""blur"",""16"",""126729""
""focus"",""16"",""332936""
""blur"",""16"",""333474""
""focus"",""16"",""381905""
""blur"",""16"",""382336""
""focus"",""16"",""386571""
""blur"",""34"",""425108""
""focus"",""34"",""473392""
","""event"",""trial"",""time""
""blur"",""16"",""126729""
""blur"",""16"",""333474""
""blur"",""16"",""382336""
""blur"",""34"",""425108""
","""event"",""trial"",""time""
""focus"",""16"",""332936""
""focus"",""16"",""381905""
""focus"",""16"",""386571""
""focus"",""34"",""473392""
","""event"",""trial"",""time""
""fullscreenenter"",""1"",""3180""
","""event"",""trial"",""time""
""fullscreenexit"",""9"",""19978""
","","","","","","895.1000000238419","<p> <b> That's right! </b> You will see many different images <i> one time each </i> in this game. </p>","","0","comp_answer","","",""
"comp-q","38","497004","0.0-15.0-0.0","6377","approach_avoid_sv1","""event"",""trial"",""time""
""fullscreenenter"",""1"",""3180""
""fullscreenexit"",""9"",""19978""
""blur"",""16"",""126729""
""focus"",""16"",""332936""
""blur"",""16"",""333474""
""focus"",""16"",""381905""
""blur"",""16"",""382336""
""focus"",""16"",""386571""
""blur"",""34"",""425108""
""focus"",""34"",""473392""
","""event"",""trial"",""time""
""blur"",""16"",""126729""
""blur"",""16"",""333474""
""blur"",""16"",""382336""
""blur"",""34"",""425108""
","""event"",""trial"",""time""
""focus"",""16"",""332936""
""focus"",""16"",""381905""
""focus"",""16"",""386571""
""focus"",""34"",""473392""
","""event"",""trial"",""time""
""fullscreenenter"",""1"",""3180""
","""event"",""trial"",""time""
""fullscreenexit"",""9"",""19978""
","","","","","","727","<p> <b> True or False? </b> </p><p> You should use the mouse and click to make your response. </p>","","1","comp_question","","","true"
"comp-q","39","504275","0.0-15.0-1.0","6377","approach_avoid_sv1","""event"",""trial"",""time""
""fullscreenenter"",""1"",""3180""
""fullscreenexit"",""9"",""19978""
""blur"",""16"",""126729""
""focus"",""16"",""332936""
""blur"",""16"",""333474""
""focus"",""16"",""381905""
""blur"",""16"",""382336""
""focus"",""16"",""386571""
""blur"",""34"",""425108""
""focus"",""34"",""473392""
","""event"",""trial"",""time""
""blur"",""16"",""126729""
""blur"",""16"",""333474""
""blur"",""16"",""382336""
""blur"",""34"",""425108""
","""event"",""trial"",""time""
""focus"",""16"",""332936""
""focus"",""16"",""381905""
""focus"",""16"",""386571""
""focus"",""34"",""473392""
","""event"",""trial"",""time""
""fullscreenenter"",""1"",""3180""
","""event"",""trial"",""time""
""fullscreenexit"",""9"",""19978""
","","","","","","767.9000000953674","<p><b> That's right! </b> You should use the '1', '2', '3', and '4' keys to make your response. </p>","","0","comp_answer","","",""
"comp-q","40","510555","0.0-16.0-0.0","6377","approach_avoid_sv1","""event"",""trial"",""time""
""fullscreenenter"",""1"",""3180""
""fullscreenexit"",""9"",""19978""
""blur"",""16"",""126729""
""focus"",""16"",""332936""
""blur"",""16"",""333474""
""focus"",""16"",""381905""
""blur"",""16"",""382336""
""focus"",""16"",""386571""
""blur"",""34"",""425108""
""focus"",""34"",""473392""
""blur"",""41"",""513007""
""focus"",""41"",""514618""
","""event"",""trial"",""time""
""blur"",""16"",""126729""
""blur"",""16"",""333474""
""blur"",""16"",""382336""
""blur"",""34"",""425108""
""blur"",""41"",""513007""
","""event"",""trial"",""time""
""focus"",""16"",""332936""
""focus"",""16"",""381905""
""focus"",""16"",""386571""
""focus"",""34"",""473392""
""focus"",""41"",""514618""
","""event"",""trial"",""time""
""fullscreenenter"",""1"",""3180""
","""event"",""trial"",""time""
""fullscreenexit"",""9"",""19978""
","","","","","","598.1000000238419","<p> <b> True or False? </b> </p><p> You will have as much time as you want to make each choice. </p>","","1","comp_question","","","true"
"comp-q","41","515965","0.0-16.0-1.0","6377","approach_avoid_sv1","""event"",""trial"",""time""
""fullscreenenter"",""1"",""3180""
""fullscreenexit"",""9"",""19978""
""blur"",""16"",""126729""
""focus"",""16"",""332936""
""blur"",""16"",""333474""
""focus"",""16"",""381905""
""blur"",""16"",""382336""
""focus"",""16"",""386571""
""blur"",""34"",""425108""
""focus"",""34"",""473392""
""blur"",""41"",""513007""
""focus"",""41"",""514618""
""blur"",""42"",""522722""
""focus"",""42"",""526239""
","""event"",""trial"",""time""
""blur"",""16"",""126729""
""blur"",""16"",""333474""
""blur"",""16"",""382336""
""blur"",""34"",""425108""
""blur"",""41"",""513007""
""blur"",""42"",""522722""
","""event"",""trial"",""time""
""focus"",""16"",""332936""
""focus"",""16"",""381905""
""focus"",""16"",""386571""
""focus"",""34"",""473392""
""focus"",""41"",""514618""
""focus"",""42"",""526239""
","""event"",""trial"",""time""
""fullscreenenter"",""1"",""3180""
","""event"",""trial"",""time""
""fullscreenexit"",""9"",""19978""
","","","","","","708.2000000476837","<p> <b> That's right! </b> You will only have 10 seconds to make each choice. </p>","","0","comp_answer","","",""
"learning-instructions","42","527426","0.0-17.0","6377","approach_avoid_sv1","""event"",""trial"",""time""
""fullscreenenter"",""1"",""3180""
""fullscreenexit"",""9"",""19978""
""blur"",""16"",""126729""
""focus"",""16"",""332936""
""blur"",""16"",""333474""
""focus"",""16"",""381905""
""blur"",""16"",""382336""
""focus"",""16"",""386571""
""blur"",""34"",""425108""
""focus"",""34"",""473392""
""blur"",""41"",""513007""
""focus"",""41"",""514618""
""blur"",""42"",""522722""
""focus"",""42"",""526239""
","""event"",""trial"",""time""
""blur"",""16"",""126729""
""blur"",""16"",""333474""
""blur"",""16"",""382336""
""blur"",""34"",""425108""
""blur"",""41"",""513007""
""blur"",""42"",""522722""
","""event"",""trial"",""time""
""focus"",""16"",""332936""
""focus"",""16"",""381905""
""focus"",""16"",""386571""
""focus"",""34"",""473392""
""focus"",""41"",""514618""
""focus"",""42"",""526239""
","""event"",""trial"",""time""
""fullscreenenter"",""1"",""3180""
","""event"",""trial"",""time""
""fullscreenexit"",""9"",""19978""
","","","","","","2779.399999976158","<p> Great! You are now ready to begin the game. </p><p> Remember, use the 1, 2, 3, and 4 keys to make your responses. </p>","","0","instructions","","",""
"html-keyboard-response","43","528034","0.0-18.0-0.0","6377","approach_avoid_sv1","""event"",""trial"",""time""
""fullscreenenter"",""1"",""3180""
""fullscreenexit"",""9"",""19978""
""blur"",""16"",""126729""
""focus"",""16"",""332936""
""blur"",""16"",""333474""
""focus"",""16"",""381905""
""blur"",""16"",""382336""
""focus"",""16"",""386571""
""blur"",""34"",""425108""
""focus"",""34"",""473392""
""blur"",""41"",""513007""
""focus"",""41"",""514618""
""blur"",""42"",""522722""
""focus"",""42"",""526239""
","""event"",""trial"",""time""
""blur"",""16"",""126729""
""blur"",""16"",""333474""
""blur"",""16"",""382336""
""blur"",""34"",""425108""
""blur"",""41"",""513007""
""blur"",""42"",""522722""
","""event"",""trial"",""time""
""focus"",""16"",""332936""
""focus"",""16"",""381905""
""focus"",""16"",""386571""
""focus"",""34"",""473392""
""focus"",""41"",""514618""
""focus"",""42"",""526239""
","""event"",""trial"",""time""
""fullscreenenter"",""1"",""3180""
","""event"",""trial"",""time""
""fullscreenexit"",""9"",""19978""
","","","","","","null","<div style=""font-size:60px;"">+</div>","null","","fixation","","",""
"memory-trial","44","532632","0.0-18.0-1.0","6377","approach_avoid_sv1","""event"",""trial"",""time""
""fullscreenenter"",""1"",""3180""
""fullscreenexit"",""9"",""19978""
""blur"",""16"",""126729""
""focus"",""16"",""332936""
""blur"",""16"",""333474""
""focus"",""16"",""381905""
""blur"",""16"",""382336""
""focus"",""16"",""386571""
""blur"",""34"",""425108""
""focus"",""34"",""473392""
""blur"",""41"",""513007""
""focus"",""41"",""514618""
""blur"",""42"",""522722""
""focus"",""42"",""526239""
","""event"",""trial"",""time""
""blur"",""16"",""126729""
""blur"",""16"",""333474""
""blur"",""16"",""382336""
""blur"",""34"",""425108""
""blur"",""41"",""513007""
""blur"",""42"",""522722""
","""event"",""trial"",""time""
""focus"",""16"",""332936""
""focus"",""16"",""381905""
""focus"",""16"",""386571""
""focus"",""34"",""473392""
""focus"",""41"",""514618""
""focus"",""42"",""526239""
","""event"",""trial"",""time""
""fullscreenenter"",""1"",""3180""
","""event"",""trial"",""time""
""fullscreenexit"",""9"",""19978""
","","","","","","3595","images/train3.png","","","memory_trial","2","maybe_old",""
"html-keyboard-response","45","533134","0.0-18.0-0.1","6377","approach_avoid_sv1","""event"",""trial"",""time""
""fullscreenenter"",""1"",""3180""
""fullscreenexit"",""9"",""19978""
""blur"",""16"",""126729""
""focus"",""16"",""332936""
""blur"",""16"",""333474""
""focus"",""16"",""381905""
""blur"",""16"",""382336""
""focus"",""16"",""386571""
""blur"",""34"",""425108""
""focus"",""34"",""473392""
""blur"",""41"",""513007""
""focus"",""41"",""514618""
""blur"",""42"",""522722""
""focus"",""42"",""526239""
","""event"",""trial"",""time""
""blur"",""16"",""126729""
""blur"",""16"",""333474""
""blur"",""16"",""382336""
""blur"",""34"",""425108""
""blur"",""41"",""513007""
""blur"",""42"",""522722""
","""event"",""trial"",""time""
""focus"",""16"",""332936""
""focus"",""16"",""381905""
""focus"",""16"",""386571""
""focus"",""34"",""473392""
""focus"",""41"",""514618""
""focus"",""42"",""526239""
","""event"",""trial"",""time""
""fullscreenenter"",""1"",""3180""
","""event"",""trial"",""time""
""fullscreenexit"",""9"",""19978""
","","","","","","null","<div style=""font-size:60px;"">+</div>","null","","fixation","","",""
"memory-trial","46","536832","0.0-18.0-1.1","6377","approach_avoid_sv1","""event"",""trial"",""time""
""fullscreenenter"",""1"",""3180""
""fullscreenexit"",""9"",""19978""
""blur"",""16"",""126729""
""focus"",""16"",""332936""
""blur"",""16"",""333474""
""focus"",""16"",""381905""
""blur"",""16"",""382336""
""focus"",""16"",""386571""
""blur"",""34"",""425108""
""focus"",""34"",""473392""
""blur"",""41"",""513007""
""focus"",""41"",""514618""
""blur"",""42"",""522722""
""focus"",""42"",""526239""
","""event"",""trial"",""time""
""blur"",""16"",""126729""
""blur"",""16"",""333474""
""blur"",""16"",""382336""
""blur"",""34"",""425108""
""blur"",""41"",""513007""
""blur"",""42"",""522722""
","""event"",""trial"",""time""
""focus"",""16"",""332936""
""focus"",""16"",""381905""
""focus"",""16"",""386571""
""focus"",""34"",""473392""
""focus"",""41"",""514618""
""focus"",""42"",""526239""
","""event"",""trial"",""time""
""fullscreenenter"",""1"",""3180""
","""event"",""trial"",""time""
""fullscreenexit"",""9"",""19978""
","","","","","","2694.5","images/bed2.png","","","memory_trial","4","definitely_new",""
"html-keyboard-response","47","537347","0.0-18.0-0.2","6377","approach_avoid_sv1","""event"",""trial"",""time""
""fullscreenenter"",""1"",""3180""
""fullscreenexit"",""9"",""19978""
""blur"",""16"",""126729""
""focus"",""16"",""332936""
""blur"",""16"",""333474""
""focus"",""16"",""381905""
""blur"",""16"",""382336""
""focus"",""16"",""386571""
""blur"",""34"",""425108""
""focus"",""34"",""473392""
""blur"",""41"",""513007""
""focus"",""41"",""514618""
""blur"",""42"",""522722""
""focus"",""42"",""526239""
","""event"",""trial"",""time""
""blur"",""16"",""126729""
""blur"",""16"",""333474""
""blur"",""16"",""382336""
""blur"",""34"",""425108""
""blur"",""41"",""513007""
""blur"",""42"",""522722""
","""event"",""trial"",""time""
""focus"",""16"",""332936""
""focus"",""16"",""381905""
""focus"",""16"",""386571""
""focus"",""34"",""473392""
""focus"",""41"",""514618""
""focus"",""42"",""526239""
","""event"",""trial"",""time""
""fullscreenenter"",""1"",""3180""
","""event"",""trial"",""time""
""fullscreenexit"",""9"",""19978""
","","","","","","null","<div style=""font-size:60px;"">+</div>","null","","fixation","","",""
"memory-trial","48","538495","0.0-18.0-1.2","6377","approach_avoid_sv1","""event"",""trial"",""time""
""fullscreenenter"",""1"",""3180""
""fullscreenexit"",""9"",""19978""
""blur"",""16"",""126729""
""focus"",""16"",""332936""
""blur"",""16"",""333474""
""focus"",""16"",""381905""
""blur"",""16"",""382336""
""focus"",""16"",""386571""
""blur"",""34"",""425108""
""focus"",""34"",""473392""
""blur"",""41"",""513007""
""focus"",""41"",""514618""
""blur"",""42"",""522722""
""focus"",""42"",""526239""
","""event"",""trial"",""time""
""blur"",""16"",""126729""
""blur"",""16"",""333474""
""blur"",""16"",""382336""
""blur"",""34"",""425108""
""blur"",""41"",""513007""
""blur"",""42"",""522722""
","""event"",""trial"",""time""
""focus"",""16"",""332936""
""focus"",""16"",""381905""
""focus"",""16"",""386571""
""focus"",""34"",""473392""
""focus"",""41"",""514618""
""focus"",""42"",""526239""
","""event"",""trial"",""time""
""fullscreenenter"",""1"",""3180""
","""event"",""trial"",""time""
""fullscreenexit"",""9"",""19978""
","","","","","","137.79999995231628","images/bed6.png","","","memory_trial","3","maybe_new",""
"html-keyboard-response","49","538996","0.0-18.0-0.3","6377","approach_avoid_sv1","""event"",""trial"",""time""
""fullscreenenter"",""1"",""3180""
""fullscreenexit"",""9"",""19978""
""blur"",""16"",""126729""
""focus"",""16"",""332936""
""blur"",""16"",""333474""
""focus"",""16"",""381905""
""blur"",""16"",""382336""
""focus"",""16"",""386571""
""blur"",""34"",""425108""
""focus"",""34"",""473392""
""blur"",""41"",""513007""
""focus"",""41"",""514618""
""blur"",""42"",""522722""
""focus"",""42"",""526239""
","""event"",""trial"",""time""
""blur"",""16"",""126729""
""blur"",""16"",""333474""
""blur"",""16"",""382336""
""blur"",""34"",""425108""
""blur"",""41"",""513007""
""blur"",""42"",""522722""
","""event"",""trial"",""time""
""focus"",""16"",""332936""
""focus"",""16"",""381905""
""focus"",""16"",""386571""
""focus"",""34"",""473392""
""focus"",""41"",""514618""
""focus"",""42"",""526239""
","""event"",""trial"",""time""
""fullscreenenter"",""1"",""3180""
","""event"",""trial"",""time""
""fullscreenexit"",""9"",""19978""
","","","","","","null","<div style=""font-size:60px;"">+</div>","null","","fixation","","",""
"memory-trial","50","542281","0.0-18.0-1.3","6377","approach_avoid_sv1","""event"",""trial"",""time""
""fullscreenenter"",""1"",""3180""
""fullscreenexit"",""9"",""19978""
""blur"",""16"",""126729""
""focus"",""16"",""332936""
""blur"",""16"",""333474""
""focus"",""16"",""381905""
""blur"",""16"",""382336""
""focus"",""16"",""386571""
""blur"",""34"",""425108""
""focus"",""34"",""473392""
""blur"",""41"",""513007""
""focus"",""41"",""514618""
""blur"",""42"",""522722""
""focus"",""42"",""526239""
","""event"",""trial"",""time""
""blur"",""16"",""126729""
""blur"",""16"",""333474""
""blur"",""16"",""382336""
""blur"",""34"",""425108""
""blur"",""41"",""513007""
""blur"",""42"",""522722""
","""event"",""trial"",""time""
""focus"",""16"",""332936""
""focus"",""16"",""381905""
""focus"",""16"",""386571""
""focus"",""34"",""473392""
""focus"",""41"",""514618""
""focus"",""42"",""526239""
","""event"",""trial"",""time""
""fullscreenenter"",""1"",""3180""
","""event"",""trial"",""time""
""fullscreenexit"",""9"",""19978""
","","","","","","2272.7999999523163","images/straw5.png","","","memory_trial","1","definitely_old",""
"html-keyboard-response","51","542784","0.0-18.0-0.4","6377","approach_avoid_sv1","""event"",""trial"",""time""
""fullscreenenter"",""1"",""3180""
""fullscreenexit"",""9"",""19978""
""blur"",""16"",""126729""
""focus"",""16"",""332936""
""blur"",""16"",""333474""
""focus"",""16"",""381905""
""blur"",""16"",""382336""
""focus"",""16"",""386571""
""blur"",""34"",""425108""
""focus"",""34"",""473392""
""blur"",""41"",""513007""
""focus"",""41"",""514618""
""blur"",""42"",""522722""
""focus"",""42"",""526239""
","""event"",""trial"",""time""
""blur"",""16"",""126729""
""blur"",""16"",""333474""
""blur"",""16"",""382336""
""blur"",""34"",""425108""
""blur"",""41"",""513007""
""blur"",""42"",""522722""
","""event"",""trial"",""time""
""focus"",""16"",""332936""
""focus"",""16"",""381905""
""focus"",""16"",""386571""
""focus"",""34"",""473392""
""focus"",""41"",""514618""
""focus"",""42"",""526239""
","""event"",""trial"",""time""
""fullscreenenter"",""1"",""3180""
","""event"",""trial"",""time""
""fullscreenexit"",""9"",""19978""
","","","","","","null","<div style=""font-size:60px;"">+</div>","null","","fixation","","",""
"memory-trial","52","545513","0.0-18.0-1.4","6377","approach_avoid_sv1","""event"",""trial"",""time""
""fullscreenenter"",""1"",""3180""
""fullscreenexit"",""9"",""19978""
""blur"",""16"",""126729""
""focus"",""16"",""332936""
""blur"",""16"",""333474""
""focus"",""16"",""381905""
""blur"",""16"",""382336""
""focus"",""16"",""386571""
""blur"",""34"",""425108""
""focus"",""34"",""473392""
""blur"",""41"",""513007""
""focus"",""41"",""514618""
""blur"",""42"",""522722""
""focus"",""42"",""526239""
","""event"",""trial"",""time""
""blur"",""16"",""126729""
""blur"",""16"",""333474""
""blur"",""16"",""382336""
""blur"",""34"",""425108""
""blur"",""41"",""513007""
""blur"",""42"",""522722""
","""event"",""trial"",""time""
""focus"",""16"",""332936""
""focus"",""16"",""381905""
""focus"",""16"",""386571""
""focus"",""34"",""473392""
""focus"",""41"",""514618""
""focus"",""42"",""526239""
","""event"",""trial"",""time""
""fullscreenenter"",""1"",""3180""
","""event"",""trial"",""time""
""fullscreenexit"",""9"",""19978""
","","","","","","1724.5","images/sofa3.png","","","memory_trial","1","definitely_old",""
"html-keyboard-response","53","546019","0.0-18.0-0.5","6377","approach_avoid_sv1","""event"",""trial"",""time""
""fullscreenenter"",""1"",""3180""
""fullscreenexit"",""9"",""19978""
""blur"",""16"",""126729""
""focus"",""16"",""332936""
""blur"",""16"",""333474""
""focus"",""16"",""381905""
""blur"",""16"",""382336""
""focus"",""16"",""386571""
""blur"",""34"",""425108""
""focus"",""34"",""473392""
""blur"",""41"",""513007""
""focus"",""41"",""514618""
""blur"",""42"",""522722""
""focus"",""42"",""526239""
","""event"",""trial"",""time""
""blur"",""16"",""126729""
""blur"",""16"",""333474""
""blur"",""16"",""382336""
""blur"",""34"",""425108""
""blur"",""41"",""513007""
""blur"",""42"",""522722""
","""event"",""trial"",""time""
""focus"",""16"",""332936""
""focus"",""16"",""381905""
""focus"",""16"",""386571""
""focus"",""34"",""473392""
""focus"",""41"",""514618""
""focus"",""42"",""526239""
","""event"",""trial"",""time""
""fullscreenenter"",""1"",""3180""
","""event"",""trial"",""time""
""fullscreenexit"",""9"",""19978""
","","","","","","null","<div style=""font-size:60px;"">+</div>","null","","fixation","","",""
"memory-trial","54","549662","0.0-18.0-1.5","6377","approach_avoid_sv1","""event"",""trial"",""time""
""fullscreenenter"",""1"",""3180""
""fullscreenexit"",""9"",""19978""
""blur"",""16"",""126729""
""focus"",""16"",""332936""
""blur"",""16"",""333474""
""focus"",""16"",""381905""
""blur"",""16"",""382336""
""focus"",""16"",""386571""
""blur"",""34"",""425108""
""focus"",""34"",""473392""
""blur"",""41"",""513007""
""focus"",""41"",""514618""
""blur"",""42"",""522722""
""focus"",""42"",""526239""
","""event"",""trial"",""time""
""blur"",""16"",""126729""
""blur"",""16"",""333474""
""blur"",""16"",""382336""
""blur"",""34"",""425108""
""blur"",""41"",""513007""
""blur"",""42"",""522722""
","""event"",""trial"",""time""
""focus"",""16"",""332936""
""focus"",""16"",""381905""
""focus"",""16"",""386571""
""focus"",""34"",""473392""
""focus"",""41"",""514618""
""focus"",""42"",""526239""
","""event"",""trial"",""time""
""fullscreenenter"",""1"",""3180""
","""event"",""trial"",""time""
""fullscreenexit"",""9"",""19978""
","","","","","","2625.7999999523163","images/boat6.png","","","memory_trial","2","maybe_old",""
"html-keyboard-response","55","550169","0.0-18.0-0.6","6377","approach_avoid_sv1","""event"",""trial"",""time""
""fullscreenenter"",""1"",""3180""
""fullscreenexit"",""9"",""19978""
""blur"",""16"",""126729""
""focus"",""16"",""332936""
""blur"",""16"",""333474""
""focus"",""16"",""381905""
""blur"",""16"",""382336""
""focus"",""16"",""386571""
""blur"",""34"",""425108""
""focus"",""34"",""473392""
""blur"",""41"",""513007""
""focus"",""41"",""514618""
""blur"",""42"",""522722""
""focus"",""42"",""526239""
","""event"",""trial"",""time""
""blur"",""16"",""126729""
""blur"",""16"",""333474""
""blur"",""16"",""382336""
""blur"",""34"",""425108""
""blur"",""41"",""513007""
""blur"",""42"",""522722""
","""event"",""trial"",""time""
""focus"",""16"",""332936""
""focus"",""16"",""381905""
""focus"",""16"",""386571""
""focus"",""34"",""473392""
""focus"",""41"",""514618""
""focus"",""42"",""526239""
","""event"",""trial"",""time""
""fullscreenenter"",""1"",""3180""
","""event"",""trial"",""time""
""fullscreenexit"",""9"",""19978""
","","","","","","null","<div style=""font-size:60px;"">+</div>","null","","fixation","","",""
"memory-trial","56","552185","0.0-18.0-1.6","6377","approach_avoid_sv1","""event"",""trial"",""time""
""fullscreenenter"",""1"",""3180""
""fullscreenexit"",""9"",""19978""
""blur"",""16"",""126729""
""focus"",""16"",""332936""
""blur"",""16"",""333474""
""focus"",""16"",""381905""
""blur"",""16"",""382336""
""focus"",""16"",""386571""
""blur"",""34"",""425108""
""focus"",""34"",""473392""
""blur"",""41"",""513007""
""focus"",""41"",""514618""
""blur"",""42"",""522722""
""focus"",""42"",""526239""
","""event"",""trial"",""time""
""blur"",""16"",""126729""
""blur"",""16"",""333474""
""blur"",""16"",""382336""
""blur"",""34"",""425108""
""blur"",""41"",""513007""
""blur"",""42"",""522722""
","""event"",""trial"",""time""
""focus"",""16"",""332936""
""focus"",""16"",""381905""
""focus"",""16"",""386571""
""focus"",""34"",""473392""
""focus"",""41"",""514618""
""focus"",""42"",""526239""
","""event"",""trial"",""time""
""fullscreenenter"",""1"",""3180""
","""event"",""trial"",""time""
""fullscreenexit"",""9"",""19978""
","","","","","","1003.5","images/truck5.png","","","memory_trial","1","definitely_old",""
"html-keyboard-response","57","552686","0.0-18.0-0.7","6377","approach_avoid_sv1","""event"",""trial"",""time""
""fullscreenenter"",""1"",""3180""
""fullscreenexit"",""9"",""19978""
""blur"",""16"",""126729""
""focus"",""16"",""332936""
""blur"",""16"",""333474""
""focus"",""16"",""381905""
""blur"",""16"",""382336""
""focus"",""16"",""386571""
""blur"",""34"",""425108""
""focus"",""34"",""473392""
""blur"",""41"",""513007""
""focus"",""41"",""514618""
""blur"",""42"",""522722""
""focus"",""42"",""526239""
","""event"",""trial"",""time""
""blur"",""16"",""126729""
""blur"",""16"",""333474""
""blur"",""16"",""382336""
""blur"",""34"",""425108""
""blur"",""41"",""513007""
""blur"",""42"",""522722""
","""event"",""trial"",""time""
""focus"",""16"",""332936""
""focus"",""16"",""381905""
""focus"",""16"",""386571""
""focus"",""34"",""473392""
""focus"",""41"",""514618""
""focus"",""42"",""526239""
","""event"",""trial"",""time""
""fullscreenenter"",""1"",""3180""
","""event"",""trial"",""time""
""fullscreenexit"",""9"",""19978""
","","","","","","null","<div style=""font-size:60px;"">+</div>","null","","fixation","","",""
"memory-trial","58","556888","0.0-18.0-1.7","6377","approach_avoid_sv1","""event"",""trial"",""time""
""fullscreenenter"",""1"",""3180""
""fullscreenexit"",""9"",""19978""
""blur"",""16"",""126729""
""focus"",""16"",""332936""
""blur"",""16"",""333474""
""focus"",""16"",""381905""
""blur"",""16"",""382336""
""focus"",""16"",""386571""
""blur"",""34"",""425108""
""focus"",""34"",""473392""
""blur"",""41"",""513007""
""focus"",""41"",""514618""
""blur"",""42"",""522722""
""focus"",""42"",""526239""
","""event"",""trial"",""time""
""blur"",""16"",""126729""
""blur"",""16"",""333474""
""blur"",""16"",""382336""
""blur"",""34"",""425108""
""blur"",""41"",""513007""
""blur"",""42"",""522722""
","""event"",""trial"",""time""
""focus"",""16"",""332936""
""focus"",""16"",""381905""
""focus"",""16"",""386571""
""focus"",""34"",""473392""
""focus"",""41"",""514618""
""focus"",""42"",""526239""
","""event"",""trial"",""time""
""fullscreenenter"",""1"",""3180""
","""event"",""trial"",""time""
""fullscreenexit"",""9"",""19978""
","","","","","","3198.8000000715256","images/train1.png","","","memory_trial","3","maybe_new",""
"html-keyboard-response","59","557390","0.0-18.0-0.8","6377","approach_avoid_sv1","""event"",""trial"",""time""
""fullscreenenter"",""1"",""3180""
""fullscreenexit"",""9"",""19978""
""blur"",""16"",""126729""
""focus"",""16"",""332936""
""blur"",""16"",""333474""
""focus"",""16"",""381905""
""blur"",""16"",""382336""
""focus"",""16"",""386571""
""blur"",""34"",""425108""
""focus"",""34"",""473392""
""blur"",""41"",""513007""
""focus"",""41"",""514618""
""blur"",""42"",""522722""
""focus"",""42"",""526239""
","""event"",""trial"",""time""
""blur"",""16"",""126729""
""blur"",""16"",""333474""
""blur"",""16"",""382336""
""blur"",""34"",""425108""
""blur"",""41"",""513007""
""blur"",""42"",""522722""
","""event"",""trial"",""time""
""focus"",""16"",""332936""
""focus"",""16"",""381905""
""focus"",""16"",""386571""
""focus"",""34"",""473392""
""focus"",""41"",""514618""
""focus"",""42"",""526239""
","""event"",""trial"",""time""
""fullscreenenter"",""1"",""3180""
","""event"",""trial"",""time""
""fullscreenexit"",""9"",""19978""
","","","","","","null","<div style=""font-size:60px;"">+</div>","null","","fixation","","",""
"memory-trial","60","559927","0.0-18.0-1.8","6377","approach_avoid_sv1","""event"",""trial"",""time""
""fullscreenenter"",""1"",""3180""
""fullscreenexit"",""9"",""19978""
""blur"",""16"",""126729""
""focus"",""16"",""332936""
""blur"",""16"",""333474""
""focus"",""16"",""381905""
""blur"",""16"",""382336""
""focus"",""16"",""386571""
""blur"",""34"",""425108""
""focus"",""34"",""473392""
""blur"",""41"",""513007""
""focus"",""41"",""514618""
""blur"",""42"",""522722""
""focus"",""42"",""526239""
","""event"",""trial"",""time""
""blur"",""16"",""126729""
""blur"",""16"",""333474""
""blur"",""16"",""382336""
""blur"",""34"",""425108""
""blur"",""41"",""513007""
""blur"",""42"",""522722""
","""event"",""trial"",""time""
""focus"",""16"",""332936""
""focus"",""16"",""381905""
""focus"",""16"",""386571""
""focus"",""34"",""473392""
""focus"",""41"",""514618""
""focus"",""42"",""526239""
","""event"",""trial"",""time""
""fullscreenenter"",""1"",""3180""
","""event"",""trial"",""time""
""fullscreenexit"",""9"",""19978""
","","","","","","1534.5","images/banana2.png","","","memory_trial","1","definitely_old",""
"html-keyboard-response","61","560429","0.0-18.0-0.9","6377","approach_avoid_sv1","""event"",""trial"",""time""
""fullscreenenter"",""1"",""3180""
""fullscreenexit"",""9"",""19978""
""blur"",""16"",""126729""
""focus"",""16"",""332936""
""blur"",""16"",""333474""
""focus"",""16"",""381905""
""blur"",""16"",""382336""
""focus"",""16"",""386571""
""blur"",""34"",""425108""
""focus"",""34"",""473392""
""blur"",""41"",""513007""
""focus"",""41"",""514618""
""blur"",""42"",""522722""
""focus"",""42"",""526239""
","""event"",""trial"",""time""
""blur"",""16"",""126729""
""blur"",""16"",""333474""
""blur"",""16"",""382336""
""blur"",""34"",""425108""
""blur"",""41"",""513007""
""blur"",""42"",""522722""
","""event"",""trial"",""time""
""focus"",""16"",""332936""
""focus"",""16"",""381905""
""focus"",""16"",""386571""
""focus"",""34"",""473392""
""focus"",""41"",""514618""
""focus"",""42"",""526239""
","""event"",""trial"",""time""
""fullscreenenter"",""1"",""3180""
","""event"",""trial"",""time""
""fullscreenexit"",""9"",""19978""
","","","","","","null","<div style=""font-size:60px;"">+</div>","null","","fixation","","",""
"memory-trial","62","563008","0.0-18.0-1.9","6377","approach_avoid_sv1","""event"",""trial"",""time""
""fullscreenenter"",""1"",""3180""
""fullscreenexit"",""9"",""19978""
""blur"",""16"",""126729""
""focus"",""16"",""332936""
""blur"",""16"",""333474""
""focus"",""16"",""381905""
""blur"",""16"",""382336""
""focus"",""16"",""386571""
""blur"",""34"",""425108""
""focus"",""34"",""473392""
""blur"",""41"",""513007""
""focus"",""41"",""514618""
""blur"",""42"",""522722""
""focus"",""42"",""526239""
","""event"",""trial"",""time""
""blur"",""16"",""126729""
""blur"",""16"",""333474""
""blur"",""16"",""382336""
""blur"",""34"",""425108""
""blur"",""41"",""513007""
""blur"",""42"",""522722""
","""event"",""trial"",""time""
""focus"",""16"",""332936""
""focus"",""16"",""381905""
""focus"",""16"",""386571""
""focus"",""34"",""473392""
""focus"",""41"",""514618""
""focus"",""42"",""526239""
","""event"",""trial"",""time""
""fullscreenenter"",""1"",""3180""
","""event"",""trial"",""time""
""fullscreenexit"",""9"",""19978""
","","","","","","1575.3999999761581","images/horse2.png","","","memory_trial","4","definitely_new",""
"html-keyboard-response","63","563509","0.0-18.0-0.10","6377","approach_avoid_sv1","""event"",""trial"",""time""
""fullscreenenter"",""1"",""3180""
""fullscreenexit"",""9"",""19978""
""blur"",""16"",""126729""
""focus"",""16"",""332936""
""blur"",""16"",""333474""
""focus"",""16"",""381905""
""blur"",""16"",""382336""
""focus"",""16"",""386571""
""blur"",""34"",""425108""
""focus"",""34"",""473392""
""blur"",""41"",""513007""
""focus"",""41"",""514618""
""blur"",""42"",""522722""
""focus"",""42"",""526239""
","""event"",""trial"",""time""
""blur"",""16"",""126729""
""blur"",""16"",""333474""
""blur"",""16"",""382336""
""blur"",""34"",""425108""
""blur"",""41"",""513007""
""blur"",""42"",""522722""
","""event"",""trial"",""time""
""focus"",""16"",""332936""
""focus"",""16"",""381905""
""focus"",""16"",""386571""
""focus"",""34"",""473392""
""focus"",""41"",""514618""
""focus"",""42"",""526239""
","""event"",""trial"",""time""
""fullscreenenter"",""1"",""3180""
","""event"",""trial"",""time""
""fullscreenexit"",""9"",""19978""
","","","","","","null","<div style=""font-size:60px;"">+</div>","null","","fixation","","",""
"memory-trial","64","565751","0.0-18.0-1.10","6377","approach_avoid_sv1","""event"",""trial"",""time""
""fullscreenenter"",""1"",""3180""
""fullscreenexit"",""9"",""19978""
""blur"",""16"",""126729""
""focus"",""16"",""332936""
""blur"",""16"",""333474""
""focus"",""16"",""381905""
""blur"",""16"",""382336""
""focus"",""16"",""386571""
""blur"",""34"",""425108""
""focus"",""34"",""473392""
""blur"",""41"",""513007""
""focus"",""41"",""514618""
""blur"",""42"",""522722""
""focus"",""42"",""526239""
","""event"",""trial"",""time""
""blur"",""16"",""126729""
""blur"",""16"",""333474""
""blur"",""16"",""382336""
""blur"",""34"",""425108""
""blur"",""41"",""513007""
""blur"",""42"",""522722""
","""event"",""trial"",""time""
""focus"",""16"",""332936""
""focus"",""16"",""381905""
""focus"",""16"",""386571""
""focus"",""34"",""473392""
""focus"",""41"",""514618""
""focus"",""42"",""526239""
","""event"",""trial"",""time""
""fullscreenenter"",""1"",""3180""
","""event"",""trial"",""time""
""fullscreenexit"",""9"",""19978""
","","","","","","1239.7999999523163","images/flower7.png","","","memory_trial","2","maybe_old",""
"html-keyboard-response","65","566253","0.0-18.0-0.11","6377","approach_avoid_sv1","""event"",""trial"",""time""
""fullscreenenter"",""1"",""3180""
""fullscreenexit"",""9"",""19978""
""blur"",""16"",""126729""
""focus"",""16"",""332936""
""blur"",""16"",""333474""
""focus"",""16"",""381905""
""blur"",""16"",""382336""
""focus"",""16"",""386571""
""blur"",""34"",""425108""
""focus"",""34"",""473392""
""blur"",""41"",""513007""
""focus"",""41"",""514618""
""blur"",""42"",""522722""
""focus"",""42"",""526239""
","""event"",""trial"",""time""
""blur"",""16"",""126729""
""blur"",""16"",""333474""
""blur"",""16"",""382336""
""blur"",""34"",""425108""
""blur"",""41"",""513007""
""blur"",""42"",""522722""
","""event"",""trial"",""time""
""focus"",""16"",""332936""
""focus"",""16"",""381905""
""focus"",""16"",""386571""
""focus"",""34"",""473392""
""focus"",""41"",""514618""
""focus"",""42"",""526239""
","""event"",""trial"",""time""
""fullscreenenter"",""1"",""3180""
","""event"",""trial"",""time""
""fullscreenexit"",""9"",""19978""
","","","","","","null","<div style=""font-size:60px;"">+</div>","null","","fixation","","",""
"memory-trial","66","569112","0.0-18.0-1.11","6377","approach_avoid_sv1","""event"",""trial"",""time""
""fullscreenenter"",""1"",""3180""
""fullscreenexit"",""9"",""19978""
""blur"",""16"",""126729""
""focus"",""16"",""332936""
""blur"",""16"",""333474""
""focus"",""16"",""381905""
""blur"",""16"",""382336""
""focus"",""16"",""386571""
""blur"",""34"",""425108""
""focus"",""34"",""473392""
""blur"",""41"",""513007""
""focus"",""41"",""514618""
""blur"",""42"",""522722""
""focus"",""42"",""526239""
","""event"",""trial"",""time""
""blur"",""16"",""126729""
""blur"",""16"",""333474""
""blur"",""16"",""382336""
""blur"",""34"",""425108""
""blur"",""41"",""513007""
""blur"",""42"",""522722""
","""event"",""trial"",""time""
""focus"",""16"",""332936""
""focus"",""16"",""381905""
""focus"",""16"",""386571""
""focus"",""34"",""473392""
""focus"",""41"",""514618""
""focus"",""42"",""526239""
","""event"",""trial"",""time""
""fullscreenenter"",""1"",""3180""
","""event"",""trial"",""time""
""fullscreenexit"",""9"",""19978""
","","","","","","1847.6000000238419","images/table1.png","","","memory_trial","3","maybe_new",""
"html-keyboard-response","67","569613","0.0-18.0-0.12","6377","approach_avoid_sv1","""event"",""trial"",""time""
""fullscreenenter"",""1"",""3180""
""fullscreenexit"",""9"",""19978""
""blur"",""16"",""126729""
""focus"",""16"",""332936""
""blur"",""16"",""333474""
""focus"",""16"",""381905""
""blur"",""16"",""382336""
""focus"",""16"",""386571""
""blur"",""34"",""425108""
""focus"",""34"",""473392""
""blur"",""41"",""513007""
""focus"",""41"",""514618""
""blur"",""42"",""522722""
""focus"",""42"",""526239""
","""event"",""trial"",""time""
""blur"",""16"",""126729""
""blur"",""16"",""333474""
""blur"",""16"",""382336""
""blur"",""34"",""425108""
""blur"",""41"",""513007""
""blur"",""42"",""522722""
","""event"",""trial"",""time""
""focus"",""16"",""332936""
""focus"",""16"",""381905""
""focus"",""16"",""386571""
""focus"",""34"",""473392""
""focus"",""41"",""514618""
""focus"",""42"",""526239""
","""event"",""trial"",""time""
""fullscreenenter"",""1"",""3180""
","""event"",""trial"",""time""
""fullscreenexit"",""9"",""19978""
","","","","","","null","<div style=""font-size:60px;"">+</div>","null","","fixation","","",""
"memory-trial","68","571951","0.0-18.0-1.12","6377","approach_avoid_sv1","""event"",""trial"",""time""
""fullscreenenter"",""1"",""3180""
""fullscreenexit"",""9"",""19978""
""blur"",""16"",""126729""
""focus"",""16"",""332936""
""blur"",""16"",""333474""
""focus"",""16"",""381905""
""blur"",""16"",""382336""
""focus"",""16"",""386571""
""blur"",""34"",""425108""
""focus"",""34"",""473392""
""blur"",""41"",""513007""
""focus"",""41"",""514618""
""blur"",""42"",""522722""
""focus"",""42"",""526239""
","""event"",""trial"",""time""
""blur"",""16"",""126729""
""blur"",""16"",""333474""
""blur"",""16"",""382336""
""blur"",""34"",""425108""
""blur"",""41"",""513007""
""blur"",""42"",""522722""
","""event"",""trial"",""time""
""focus"",""16"",""332936""
""focus"",""16"",""381905""
""focus"",""16"",""386571""
""focus"",""34"",""473392""
""focus"",""41"",""514618""
""focus"",""42"",""526239""
","""event"",""trial"",""time""
""fullscreenenter"",""1"",""3180""
","""event"",""trial"",""time""
""fullscreenexit"",""9"",""19978""
","","","","","","1335.3999999761581","images/cat7.png","","","memory_trial","2","maybe_old",""
"html-keyboard-response","69","572452","0.0-18.0-0.13","6377","approach_avoid_sv1","""event"",""trial"",""time""
""fullscreenenter"",""1"",""3180""
""fullscreenexit"",""9"",""19978""
""blur"",""16"",""126729""
""focus"",""16"",""332936""
""blur"",""16"",""333474""
""focus"",""16"",""381905""
""blur"",""16"",""382336""
""focus"",""16"",""386571""
""blur"",""34"",""425108""
""focus"",""34"",""473392""
""blur"",""41"",""513007""
""focus"",""41"",""514618""
""blur"",""42"",""522722""
""focus"",""42"",""526239""
","""event"",""trial"",""time""
""blur"",""16"",""126729""
""blur"",""16"",""333474""
""blur"",""16"",""382336""
""blur"",""34"",""425108""
""blur"",""41"",""513007""
""blur"",""42"",""522722""
","""event"",""trial"",""time""
""focus"",""16"",""332936""
""focus"",""16"",""381905""
""focus"",""16"",""386571""
""focus"",""34"",""473392""
""focus"",""41"",""514618""
""focus"",""42"",""526239""
","""event"",""trial"",""time""
""fullscreenenter"",""1"",""3180""
","""event"",""trial"",""time""
""fullscreenexit"",""9"",""19978""
","","","","","","null","<div style=""font-size:60px;"">+</div>","null","","fixation","","",""
"memory-trial","70","574511","0.0-18.0-1.13","6377","approach_avoid_sv1","""event"",""trial"",""time""
""fullscreenenter"",""1"",""3180""
""fullscreenexit"",""9"",""19978""
""blur"",""16"",""126729""
""focus"",""16"",""332936""
""blur"",""16"",""333474""
""focus"",""16"",""381905""
""blur"",""16"",""382336""
""focus"",""16"",""386571""
""blur"",""34"",""425108""
""focus"",""34"",""473392""
""blur"",""41"",""513007""
""focus"",""41"",""514618""
""blur"",""42"",""522722""
""focus"",""42"",""526239""
","""event"",""trial"",""time""
""blur"",""16"",""126729""
""blur"",""16"",""333474""
""blur"",""16"",""382336""
""blur"",""34"",""425108""
""blur"",""41"",""513007""
""blur"",""42"",""522722""
","""event"",""trial"",""time""
""focus"",""16"",""332936""
""focus"",""16"",""381905""
""focus"",""16"",""386571""
""focus"",""34"",""473392""
""focus"",""41"",""514618""
""focus"",""42"",""526239""
","""event"",""trial"",""time""
""fullscreenenter"",""1"",""3180""
","""event"",""trial"",""time""
""fullscreenexit"",""9"",""19978""
","","","","","","1055.9000000953674","images/flower5.png","","","memory_trial","2","maybe_old",""
"html-keyboard-response","71","575012","0.0-18.0-0.14","6377","approach_avoid_sv1","""event"",""trial"",""time""
""fullscreenenter"",""1"",""3180""
""fullscreenexit"",""9"",""19978""
""blur"",""16"",""126729""
""focus"",""16"",""332936""
""blur"",""16"",""333474""
""focus"",""16"",""381905""
""blur"",""16"",""382336""
""focus"",""16"",""386571""
""blur"",""34"",""425108""
""focus"",""34"",""473392""
""blur"",""41"",""513007""
""focus"",""41"",""514618""
""blur"",""42"",""522722""
""focus"",""42"",""526239""
","""event"",""trial"",""time""
""blur"",""16"",""126729""
""blur"",""16"",""333474""
""blur"",""16"",""382336""
""blur"",""34"",""425108""
""blur"",""41"",""513007""
""blur"",""42"",""522722""
","""event"",""trial"",""time""
""focus"",""16"",""332936""
""focus"",""16"",""381905""
""focus"",""16"",""386571""
""focus"",""34"",""473392""
""focus"",""41"",""514618""
""focus"",""42"",""526239""
","""event"",""trial"",""time""
""fullscreenenter"",""1"",""3180""
","""event"",""trial"",""time""
""fullscreenexit"",""9"",""19978""
","","","","","","null","<div style=""font-size:60px;"">+</div>","null","","fixation","","",""
"memory-trial","72","576919","0.0-18.0-1.14","6377","approach_avoid_sv1","""event"",""trial"",""time""
""fullscreenenter"",""1"",""3180""
""fullscreenexit"",""9"",""19978""
""blur"",""16"",""126729""
""focus"",""16"",""332936""
""blur"",""16"",""333474""
""focus"",""16"",""381905""
""blur"",""16"",""382336""
""focus"",""16"",""386571""
""blur"",""34"",""425108""
""focus"",""34"",""473392""
""blur"",""41"",""513007""
""focus"",""41"",""514618""
""blur"",""42"",""522722""
""focus"",""42"",""526239""
","""event"",""trial"",""time""
""blur"",""16"",""126729""
""blur"",""16"",""333474""
""blur"",""16"",""382336""
""blur"",""34"",""425108""
""blur"",""41"",""513007""
""blur"",""42"",""522722""
","""event"",""trial"",""time""
""focus"",""16"",""332936""
""focus"",""16"",""381905""
""focus"",""16"",""386571""
""focus"",""34"",""473392""
""focus"",""41"",""514618""
""focus"",""42"",""526239""
","""event"",""trial"",""time""
""fullscreenenter"",""1"",""3180""
","""event"",""trial"",""time""
""fullscreenexit"",""9"",""19978""
","","","","","","904.8000000715256","images/rodent7.png","","","memory_trial","1","definitely_old",""
"html-keyboard-response","73","577421","0.0-18.0-0.15","6377","approach_avoid_sv1","""event"",""trial"",""time""
""fullscreenenter"",""1"",""3180""
""fullscreenexit"",""9"",""19978""
""blur"",""16"",""126729""
""focus"",""16"",""332936""
""blur"",""16"",""333474""
""focus"",""16"",""381905""
""blur"",""16"",""382336""
""focus"",""16"",""386571""
""blur"",""34"",""425108""
""focus"",""34"",""473392""
""blur"",""41"",""513007""
""focus"",""41"",""514618""
""blur"",""42"",""522722""
""focus"",""42"",""526239""
","""event"",""trial"",""time""
""blur"",""16"",""126729""
""blur"",""16"",""333474""
""blur"",""16"",""382336""
""blur"",""34"",""425108""
""blur"",""41"",""513007""
""blur"",""42"",""522722""
","""event"",""trial"",""time""
""focus"",""16"",""332936""
""focus"",""16"",""381905""
""focus"",""16"",""386571""
""focus"",""34"",""473392""
""focus"",""41"",""514618""
""focus"",""42"",""526239""
","""event"",""trial"",""time""
""fullscreenenter"",""1"",""3180""
","""event"",""trial"",""time""
""fullscreenexit"",""9"",""19978""
","","","","","","null","<div style=""font-size:60px;"">+</div>","null","","fixation","","",""
"memory-trial","74","579359","0.0-18.0-1.15","6377","approach_avoid_sv1","""event"",""trial"",""time""
""fullscreenenter"",""1"",""3180""
""fullscreenexit"",""9"",""19978""
""blur"",""16"",""126729""
""focus"",""16"",""332936""
""blur"",""16"",""333474""
""focus"",""16"",""381905""
""blur"",""16"",""382336""
""focus"",""16"",""386571""
""blur"",""34"",""425108""
""focus"",""34"",""473392""
""blur"",""41"",""513007""
""focus"",""41"",""514618""
""blur"",""42"",""522722""
""focus"",""42"",""526239""
","""event"",""trial"",""time""
""blur"",""16"",""126729""
""blur"",""16"",""333474""
""blur"",""16"",""382336""
""blur"",""34"",""425108""
""blur"",""41"",""513007""
""blur"",""42"",""522722""
","""event"",""trial"",""time""
""focus"",""16"",""332936""
""focus"",""16"",""381905""
""focus"",""16"",""386571""
""focus"",""34"",""473392""
""focus"",""41"",""514618""
""focus"",""42"",""526239""
","""event"",""trial"",""time""
""fullscreenenter"",""1"",""3180""
","""event"",""trial"",""time""
""fullscreenexit"",""9"",""19978""
","","","","","","927.8000000715256","images/rodent5.png","","","memory_trial","1","definitely_old",""
"html-keyboard-response","75","579860","0.0-18.0-0.16","6377","approach_avoid_sv1","""event"",""trial"",""time""
""fullscreenenter"",""1"",""3180""
""fullscreenexit"",""9"",""19978""
""blur"",""16"",""126729""
""focus"",""16"",""332936""
""blur"",""16"",""333474""
""focus"",""16"",""381905""
""blur"",""16"",""382336""
""focus"",""16"",""386571""
""blur"",""34"",""425108""
""focus"",""34"",""473392""
""blur"",""41"",""513007""
""focus"",""41"",""514618""
""blur"",""42"",""522722""
""focus"",""42"",""526239""
","""event"",""trial"",""time""
""blur"",""16"",""126729""
""blur"",""16"",""333474""
""blur"",""16"",""382336""
""blur"",""34"",""425108""
""blur"",""41"",""513007""
""blur"",""42"",""522722""
","""event"",""trial"",""time""
""focus"",""16"",""332936""
""focus"",""16"",""381905""
""focus"",""16"",""386571""
""focus"",""34"",""473392""
""focus"",""41"",""514618""
""focus"",""42"",""526239""
","""event"",""trial"",""time""
""fullscreenenter"",""1"",""3180""
","""event"",""trial"",""time""
""fullscreenexit"",""9"",""19978""
","","","","","","null","<div style=""font-size:60px;"">+</div>","null","","fixation","","",""
"memory-trial","76","582223","0.0-18.0-1.16","6377","approach_avoid_sv1","""event"",""trial"",""time""
""fullscreenenter"",""1"",""3180""
""fullscreenexit"",""9"",""19978""
""blur"",""16"",""126729""
""focus"",""16"",""332936""
""blur"",""16"",""333474""
""focus"",""16"",""381905""
""blur"",""16"",""382336""
""focus"",""16"",""386571""
""blur"",""34"",""425108""
""focus"",""34"",""473392""
""blur"",""41"",""513007""
""focus"",""41"",""514618""
""blur"",""42"",""522722""
""focus"",""42"",""526239""
","""event"",""trial"",""time""
""blur"",""16"",""126729""
""blur"",""16"",""333474""
""blur"",""16"",""382336""
""blur"",""34"",""425108""
""blur"",""41"",""513007""
""blur"",""42"",""522722""
","""event"",""trial"",""time""
""focus"",""16"",""332936""
""focus"",""16"",""381905""
""focus"",""16"",""386571""
""focus"",""34"",""473392""
""focus"",""41"",""514618""
""focus"",""42"",""526239""
","""event"",""trial"",""time""
""fullscreenenter"",""1"",""3180""
","""event"",""trial"",""time""
""fullscreenexit"",""9"",""19978""
","","","","","","1360.8999999761581","images/dog6.png","","","memory_trial","3","maybe_new",""
"html-keyboard-response","77","582725","0.0-18.0-0.17","6377","approach_avoid_sv1","""event"",""trial"",""time""
""fullscreenenter"",""1"",""3180""
""fullscreenexit"",""9"",""19978""
""blur"",""16"",""126729""
""focus"",""16"",""332936""
""blur"",""16"",""333474""
""focus"",""16"",""381905""
""blur"",""16"",""382336""
""focus"",""16"",""386571""
""blur"",""34"",""425108""
""focus"",""34"",""473392""
""blur"",""41"",""513007""
""focus"",""41"",""514618""
""blur"",""42"",""522722""
""focus"",""42"",""526239""
","""event"",""trial"",""time""
""blur"",""16"",""126729""
""blur"",""16"",""333474""
""blur"",""16"",""382336""
""blur"",""34"",""425108""
""blur"",""41"",""513007""
""blur"",""42"",""522722""
","""event"",""trial"",""time""
""focus"",""16"",""332936""
""focus"",""16"",""381905""
""focus"",""16"",""386571""
""focus"",""34"",""473392""
""focus"",""41"",""514618""
""focus"",""42"",""526239""
","""event"",""trial"",""time""
""fullscreenenter"",""1"",""3180""
","""event"",""trial"",""time""
""fullscreenexit"",""9"",""19978""
","","","","","","null","<div style=""font-size:60px;"">+</div>","null","","fixation","","",""
"memory-trial","78","584967","0.0-18.0-1.17","6377","approach_avoid_sv1","""event"",""trial"",""time""
""fullscreenenter"",""1"",""3180""
""fullscreenexit"",""9"",""19978""
""blur"",""16"",""126729""
""focus"",""16"",""332936""
""blur"",""16"",""333474""
""focus"",""16"",""381905""
""blur"",""16"",""382336""
""focus"",""16"",""386571""
""blur"",""34"",""425108""
""focus"",""34"",""473392""
""blur"",""41"",""513007""
""focus"",""41"",""514618""
""blur"",""42"",""522722""
""focus"",""42"",""526239""
","""event"",""trial"",""time""
""blur"",""16"",""126729""
""blur"",""16"",""333474""
""blur"",""16"",""382336""
""blur"",""34"",""425108""
""blur"",""41"",""513007""
""blur"",""42"",""522722""
","""event"",""trial"",""time""
""focus"",""16"",""332936""
""focus"",""16"",""381905""
""focus"",""16"",""386571""
""focus"",""34"",""473392""
""focus"",""41"",""514618""
""focus"",""42"",""526239""
","""event"",""trial"",""time""
""fullscreenenter"",""1"",""3180""
","""event"",""trial"",""time""
""fullscreenexit"",""9"",""19978""
","","","","","","1238.8000000715256","images/horse7.png","","","memory_trial","4","definitely_new",""
"html-keyboard-response","79","585469","0.0-18.0-0.18","6377","approach_avoid_sv1","""event"",""trial"",""time""
""fullscreenenter"",""1"",""3180""
""fullscreenexit"",""9"",""19978""
""blur"",""16"",""126729""
""focus"",""16"",""332936""
""blur"",""16"",""333474""
""focus"",""16"",""381905""
""blur"",""16"",""382336""
""focus"",""16"",""386571""
""blur"",""34"",""425108""
""focus"",""34"",""473392""
""blur"",""41"",""513007""
""focus"",""41"",""514618""
""blur"",""42"",""522722""
""focus"",""42"",""526239""
","""event"",""trial"",""time""
""blur"",""16"",""126729""
""blur"",""16"",""333474""
""blur"",""16"",""382336""
""blur"",""34"",""425108""
""blur"",""41"",""513007""
""blur"",""42"",""522722""
","""event"",""trial"",""time""
""focus"",""16"",""332936""
""focus"",""16"",""381905""
""focus"",""16"",""386571""
""focus"",""34"",""473392""
""focus"",""41"",""514618""
""focus"",""42"",""526239""
","""event"",""trial"",""time""
""fullscreenenter"",""1"",""3180""
","""event"",""trial"",""time""
""fullscreenexit"",""9"",""19978""
","","","","","","null","<div style=""font-size:60px;"">+</div>","null","","fixation","","",""
"memory-trial","80","587631","0.0-18.0-1.18","6377","approach_avoid_sv1","""event"",""trial"",""time""
""fullscreenenter"",""1"",""3180""
""fullscreenexit"",""9"",""19978""
""blur"",""16"",""126729""
""focus"",""16"",""332936""
""blur"",""16"",""333474""
""focus"",""16"",""381905""
""blur"",""16"",""382336""
""focus"",""16"",""386571""
""blur"",""34"",""425108""
""focus"",""34"",""473392""
""blur"",""41"",""513007""
""focus"",""41"",""514618""
""blur"",""42"",""522722""
""focus"",""42"",""526239""
","""event"",""trial"",""time""
""blur"",""16"",""126729""
""blur"",""16"",""333474""
""blur"",""16"",""382336""
""blur"",""34"",""425108""
""blur"",""41"",""513007""
""blur"",""42"",""522722""
","""event"",""trial"",""time""
""focus"",""16"",""332936""
""focus"",""16"",""381905""
""focus"",""16"",""386571""
""focus"",""34"",""473392""
""focus"",""41"",""514618""
""focus"",""42"",""526239""
","""event"",""trial"",""time""
""fullscreenenter"",""1"",""3180""
","""event"",""trial"",""time""
""fullscreenexit"",""9"",""19978""
","","","","","","1159.5","images/cow5.png","","","memory_trial","1","definitely_old",""
"html-keyboard-response","81","588131","0.0-18.0-0.19","6377","approach_avoid_sv1","""event"",""trial"",""time""
""fullscreenenter"",""1"",""3180""
""fullscreenexit"",""9"",""19978""
""blur"",""16"",""126729""
""focus"",""16"",""332936""
""blur"",""16"",""333474""
""focus"",""16"",""381905""
""blur"",""16"",""382336""
""focus"",""16"",""386571""
""blur"",""34"",""425108""
""focus"",""34"",""473392""
""blur"",""41"",""513007""
""focus"",""41"",""514618""
""blur"",""42"",""522722""
""focus"",""42"",""526239""
","""event"",""trial"",""time""
""blur"",""16"",""126729""
""blur"",""16"",""333474""
""blur"",""16"",""382336""
""blur"",""34"",""425108""
""blur"",""41"",""513007""
""blur"",""42"",""522722""
","""event"",""trial"",""time""
""focus"",""16"",""332936""
""focus"",""16"",""381905""
""focus"",""16"",""386571""
""focus"",""34"",""473392""
""focus"",""41"",""514618""
""focus"",""42"",""526239""
","""event"",""trial"",""time""
""fullscreenenter"",""1"",""3180""
","""event"",""trial"",""time""
""fullscreenexit"",""9"",""19978""
","","","","","","null","<div style=""font-size:60px;"">+</div>","null","","fixation","","",""
"memory-trial","82","590983","0.0-18.0-1.19","6377","approach_avoid_sv1","""event"",""trial"",""time""
""fullscreenenter"",""1"",""3180""
""fullscreenexit"",""9"",""19978""
""blur"",""16"",""126729""
""focus"",""16"",""332936""
""blur"",""16"",""333474""
""focus"",""16"",""381905""
""blur"",""16"",""382336""
""focus"",""16"",""386571""
""blur"",""34"",""425108""
""focus"",""34"",""473392""
""blur"",""41"",""513007""
""focus"",""41"",""514618""
""blur"",""42"",""522722""
""focus"",""42"",""526239""
","""event"",""trial"",""time""
""blur"",""16"",""126729""
""blur"",""16"",""333474""
""blur"",""16"",""382336""
""blur"",""34"",""425108""
""blur"",""41"",""513007""
""blur"",""42"",""522722""
","""event"",""trial"",""time""
""focus"",""16"",""332936""
""focus"",""16"",""381905""
""focus"",""16"",""386571""
""focus"",""34"",""473392""
""focus"",""41"",""514618""
""focus"",""42"",""526239""
","""event"",""trial"",""time""
""fullscreenenter"",""1"",""3180""
","""event"",""trial"",""time""
""fullscreenexit"",""9"",""19978""
","","","","","","1849.5","images/banana4.png","","","memory_trial","2","maybe_old",""
"html-keyboard-response","83","591485","0.0-18.0-0.20","6377","approach_avoid_sv1","""event"",""trial"",""time""
""fullscreenenter"",""1"",""3180""
""fullscreenexit"",""9"",""19978""
""blur"",""16"",""126729""
""focus"",""16"",""332936""
""blur"",""16"",""333474""
""focus"",""16"",""381905""
""blur"",""16"",""382336""
""focus"",""16"",""386571""
""blur"",""34"",""425108""
""focus"",""34"",""473392""
""blur"",""41"",""513007""
""focus"",""41"",""514618""
""blur"",""42"",""522722""
""focus"",""42"",""526239""
","""event"",""trial"",""time""
""blur"",""16"",""126729""
""blur"",""16"",""333474""
""blur"",""16"",""382336""
""blur"",""34"",""425108""
""blur"",""41"",""513007""
""blur"",""42"",""522722""
","""event"",""trial"",""time""
""focus"",""16"",""332936""
""focus"",""16"",""381905""
""focus"",""16"",""386571""
""focus"",""34"",""473392""
""focus"",""41"",""514618""
""focus"",""42"",""526239""
","""event"",""trial"",""time""
""fullscreenenter"",""1"",""3180""
","""event"",""trial"",""time""
""fullscreenexit"",""9"",""19978""
","","","","","","null","<div style=""font-size:60px;"">+</div>","null","","fixation","","",""
"memory-trial","84","593878","0.0-18.0-1.20","6377","approach_avoid_sv1","""event"",""trial"",""time""
""fullscreenenter"",""1"",""3180""
""fullscreenexit"",""9"",""19978""
""blur"",""16"",""126729""
""focus"",""16"",""332936""
""blur"",""16"",""333474""
""focus"",""16"",""381905""
""blur"",""16"",""382336""
""focus"",""16"",""386571""
""blur"",""34"",""425108""
""focus"",""34"",""473392""
""blur"",""41"",""513007""
""focus"",""41"",""514618""
""blur"",""42"",""522722""
""focus"",""42"",""526239""
","""event"",""trial"",""time""
""blur"",""16"",""126729""
""blur"",""16"",""333474""
""blur"",""16"",""382336""
""blur"",""34"",""425108""
""blur"",""41"",""513007""
""blur"",""42"",""522722""
","""event"",""trial"",""time""
""focus"",""16"",""332936""
""focus"",""16"",""381905""
""focus"",""16"",""386571""
""focus"",""34"",""473392""
""focus"",""41"",""514618""
""focus"",""42"",""526239""
","""event"",""trial"",""time""
""fullscreenenter"",""1"",""3180""
","""event"",""trial"",""time""
""fullscreenexit"",""9"",""19978""
","","","","","","1391.2999999523163","images/apple2.png","","","memory_trial","4","definitely_new",""
"html-keyboard-response","85","594380","0.0-18.0-0.21","6377","approach_avoid_sv1","""event"",""trial"",""time""
""fullscreenenter"",""1"",""3180""
""fullscreenexit"",""9"",""19978""
""blur"",""16"",""126729""
""focus"",""16"",""332936""
""blur"",""16"",""333474""
""focus"",""16"",""381905""
""blur"",""16"",""382336""
""focus"",""16"",""386571""
""blur"",""34"",""425108""
""focus"",""34"",""473392""
""blur"",""41"",""513007""
""focus"",""41"",""514618""
""blur"",""42"",""522722""
""focus"",""42"",""526239""
","""event"",""trial"",""time""
""blur"",""16"",""126729""
""blur"",""16"",""333474""
""blur"",""16"",""382336""
""blur"",""34"",""425108""
""blur"",""41"",""513007""
""blur"",""42"",""522722""
","""event"",""trial"",""time""
""focus"",""16"",""332936""
""focus"",""16"",""381905""
""focus"",""16"",""386571""
""focus"",""34"",""473392""
""focus"",""41"",""514618""
""focus"",""42"",""526239""
","""event"",""trial"",""time""
""fullscreenenter"",""1"",""3180""
","""event"",""trial"",""time""
""fullscreenexit"",""9"",""19978""
","","","","","","null","<div style=""font-size:60px;"">+</div>","null","","fixation","","",""
"memory-trial","86","596598","0.0-18.0-1.21","6377","approach_avoid_sv1","""event"",""trial"",""time""
""fullscreenenter"",""1"",""3180""
""fullscreenexit"",""9"",""19978""
""blur"",""16"",""126729""
""focus"",""16"",""332936""
""blur"",""16"",""333474""
""focus"",""16"",""381905""
""blur"",""16"",""382336""
""focus"",""16"",""386571""
""blur"",""34"",""425108""
""focus"",""34"",""473392""
""blur"",""41"",""513007""
""focus"",""41"",""514618""
""blur"",""42"",""522722""
""focus"",""42"",""526239""
","""event"",""trial"",""time""
""blur"",""16"",""126729""
""blur"",""16"",""333474""
""blur"",""16"",""382336""
""blur"",""34"",""425108""
""blur"",""41"",""513007""
""blur"",""42"",""522722""
","""event"",""trial"",""time""
""focus"",""16"",""332936""
""focus"",""16"",""381905""
""focus"",""16"",""386571""
""focus"",""34"",""473392""
""focus"",""41"",""514618""
""focus"",""42"",""526239""
","""event"",""trial"",""time""
""fullscreenenter"",""1"",""3180""
","""event"",""trial"",""time""
""fullscreenexit"",""9"",""19978""
","","","","","","1216.1999999284744","images/tree4.png","","","memory_trial","1","definitely_old",""
"html-keyboard-response","87","597099","0.0-18.0-0.22","6377","approach_avoid_sv1","""event"",""trial"",""time""
""fullscreenenter"",""1"",""3180""
""fullscreenexit"",""9"",""19978""
""blur"",""16"",""126729""
""focus"",""16"",""332936""
""blur"",""16"",""333474""
""focus"",""16"",""381905""
""blur"",""16"",""382336""
""focus"",""16"",""386571""
""blur"",""34"",""425108""
""focus"",""34"",""473392""
""blur"",""41"",""513007""
""focus"",""41"",""514618""
""blur"",""42"",""522722""
""focus"",""42"",""526239""
","""event"",""trial"",""time""
""blur"",""16"",""126729""
""blur"",""16"",""333474""
""blur"",""16"",""382336""
""blur"",""34"",""425108""
""blur"",""41"",""513007""
""blur"",""42"",""522722""
","""event"",""trial"",""time""
""focus"",""16"",""332936""
""focus"",""16"",""381905""
""focus"",""16"",""386571""
""focus"",""34"",""473392""
""focus"",""41"",""514618""
""focus"",""42"",""526239""
","""event"",""trial"",""time""
""fullscreenenter"",""1"",""3180""
","""event"",""trial"",""time""
""fullscreenexit"",""9"",""19978""
","","","","","","null","<div style=""font-size:60px;"">+</div>","null","","fixation","","",""
"memory-trial","88","598879","0.0-18.0-1.22","6377","approach_avoid_sv1","""event"",""trial"",""time""
""fullscreenenter"",""1"",""3180""
""fullscreenexit"",""9"",""19978""
""blur"",""16"",""126729""
""focus"",""16"",""332936""
""blur"",""16"",""333474""
""focus"",""16"",""381905""
""blur"",""16"",""382336""
""focus"",""16"",""386571""
""blur"",""34"",""425108""
""focus"",""34"",""473392""
""blur"",""41"",""513007""
""focus"",""41"",""514618""
""blur"",""42"",""522722""
""focus"",""42"",""526239""
","""event"",""trial"",""time""
""blur"",""16"",""126729""
""blur"",""16"",""333474""
""blur"",""16"",""382336""
""blur"",""34"",""425108""
""blur"",""41"",""513007""
""blur"",""42"",""522722""
","""event"",""trial"",""time""
""focus"",""16"",""332936""
""focus"",""16"",""381905""
""focus"",""16"",""386571""
""focus"",""34"",""473392""
""focus"",""41"",""514618""
""focus"",""42"",""526239""
","""event"",""trial"",""time""
""fullscreenenter"",""1"",""3180""
","""event"",""trial"",""time""
""fullscreenexit"",""9"",""19978""
","","","","","","776.7999999523163","images/rodent3.png","","","memory_trial","1","definitely_old",""
"html-keyboard-response","89","599380","0.0-18.0-0.23","6377","approach_avoid_sv1","""event"",""trial"",""time""
""fullscreenenter"",""1"",""3180""
""fullscreenexit"",""9"",""19978""
""blur"",""16"",""126729""
""focus"",""16"",""332936""
""blur"",""16"",""333474""
""focus"",""16"",""381905""
""blur"",""16"",""382336""
""focus"",""16"",""386571""
""blur"",""34"",""425108""
""focus"",""34"",""473392""
""blur"",""41"",""513007""
""focus"",""41"",""514618""
""blur"",""42"",""522722""
""focus"",""42"",""526239""
","""event"",""trial"",""time""
""blur"",""16"",""126729""
""blur"",""16"",""333474""
""blur"",""16"",""382336""
""blur"",""34"",""425108""
""blur"",""41"",""513007""
""blur"",""42"",""522722""
","""event"",""trial"",""time""
""focus"",""16"",""332936""
""focus"",""16"",""381905""
""focus"",""16"",""386571""
""focus"",""34"",""473392""
""focus"",""41"",""514618""
""focus"",""42"",""526239""
","""event"",""trial"",""time""
""fullscreenenter"",""1"",""3180""
","""event"",""trial"",""time""
""fullscreenexit"",""9"",""19978""
","","","","","","null","<div style=""font-size:60px;"">+</div>","null","","fixation","","",""
"memory-trial","90","602191","0.0-18.0-1.23","6377","approach_avoid_sv1","""event"",""trial"",""time""
""fullscreenenter"",""1"",""3180""
""fullscreenexit"",""9"",""19978""
""blur"",""16"",""126729""
""focus"",""16"",""332936""
""blur"",""16"",""333474""
""focus"",""16"",""381905""
""blur"",""16"",""382336""
""focus"",""16"",""386571""
""blur"",""34"",""425108""
""focus"",""34"",""473392""
""blur"",""41"",""513007""
""focus"",""41"",""514618""
""blur"",""42"",""522722""
""focus"",""42"",""526239""
","""event"",""trial"",""time""
""blur"",""16"",""126729""
""blur"",""16"",""333474""
""blur"",""16"",""382336""
""blur"",""34"",""425108""
""blur"",""41"",""513007""
""blur"",""42"",""522722""
","""event"",""trial"",""time""
""focus"",""16"",""332936""
""focus"",""16"",""381905""
""focus"",""16"",""386571""
""focus"",""34"",""473392""
""focus"",""41"",""514618""
""focus"",""42"",""526239""
","""event"",""trial"",""time""
""fullscreenenter"",""1"",""3180""
","""event"",""trial"",""time""
""fullscreenexit"",""9"",""19978""
","","","","","","1809.1000000238419","images/plane4.png","","","memory_trial","1","definitely_old",""
"html-keyboard-response","91","602693","0.0-18.0-0.24","6377","approach_avoid_sv1","""event"",""trial"",""time""
""fullscreenenter"",""1"",""3180""
""fullscreenexit"",""9"",""19978""
""blur"",""16"",""126729""
""focus"",""16"",""332936""
""blur"",""16"",""333474""
""focus"",""16"",""381905""
""blur"",""16"",""382336""
""focus"",""16"",""386571""
""blur"",""34"",""425108""
""focus"",""34"",""473392""
""blur"",""41"",""513007""
""focus"",""41"",""514618""
""blur"",""42"",""522722""
""focus"",""42"",""526239""
","""event"",""trial"",""time""
""blur"",""16"",""126729""
""blur"",""16"",""333474""
""blur"",""16"",""382336""
""blur"",""34"",""425108""
""blur"",""41"",""513007""
""blur"",""42"",""522722""
","""event"",""trial"",""time""
""focus"",""16"",""332936""
""focus"",""16"",""381905""
""focus"",""16"",""386571""
""focus"",""34"",""473392""
""focus"",""41"",""514618""
""focus"",""42"",""526239""
","""event"",""trial"",""time""
""fullscreenenter"",""1"",""3180""
","""event"",""trial"",""time""
""fullscreenexit"",""9"",""19978""
","","","","","","null","<div style=""font-size:60px;"">+</div>","null","","fixation","","",""
"memory-trial","92","606551","0.0-18.0-1.24","6377","approach_avoid_sv1","""event"",""trial"",""time""
""fullscreenenter"",""1"",""3180""
""fullscreenexit"",""9"",""19978""
""blur"",""16"",""126729""
""focus"",""16"",""332936""
""blur"",""16"",""333474""
""focus"",""16"",""381905""
""blur"",""16"",""382336""
""focus"",""16"",""386571""
""blur"",""34"",""425108""
""focus"",""34"",""473392""
""blur"",""41"",""513007""
""focus"",""41"",""514618""
""blur"",""42"",""522722""
""focus"",""42"",""526239""
","""event"",""trial"",""time""
""blur"",""16"",""126729""
""blur"",""16"",""333474""
""blur"",""16"",""382336""
""blur"",""34"",""425108""
""blur"",""41"",""513007""
""blur"",""42"",""522722""
","""event"",""trial"",""time""
""focus"",""16"",""332936""
""focus"",""16"",""381905""
""focus"",""16"",""386571""
""focus"",""34"",""473392""
""focus"",""41"",""514618""
""focus"",""42"",""526239""
","""event"",""trial"",""time""
""fullscreenenter"",""1"",""3180""
","""event"",""trial"",""time""
""fullscreenexit"",""9"",""19978""
","","","","","","2854.5","images/cat2.png","","","memory_trial","3","maybe_new",""
"html-keyboard-response","93","607052","0.0-18.0-0.25","6377","approach_avoid_sv1","""event"",""trial"",""time""
""fullscreenenter"",""1"",""3180""
""fullscreenexit"",""9"",""19978""
""blur"",""16"",""126729""
""focus"",""16"",""332936""
""blur"",""16"",""333474""
""focus"",""16"",""381905""
""blur"",""16"",""382336""
""focus"",""16"",""386571""
""blur"",""34"",""425108""
""focus"",""34"",""473392""
""blur"",""41"",""513007""
""focus"",""41"",""514618""
""blur"",""42"",""522722""
""focus"",""42"",""526239""
","""event"",""trial"",""time""
""blur"",""16"",""126729""
""blur"",""16"",""333474""
""blur"",""16"",""382336""
""blur"",""34"",""425108""
""blur"",""41"",""513007""
""blur"",""42"",""522722""
","""event"",""trial"",""time""
""focus"",""16"",""332936""
""focus"",""16"",""381905""
""focus"",""16"",""386571""
""focus"",""34"",""473392""
""focus"",""41"",""514618""
""focus"",""42"",""526239""
","""event"",""trial"",""time""
""fullscreenenter"",""1"",""3180""
","""event"",""trial"",""time""
""fullscreenexit"",""9"",""19978""
","","","","","","null","<div style=""font-size:60px;"">+</div>","null","","fixation","","",""
"memory-trial","94","610334","0.0-18.0-1.25","6377","approach_avoid_sv1","""event"",""trial"",""time""
""fullscreenenter"",""1"",""3180""
""fullscreenexit"",""9"",""19978""
""blur"",""16"",""126729""
""focus"",""16"",""332936""
""blur"",""16"",""333474""
""focus"",""16"",""381905""
""blur"",""16"",""382336""
""focus"",""16"",""386571""
""blur"",""34"",""425108""
""focus"",""34"",""473392""
""blur"",""41"",""513007""
""focus"",""41"",""514618""
""blur"",""42"",""522722""
""focus"",""42"",""526239""
","""event"",""trial"",""time""
""blur"",""16"",""126729""
""blur"",""16"",""333474""
""blur"",""16"",""382336""
""blur"",""34"",""425108""
""blur"",""41"",""513007""
""blur"",""42"",""522722""
","""event"",""trial"",""time""
""focus"",""16"",""332936""
""focus"",""16"",""381905""
""focus"",""16"",""386571""
""focus"",""34"",""473392""
""focus"",""41"",""514618""
""focus"",""42"",""526239""
","""event"",""trial"",""time""
""fullscreenenter"",""1"",""3180""
","""event"",""trial"",""time""
""fullscreenexit"",""9"",""19978""
","","","","","","2279.7999999523163","images/cactus6.png","","","memory_trial","1","definitely_old",""
"html-keyboard-response","95","610848","0.0-18.0-0.26","6377","approach_avoid_sv1","""event"",""trial"",""time""
""fullscreenenter"",""1"",""3180""
""fullscreenexit"",""9"",""19978""
""blur"",""16"",""126729""
""focus"",""16"",""332936""
""blur"",""16"",""333474""
""focus"",""16"",""381905""
""blur"",""16"",""382336""
""focus"",""16"",""386571""
""blur"",""34"",""425108""
""focus"",""34"",""473392""
""blur"",""41"",""513007""
""focus"",""41"",""514618""
""blur"",""42"",""522722""
""focus"",""42"",""526239""
","""event"",""trial"",""time""
""blur"",""16"",""126729""
""blur"",""16"",""333474""
""blur"",""16"",""382336""
""blur"",""34"",""425108""
""blur"",""41"",""513007""
""blur"",""42"",""522722""
","""event"",""trial"",""time""
""focus"",""16"",""332936""
""focus"",""16"",""381905""
""focus"",""16"",""386571""
""focus"",""34"",""473392""
""focus"",""41"",""514618""
""focus"",""42"",""526239""
","""event"",""trial"",""time""
""fullscreenenter"",""1"",""3180""
","""event"",""trial"",""time""
""fullscreenexit"",""9"",""19978""
","","","","","","null","<div style=""font-size:60px;"">+</div>","null","","fixation","","",""
"memory-trial","96","613423","0.0-18.0-1.26","6377","approach_avoid_sv1","""event"",""trial"",""time""
""fullscreenenter"",""1"",""3180""
""fullscreenexit"",""9"",""19978""
""blur"",""16"",""126729""
""focus"",""16"",""332936""
""blur"",""16"",""333474""
""focus"",""16"",""381905""
""blur"",""16"",""382336""
""focus"",""16"",""386571""
""blur"",""34"",""425108""
""focus"",""34"",""473392""
""blur"",""41"",""513007""
""focus"",""41"",""514618""
""blur"",""42"",""522722""
""focus"",""42"",""526239""
","""event"",""trial"",""time""
""blur"",""16"",""126729""
""blur"",""16"",""333474""
""blur"",""16"",""382336""
""blur"",""34"",""425108""
""blur"",""41"",""513007""
""blur"",""42"",""522722""
","""event"",""trial"",""time""
""focus"",""16"",""332936""
""focus"",""16"",""381905""
""focus"",""16"",""386571""
""focus"",""34"",""473392""
""focus"",""41"",""514618""
""focus"",""42"",""526239""
","""event"",""trial"",""time""
""fullscreenenter"",""1"",""3180""
","""event"",""trial"",""time""
""fullscreenexit"",""9"",""19978""
","","","","","","1572.7000000476837","images/tree6.png","","","memory_trial","4","definitely_new",""
"html-keyboard-response","97","613925","0.0-18.0-0.27","6377","approach_avoid_sv1","""event"",""trial"",""time""
""fullscreenenter"",""1"",""3180""
""fullscreenexit"",""9"",""19978""
""blur"",""16"",""126729""
""focus"",""16"",""332936""
""blur"",""16"",""333474""
""focus"",""16"",""381905""
""blur"",""16"",""382336""
""focus"",""16"",""386571""
""blur"",""34"",""425108""
""focus"",""34"",""473392""
""blur"",""41"",""513007""
""focus"",""41"",""514618""
""blur"",""42"",""522722""
""focus"",""42"",""526239""
","""event"",""trial"",""time""
""blur"",""16"",""126729""
""blur"",""16"",""333474""
""blur"",""16"",""382336""
""blur"",""34"",""425108""
""blur"",""41"",""513007""
""blur"",""42"",""522722""
","""event"",""trial"",""time""
""focus"",""16"",""332936""
""focus"",""16"",""381905""
""focus"",""16"",""386571""
""focus"",""34"",""473392""
""focus"",""41"",""514618""
""focus"",""42"",""526239""
","""event"",""trial"",""time""
""fullscreenenter"",""1"",""3180""
","""event"",""trial"",""time""
""fullscreenexit"",""9"",""19978""
","","","","","","null","<div style=""font-size:60px;"">+</div>","null","","fixation","","",""
"memory-trial","98","615806","0.0-18.0-1.27","6377","approach_avoid_sv1","""event"",""trial"",""time""
""fullscreenenter"",""1"",""3180""
""fullscreenexit"",""9"",""19978""
""blur"",""16"",""126729""
""focus"",""16"",""332936""
""blur"",""16"",""333474""
""focus"",""16"",""381905""
""blur"",""16"",""382336""
""focus"",""16"",""386571""
""blur"",""34"",""425108""
""focus"",""34"",""473392""
""blur"",""41"",""513007""
""focus"",""41"",""514618""
""blur"",""42"",""522722""
""focus"",""42"",""526239""
","""event"",""trial"",""time""
""blur"",""16"",""126729""
""blur"",""16"",""333474""
""blur"",""16"",""382336""
""blur"",""34"",""425108""
""blur"",""41"",""513007""
""blur"",""42"",""522722""
","""event"",""trial"",""time""
""focus"",""16"",""332936""
""focus"",""16"",""381905""
""focus"",""16"",""386571""
""focus"",""34"",""473392""
""focus"",""41"",""514618""
""focus"",""42"",""526239""
","""event"",""trial"",""time""
""fullscreenenter"",""1"",""3180""
","""event"",""trial"",""time""
""fullscreenexit"",""9"",""19978""
","","","","","","879.1000000238419","images/flower4.png","","","memory_trial","2","maybe_old",""
"html-keyboard-response","99","616307","0.0-18.0-0.28","6377","approach_avoid_sv1","""event"",""trial"",""time""
""fullscreenenter"",""1"",""3180""
""fullscreenexit"",""9"",""19978""
""blur"",""16"",""126729""
""focus"",""16"",""332936""
""blur"",""16"",""333474""
""focus"",""16"",""381905""
""blur"",""16"",""382336""
""focus"",""16"",""386571""
""blur"",""34"",""425108""
""focus"",""34"",""473392""
""blur"",""41"",""513007""
""focus"",""41"",""514618""
""blur"",""42"",""522722""
""focus"",""42"",""526239""
","""event"",""trial"",""time""
""blur"",""16"",""126729""
""blur"",""16"",""333474""
""blur"",""16"",""382336""
""blur"",""34"",""425108""
""blur"",""41"",""513007""
""blur"",""42"",""522722""
","""event"",""trial"",""time""
""focus"",""16"",""332936""
""focus"",""16"",""381905""
""focus"",""16"",""386571""
""focus"",""34"",""473392""
""focus"",""41"",""514618""
""focus"",""42"",""526239""
","""event"",""trial"",""time""
""fullscreenenter"",""1"",""3180""
","""event"",""trial"",""time""
""fullscreenexit"",""9"",""19978""
","","","","","","null","<div style=""font-size:60px;"">+</div>","null","","fixation","","",""
"memory-trial","100","618382","0.0-18.0-1.28","6377","approach_avoid_sv1","""event"",""trial"",""time""
""fullscreenenter"",""1"",""3180""
""fullscreenexit"",""9"",""19978""
""blur"",""16"",""126729""
""focus"",""16"",""332936""
""blur"",""16"",""333474""
""focus"",""16"",""381905""
""blur"",""16"",""382336""
""focus"",""16"",""386571""
""blur"",""34"",""425108""
""focus"",""34"",""473392""
""blur"",""41"",""513007""
""focus"",""41"",""514618""
""blur"",""42"",""522722""
""focus"",""42"",""526239""
","""event"",""trial"",""time""
""blur"",""16"",""126729""
""blur"",""16"",""333474""
