"trial_type","trial_index","time_elapsed","internal_node_id","subject_id","task_version","interactions","blur_events","focus_events","fullscreenenter_events","fullscreenexit_events","success","timeout","failed_images","failed_audio","failed_video","rt","stimulus","response","button_pressed","task_part","key_press","answer","correct"
"pavlovia","0","5","0.0-0.0","8032","approach_avoid_sv1","""event"",""trial"",""time""
""fullscreenenter"",""1"",""4946""
","
","
","""event"",""trial"",""time""
""fullscreenenter"",""1"",""4946""
","
","","","","","","","","","","","","",""
"fullscreen","1","5903","0.0-1.0","8032","approach_avoid_sv1","""event"",""trial"",""time""
""fullscreenenter"",""1"",""4946""
""blur"",""2"",""7062""
""focus"",""2"",""7537""
","""event"",""trial"",""time""
""blur"",""2"",""7062""
","""event"",""trial"",""time""
""focus"",""2"",""7537""
","""event"",""trial"",""time""
""fullscreenenter"",""1"",""4946""
","
","true","","","","","","","","","","","",""
"preload","2","7910","0.0-2.0","8032","approach_avoid_sv1","""event"",""trial"",""time""
""fullscreenenter"",""1"",""4946""
""blur"",""2"",""7062""
""focus"",""2"",""7537""
","""event"",""trial"",""time""
""blur"",""2"",""7062""
","""event"",""trial"",""time""
""focus"",""2"",""7537""
","""event"",""trial"",""time""
""fullscreenenter"",""1"",""4946""
","
","true","false","[]","[]","[]","","","","","","","",""
"preload","3","8600","0.0-3.0","8032","approach_avoid_sv1","""event"",""trial"",""time""
""fullscreenenter"",""1"",""4946""
""blur"",""2"",""7062""
""focus"",""2"",""7537""
","""event"",""trial"",""time""
""blur"",""2"",""7062""
","""event"",""trial"",""time""
""focus"",""2"",""7537""
","""event"",""trial"",""time""
""fullscreenenter"",""1"",""4946""
","
","true","false","[]","[]","[]","","","","","","","",""
"preload","4","9151","0.0-4.0","8032","approach_avoid_sv1","""event"",""trial"",""time""
""fullscreenenter"",""1"",""4946""
""blur"",""2"",""7062""
""focus"",""2"",""7537""
","""event"",""trial"",""time""
""blur"",""2"",""7062""
","""event"",""trial"",""time""
""focus"",""2"",""7537""
","""event"",""trial"",""time""
""fullscreenenter"",""1"",""4946""
","
","true","false","[]","[]","[]","","","","","","","",""
"audio-keyboard-response","5","14677","0.0-5.0","8032","approach_avoid_sv1","""event"",""trial"",""time""
""fullscreenenter"",""1"",""4946""
""blur"",""2"",""7062""
""focus"",""2"",""7537""
","""event"",""trial"",""time""
""blur"",""2"",""7062""
","""event"",""trial"",""time""
""focus"",""2"",""7537""
","""event"",""trial"",""time""
""fullscreenenter"",""1"",""4946""
","
","","","","","","5528.000000000001","audio/beep_loop.wav"," ","","","","",""
"audio-button-response","6","16597","0.0-6.0","8032","approach_avoid_sv1","""event"",""trial"",""time""
""fullscreenenter"",""1"",""4946""
""blur"",""2"",""7062""
""focus"",""2"",""7537""
","""event"",""trial"",""time""
""blur"",""2"",""7062""
","""event"",""trial"",""time""
""focus"",""2"",""7537""
","""event"",""trial"",""time""
""fullscreenenter"",""1"",""4946""
","
","","","","","","1920","audio/turtle.wav","3","","","","",""
"audio-button-response","7","18916","0.0-7.0","8032","approach_avoid_sv1","""event"",""trial"",""time""
""fullscreenenter"",""1"",""4946""
""blur"",""2"",""7062""
""focus"",""2"",""7537""
","""event"",""trial"",""time""
""blur"",""2"",""7062""
","""event"",""trial"",""time""
""focus"",""2"",""7537""
","""event"",""trial"",""time""
""fullscreenenter"",""1"",""4946""
","
","","","","","","1320","audio/shark.wav","2","","","","",""
"preload","8","22132","0.0-8.0","8032","approach_avoid_sv1","""event"",""trial"",""time""
""fullscreenenter"",""1"",""4946""
""blur"",""2"",""7062""
""focus"",""2"",""7537""
","""event"",""trial"",""time""
""blur"",""2"",""7062""
","""event"",""trial"",""time""
""focus"",""2"",""7537""
","""event"",""trial"",""time""
""fullscreenenter"",""1"",""4946""
","
","true","false","[]","[]","[]","","","","","","","",""
"learning-instructions","9","29373","0.0-9.0-0.0","8032","approach_avoid_sv1","""event"",""trial"",""time""
""fullscreenenter"",""1"",""4946""
""blur"",""2"",""7062""
""focus"",""2"",""7537""
","""event"",""trial"",""time""
""blur"",""2"",""7062""
","""event"",""trial"",""time""
""focus"",""2"",""7537""
","""event"",""trial"",""time""
""fullscreenenter"",""1"",""4946""
","
","","","","","","2768.100000143051","<p> Welcome back! </p><p> Last week, you had to make choices about lots of different items.  </p>","","0","instructions","","",""
"learning-instructions","10","34285","0.0-9.0-0.1","8032","approach_avoid_sv1","""event"",""trial"",""time""
""fullscreenenter"",""1"",""4946""
""blur"",""2"",""7062""
""focus"",""2"",""7537""
","""event"",""trial"",""time""
""blur"",""2"",""7062""
","""event"",""trial"",""time""
""focus"",""2"",""7537""
","""event"",""trial"",""time""
""fullscreenenter"",""1"",""4946""
","
","","","","","","799.8000001907349","<p> Today, we are going to ask you to try to remember all the items. </p>","","0","instructions","","",""
"learning-instructions","11","45117","0.0-9.0-0.2","8032","approach_avoid_sv1","""event"",""trial"",""time""
""fullscreenenter"",""1"",""4946""
""blur"",""2"",""7062""
""focus"",""2"",""7537""
","""event"",""trial"",""time""
""blur"",""2"",""7062""
","""event"",""trial"",""time""
""focus"",""2"",""7537""
","""event"",""trial"",""time""
""fullscreenenter"",""1"",""4946""
","
","","","","","","692.3999998569489","<p> On every trial, you will see an image. </p><p> The image may be an OLD image you saw during the games last week or it may be a NEW image that was not presented. </p>","","0","instructions","","",""
"learning-instructions","12","54661","0.0-9.0-0.3","8032","approach_avoid_sv1","""event"",""trial"",""time""
""fullscreenenter"",""1"",""4946""
""blur"",""2"",""7062""
""focus"",""2"",""7537""
","""event"",""trial"",""time""
""blur"",""2"",""7062""
","""event"",""trial"",""time""
""focus"",""2"",""7537""
","""event"",""trial"",""time""
""fullscreenenter"",""1"",""4946""
","
","","","","","","1045.7999999523163","<p> You need to select whether the image is:  </p><p>  'Definitely old', 'Maybe old', 'Maybe new', or 'Definitely new.'  </p><div class=""mem-choice-instructions-grid""><div class=""choice-option"" id=""choice-option-1"" ><img src=""images/definitely_old_1.png"" id=""choice-option-img-1"" class=""choice-option-img"" stage=""1""></div><div class=""choice-option"" id=""choice-option-2"" ><img src=""images/maybe_old_1.png"" id=""choice-option-img-2"" class=""choice-option-img"" stage=""1""></div><div class=""choice-option"" id=""choice-option-3"" ><img src=""images/maybe_new_1.png"" id=""choice-option-img-3"" class=""choice-option-img"" stage=""1""></div><div class=""choice-option"" id=""choice-option-4"" > <img src=""images/definitely_new_1.png"" id=""choice-option-img-4"" class=""choice-option-img"" stage=""1""></div></div>","","0","instructions","","",""
"learning-instructions","13","62445","0.0-9.0-0.4","8032","approach_avoid_sv1","""event"",""trial"",""time""
""fullscreenenter"",""1"",""4946""
""blur"",""2"",""7062""
""focus"",""2"",""7537""
","""event"",""trial"",""time""
""blur"",""2"",""7062""
","""event"",""trial"",""time""
""focus"",""2"",""7537""
","""event"",""trial"",""time""
""fullscreenenter"",""1"",""4946""
","
","","","","","","1279.5","<p> You should use the 1, 2, 3, and 4 keys to make your responses.  </p><div class=""mem-choice-instructions-grid""><div class=""choice-option"" id=""choice-option-1"" ><img src=""images/definitely_old.png"" id=""choice-option-img-1"" class=""choice-option-img"" stage=""1""></div><div class=""choice-option"" id=""choice-option-2"" ><img src=""images/maybe_old.png"" id=""choice-option-img-2"" class=""choice-option-img"" stage=""1""></div><div class=""choice-option"" id=""choice-option-3"" ><img src=""images/maybe_new.png"" id=""choice-option-img-3"" class=""choice-option-img"" stage=""1""></div><div class=""choice-option"" id=""choice-option-4"" > <img src=""images/definitely_new.png"" id=""choice-option-img-4"" class=""choice-option-img"" stage=""1""></div></div>","","0","instructions","","",""
"learning-instructions","14","69989","0.0-9.0-0.5","8032","approach_avoid_sv1","""event"",""trial"",""time""
""fullscreenenter"",""1"",""4946""
""blur"",""2"",""7062""
""focus"",""2"",""7537""
","""event"",""trial"",""time""
""blur"",""2"",""7062""
","""event"",""trial"",""time""
""focus"",""2"",""7537""
","""event"",""trial"",""time""
""fullscreenenter"",""1"",""4946""
","
","","","","","","1214.0999999046326","<p> You will have 10 seconds to make each response.  </p><p>  Make sure to respond before time runs out! </p>","","0","instructions","","",""
"learning-instructions","15","77493","0.0-9.0-0.6","8032","approach_avoid_sv1","""event"",""trial"",""time""
""fullscreenenter"",""1"",""4946""
""blur"",""2"",""7062""
""focus"",""2"",""7537""
","""event"",""trial"",""time""
""blur"",""2"",""7062""
","""event"",""trial"",""time""
""focus"",""2"",""7537""
","""event"",""trial"",""time""
""fullscreenenter"",""1"",""4946""
","
","","","","","","438.09999990463257","<p> Today, you will see each image ONCE only.  </p><p>  That means none of the images will repeat. </p>","","0","instructions","","",""
"learning-instructions","16","90701","0.0-9.0-0.7","8032","approach_avoid_sv1","""event"",""trial"",""time""
""fullscreenenter"",""1"",""4946""
""blur"",""2"",""7062""
""focus"",""2"",""7537""
","""event"",""trial"",""time""
""blur"",""2"",""7062""
","""event"",""trial"",""time""
""focus"",""2"",""7537""
","""event"",""trial"",""time""
""fullscreenenter"",""1"",""4946""
","
","","","","","","526.5","<p> Before you play the real game, it is time to practice. </p><p>  Just like in the real game, some of the images in the practice will be ones you have seen before. </p><p>  Others will be entirely new. </p>","","0","instructions","","",""
"html-button-response","17","93558","0.0-10.0","8032","approach_avoid_sv1","""event"",""trial"",""time""
""fullscreenenter"",""1"",""4946""
""blur"",""2"",""7062""
""focus"",""2"",""7537""
","""event"",""trial"",""time""
""blur"",""2"",""7062""
","""event"",""trial"",""time""
""focus"",""2"",""7537""
","""event"",""trial"",""time""
""fullscreenenter"",""1"",""4946""
","
","","","","","","2739.7999999523163","<p> Ready to practice? </p><p> Remember, use the 1, 2, 3, and 4 keys to make your responses. </p>","0","","instructions","","",""
"html-keyboard-response","18","94172","0.0-11.0-0.0","8032","approach_avoid_sv1","""event"",""trial"",""time""
""fullscreenenter"",""1"",""4946""
""blur"",""2"",""7062""
""focus"",""2"",""7537""
","""event"",""trial"",""time""
""blur"",""2"",""7062""
","""event"",""trial"",""time""
""focus"",""2"",""7537""
","""event"",""trial"",""time""
""fullscreenenter"",""1"",""4946""
","
","","","","","","null","<div style=""font-size:60px;"">+</div>","null","","fixation","","",""
"memory-trial","19","100184","0.0-11.0-1.0","8032","approach_avoid_sv1","""event"",""trial"",""time""
""fullscreenenter"",""1"",""4946""
""blur"",""2"",""7062""
""focus"",""2"",""7537""
","""event"",""trial"",""time""
""blur"",""2"",""7062""
","""event"",""trial"",""time""
""focus"",""2"",""7537""
","""event"",""trial"",""time""
""fullscreenenter"",""1"",""4946""
","
","","","","","","5007.5","images/ball3.png","","","practice","4","definitely_new",""
"html-keyboard-response","20","100700","0.0-11.0-0.1","8032","approach_avoid_sv1","""event"",""trial"",""time""
""fullscreenenter"",""1"",""4946""
""blur"",""2"",""7062""
""focus"",""2"",""7537""
","""event"",""trial"",""time""
""blur"",""2"",""7062""
","""event"",""trial"",""time""
""focus"",""2"",""7537""
","""event"",""trial"",""time""
""fullscreenenter"",""1"",""4946""
","
","","","","","","null","<div style=""font-size:60px;"">+</div>","null","","fixation","","",""
"memory-trial","21","105240","0.0-11.0-1.1","8032","approach_avoid_sv1","""event"",""trial"",""time""
""fullscreenenter"",""1"",""4946""
""blur"",""2"",""7062""
""focus"",""2"",""7537""
","""event"",""trial"",""time""
""blur"",""2"",""7062""
","""event"",""trial"",""time""
""focus"",""2"",""7537""
","""event"",""trial"",""time""
""fullscreenenter"",""1"",""4946""
","
","","","","","","3536.7000000476837","images/racket3.png","","","practice","1","definitely_old",""
"html-keyboard-response","22","105755","0.0-11.0-0.2","8032","approach_avoid_sv1","""event"",""trial"",""time""
""fullscreenenter"",""1"",""4946""
""blur"",""2"",""7062""
""focus"",""2"",""7537""
","""event"",""trial"",""time""
""blur"",""2"",""7062""
","""event"",""trial"",""time""
""focus"",""2"",""7537""
","""event"",""trial"",""time""
""fullscreenenter"",""1"",""4946""
","
","","","","","","null","<div style=""font-size:60px;"">+</div>","null","","fixation","","",""
"memory-trial","23","113462","0.0-11.0-1.2","8032","approach_avoid_sv1","""event"",""trial"",""time""
""fullscreenenter"",""1"",""4946""
""blur"",""2"",""7062""
""focus"",""2"",""7537""
","""event"",""trial"",""time""
""blur"",""2"",""7062""
","""event"",""trial"",""time""
""focus"",""2"",""7537""
","""event"",""trial"",""time""
""fullscreenenter"",""1"",""4946""
","
","","","","","","6696.899999856949","images/ball1.png","","","practice","2","maybe_old",""
"html-keyboard-response","24","113978","0.0-11.0-0.3","8032","approach_avoid_sv1","""event"",""trial"",""time""
""fullscreenenter"",""1"",""4946""
""blur"",""2"",""7062""
""focus"",""2"",""7537""
","""event"",""trial"",""time""
""blur"",""2"",""7062""
","""event"",""trial"",""time""
""focus"",""2"",""7537""
","""event"",""trial"",""time""
""fullscreenenter"",""1"",""4946""
","
","","","","","","null","<div style=""font-size:60px;"">+</div>","null","","fixation","","",""
"memory-trial","25","119970","0.0-11.0-1.3","8032","approach_avoid_sv1","""event"",""trial"",""time""
""fullscreenenter"",""1"",""4946""
""blur"",""2"",""7062""
""focus"",""2"",""7537""
","""event"",""trial"",""time""
""blur"",""2"",""7062""
","""event"",""trial"",""time""
""focus"",""2"",""7537""
","""event"",""trial"",""time""
""fullscreenenter"",""1"",""4946""
","
","","","","","","4978.900000095367","images/racket1.png","","","practice","3","maybe_new",""
"html-keyboard-response","26","120472","0.0-11.0-0.4","8032","approach_avoid_sv1","""event"",""trial"",""time""
""fullscreenenter"",""1"",""4946""
""blur"",""2"",""7062""
""focus"",""2"",""7537""
","""event"",""trial"",""time""
""blur"",""2"",""7062""
","""event"",""trial"",""time""
""focus"",""2"",""7537""
","""event"",""trial"",""time""
""fullscreenenter"",""1"",""4946""
","
","","","","","","null","<div style=""font-size:60px;"">+</div>","null","","fixation","","",""
"memory-trial","27","125262","0.0-11.0-1.4","8032","approach_avoid_sv1","""event"",""trial"",""time""
""fullscreenenter"",""1"",""4946""
""blur"",""2"",""7062""
""focus"",""2"",""7537""
","""event"",""trial"",""time""
""blur"",""2"",""7062""
","""event"",""trial"",""time""
""focus"",""2"",""7537""
","""event"",""trial"",""time""
""fullscreenenter"",""1"",""4946""
","
","","","","","","3787.399999856949","images/ball5.png","","","practice","3","maybe_new",""
"html-keyboard-response","28","125764","0.0-11.0-0.5","8032","approach_avoid_sv1","""event"",""trial"",""time""
""fullscreenenter"",""1"",""4946""
""blur"",""2"",""7062""
""focus"",""2"",""7537""
","""event"",""trial"",""time""
""blur"",""2"",""7062""
","""event"",""trial"",""time""
""focus"",""2"",""7537""
","""event"",""trial"",""time""
""fullscreenenter"",""1"",""4946""
","
","","","","","","null","<div style=""font-size:60px;"">+</div>","null","","fixation","","",""
"memory-trial","29","128701","0.0-11.0-1.5","8032","approach_avoid_sv1","""event"",""trial"",""time""
""fullscreenenter"",""1"",""4946""
""blur"",""2"",""7062""
""focus"",""2"",""7537""
","""event"",""trial"",""time""
""blur"",""2"",""7062""
","""event"",""trial"",""time""
""focus"",""2"",""7537""
","""event"",""trial"",""time""
""fullscreenenter"",""1"",""4946""
","
","","","","","","1935.8999998569489","images/racket2.png","","","practice","3","maybe_new",""
"html-keyboard-response","30","129203","0.0-11.0-0.6","8032","approach_avoid_sv1","""event"",""trial"",""time""
""fullscreenenter"",""1"",""4946""
""blur"",""2"",""7062""
""focus"",""2"",""7537""
","""event"",""trial"",""time""
""blur"",""2"",""7062""
","""event"",""trial"",""time""
""focus"",""2"",""7537""
","""event"",""trial"",""time""
""fullscreenenter"",""1"",""4946""
","
","","","","","","null","<div style=""font-size:60px;"">+</div>","null","","fixation","","",""
"memory-trial","31","131807","0.0-11.0-1.6","8032","approach_avoid_sv1","""event"",""trial"",""time""
""fullscreenenter"",""1"",""4946""
""blur"",""2"",""7062""
""focus"",""2"",""7537""
","""event"",""trial"",""time""
""blur"",""2"",""7062""
","""event"",""trial"",""time""
""focus"",""2"",""7537""
","""event"",""trial"",""time""
""fullscreenenter"",""1"",""4946""
","
","","","","","","1601.1999998092651","images/ball2.png","","","practice","3","maybe_new",""
"html-keyboard-response","32","132308","0.0-11.0-0.7","8032","approach_avoid_sv1","""event"",""trial"",""time""
""fullscreenenter"",""1"",""4946""
""blur"",""2"",""7062""
""focus"",""2"",""7537""
","""event"",""trial"",""time""
""blur"",""2"",""7062""
","""event"",""trial"",""time""
""focus"",""2"",""7537""
","""event"",""trial"",""time""
""fullscreenenter"",""1"",""4946""
","
","","","","","","null","<div style=""font-size:60px;"">+</div>","null","","fixation","","",""
"memory-trial","33","134254","0.0-11.0-1.7","8032","approach_avoid_sv1","""event"",""trial"",""time""
""fullscreenenter"",""1"",""4946""
""blur"",""2"",""7062""
""focus"",""2"",""7537""
","""event"",""trial"",""time""
""blur"",""2"",""7062""
","""event"",""trial"",""time""
""focus"",""2"",""7537""
","""event"",""trial"",""time""
""fullscreenenter"",""1"",""4946""
","
","","","","","","943.4000000953674","images/racket5.png","","","practice","3","maybe_new",""
"learning-instructions","34","143725","0.0-12.0-0.0","8032","approach_avoid_sv1","""event"",""trial"",""time""
""fullscreenenter"",""1"",""4946""
""blur"",""2"",""7062""
""focus"",""2"",""7537""
","""event"",""trial"",""time""
""blur"",""2"",""7062""
","""event"",""trial"",""time""
""focus"",""2"",""7537""
","""event"",""trial"",""time""
""fullscreenenter"",""1"",""4946""
","
","","","","","","2165.399999856949","<p> Great! You have completed the practice. </p><p> Before you start, we're going to ask you a few questions about how the game works.  </p>","","0","instructions","","",""
"preload","35","146185","0.0-13.0","8032","approach_avoid_sv1","""event"",""trial"",""time""
""fullscreenenter"",""1"",""4946""
""blur"",""2"",""7062""
""focus"",""2"",""7537""
","""event"",""trial"",""time""
""blur"",""2"",""7062""
","""event"",""trial"",""time""
""focus"",""2"",""7537""
","""event"",""trial"",""time""
""fullscreenenter"",""1"",""4946""
","
","true","false","[]","[]","[]","","","","","","","",""
"comp-q","36","152797","0.0-14.0-0.0","8032","approach_avoid_sv1","""event"",""trial"",""time""
""fullscreenenter"",""1"",""4946""
""blur"",""2"",""7062""
""focus"",""2"",""7537""
","""event"",""trial"",""time""
""blur"",""2"",""7062""
","""event"",""trial"",""time""
""focus"",""2"",""7537""
","""event"",""trial"",""time""
""fullscreenenter"",""1"",""4946""
","
","","","","","","788","<p> <b> True or False? </b> </p><p> In this game, you will only see each image once. </p>","","0","comp_question","","","true"
"comp-q","37","162325","0.0-14.0-1.0","8032","approach_avoid_sv1","""event"",""trial"",""time""
""fullscreenenter"",""1"",""4946""
""blur"",""2"",""7062""
""focus"",""2"",""7537""
","""event"",""trial"",""time""
""blur"",""2"",""7062""
","""event"",""trial"",""time""
""focus"",""2"",""7537""
","""event"",""trial"",""time""
""fullscreenenter"",""1"",""4946""
","
","","","","","","3185.7999999523163","<p> <b> That's right! </b> You will see many different images <i> one time each </i> in this game. </p>","","0","comp_answer","","",""
"comp-q","38","167973","0.0-15.0-0.0","8032","approach_avoid_sv1","""event"",""trial"",""time""
""fullscreenenter"",""1"",""4946""
""blur"",""2"",""7062""
""focus"",""2"",""7537""
","""event"",""trial"",""time""
""blur"",""2"",""7062""
","""event"",""trial"",""time""
""focus"",""2"",""7537""
","""event"",""trial"",""time""
""fullscreenenter"",""1"",""4946""
","
","","","","","","643.5999999046326","<p> <b> True or False? </b> </p><p> You should use the mouse and click to make your response. </p>","","1","comp_question","","","true"
"comp-q","39","175701","0.0-15.0-1.0","8032","approach_avoid_sv1","""event"",""trial"",""time""
""fullscreenenter"",""1"",""4946""
""blur"",""2"",""7062""
""focus"",""2"",""7537""
","""event"",""trial"",""time""
""blur"",""2"",""7062""
","""event"",""trial"",""time""
""focus"",""2"",""7537""
","""event"",""trial"",""time""
""fullscreenenter"",""1"",""4946""
","
","","","","","","1221.8999998569489","<p><b> That's right! </b> You should use the '1', '2', '3', and '4' keys to make your response. </p>","","0","comp_answer","","",""
"comp-q","40","182765","0.0-16.0-0.0","8032","approach_avoid_sv1","""event"",""trial"",""time""
""fullscreenenter"",""1"",""4946""
""blur"",""2"",""7062""
""focus"",""2"",""7537""
","""event"",""trial"",""time""
""blur"",""2"",""7062""
","""event"",""trial"",""time""
""focus"",""2"",""7537""
","""event"",""trial"",""time""
""fullscreenenter"",""1"",""4946""
","
","","","","","","1385.5","<p> <b> True or False? </b> </p><p> You will have as much time as you want to make each choice. </p>","","1","comp_question","","","true"
"comp-q","41","189109","0.0-16.0-1.0","8032","approach_avoid_sv1","""event"",""trial"",""time""
""fullscreenenter"",""1"",""4946""
""blur"",""2"",""7062""
""focus"",""2"",""7537""
","""event"",""trial"",""time""
""blur"",""2"",""7062""
","""event"",""trial"",""time""
""focus"",""2"",""7537""
","""event"",""trial"",""time""
""fullscreenenter"",""1"",""4946""
","
","","","","","","1629.5","<p> <b> That's right! </b> You will only have 10 seconds to make each choice. </p>","","0","comp_answer","","",""
"learning-instructions","42","198981","0.0-17.0","8032","approach_avoid_sv1","""event"",""trial"",""time""
""fullscreenenter"",""1"",""4946""
""blur"",""2"",""7062""
""focus"",""2"",""7537""
","""event"",""trial"",""time""
""blur"",""2"",""7062""
","""event"",""trial"",""time""
""focus"",""2"",""7537""
","""event"",""trial"",""time""
""fullscreenenter"",""1"",""4946""
","
","","","","","","1201.7000000476837","<p> Great! You are now ready to begin the game. </p><p> Remember, use the 1, 2, 3, and 4 keys to make your responses. </p>","","0","instructions","","",""
"html-keyboard-response","43","199598","0.0-18.0-0.0","8032","approach_avoid_sv1","""event"",""trial"",""time""
""fullscreenenter"",""1"",""4946""
""blur"",""2"",""7062""
""focus"",""2"",""7537""
","""event"",""trial"",""time""
""blur"",""2"",""7062""
","""event"",""trial"",""time""
""focus"",""2"",""7537""
","""event"",""trial"",""time""
""fullscreenenter"",""1"",""4946""
","
","","","","","","null","<div style=""font-size:60px;"">+</div>","null","","fixation","","",""
"memory-trial","44","203643","0.0-18.0-1.0","8032","approach_avoid_sv1","""event"",""trial"",""time""
""fullscreenenter"",""1"",""4946""
""blur"",""2"",""7062""
""focus"",""2"",""7537""
","""event"",""trial"",""time""
""blur"",""2"",""7062""
","""event"",""trial"",""time""
""focus"",""2"",""7537""
","""event"",""trial"",""time""
""fullscreenenter"",""1"",""4946""
","
","","","","","","3029.7999999523163","images/straw7.png","","","memory_trial","2","maybe_old",""
"html-keyboard-response","45","204158","0.0-18.0-0.1","8032","approach_avoid_sv1","""event"",""trial"",""time""
""fullscreenenter"",""1"",""4946""
""blur"",""2"",""7062""
""focus"",""2"",""7537""
","""event"",""trial"",""time""
""blur"",""2"",""7062""
","""event"",""trial"",""time""
""focus"",""2"",""7537""
","""event"",""trial"",""time""
""fullscreenenter"",""1"",""4946""
","
","","","","","","null","<div style=""font-size:60px;"">+</div>","null","","fixation","","",""
"memory-trial","46","207501","0.0-18.0-1.1","8032","approach_avoid_sv1","""event"",""trial"",""time""
""fullscreenenter"",""1"",""4946""
""blur"",""2"",""7062""
""focus"",""2"",""7537""
","""event"",""trial"",""time""
""blur"",""2"",""7062""
","""event"",""trial"",""time""
""focus"",""2"",""7537""
","""event"",""trial"",""time""
""fullscreenenter"",""1"",""4946""
","
","","","","","","2342.300000190735","images/flower6.png","","","memory_trial","1","definitely_old",""
"html-keyboard-response","47","208003","0.0-18.0-0.2","8032","approach_avoid_sv1","""event"",""trial"",""time""
""fullscreenenter"",""1"",""4946""
""blur"",""2"",""7062""
""focus"",""2"",""7537""
","""event"",""trial"",""time""
""blur"",""2"",""7062""
","""event"",""trial"",""time""
""focus"",""2"",""7537""
","""event"",""trial"",""time""
""fullscreenenter"",""1"",""4946""
","
","","","","","","null","<div style=""font-size:60px;"">+</div>","null","","fixation","","",""
"memory-trial","48","210526","0.0-18.0-1.2","8032","approach_avoid_sv1","""event"",""trial"",""time""
""fullscreenenter"",""1"",""4946""
""blur"",""2"",""7062""
""focus"",""2"",""7537""
","""event"",""trial"",""time""
""blur"",""2"",""7062""
","""event"",""trial"",""time""
""focus"",""2"",""7537""
","""event"",""trial"",""time""
""fullscreenenter"",""1"",""4946""
","
","","","","","","1505.3999998569489","images/train1.png","","","memory_trial","2","maybe_old",""
"html-keyboard-response","49","211027","0.0-18.0-0.3","8032","approach_avoid_sv1","""event"",""trial"",""time""
""fullscreenenter"",""1"",""4946""
""blur"",""2"",""7062""
""focus"",""2"",""7537""
","""event"",""trial"",""time""
""blur"",""2"",""7062""
","""event"",""trial"",""time""
""focus"",""2"",""7537""
","""event"",""trial"",""time""
""fullscreenenter"",""1"",""4946""
","
","","","","","","null","<div style=""font-size:60px;"">+</div>","null","","fixation","","",""
"memory-trial","50","214126","0.0-18.0-1.3","8032","approach_avoid_sv1","""event"",""trial"",""time""
""fullscreenenter"",""1"",""4946""
""blur"",""2"",""7062""
""focus"",""2"",""7537""
","""event"",""trial"",""time""
""blur"",""2"",""7062""
","""event"",""trial"",""time""
""focus"",""2"",""7537""
","""event"",""trial"",""time""
""fullscreenenter"",""1"",""4946""
","
","","","","","","2097.7000000476837","images/sheep6.png","","","memory_trial","2","maybe_old",""
"html-keyboard-response","51","214635","0.0-18.0-0.4","8032","approach_avoid_sv1","""event"",""trial"",""time""
""fullscreenenter"",""1"",""4946""
""blur"",""2"",""7062""
""focus"",""2"",""7537""
","""event"",""trial"",""time""
""blur"",""2"",""7062""
","""event"",""trial"",""time""
""focus"",""2"",""7537""
","""event"",""trial"",""time""
""fullscreenenter"",""1"",""4946""
","
","","","","","","null","<div style=""font-size:60px;"">+</div>","null","","fixation","","",""
"memory-trial","52","217376","0.0-18.0-1.4","8032","approach_avoid_sv1","""event"",""trial"",""time""
""fullscreenenter"",""1"",""4946""
""blur"",""2"",""7062""
""focus"",""2"",""7537""
","""event"",""trial"",""time""
""blur"",""2"",""7062""
","""event"",""trial"",""time""
""focus"",""2"",""7537""
","""event"",""trial"",""time""
""fullscreenenter"",""1"",""4946""
","
","","","","","","1736.6000001430511","images/dog7.png","","","memory_trial","4","definitely_new",""
"html-keyboard-response","53","217877","0.0-18.0-0.5","8032","approach_avoid_sv1","""event"",""trial"",""time""
""fullscreenenter"",""1"",""4946""
""blur"",""2"",""7062""
""focus"",""2"",""7537""
","""event"",""trial"",""time""
""blur"",""2"",""7062""
","""event"",""trial"",""time""
""focus"",""2"",""7537""
","""event"",""trial"",""time""
""fullscreenenter"",""1"",""4946""
","
","","","","","","null","<div style=""font-size:60px;"">+</div>","null","","fixation","","",""
"memory-trial","54","220670","0.0-18.0-1.5","8032","approach_avoid_sv1","""event"",""trial"",""time""
""fullscreenenter"",""1"",""4946""
""blur"",""2"",""7062""
""focus"",""2"",""7537""
","""event"",""trial"",""time""
""blur"",""2"",""7062""
","""event"",""trial"",""time""
""focus"",""2"",""7537""
","""event"",""trial"",""time""
""fullscreenenter"",""1"",""4946""
","
","","","","","","1791.6999998092651","images/rodent2.png","","","memory_trial","1","definitely_old",""
"html-keyboard-response","55","221172","0.0-18.0-0.6","8032","approach_avoid_sv1","""event"",""trial"",""time""
""fullscreenenter"",""1"",""4946""
""blur"",""2"",""7062""
""focus"",""2"",""7537""
","""event"",""trial"",""time""
""blur"",""2"",""7062""
","""event"",""trial"",""time""
""focus"",""2"",""7537""
","""event"",""trial"",""time""
""fullscreenenter"",""1"",""4946""
","
","","","","","","null","<div style=""font-size:60px;"">+</div>","null","","fixation","","",""
"memory-trial","56","224590","0.0-18.0-1.6","8032","approach_avoid_sv1","""event"",""trial"",""time""
""fullscreenenter"",""1"",""4946""
""blur"",""2"",""7062""
""focus"",""2"",""7537""
","""event"",""trial"",""time""
""blur"",""2"",""7062""
","""event"",""trial"",""time""
""focus"",""2"",""7537""
","""event"",""trial"",""time""
""fullscreenenter"",""1"",""4946""
","
","","","","","","2416.0999999046326","images/truck7.png","","","memory_trial","3","maybe_new",""
"html-keyboard-response","57","225091","0.0-18.0-0.7","8032","approach_avoid_sv1","""event"",""trial"",""time""
""fullscreenenter"",""1"",""4946""
""blur"",""2"",""7062""
""focus"",""2"",""7537""
","""event"",""trial"",""time""
""blur"",""2"",""7062""
","""event"",""trial"",""time""
""focus"",""2"",""7537""
","""event"",""trial"",""time""
""fullscreenenter"",""1"",""4946""
","
","","","","","","null","<div style=""font-size:60px;"">+</div>","null","","fixation","","",""
"memory-trial","58","228886","0.0-18.0-1.7","8032","approach_avoid_sv1","""event"",""trial"",""time""
""fullscreenenter"",""1"",""4946""
""blur"",""2"",""7062""
""focus"",""2"",""7537""
","""event"",""trial"",""time""
""blur"",""2"",""7062""
","""event"",""trial"",""time""
""focus"",""2"",""7537""
","""event"",""trial"",""time""
""fullscreenenter"",""1"",""4946""
","
","","","","","","2792","images/train2.png","","","memory_trial","2","maybe_old",""
"html-keyboard-response","59","229386","0.0-18.0-0.8","8032","approach_avoid_sv1","""event"",""trial"",""time""
""fullscreenenter"",""1"",""4946""
""blur"",""2"",""7062""
""focus"",""2"",""7537""
","""event"",""trial"",""time""
""blur"",""2"",""7062""
","""event"",""trial"",""time""
""focus"",""2"",""7537""
","""event"",""trial"",""time""
""fullscreenenter"",""1"",""4946""
","
","","","","","","null","<div style=""font-size:60px;"">+</div>","null","","fixation","","",""
"memory-trial","60","232095","0.0-18.0-1.8","8032","approach_avoid_sv1","""event"",""trial"",""time""
""fullscreenenter"",""1"",""4946""
""blur"",""2"",""7062""
""focus"",""2"",""7537""
","""event"",""trial"",""time""
""blur"",""2"",""7062""
","""event"",""trial"",""time""
""focus"",""2"",""7537""
","""event"",""trial"",""time""
""fullscreenenter"",""1"",""4946""
","
","","","","","","1705.5999999046326","images/banana7.png","","","memory_trial","1","definitely_old",""
"html-keyboard-response","61","232596","0.0-18.0-0.9","8032","approach_avoid_sv1","""event"",""trial"",""time""
""fullscreenenter"",""1"",""4946""
""blur"",""2"",""7062""
""focus"",""2"",""7537""
","""event"",""trial"",""time""
""blur"",""2"",""7062""
","""event"",""trial"",""time""
""focus"",""2"",""7537""
","""event"",""trial"",""time""
""fullscreenenter"",""1"",""4946""
","
","","","","","","null","<div style=""font-size:60px;"">+</div>","null","","fixation","","",""
"memory-trial","62","235230","0.0-18.0-1.9","8032","approach_avoid_sv1","""event"",""trial"",""time""
""fullscreenenter"",""1"",""4946""
""blur"",""2"",""7062""
""focus"",""2"",""7537""
","""event"",""trial"",""time""
""blur"",""2"",""7062""
","""event"",""trial"",""time""
""focus"",""2"",""7537""
","""event"",""trial"",""time""
""fullscreenenter"",""1"",""4946""
","
","","","","","","1632.7999999523163","images/bush2.png","","","memory_trial","4","definitely_new",""
"html-keyboard-response","63","235731","0.0-18.0-0.10","8032","approach_avoid_sv1","""event"",""trial"",""time""
""fullscreenenter"",""1"",""4946""
""blur"",""2"",""7062""
""focus"",""2"",""7537""
","""event"",""trial"",""time""
""blur"",""2"",""7062""
","""event"",""trial"",""time""
""focus"",""2"",""7537""
","""event"",""trial"",""time""
""fullscreenenter"",""1"",""4946""
","
","","","","","","null","<div style=""font-size:60px;"">+</div>","null","","fixation","","",""
"memory-trial","64","237885","0.0-18.0-1.10","8032","approach_avoid_sv1","""event"",""trial"",""time""
""fullscreenenter"",""1"",""4946""
""blur"",""2"",""7062""
""focus"",""2"",""7537""
","""event"",""trial"",""time""
""blur"",""2"",""7062""
","""event"",""trial"",""time""
""focus"",""2"",""7537""
","""event"",""trial"",""time""
""fullscreenenter"",""1"",""4946""
","
","","","","","","1153.2999999523163","images/orange7.png","","","memory_trial","4","definitely_new",""
"html-keyboard-response","65","238386","0.0-18.0-0.11","8032","approach_avoid_sv1","""event"",""trial"",""time""
""fullscreenenter"",""1"",""4946""
""blur"",""2"",""7062""
""focus"",""2"",""7537""
","""event"",""trial"",""time""
""blur"",""2"",""7062""
","""event"",""trial"",""time""
""focus"",""2"",""7537""
","""event"",""trial"",""time""
""fullscreenenter"",""1"",""4946""
","
","","","","","","null","<div style=""font-size:60px;"">+</div>","null","","fixation","","",""
"memory-trial","66","241102","0.0-18.0-1.11","8032","approach_avoid_sv1","""event"",""trial"",""time""
""fullscreenenter"",""1"",""4946""
""blur"",""2"",""7062""
""focus"",""2"",""7537""
","""event"",""trial"",""time""
""blur"",""2"",""7062""
","""event"",""trial"",""time""
""focus"",""2"",""7537""
","""event"",""trial"",""time""
""fullscreenenter"",""1"",""4946""
","
","","","","","","1714.7000000476837","images/straw4.png","","","memory_trial","2","maybe_old",""
"html-keyboard-response","67","241603","0.0-18.0-0.12","8032","approach_avoid_sv1","""event"",""trial"",""time""
""fullscreenenter"",""1"",""4946""
""blur"",""2"",""7062""
""focus"",""2"",""7537""
","""event"",""trial"",""time""
""blur"",""2"",""7062""
","""event"",""trial"",""time""
""focus"",""2"",""7537""
","""event"",""trial"",""time""
""fullscreenenter"",""1"",""4946""
","
","","","","","","null","<div style=""font-size:60px;"">+</div>","null","","fixation","","",""
"memory-trial","68","243838","0.0-18.0-1.12","8032","approach_avoid_sv1","""event"",""trial"",""time""
""fullscreenenter"",""1"",""4946""
""blur"",""2"",""7062""
""focus"",""2"",""7537""
","""event"",""trial"",""time""
""blur"",""2"",""7062""
","""event"",""trial"",""time""
""focus"",""2"",""7537""
","""event"",""trial"",""time""
""fullscreenenter"",""1"",""4946""
","
","","","","","","1232.3999998569489","images/boat4.png","","","memory_trial","4","definitely_new",""
"html-keyboard-response","69","244339","0.0-18.0-0.13","8032","approach_avoid_sv1","""event"",""trial"",""time""
""fullscreenenter"",""1"",""4946""
""blur"",""2"",""7062""
""focus"",""2"",""7537""
","""event"",""trial"",""time""
""blur"",""2"",""7062""
","""event"",""trial"",""time""
""focus"",""2"",""7537""
","""event"",""trial"",""time""
""fullscreenenter"",""1"",""4946""
","
","","","","","","null","<div style=""font-size:60px;"">+</div>","null","","fixation","","",""
"memory-trial","70","247406","0.0-18.0-1.13","8032","approach_avoid_sv1","""event"",""trial"",""time""
""fullscreenenter"",""1"",""4946""
""blur"",""2"",""7062""
""focus"",""2"",""7537""
","""event"",""trial"",""time""
""blur"",""2"",""7062""
","""event"",""trial"",""time""
""focus"",""2"",""7537""
","""event"",""trial"",""time""
""fullscreenenter"",""1"",""4946""
","
","","","","","","2064.7999999523163","images/dog2.png","","","memory_trial","3","maybe_new",""
"html-keyboard-response","71","247907","0.0-18.0-0.14","8032","approach_avoid_sv1","""event"",""trial"",""time""
""fullscreenenter"",""1"",""4946""
""blur"",""2"",""7062""
""focus"",""2"",""7537""
","""event"",""trial"",""time""
""blur"",""2"",""7062""
","""event"",""trial"",""time""
""focus"",""2"",""7537""
","""event"",""trial"",""time""
""fullscreenenter"",""1"",""4946""
","
","","","","","","null","<div style=""font-size:60px;"">+</div>","null","","fixation","","",""
"memory-trial","72","250718","0.0-18.0-1.14","8032","approach_avoid_sv1","""event"",""trial"",""time""
""fullscreenenter"",""1"",""4946""
""blur"",""2"",""7062""
""focus"",""2"",""7537""
","""event"",""trial"",""time""
""blur"",""2"",""7062""
","""event"",""trial"",""time""
""focus"",""2"",""7537""
","""event"",""trial"",""time""
""fullscreenenter"",""1"",""4946""
","
","","","","","","1808.5","images/goat3.png","","","memory_trial","3","maybe_new",""
"html-keyboard-response","73","251219","0.0-18.0-0.15","8032","approach_avoid_sv1","""event"",""trial"",""time""
""fullscreenenter"",""1"",""4946""
""blur"",""2"",""7062""
""focus"",""2"",""7537""
","""event"",""trial"",""time""
""blur"",""2"",""7062""
","""event"",""trial"",""time""
""focus"",""2"",""7537""
","""event"",""trial"",""time""
""fullscreenenter"",""1"",""4946""
","
","","","","","","null","<div style=""font-size:60px;"">+</div>","null","","fixation","","",""
"memory-trial","74","254206","0.0-18.0-1.15","8032","approach_avoid_sv1","""event"",""trial"",""time""
""fullscreenenter"",""1"",""4946""
""blur"",""2"",""7062""
""focus"",""2"",""7537""
","""event"",""trial"",""time""
""blur"",""2"",""7062""
","""event"",""trial"",""time""
""focus"",""2"",""7537""
","""event"",""trial"",""time""
""fullscreenenter"",""1"",""4946""
","
","","","","","","1985.5","images/apple6.png","","","memory_trial","2","maybe_old",""
"html-keyboard-response","75","254708","0.0-18.0-0.16","8032","approach_avoid_sv1","""event"",""trial"",""time""
""fullscreenenter"",""1"",""4946""
""blur"",""2"",""7062""
""focus"",""2"",""7537""
","""event"",""trial"",""time""
""blur"",""2"",""7062""
","""event"",""trial"",""time""
""focus"",""2"",""7537""
","""event"",""trial"",""time""
""fullscreenenter"",""1"",""4946""
","
","","","","","","null","<div style=""font-size:60px;"">+</div>","null","","fixation","","",""
"memory-trial","76","258558","0.0-18.0-1.16","8032","approach_avoid_sv1","""event"",""trial"",""time""
""fullscreenenter"",""1"",""4946""
""blur"",""2"",""7062""
""focus"",""2"",""7537""
","""event"",""trial"",""time""
""blur"",""2"",""7062""
","""event"",""trial"",""time""
""focus"",""2"",""7537""
","""event"",""trial"",""time""
""fullscreenenter"",""1"",""4946""
","
","","","","","","2848.0999999046326","images/sofa8.png","","","memory_trial","1","definitely_old",""
"html-keyboard-response","77","259060","0.0-18.0-0.17","8032","approach_avoid_sv1","""event"",""trial"",""time""
""fullscreenenter"",""1"",""4946""
""blur"",""2"",""7062""
""focus"",""2"",""7537""
","""event"",""trial"",""time""
""blur"",""2"",""7062""
","""event"",""trial"",""time""
""focus"",""2"",""7537""
","""event"",""trial"",""time""
""fullscreenenter"",""1"",""4946""
","
","","","","","","null","<div style=""font-size:60px;"">+</div>","null","","fixation","","",""
"memory-trial","78","261990","0.0-18.0-1.17","8032","approach_avoid_sv1","""event"",""trial"",""time""
""fullscreenenter"",""1"",""4946""
""blur"",""2"",""7062""
""focus"",""2"",""7537""
","""event"",""trial"",""time""
""blur"",""2"",""7062""
","""event"",""trial"",""time""
""focus"",""2"",""7537""
","""event"",""trial"",""time""
""fullscreenenter"",""1"",""4946""
","
","","","","","","1927.7000000476837","images/table2.png","","","memory_trial","1","definitely_old",""
"html-keyboard-response","79","262491","0.0-18.0-0.18","8032","approach_avoid_sv1","""event"",""trial"",""time""
""fullscreenenter"",""1"",""4946""
""blur"",""2"",""7062""
""focus"",""2"",""7537""
","""event"",""trial"",""time""
""blur"",""2"",""7062""
","""event"",""trial"",""time""
""focus"",""2"",""7537""
","""event"",""trial"",""time""
""fullscreenenter"",""1"",""4946""
","
","","","","","","null","<div style=""font-size:60px;"">+</div>","null","","fixation","","",""
"memory-trial","80","264814","0.0-18.0-1.18","8032","approach_avoid_sv1","""event"",""trial"",""time""
""fullscreenenter"",""1"",""4946""
""blur"",""2"",""7062""
""focus"",""2"",""7537""
","""event"",""trial"",""time""
""blur"",""2"",""7062""
","""event"",""trial"",""time""
""focus"",""2"",""7537""
","""event"",""trial"",""time""
""fullscreenenter"",""1"",""4946""
","
","","","","","","1320.7999999523163","images/cow5.png","","","memory_trial","2","maybe_old",""
"html-keyboard-response","81","265315","0.0-18.0-0.19","8032","approach_avoid_sv1","""event"",""trial"",""time""
""fullscreenenter"",""1"",""4946""
""blur"",""2"",""7062""
""focus"",""2"",""7537""
","""event"",""trial"",""time""
""blur"",""2"",""7062""
","""event"",""trial"",""time""
""focus"",""2"",""7537""
","""event"",""trial"",""time""
""fullscreenenter"",""1"",""4946""
","
","","","","","","null","<div style=""font-size:60px;"">+</div>","null","","fixation","","",""
"memory-trial","82","267878","0.0-18.0-1.19","8032","approach_avoid_sv1","""event"",""trial"",""time""
""fullscreenenter"",""1"",""4946""
""blur"",""2"",""7062""
""focus"",""2"",""7537""
","""event"",""trial"",""time""
""blur"",""2"",""7062""
","""event"",""trial"",""time""
""focus"",""2"",""7537""
","""event"",""trial"",""time""
""fullscreenenter"",""1"",""4946""
","
","","","","","","1560.7999999523163","images/bed5.png","","","memory_trial","1","definitely_old",""
"html-keyboard-response","83","268380","0.0-18.0-0.20","8032","approach_avoid_sv1","""event"",""trial"",""time""
""fullscreenenter"",""1"",""4946""
""blur"",""2"",""7062""
""focus"",""2"",""7537""
","""event"",""trial"",""time""
""blur"",""2"",""7062""
","""event"",""trial"",""time""
""focus"",""2"",""7537""
","""event"",""trial"",""time""
""fullscreenenter"",""1"",""4946""
","
","","","","","","null","<div style=""font-size:60px;"">+</div>","null","","fixation","","",""
"memory-trial","84","272526","0.0-18.0-1.20","8032","approach_avoid_sv1","""event"",""trial"",""time""
""fullscreenenter"",""1"",""4946""
""blur"",""2"",""7062""
""focus"",""2"",""7537""
","""event"",""trial"",""time""
""blur"",""2"",""7062""
","""event"",""trial"",""time""
""focus"",""2"",""7537""
","""event"",""trial"",""time""
""fullscreenenter"",""1"",""4946""
","
","","","","","","3144.2000000476837","images/apple7.png","","","memory_trial","2","maybe_old",""
"html-keyboard-response","85","273027","0.0-18.0-0.21","8032","approach_avoid_sv1","""event"",""trial"",""time""
""fullscreenenter"",""1"",""4946""
""blur"",""2"",""7062""
""focus"",""2"",""7537""
","""event"",""trial"",""time""
""blur"",""2"",""7062""
","""event"",""trial"",""time""
""focus"",""2"",""7537""
","""event"",""trial"",""time""
""fullscreenenter"",""1"",""4946""
","
","","","","","","null","<div style=""font-size:60px;"">+</div>","null","","fixation","","",""
"memory-trial","86","276382","0.0-18.0-1.21","8032","approach_avoid_sv1","""event"",""trial"",""time""
""fullscreenenter"",""1"",""4946""
""blur"",""2"",""7062""
""focus"",""2"",""7537""
","""event"",""trial"",""time""
""blur"",""2"",""7062""
","""event"",""trial"",""time""
""focus"",""2"",""7537""
","""event"",""trial"",""time""
""fullscreenenter"",""1"",""4946""
","
","","","","","","2353.2999999523163","images/train6.png","","","memory_trial","2","maybe_old",""
"html-keyboard-response","87","276883","0.0-18.0-0.22","8032","approach_avoid_sv1","""event"",""trial"",""time""
""fullscreenenter"",""1"",""4946""
""blur"",""2"",""7062""
""focus"",""2"",""7537""
","""event"",""trial"",""time""
""blur"",""2"",""7062""
","""event"",""trial"",""time""
""focus"",""2"",""7537""
","""event"",""trial"",""time""
""fullscreenenter"",""1"",""4946""
","
","","","","","","null","<div style=""font-size:60px;"">+</div>","null","","fixation","","",""
"memory-trial","88","279990","0.0-18.0-1.22","8032","approach_avoid_sv1","""event"",""trial"",""time""
""fullscreenenter"",""1"",""4946""
""blur"",""2"",""7062""
""focus"",""2"",""7537""
","""event"",""trial"",""time""
""blur"",""2"",""7062""
","""event"",""trial"",""time""
""focus"",""2"",""7537""
","""event"",""trial"",""time""
""fullscreenenter"",""1"",""4946""
","
","","","","","","2104.7999999523163","images/bed3.png","","","memory_trial","2","maybe_old",""
"html-keyboard-response","89","280491","0.0-18.0-0.23","8032","approach_avoid_sv1","""event"",""trial"",""time""
""fullscreenenter"",""1"",""4946""
""blur"",""2"",""7062""
""focus"",""2"",""7537""
","""event"",""trial"",""time""
""blur"",""2"",""7062""
","""event"",""trial"",""time""
""focus"",""2"",""7537""
","""event"",""trial"",""time""
""fullscreenenter"",""1"",""4946""
","
","","","","","","null","<div style=""font-size:60px;"">+</div>","null","","fixation","","",""
"memory-trial","90","282687","0.0-18.0-1.23","8032","approach_avoid_sv1","""event"",""trial"",""time""
""fullscreenenter"",""1"",""4946""
""blur"",""2"",""7062""
""focus"",""2"",""7537""
","""event"",""trial"",""time""
""blur"",""2"",""7062""
","""event"",""trial"",""time""
""focus"",""2"",""7537""
","""event"",""trial"",""time""
""fullscreenenter"",""1"",""4946""
","
","","","","","","1193.3000001907349","images/dog4.png","","","memory_trial","4","definitely_new",""
"html-keyboard-response","91","283188","0.0-18.0-0.24","8032","approach_avoid_sv1","""event"",""trial"",""time""
""fullscreenenter"",""1"",""4946""
""blur"",""2"",""7062""
""focus"",""2"",""7537""
","""event"",""trial"",""time""
""blur"",""2"",""7062""
","""event"",""trial"",""time""
""focus"",""2"",""7537""
","""event"",""trial"",""time""
""fullscreenenter"",""1"",""4946""
","
","","","","","","null","<div style=""font-size:60px;"">+</div>","null","","fixation","","",""
"memory-trial","92","285342","0.0-18.0-1.24","8032","approach_avoid_sv1","""event"",""trial"",""time""
""fullscreenenter"",""1"",""4946""
""blur"",""2"",""7062""
""focus"",""2"",""7537""
","""event"",""trial"",""time""
""blur"",""2"",""7062""
","""event"",""trial"",""time""
""focus"",""2"",""7537""
","""event"",""trial"",""time""
""fullscreenenter"",""1"",""4946""
","
","","","","","","1152","images/bush5.png","","","memory_trial","4","definitely_new",""
"html-keyboard-response","93","285855","0.0-18.0-0.25","8032","approach_avoid_sv1","""event"",""trial"",""time""
""fullscreenenter"",""1"",""4946""
""blur"",""2"",""7062""
""focus"",""2"",""7537""
","""event"",""trial"",""time""
""blur"",""2"",""7062""
","""event"",""trial"",""time""
""focus"",""2"",""7537""
","""event"",""trial"",""time""
""fullscreenenter"",""1"",""4946""
","
","","","","","","null","<div style=""font-size:60px;"">+</div>","null","","fixation","","",""
"memory-trial","94","287686","0.0-18.0-1.25","8032","approach_avoid_sv1","""event"",""trial"",""time""
""fullscreenenter"",""1"",""4946""
""blur"",""2"",""7062""
""focus"",""2"",""7537""
","""event"",""trial"",""time""
""blur"",""2"",""7062""
","""event"",""trial"",""time""
""focus"",""2"",""7537""
","""event"",""trial"",""time""
""fullscreenenter"",""1"",""4946""
","
","","","","","","828.8000001907349","images/boat2.png","","","memory_trial","4","definitely_new",""
"html-keyboard-response","95","288187","0.0-18.0-0.26","8032","approach_avoid_sv1","""event"",""trial"",""time""
""fullscreenenter"",""1"",""4946""
""blur"",""2"",""7062""
""focus"",""2"",""7537""
","""event"",""trial"",""time""
""blur"",""2"",""7062""
","""event"",""trial"",""time""
""focus"",""2"",""7537""
","""event"",""trial"",""time""
""fullscreenenter"",""1"",""4946""
","
","","","","","","null","<div style=""font-size:60px;"">+</div>","null","","fixation","","",""
"memory-trial","96","292918","0.0-18.0-1.26","8032","approach_avoid_sv1","""event"",""trial"",""time""
""fullscreenenter"",""1"",""4946""
""blur"",""2"",""7062""
""focus"",""2"",""7537""
","""event"",""trial"",""time""
""blur"",""2"",""7062""
","""event"",""trial"",""time""
""focus"",""2"",""7537""
","""event"",""trial"",""time""
""fullscreenenter"",""1"",""4946""
","
","","","","","","3728.7000000476837","images/horse7.png","","","memory_trial","2","maybe_old",""
"html-keyboard-response","97","293418","0.0-18.0-0.27","8032","approach_avoid_sv1","""event"",""trial"",""time""
""fullscreenenter"",""1"",""4946""
""blur"",""2"",""7062""
""focus"",""2"",""7537""
","""event"",""trial"",""time""
""blur"",""2"",""7062""
","""event"",""trial"",""time""
""focus"",""2"",""7537""
","""event"",""trial"",""time""
""fullscreenenter"",""1"",""4946""
","
","","","","","","null","<div style=""font-size:60px;"">+</div>","null","","fixation","","",""
"memory-trial","98","296342","0.0-18.0-1.27","8032","approach_avoid_sv1","""event"",""trial"",""time""
""fullscreenenter"",""1"",""4946""
""blur"",""2"",""7062""
""focus"",""2"",""7537""
","""event"",""trial"",""time""
""blur"",""2"",""7062""
","""event"",""trial"",""time""
""focus"",""2"",""7537""
","""event"",""trial"",""time""
""fullscreenenter"",""1"",""4946""
","
","","","","","","1921","images/plane3.png","","","memory_trial","3","maybe_new",""
"html-keyboard-response","99","296843","0.0-18.0-0.28","8032","approach_avoid_sv1","""event"",""trial"",""time""
""fullscreenenter"",""1"",""4946""
""blur"",""2"",""7062""
""focus"",""2"",""7537""
","""event"",""trial"",""time""
""blur"",""2"",""7062""
","""event"",""trial"",""time""
""focus"",""2"",""7537""
","""event"",""trial"",""time""
""fullscreenenter"",""1"",""4946""
","
","","","","","","null","<div style=""font-size:60px;"">+</div>","null","","fixation","","",""
"memory-trial","100","299767","0.0-18.0-1.28","8032","approach_avoid_sv1","""event"",""trial"",""time""
""fullscreenenter"",""1"",""4946""
""blur"",""2"",""7062""
""focus"",""2"",""7537""
","""event"",""trial"",""time""
""blur"",""2"",""7062""
","""event"",""trial"",""time""
""focus"",""2"",""7537""
","""event"",""trial"",""time""
""fullscreenenter"",""1"",""4946""
","
","","","","","","1921.5","images/train3.png","","","memory_trial","1","definitely_old",""
"html-keyboard-response","101","300269","0.0-18.0-0.29","8032","approach_avoid_sv1","""event"",""trial"",""time""
""fullscreenenter"",""1"",""4946""
""blur"",""2"",""7062""
""focus"",""2"",""7537""
","""event"",""trial"",""time""
""blur"",""2"",""7062""
","""event"",""trial"",""time""
""focus"",""2"",""7537""
","""event"",""trial"",""time""
""fullscreenenter"",""1"",""4946""
","
","","","","","","null","<div style=""font-size:60px;"">+</div>","null","","fixation","","",""
"memory-trial","102","303911","0.0-18.0-1.29","8032","approach_avoid_sv1","""event"",""trial"",""time""
""fullscreenenter"",""1"",""4946""
""blur"",""2"",""7062""
""focus"",""2"",""7537""
","""event"",""trial"",""time""
""blur"",""2"",""7062""
","""event"",""trial"",""time""
""focus"",""2"",""7537""
","""event"",""trial"",""time""
""fullscreenenter"",""1"",""4946""
","
","","","","","","2639.899999856949","images/cow1.png","","","memory_trial","4","definitely_new",""
"html-keyboard-response","103","304412","0.0-18.0-0.30","8032","approach_avoid_sv1","""event"",""trial"",""time""
""fullscreenenter"",""1"",""4946""
""blur"",""2"",""7062""
""focus"",""2"",""7537""
","""event"",""trial"",""time""
""blur"",""2"",""7062""
","""event"",""trial"",""time""
""focus"",""2"",""7537""
","""event"",""trial"",""time""
""fullscreenenter"",""1"",""4946""
","
","","","","","","null","<div style=""font-size:60px;"">+</div>","null","","fixation","","",""
"memory-trial","104","307158","0.0-18.0-1.30","8032","approach_avoid_sv1","""event"",""trial"",""time""
""fullscreenenter"",""1"",""4946""
""blur"",""2"",""7062""
""focus"",""2"",""7537""
","""event"",""trial"",""time""
""blur"",""2"",""7062""
","""event"",""trial"",""time""
""focus"",""2"",""7537""
","""event"",""trial"",""time""
""fullscreenenter"",""1"",""4946""
","
","","","","","","1744.7000000476837","images/goat7.png","","","memory_trial","2","maybe_old",""
"html-keyboard-response","105","307658","0.0-18.0-0.31","8032","approach_avoid_sv1","""event"",""trial"",""time""
""fullscreenenter"",""1"",""4946""
""blur"",""2"",""7062""
""focus"",""2"",""7537""
","""event"",""trial"",""time""
""blur"",""2"",""7062""
","""event"",""trial"",""time""
""focus"",""2"",""7537""
","""event"",""trial"",""time""
""fullscreenenter"",""1"",""4946""
","
","","","","","","null","<div style=""font-size:60px;"">+</div>","null","","fixation","","",""
"memory-trial","106","309791","0.0-18.0-1.31","8032","approach_avoid_sv1","""event"",""trial"",""time""
""fullscreenenter"",""1"",""4946""
""blur"",""2"",""7062""
""focus"",""2"",""7537""
","""event"",""trial"",""time""
""blur"",""2"",""7062""
","""event"",""trial"",""time""
""focus"",""2"",""7537""
","""event"",""trial"",""time""
""fullscreenenter"",""1"",""4946""
","
","","","","","","1130.7000000476837","images/bush7.png","","","memory_trial","4","definitely_new",""
"html-keyboard-response","107","310292","0.0-18.0-0.32","8032","approach_avoid_sv1","""event"",""trial"",""time""
""fullscreenenter"",""1"",""4946""
""blur"",""2"",""7062""
""focus"",""2"",""7537""
","""event"",""trial"",""time""
""blur"",""2"",""7062""
","""event"",""trial"",""time""
""focus"",""2"",""7537""
","""event"",""trial"",""time""
""fullscreenenter"",""1"",""4946""
","
","","","","","","null","<div style=""font-size:60px;"">+</div>","null","","fixation","","",""
"memory-trial","108","314270","0.0-18.0-1.32","8032","approach_avoid_sv1","""event"",""trial"",""time""
""fullscreenenter"",""1"",""4946""
""blur"",""2"",""7062""
""focus"",""2"",""7537""
","""event"",""trial"",""time""
""blur"",""2"",""7062""
","""event"",""trial"",""time""
""focus"",""2"",""7537""
","""event"",""trial"",""time""
""fullscreenenter"",""1"",""4946""
","
","","","","","","2976.699999809265","images/orange1.png","","","memory_trial","3","maybe_new",""
"html-keyboard-response","109","314771","0.0-18.0-0.33","8032","approach_avoid_sv1","""event"",""trial"",""time""
""fullscreenenter"",""1"",""4946""
""blur"",""2"",""7062""
""focus"",""2"",""7537""
","""event"",""trial"",""time""
""blur"",""2"",""7062""
","""event"",""trial"",""time""
""focus"",""2"",""7537""
","""event"",""trial"",""time""
""fullscreenenter"",""1"",""4946""
","
","","","","","","null","<div style=""font-size:60px;"">+</div>","null","","fixation","","",""
"memory-trial","110","317739","0.0-18.0-1.33","8032","approach_avoid_sv1","""event"",""trial"",""time""
""fullscreenenter"",""1"",""4946""
""blur"",""2"",""7062""
""focus"",""2"",""7537""
","""event"",""trial"",""time""
""blur"",""2"",""7062""
","""event"",""trial"",""time""
""focus"",""2"",""7537""
","""event"",""trial"",""time""
""fullscreenenter"",""1"",""4946""
","
","","","","","","1961.9000000953674","images/sheep7.png","","","memory_trial","2","maybe_old",""
"html-keyboard-response","111","318241","0.0-18.0-0.34","8032","approach_avoid_sv1","""event"",""trial"",""time""
""fullscreenenter"",""1"",""4946""
""blur"",""2"",""7062""
""focus"",""2"",""7537""
","""event"",""trial"",""time""
""blur"",""2"",""7062""
","""event"",""trial"",""time""
""focus"",""2"",""7537""
","""event"",""trial"",""time""
""fullscreenenter"",""1"",""4946""
","
","","","","","","null","<div style=""font-size:60px;"">+</div>","null","","fixation","","",""
"memory-trial","112","320455","0.0-18.0-1.34","8032","approach_avoid_sv1","""event"",""trial"",""time""
""fullscreenenter"",""1"",""4946""
""blur"",""2"",""7062""
""focus"",""2"",""7537""
","""event"",""trial"",""time""
""blur"",""2"",""7062""
","""event"",""trial"",""time""
""focus"",""2"",""7537""
","""event"",""trial"",""time""
""fullscreenenter"",""1"",""4946""
","
","","","","","","1212.9000000953674","images/horse8.png","","","memory_trial","2","maybe_old",""
"html-keyboard-response","113","320957","0.0-18.0-0.35","8032","approach_avoid_sv1","""event"",""trial"",""time""
""fullscreenenter"",""1"",""4946""
""blur"",""2"",""7062""
""focus"",""2"",""7537""
","""event"",""trial"",""time""
""blur"",""2"",""7062""
","""event"",""trial"",""time""
""focus"",""2"",""7537""
","""event"",""trial"",""time""
""fullscreenenter"",""1"",""4946""
","
","","","","","","null","<div style=""font-size:60px;"">+</div>","null","","fixation","","",""
"memory-trial","114","323655","0.0-18.0-1.35","8032","approach_avoid_sv1","""event"",""trial"",""time""
""fullscreenenter"",""1"",""4946""
""blur"",""2"",""7062""
""focus"",""2"",""7537""
","""event"",""trial"",""time""
""blur"",""2"",""7062""
","""event"",""trial"",""time""
""focus"",""2"",""7537""
","""event"",""trial"",""time""
""fullscreenenter"",""1"",""4946""
","
","","","","","","1696.2000000476837","images/chair2.png","","","memory_trial","3","maybe_new",""
"html-keyboard-response","115","324156","0.0-18.0-0.36","8032","approach_avoid_sv1","""event"",""trial"",""time""
""fullscreenenter"",""1"",""4946""
""blur"",""2"",""7062""
""focus"",""2"",""7537""
","""event"",""trial"",""time""
""blur"",""2"",""7062""
","""event"",""trial"",""time""
""focus"",""2"",""7537""
","""event"",""trial"",""time""
""fullscreenenter"",""1"",""4946""
","
","","","","","","null","<div style=""font-size:60px;"">+</div>","null","","fixation","","",""
"memory-trial","116","326502","0.0-18.0-1.36","8032","approach_avoid_sv1","""event"",""trial"",""time""
""fullscreenenter"",""1"",""4946""
""blur"",""2"",""7062""
""focus"",""2"",""7537""
","""event"",""trial"",""time""
""blur"",""2"",""7062""
","""event"",""trial"",""time""
""focus"",""2"",""7537""
","""event"",""trial"",""time""
""fullscreenenter"",""1"",""4946""
","
","","","","","","1344.7000000476837","images/chair5.png","","","memory_trial","3","maybe_new",""
"html-keyboard-response","117","327003","0.0-18.0-0.37","8032","approach_avoid_sv1","""event"",""trial"",""time""
""fullscreenenter"",""1"",""4946""
""blur"",""2"",""7062""
""focus"",""2"",""7537""
","""event"",""trial"",""time""
""blur"",""2"",""7062""
","""event"",""trial"",""time""
""focus"",""2"",""7537""
","""event"",""trial"",""time""
""fullscreenenter"",""1"",""4946""
","
","","","","","","null","<div style=""font-size:60px;"">+</div>","null","","fixation","","",""
"memory-trial","118","329622","0.0-18.0-1.37","8032","approach_avoid_sv1","""event"",""trial"",""time""
""fullscreenenter"",""1"",""4946""
""blur"",""2"",""7062""
""focus"",""2"",""7537""
","""event"",""trial"",""time""
""blur"",""2"",""7062""
","""event"",""trial"",""time""
""focus"",""2"",""7537""
","""event"",""trial"",""time""
""fullscreenenter"",""1"",""4946""
","
","","","","","","1618.2999999523163","images/train8.png","","","memory_trial","3","maybe_new",""
"html-keyboard-response","119","330122","0.0-18.0-0.38","8032","approach_avoid_sv1","""event"",""trial"",""time""
""fullscreenenter"",""1"",""4946""
""blur"",""2"",""7062""
""focus"",""2"",""7537""
","""event"",""trial"",""time""
""blur"",""2"",""7062""
","""event"",""trial"",""time""
""focus"",""2"",""7537""
","""event"",""trial"",""time""
""fullscreenenter"",""1"",""4946""
","
","","","","","","null","<div style=""font-size:60px;"">+</div>","null","","fixation","","",""
"memory-trial","120","333110","0.0-18.0-1.38","8032","approach_avoid_sv1","""event"",""trial"",""time""
""fullscreenenter"",""1"",""4946""
""blur"",""2"",""7062""
""focus"",""2"",""7537""
","""event"",""trial"",""time""
""blur"",""2"",""7062""
","""event"",""trial"",""time""
""focus"",""2"",""7537""
","""event"",""trial"",""time""
""fullscreenenter"",""1"",""4946""
","
","","","","","","1986.2000000476837","images/sofa3.png","","","memory_trial","4","definitely_new",""
"html-keyboard-response","121","333612","0.0-18.0-0.39","8032","approach_avoid_sv1","""event"",""trial"",""time""
""fullscreenenter"",""1"",""4946""
""blur"",""2"",""7062""
""focus"",""2"",""7537""
","""event"",""trial"",""time""
""blur"",""2"",""7062""
","""event"",""trial"",""time""
""focus"",""2"",""7537""
","""event"",""trial"",""time""
""fullscreenenter"",""1"",""4946""
","
","","","","","","null","<div style=""font-size:60px;"">+</div>","null","","fixation","","",""
"memory-trial","122","336551","0.0-18.0-1.39","8032","approach_avoid_sv1","""event"",""trial"",""time""
""fullscreenenter"",""1"",""4946""
""blur"",""2"",""7062""
""focus"",""2"",""7537""
","""event"",""trial"",""time""
""blur"",""2"",""7062""
","""event"",""trial"",""time""
""focus"",""2"",""7537""
","""event"",""trial"",""time""
""fullscreenenter"",""1"",""4946""
","
","","","","","","1937","images/goat2.png","","","memory_trial","3","maybe_new",""
"html-keyboard-response","123","337053","0.0-18.0-0.40","8032","approach_avoid_sv1","""event"",""trial"",""time""
""fullscreenenter"",""1"",""4946""
""blur"",""2"",""7062""
""focus"",""2"",""7537""
","""event"",""trial"",""time""
""blur"",""2"",""7062""
","""event"",""trial"",""time""
""focus"",""2"",""7537""
","""event"",""trial"",""time""
""fullscreenenter"",""1"",""4946""
","
","","","","","","null","<div style=""font-size:60px;"">+</div>","null","","fixation","","",""
"memory-trial","124","339070","0.0-18.0-1.40","8032","approach_avoid_sv1","""event"",""trial"",""time""
""fullscreenenter"",""1"",""4946""
""blur"",""2"",""7062""
""focus"",""2"",""7537""
","""event"",""trial"",""time""
""blur"",""2"",""7062""
","""event"",""trial"",""time""
""focus"",""2"",""7537""
","""event"",""trial"",""time""
""fullscreenenter"",""1"",""4946""
","
","","","","","","1015.7999999523163","images/chair4.png","","","memory_trial","3","maybe_new",""
"html-keyboard-response","125","339571","0.0-18.0-0.41","8032","approach_avoid_sv1","""event"",""trial"",""time""
""fullscreenenter"",""1"",""4946""
""blur"",""2"",""7062""
""focus"",""2"",""7537""
","""event"",""trial"",""time""
""blur"",""2"",""7062""
","""event"",""trial"",""time""
""focus"",""2"",""7537""
","""event"",""trial"",""time""
""fullscreenenter"",""1"",""4946""
","
","","","","","","null","<div style=""font-size:60px;"">+</div>","null","","fixation","","",""
"memory-trial","126","342374","0.0-18.0-1.41","8032","approach_avoid_sv1","""event"",""trial"",""time""
""fullscreenenter"",""1"",""4946""
""blur"",""2"",""7062""
""focus"",""2"",""7537""
","""event"",""trial"",""time""
""blur"",""2"",""7062""
","""event"",""trial"",""time""
""focus"",""2"",""7537""
","""event"",""trial"",""time""
""fullscreenenter"",""1"",""4946""
","
","","","","","","1801.5","images/table5.png","","","memory_trial","1","definitely_old",""
"html-button-response","127","344198","0.0-18.0-2.41-0.41","8032","approach_avoid_sv1","""event"",""trial"",""time""
""fullscreenenter"",""1"",""4946""
""blur"",""2"",""7062""
""focus"",""2"",""7537""
","""event"",""trial"",""time""
""blur"",""2"",""7062""
","""event"",""trial"",""time""
""focus"",""2"",""7537""
","""event"",""trial"",""time""
""fullscreenenter"",""1"",""4946""
","
","","","","","","1822.5","<p> Take a break! </p><p> Click the button to continue. </p>","0","","break","","",""
"html-keyboard-response","128","344698","0.0-18.0-0.42","8032","approach_avoid_sv1","""event"",""trial"",""time""
""fullscreenenter"",""1"",""4946""
""blur"",""2"",""7062""
""focus"",""2"",""7537""
","""event"",""trial"",""time""
""blur"",""2"",""7062""
","""event"",""trial"",""time""
""focus"",""2"",""7537""
","""event"",""trial"",""time""
""fullscreenenter"",""1"",""4946""
","
","","","","","","null","<div style=""font-size:60px;"">+</div>","null","","fixation","","",""
"memory-trial","129","348199","0.0-18.0-1.42","8032","approach_avoid_sv1","""event"",""trial"",""time""
""fullscreenenter"",""1"",""4946""
""blur"",""2"",""7062""
""focus"",""2"",""7537""
","""event"",""trial"",""time""
""blur"",""2"",""7062""
","""event"",""trial"",""time""
""focus"",""2"",""7537""
","""event"",""trial"",""time""
""fullscreenenter"",""1"",""4946""
","
","","","","","","2498.0999999046326","images/sheep8.png","","","memory_trial","2","maybe_old",""
"html-keyboard-response","130","348701","0.0-18.0-0.43","8032","approach_avoid_sv1","""event"",""trial"",""time""
""fullscreenenter"",""1"",""4946""
""blur"",""2"",""7062""
""focus"",""2"",""7537""
","""event"",""trial"",""time""
""blur"",""2"",""7062""
","""event"",""trial"",""time""
""focus"",""2"",""7537""
","""event"",""trial"",""time""
""fullscreenenter"",""1"",""4946""
","
","","","","","","null","<div style=""font-size:60px;"">+</div>","null","","fixation","","",""
"memory-trial","131","351599","0.0-18.0-1.43","8032","approach_avoid_sv1","""event"",""trial"",""time""
""fullscreenenter"",""1"",""4946""
""blur"",""2"",""7062""
""focus"",""2"",""7537""
","""event"",""trial"",""time""
""blur"",""2"",""7062""
","""event"",""trial"",""time""
""focus"",""2"",""7537""
","""event"",""trial"",""time""
""fullscreenenter"",""1"",""4946""
","
","","","","","","1895.4000000953674","images/banana1.png","","","memory_trial","2","maybe_old",""
"html-keyboard-response","132","352100","0.0-18.0-0.44","8032","approach_avoid_sv1","""event"",""trial"",""time""
""fullscreenenter"",""1"",""4946""
""blur"",""2"",""7062""
""focus"",""2"",""7537""
","""event"",""trial"",""time""
""blur"",""2"",""7062""
","""event"",""trial"",""time""
""focus"",""2"",""7537""
","""event"",""trial"",""time""
""fullscreenenter"",""1"",""4946""
","
","","","","","","null","<div style=""font-size:60px;"">+</div>","null","","fixation","","",""
"memory-trial","133","353926","0.0-18.0-1.44","8032","approach_avoid_sv1","""event"",""trial"",""time""
""fullscreenenter"",""1"",""4946""
""blur"",""2"",""7062""
""focus"",""2"",""7537""
","""event"",""trial"",""time""
""blur"",""2"",""7062""
","""event"",""trial"",""time""
""focus"",""2"",""7537""
","""event"",""trial"",""time""
""fullscreenenter"",""1"",""4946""
","
","","","","","","824.3999998569489","images/boat5.png","","","memory_trial","4","definitely_new",""
"html-keyboard-response","134","354428","0.0-18.0-0.45","8032","approach_avoid_sv1","""event"",""trial"",""time""
""fullscreenenter"",""1"",""4946""
""blur"",""2"",""7062""
""focus"",""2"",""7537""
","""event"",""trial"",""time""
""blur"",""2"",""7062""
","""event"",""trial"",""time""
""focus"",""2"",""7537""
","""event"",""trial"",""time""
""fullscreenenter"",""1"",""4946""
","
","","","","","","null","<div style=""font-size:60px;"">+</div>","null","","fixation","","",""
"memory-trial","135","358743","0.0-18.0-1.45","8032","approach_avoid_sv1","""event"",""trial"",""time""
""fullscreenenter"",""1"",""4946""
""blur"",""2"",""7062""
""focus"",""2"",""7537""
","""event"",""trial"",""time""
""blur"",""2"",""7062""
","""event"",""trial"",""time""
""focus"",""2"",""7537""
","""event"",""trial"",""time""
""fullscreenenter"",""1"",""4946""
","
","","","","","","3313.7999999523163","images/horse3.png","","","memory_trial","1","definitely_old",""
"html-keyboard-response","136","359244","0.0-18.0-0.46","8032","approach_avoid_sv1","""event"",""trial"",""time""
""fullscreenenter"",""1"",""4946""
""blur"",""2"",""7062""
""focus"",""2"",""7537""
","""event"",""trial"",""time""
""blur"",""2"",""7062""
","""event"",""trial"",""time""
""focus"",""2"",""7537""
","""event"",""trial"",""time""
""fullscreenenter"",""1"",""4946""
","
","","","","","","null","<div style=""font-size:60px;"">+</div>","null","","fixation","","",""
"memory-trial","137","361894","0.0-18.0-1.46","8032","approach_avoid_sv1","""event"",""trial"",""time""
""fullscreenenter"",""1"",""4946""
""blur"",""2"",""7062""
""focus"",""2"",""7537""
","""event"",""trial"",""time""
""blur"",""2"",""7062""
","""event"",""trial"",""time""
""focus"",""2"",""7537""
","""event"",""trial"",""time""
""fullscreenenter"",""1"",""4946""
","
","","","","","","1648.2000000476837","images/rabbit5.png","","","memory_trial","2","maybe_old",""
"html-keyboard-response","138","362394","0.0-18.0-0.47","8032","approach_avoid_sv1","""event"",""trial"",""time""
""fullscreenenter"",""1"",""4946""
""blur"",""2"",""7062""
""focus"",""2"",""7537""
","""event"",""trial"",""time""
""blur"",""2"",""7062""
","""event"",""trial"",""time""
""focus"",""2"",""7537""
","""event"",""trial"",""time""
""fullscreenenter"",""1"",""4946""
","
","","","","","","null","<div style=""font-size:60px;"">+</div>","null","","fixation","","",""
"memory-trial","139","365232","0.0-18.0-1.47","8032","approach_avoid_sv1","""event"",""trial"",""time""
""fullscreenenter"",""1"",""4946""
""blur"",""2"",""7062""
""focus"",""2"",""7537""
","""event"",""trial"",""time""
""blur"",""2"",""7062""
","""event"",""trial"",""time""
""focus"",""2"",""7537""
","""event"",""trial"",""time""
""fullscreenenter"",""1"",""4946""
","
","","","","","","1834","images/flower5.png","","","memory_trial","1","definitely_old",""
"html-keyboard-response","140","365734","0.0-18.0-0.48","8032","approach_avoid_sv1","""event"",""trial"",""time""
""fullscreenenter"",""1"",""4946""
""blur"",""2"",""7062""
""focus"",""2"",""7537""
","""event"",""trial"",""time""
""blur"",""2"",""7062""
","""event"",""trial"",""time""
""focus"",""2"",""7537""
","""event"",""trial"",""time""
""fullscreenenter"",""1"",""4946""
","
","","","","","","null","<div style=""font-size:60px;"">+</div>","null","","fixation","","",""
"memory-trial","141","368446","0.0-18.0-1.48","8032","approach_avoid_sv1","""event"",""trial"",""time""
""fullscreenenter"",""1"",""4946""
""blur"",""2"",""7062""
""focus"",""2"",""7537""
","""event"",""trial"",""time""
""blur"",""2"",""7062""
","""event"",""trial"",""time""
""focus"",""2"",""7537""
","""event"",""trial"",""time""
""fullscreenenter"",""1"",""4946""
","
","","","","","","1711.6000001430511","images/banana4.png","","","memory_trial","2","maybe_old",""
"html-keyboard-response","142","368947","0.0-18.0-0.49","8032","approach_avoid_sv1","""event"",""trial"",""time""
""fullscreenenter"",""1"",""4946""
""blur"",""2"",""7062""
""focus"",""2"",""7537""
","""event"",""trial"",""time""
""blur"",""2"",""7062""
","""event"",""trial"",""time""
""focus"",""2"",""7537""
","""event"",""trial"",""time""
""fullscreenenter"",""1"",""4946""
","
","","","","","","null","<div style=""font-size:60px;"">+</div>","null","","fixation","","",""
"memory-trial","143","372383","0.0-18.0-1.49","8032","approach_avoid_sv1","""event"",""trial"",""time""
""fullscreenenter"",""1"",""4946""
""blur"",""2"",""7062""
""focus"",""2"",""7537""
","""event"",""trial"",""time""
""blur"",""2"",""7062""
","""event"",""trial"",""time""
""focus"",""2"",""7537""
","""event"",""trial"",""time""
""fullscreenenter"",""1"",""4946""
","
","","","","","","2433.699999809265","images/chair6.png","","","memory_trial","4","definitely_new",""
"html-keyboard-response","144","372885","0.0-18.0-0.50","8032","approach_avoid_sv1","""event"",""trial"",""time""
""fullscreenenter"",""1"",""4946""
""blur"",""2"",""7062""
""focus"",""2"",""7537""
","""event"",""trial"",""time""
""blur"",""2"",""7062""
","""event"",""trial"",""time""
""focus"",""2"",""7537""
","""event"",""trial"",""time""
""fullscreenenter"",""1"",""4946""
","
","","","","","","null","<div style=""font-size:60px;"">+</div>","null","","fixation","","",""
"memory-trial","145","376030","0.0-18.0-1.50","8032","approach_avoid_sv1","""event"",""trial"",""time""
""fullscreenenter"",""1"",""4946""
""blur"",""2"",""7062""
""focus"",""2"",""7537""
","""event"",""trial"",""time""
""blur"",""2"",""7062""
","""event"",""trial"",""time""
""focus"",""2"",""7537""
","""event"",""trial"",""time""
""fullscreenenter"",""1"",""4946""
","
","","","","","","2143.5","images/goat1.png","","","memory_trial","3","maybe_new",""
"html-keyboard-response","146","376531","0.0-18.0-0.51","8032","approach_avoid_sv1","""event"",""trial"",""time""
""fullscreenenter"",""1"",""4946""
""blur"",""2"",""7062""
""focus"",""2"",""7537""
","""event"",""trial"",""time""
""blur"",""2"",""7062""
","""event"",""trial"",""time""
""focus"",""2"",""7537""
","""event"",""trial"",""time""
""fullscreenenter"",""1"",""4946""
","
","","","","","","null","<div style=""font-size:60px;"">+</div>","null","","fixation","","",""
"memory-trial","147","378743","0.0-18.0-1.51","8032","approach_avoid_sv1","""event"",""trial"",""time""
""fullscreenenter"",""1"",""4946""
""blur"",""2"",""7062""
""focus"",""2"",""7537""
","""event"",""trial"",""time""
""blur"",""2"",""7062""
","""event"",""trial"",""time""
""focus"",""2"",""7537""
","""event"",""trial"",""time""
""fullscreenenter"",""1"",""4946""
","
","","","","","","1208.7999999523163","images/cactus2.png","","","memory_trial","1","definitely_old",""
"html-keyboard-response","148","379244","0.0-18.0-0.52","8032","approach_avoid_sv1","""event"",""trial"",""time""
""fullscreenenter"",""1"",""4946""
""blur"",""2"",""7062""
""focus"",""2"",""7537""
","""event"",""trial"",""time""
""blur"",""2"",""7062""
","""event"",""trial"",""time""
""focus"",""2"",""7537""
","""event"",""trial"",""time""
""fullscreenenter"",""1"",""4946""
","
","","","","","","null","<div style=""font-size:60px;"">+</div>","null","","fixation","","",""
"memory-trial","149","382375","0.0-18.0-1.52","8032","approach_avoid_sv1","""event"",""trial"",""time""
""fullscreenenter"",""1"",""4946""
""blur"",""2"",""7062""
""focus"",""2"",""7537""
","""event"",""trial"",""time""
""blur"",""2"",""7062""
","""event"",""trial"",""time""
""focus"",""2"",""7537""
","""event"",""trial"",""time""
""fullscreenenter"",""1"",""4946""
","
","","","","","","2128.9000000953674","images/sofa4.png","","","memory_trial","2","maybe_old",""
"html-keyboard-response","150","382876","0.0-18.0-0.53","8032","approach_avoid_sv1","""event"",""trial"",""time""
""fullscreenenter"",""1"",""4946""
""blur"",""2"",""7062""
""focus"",""2"",""7537""
","""event"",""trial"",""time""
""blur"",""2"",""7062""
","""event"",""trial"",""time""
""focus"",""2"",""7537""
","""event"",""trial"",""time""
""fullscreenenter"",""1"",""4946""
","
","","","","","","null","<div style=""font-size:60px;"">+</div>","null","","fixation","","",""
"memory-trial","151","385158","0.0-18.0-1.53","8032","approach_avoid_sv1","""event"",""trial"",""time""
""fullscreenenter"",""1"",""4946""
""blur"",""2"",""7062""
""focus"",""2"",""7537""
","""event"",""trial"",""time""
""blur"",""2"",""7062""
","""event"",""trial"",""time""
""focus"",""2"",""7537""
","""event"",""trial"",""time""
""fullscreenenter"",""1"",""4946""
","
","","","","","","1280.7000000476837","images/dog6.png","","","memory_trial","4","definitely_new",""
"html-keyboard-response","152","385659","0.0-18.0-0.54","8032","approach_avoid_sv1","""event"",""trial"",""time""
""fullscreenenter"",""1"",""4946""
""blur"",""2"",""7062""
""focus"",""2"",""7537""
","""event"",""trial"",""time""
""blur"",""2"",""7062""
","""event"",""trial"",""time""
""focus"",""2"",""7537""
","""event"",""trial"",""time""
""fullscreenenter"",""1"",""4946""
","
","","","","","","null","<div style=""font-size:60px;"">+</div>","null","","fixation","","",""
"memory-trial","153","388182","0.0-18.0-1.54","8032","approach_avoid_sv1","""event"",""trial"",""time""
""fullscreenenter"",""1"",""4946""
""blur"",""2"",""7062""
""focus"",""2"",""7537""
","""event"",""trial"",""time""
""blur"",""2"",""7062""
","""event"",""trial"",""time""
""focus"",""2"",""7537""
","""event"",""trial"",""time""
""fullscreenenter"",""1"",""4946""
","
","","","","","","1521.9000000953674","images/rodent7.png","","","memory_trial","2","maybe_old",""
"html-keyboard-response","154","388684","0.0-18.0-0.55","8032","approach_avoid_sv1","""event"",""trial"",""time""
""fullscreenenter"",""1"",""4946""
""blur"",""2"",""7062""
""focus"",""2"",""7537""
","""event"",""trial"",""time""
""blur"",""2"",""7062""
","""event"",""trial"",""time""
""focus"",""2"",""7537""
","""event"",""trial"",""time""
""fullscreenenter"",""1"",""4946""
","
","","","","","","null","<div style=""font-size:60px;"">+</div>","null","","fixation","","",""
"memory-trial","155","391008","0.0-18.0-1.55","8032","approach_avoid_sv1","""event"",""trial"",""time""
""fullscreenenter"",""1"",""4946""
""blur"",""2"",""7062""
""focus"",""2"",""7537""
","""event"",""trial"",""time""
""blur"",""2"",""7062""
","""event"",""trial"",""time""
""focus"",""2"",""7537""
","""event"",""trial"",""time""
""fullscreenenter"",""1"",""4946""
","
","","","","","","1321","images/train5.png","","","memory_trial","3","maybe_new",""
"html-keyboard-response","156","391509","0.0-18.0-0.56","8032","approach_avoid_sv1","""event"",""trial"",""time""
""fullscreenenter"",""1"",""4946""
""blur"",""2"",""7062""
""focus"",""2"",""7537""
","""event"",""trial"",""time""
""blur"",""2"",""7062""
","""event"",""trial"",""time""
""focus"",""2"",""7537""
","""event"",""trial"",""time""
""fullscreenenter"",""1"",""4946""
","
","","","","","","null","<div style=""font-size:60px;"">+</div>","null","","fixation","","",""
"memory-trial","157","395695","0.0-18.0-1.56","8032","approach_avoid_sv1","""event"",""trial"",""time""
""fullscreenenter"",""1"",""4946""
""blur"",""2"",""7062""
""focus"",""2"",""7537""
","""event"",""trial"",""time""
""blur"",""2"",""7062""
","""event"",""trial"",""time""
""focus"",""2"",""7537""
","""event"",""trial"",""time""
""fullscreenenter"",""1"",""4946""
","
","","","","","","3183.9000000953674","images/tree1.png","","","memory_trial","2","maybe_old",""
"html-keyboard-response","158","396197","0.0-18.0-0.57","8032","approach_avoid_sv1","""event"",""trial"",""time""
""fullscreenenter"",""1"",""4946""
""blur"",""2"",""7062""
""focus"",""2"",""7537""
","""event"",""trial"",""time""
""blur"",""2"",""7062""
","""event"",""trial"",""time""
""focus"",""2"",""7537""
","""event"",""trial"",""time""
""fullscreenenter"",""1"",""4946""
","
","","","","","","null","<div style=""font-size:60px;"">+</div>","null","","fixation","","",""
"memory-trial","159","399351","0.0-18.0-1.57","8032","approach_avoid_sv1","""event"",""trial"",""time""
""fullscreenenter"",""1"",""4946""
""blur"",""2"",""7062""
""focus"",""2"",""7537""
","""event"",""trial"",""time""
""blur"",""2"",""7062""
","""event"",""trial"",""time""
""focus"",""2"",""7537""
","""event"",""trial"",""time""
""fullscreenenter"",""1"",""4946""
","
","","","","","","2151.0999999046326","images/banana6.png","","","memory_trial","3","maybe_new",""
"html-keyboard-response","160","399852","0.0-18.0-0.58","8032","approach_avoid_sv1","""event"",""trial"",""time""
""fullscreenenter"",""1"",""4946""
""blur"",""2"",""7062""
""focus"",""2"",""7537""
","""event"",""trial"",""time""
""blur"",""2"",""7062""
","""event"",""trial"",""time""
""focus"",""2"",""7537""
","""event"",""trial"",""time""
""fullscreenenter"",""1"",""4946""
","
","","","","","","null","<div style=""font-size:60px;"">+</div>","null","","fixation","","",""
"memory-trial","161","402622","0.0-18.0-1.58","8032","approach_avoid_sv1","""event"",""trial"",""time""
""fullscreenenter"",""1"",""4946""
""blur"",""2"",""7062""
""focus"",""2"",""7537""
","""event"",""trial"",""time""
""blur"",""2"",""7062""
","""event"",""trial"",""time""
""focus"",""2"",""7537""
","""event"",""trial"",""time""
""fullscreenenter"",""1"",""4946""
","
","","","","","","1768","images/banana3.png","","","memory_trial","1","definitely_old",""
"html-keyboard-response","162","403123","0.0-18.0-0.59","8032","approach_avoid_sv1","""event"",""trial"",""time""
""fullscreenenter"",""1"",""4946""
""blur"",""2"",""7062""
""focus"",""2"",""7537""
","""event"",""trial"",""time""
""blur"",""2"",""7062""
","""event"",""trial"",""time""
""focus"",""2"",""7537""
","""event"",""trial"",""time""
""fullscreenenter"",""1"",""4946""
","
","","","","","","null","<div style=""font-size:60px;"">+</div>","null","","fixation","","",""
"memory-trial","163","405287","0.0-18.0-1.59","8032","approach_avoid_sv1","""event"",""trial"",""time""
""fullscreenenter"",""1"",""4946""
""blur"",""2"",""7062""
""focus"",""2"",""7537""
","""event"",""trial"",""time""
""blur"",""2"",""7062""
","""event"",""trial"",""time""
""focus"",""2"",""7537""
","""event"",""trial"",""time""
""fullscreenenter"",""1"",""4946""
","
","","","","","","1161.7999999523163","images/horse2.png","","","memory_trial","1","definitely_old",""
"html-keyboard-response","164","405788","0.0-18.0-0.60","8032","approach_avoid_sv1","""event"",""trial"",""time""
""fullscreenenter"",""1"",""4946""
""blur"",""2"",""7062""
""focus"",""2"",""7537""
","""event"",""trial"",""time""
""blur"",""2"",""7062""
","""event"",""trial"",""time""
""focus"",""2"",""7537""
","""event"",""trial"",""time""
""fullscreenenter"",""1"",""4946""
","
","","","","","","null","<div style=""font-size:60px;"">+</div>","null","","fixation","","",""
"memory-trial","165","408983","0.0-18.0-1.60","8032","approach_avoid_sv1","""event"",""trial"",""time""
""fullscreenenter"",""1"",""4946""
""blur"",""2"",""7062""
""focus"",""2"",""7537""
","""event"",""trial"",""time""
""blur"",""2"",""7062""
","""event"",""trial"",""time""
""focus"",""2"",""7537""
","""event"",""trial"",""time""
""fullscreenenter"",""1"",""4946""
","
","","","","","","2193.0999999046326","images/flower3.png","","","memory_trial","3","maybe_new",""
"html-keyboard-response","166","409485","0.0-18.0-0.61","8032","approach_avoid_sv1","""event"",""trial"",""time""
""fullscreenenter"",""1"",""4946""
""blur"",""2"",""7062""
""focus"",""2"",""7537""
","""event"",""trial"",""time""
""blur"",""2"",""7062""
","""event"",""trial"",""time""
""focus"",""2"",""7537""
","""event"",""trial"",""time""
""fullscreenenter"",""1"",""4946""
","
","","","","","","null","<div style=""font-size:60px;"">+</div>","null","","fixation","","",""
"memory-trial","167","413094","0.0-18.0-1.61","8032","approach_avoid_sv1","""event"",""trial"",""time""
""fullscreenenter"",""1"",""4946""
""blur"",""2"",""7062""
""focus"",""2"",""7537""
","""event"",""trial"",""time""
""blur"",""2"",""7062""
","""event"",""trial"",""time""
""focus"",""2"",""7537""
","""event"",""trial"",""time""
""fullscreenenter"",""1"",""4946""
","
","","","","","","2607.9000000953674","images/boat6.png","","","memory_trial","4","definitely_new",""
"html-keyboard-response","168","413595","0.0-18.0-0.62","8032","approach_avoid_sv1","""event"",""trial"",""time""
""fullscreenenter"",""1"",""4946""
""blur"",""2"",""7062""
""focus"",""2"",""7537""
","""event"",""trial"",""time""
""blur"",""2"",""7062""
","""event"",""trial"",""time""
""focus"",""2"",""7537""
","""event"",""trial"",""time""
""fullscreenenter"",""1"",""4946""
","
","","","","","","null","<div style=""font-size:60px;"">+</div>","null","","fixation","","",""
"memory-trial","169","415815","0.0-18.0-1.62","8032","approach_avoid_sv1","""event"",""trial"",""time""
""fullscreenenter"",""1"",""4946""
""blur"",""2"",""7062""
""focus"",""2"",""7537""
","""event"",""trial"",""time""
""blur"",""2"",""7062""
","""event"",""trial"",""time""
""focus"",""2"",""7537""
","""event"",""trial"",""time""
""fullscreenenter"",""1"",""4946""
","
","","","","","","1217.7999999523163","images/tree4.png","","","memory_trial","1","definitely_old",""
"html-keyboard-response","170","416316","0.0-18.0-0.63","8032","approach_avoid_sv1","""event"",""trial"",""time""
""fullscreenenter"",""1"",""4946""
""blur"",""2"",""7062""
""focus"",""2"",""7537""
","""event"",""trial"",""time""
""blur"",""2"",""7062""
","""event"",""trial"",""time""
""focus"",""2"",""7537""
","""event"",""trial"",""time""
""fullscreenenter"",""1"",""4946""
","
","","","","","","null","<div style=""font-size:60px;"">+</div>","null","","fixation","","",""
"memory-trial","171","419455","0.0-18.0-1.63","8032","approach_avoid_sv1","""event"",""trial"",""time""
""fullscreenenter"",""1"",""4946""
""blur"",""2"",""7062""
""focus"",""2"",""7537""
","""event"",""trial"",""time""
""blur"",""2"",""7062""
","""event"",""trial"",""time""
""focus"",""2"",""7537""
","""event"",""trial"",""time""
""fullscreenenter"",""1"",""4946""
","
","","","","","","2135.9000000953674","images/chair3.png","","","memory_trial","4","definitely_new",""
"html-keyboard-response","172","419956","0.0-18.0-0.64","8032","approach_avoid_sv1","""event"",""trial"",""time""
""fullscreenenter"",""1"",""4946""
""blur"",""2"",""7062""
""focus"",""2"",""7537""
","""event"",""trial"",""time""
""blur"",""2"",""7062""
","""event"",""trial"",""time""
""focus"",""2"",""7537""
","""event"",""trial"",""time""
""fullscreenenter"",""1"",""4946""
","
","","","","","","null","<div style=""font-size:60px;"">+</div>","null","","fixation","","",""
"memory-trial","173","423478","0.0-18.0-1.64","8032","approach_avoid_sv1","""event"",""trial"",""time""
""fullscreenenter"",""1"",""4946""
""blur"",""2"",""7062""
""focus"",""2"",""7537""
","""event"",""trial"",""time""
""blur"",""2"",""7062""
","""event"",""trial"",""time""
""focus"",""2"",""7537""
","""event"",""trial"",""time""
""fullscreenenter"",""1"",""4946""
","
","","","","","","2520.699999809265","images/apple3.png","","","memory_trial","3","maybe_new",""
"html-keyboard-response","174","423979","0.0-18.0-0.65","8032","approach_avoid_sv1","""event"",""trial"",""time""
""fullscreenenter"",""1"",""4946""
""blur"",""2"",""7062""
""focus"",""2"",""7537""
","""event"",""trial"",""time""
""blur"",""2"",""7062""
","""event"",""trial"",""time""
""focus"",""2"",""7537""
","""event"",""trial"",""time""
""fullscreenenter"",""1"",""4946""
","
","","","","","","null","<div style=""font-size:60px;"">+</div>","null","","fixation","","",""
"memory-trial","175","426349","0.0-18.0-1.65","8032","approach_avoid_sv1","""event"",""trial"",""time""
""fullscreenenter"",""1"",""4946""
""blur"",""2"",""7062""
""focus"",""2"",""7537""
","""event"",""trial"",""time""
""blur"",""2"",""7062""
","""event"",""trial"",""time""
""focus"",""2"",""7537""
","""event"",""trial"",""time""
""fullscreenenter"",""1"",""4946""
","
","","","","","","1368.5","images/straw2.png","","","memory_trial","2","maybe_old",""
"html-keyboard-response","176","426850","0.0-18.0-0.66","8032","approach_avoid_sv1","""event"",""trial"",""time""
""fullscreenenter"",""1"",""4946""
""blur"",""2"",""7062""
""focus"",""2"",""7537""
","""event"",""trial"",""time""
""blur"",""2"",""7062""
","""event"",""trial"",""time""
""focus"",""2"",""7537""
","""event"",""trial"",""time""
""fullscreenenter"",""1"",""4946""
","
","","","","","","null","<div style=""font-size:60px;"">+</div>","null","","fixation","","",""
"memory-trial","177","431830","0.0-18.0-1.66","8032","approach_avoid_sv1","""event"",""trial"",""time""
""fullscreenenter"",""1"",""4946""
""blur"",""2"",""7062""
""focus"",""2"",""7537""
","""event"",""trial"",""time""
""blur"",""2"",""7062""
","""event"",""trial"",""time""
""focus"",""2"",""7537""
","""event"",""trial"",""time""
""fullscreenenter"",""1"",""4946""
","
","","","","","","3978.100000143051","images/rodent4.png","","","memory_trial","3","maybe_new",""
"html-keyboard-response","178","432332","0.0-18.0-0.67","8032","approach_avoid_sv1","""event"",""trial"",""time""
""fullscreenenter"",""1"",""4946""
""blur"",""2"",""7062""
""focus"",""2"",""7537""
","""event"",""trial"",""time""
""blur"",""2"",""7062""
","""event"",""trial"",""time""
""focus"",""2"",""7537""
","""event"",""trial"",""time""
""fullscreenenter"",""1"",""4946""
","
","","","","","","null","<div style=""font-size:60px;"">+</div>","null","","fixation","","",""
"memory-trial","179","434742","0.0-18.0-1.67","8032","approach_avoid_sv1","""event"",""trial"",""time""
""fullscreenenter"",""1"",""4946""
""blur"",""2"",""7062""
""focus"",""2"",""7537""
","""event"",""trial"",""time""
""blur"",""2"",""7062""
","""event"",""trial"",""time""
""focus"",""2"",""7537""
","""event"",""trial"",""time""
""fullscreenenter"",""1"",""4946""
","
","","","","","","1408.6000001430511","images/cactus3.png","","","memory_trial","2","maybe_old",""
"html-keyboard-response","180","435243","0.0-18.0-0.68","8032","approach_avoid_sv1","""event"",""trial"",""time""
""fullscreenenter"",""1"",""4946""
""blur"",""2"",""7062""
""focus"",""2"",""7537""
","""event"",""trial"",""time""
""blur"",""2"",""7062""
","""event"",""trial"",""time""
""focus"",""2"",""7537""
","""event"",""trial"",""time""
""fullscreenenter"",""1"",""4946""
","
","","","","","","null","<div style=""font-size:60px;"">+</div>","null","","fixation","","",""
"memory-trial","181","437686","0.0-18.0-1.68","8032","approach_avoid_sv1","""event"",""trial"",""time""
""fullscreenenter"",""1"",""4946""
""blur"",""2"",""7062""
""focus"",""2"",""7537""
","""event"",""trial"",""time""
""blur"",""2"",""7062""
","""event"",""trial"",""time""
""focus"",""2"",""7537""
","""event"",""trial"",""time""
""fullscreenenter"",""1"",""4946""
","
","","","","","","1442.3999998569489","images/cow3.png","","","memory_trial","2","maybe_old",""
"html-keyboard-response","182","438188","0.0-18.0-0.69","8032","approach_avoid_sv1","""event"",""trial"",""time""
""fullscreenenter"",""1"",""4946""
""blur"",""2"",""7062""
""focus"",""2"",""7537""
","""event"",""trial"",""time""
""blur"",""2"",""7062""
","""event"",""trial"",""time""
""focus"",""2"",""7537""
","""event"",""trial"",""time""
""fullscreenenter"",""1"",""4946""
","
","","","","","","null","<div style=""font-size:60px;"">+</div>","null","","fixation","","",""
"memory-trial","183","440278","0.0-18.0-1.69","8032","approach_avoid_sv1","""event"",""trial"",""time""
""fullscreenenter"",""1"",""4946""
""blur"",""2"",""7062""
""focus"",""2"",""7537""
","""event"",""trial"",""time""
""blur"",""2"",""7062""
","""event"",""trial"",""time""
""focus"",""2"",""7537""
","""event"",""trial"",""time""
""fullscreenenter"",""1"",""4946""
","
","","","","","","1088.3000001907349","images/orange4.png","","","memory_trial","3","maybe_new",""
"html-keyboard-response","184","440779","0.0-18.0-0.70","8032","approach_avoid_sv1","""event"",""trial"",""time""
""fullscreenenter"",""1"",""4946""
""blur"",""2"",""7062""
""focus"",""2"",""7537""
","""event"",""trial"",""time""
""blur"",""2"",""7062""
","""event"",""trial"",""time""
""focus"",""2"",""7537""
","""event"",""trial"",""time""
""fullscreenenter"",""1"",""4946""
","
","","","","","","null","<div style=""font-size:60px;"">+</div>","null","","fixation","","",""
"memory-trial","185","444294","0.0-18.0-1.70","8032","approach_avoid_sv1","""event"",""trial"",""time""
""fullscreenenter"",""1"",""4946""
""blur"",""2"",""7062""
""focus"",""2"",""7537""
","""event"",""trial"",""time""
""blur"",""2"",""7062""
","""event"",""trial"",""time""
""focus"",""2"",""7537""
","""event"",""trial"",""time""
""fullscreenenter"",""1"",""4946""
","
","","","","","","2513.199999809265","images/rabbit4.png","","","memory_trial","2","maybe_old",""
"html-keyboard-response","186","444795","0.0-18.0-0.71","8032","approach_avoid_sv1","""event"",""trial"",""time""
""fullscreenenter"",""1"",""4946""
""blur"",""2"",""7062""
""focus"",""2"",""7537""
","""event"",""trial"",""time""
""blur"",""2"",""7062""
","""event"",""trial"",""time""
""focus"",""2"",""7537""
","""event"",""trial"",""time""
""fullscreenenter"",""1"",""4946""
","
","","","","","","null","<div style=""font-size:60px;"">+</div>","null","","fixation","","",""
"memory-trial","187","447557","0.0-18.0-1.71","8032","approach_avoid_sv1","""event"",""trial"",""time""
""fullscreenenter"",""1"",""4946""
""blur"",""2"",""7062""
""focus"",""2"",""7537""
","""event"",""trial"",""time""
""blur"",""2"",""7062""
","""event"",""trial"",""time""
""focus"",""2"",""7537""
","""event"",""trial"",""time""
""fullscreenenter"",""1"",""4946""
","
","","","","","","1760.3999998569489","images/truck8.png","","","memory_trial","3","maybe_new",""
"html-keyboard-response","188","448059","0.0-18.0-0.72","8032","approach_avoid_sv1","""event"",""trial"",""time""
""fullscreenenter"",""1"",""4946""
""blur"",""2"",""7062""
""focus"",""2"",""7537""
","""event"",""trial"",""time""
""blur"",""2"",""7062""
","""event"",""trial"",""time""
""focus"",""2"",""7537""
","""event"",""trial"",""time""
""fullscreenenter"",""1"",""4946""
","
","","","","","","null","<div style=""font-size:60px;"">+</div>","null","","fixation","","",""
"memory-trial","189","451438","0.0-18.0-1.72","8032","approach_avoid_sv1","""event"",""trial"",""time""
""fullscreenenter"",""1"",""4946""
""blur"",""2"",""7062""
""focus"",""2"",""7537""
","""event"",""trial"",""time""
""blur"",""2"",""7062""
","""event"",""trial"",""time""
""focus"",""2"",""7537""
","""event"",""trial"",""time""
""fullscreenenter"",""1"",""4946""
","
","","","","","","2377.399999856949","images/rabbit8.png","","","memory_trial","3","maybe_new",""
"html-keyboard-response","190","451939","0.0-18.0-0.73","8032","approach_avoid_sv1","""event"",""trial"",""time""
""fullscreenenter"",""1"",""4946""
""blur"",""2"",""7062""
""focus"",""2"",""7537""
","""event"",""trial"",""time""
""blur"",""2"",""7062""
","""event"",""trial"",""time""
""focus"",""2"",""7537""
","""event"",""trial"",""time""
""fullscreenenter"",""1"",""4946""
","
","","","","","","null","<div style=""font-size:60px;"">+</div>","null","","fixation","","",""
"memory-trial","191","454094","0.0-18.0-1.73","8032","approach_avoid_sv1","""event"",""trial"",""time""
""fullscreenenter"",""1"",""4946""
""blur"",""2"",""7062""
""focus"",""2"",""7537""
","""event"",""trial"",""time""
""blur"",""2"",""7062""
","""event"",""trial"",""time""
""focus"",""2"",""7537""
","""event"",""trial"",""time""
""fullscreenenter"",""1"",""4946""
","
","","","","","","1152.5999999046326","images/cat6.png","","","memory_trial","1","definitely_old",""
"html-keyboard-response","192","454595","0.0-18.0-0.74","8032","approach_avoid_sv1","""event"",""trial"",""time""
""fullscreenenter"",""1"",""4946""
""blur"",""2"",""7062""
""focus"",""2"",""7537""
","""event"",""trial"",""time""
""blur"",""2"",""7062""
","""event"",""trial"",""time""
""focus"",""2"",""7537""
","""event"",""trial"",""time""
""fullscreenenter"",""1"",""4946""
","
","","","","","","null","<div style=""font-size:60px;"">+</div>","null","","fixation","","",""
"memory-trial","193","457966","0.0-18.0-1.74","8032","approach_avoid_sv1","""event"",""trial"",""time""
""fullscreenenter"",""1"",""4946""
""blur"",""2"",""7062""
""focus"",""2"",""7537""
","""event"",""trial"",""time""
""blur"",""2"",""7062""
","""event"",""trial"",""time""
""focus"",""2"",""7537""
","""event"",""trial"",""time""
""fullscreenenter"",""1"",""4946""
","
","","","","","","2369.600000143051","images/apple2.png","","","memory_trial","3","maybe_new",""
"html-keyboard-response","194","458468","0.0-18.0-0.75","8032","approach_avoid_sv1","""event"",""trial"",""time""
""fullscreenenter"",""1"",""4946""
""blur"",""2"",""7062""
""focus"",""2"",""7537""
","""event"",""trial"",""time""
""blur"",""2"",""7062""
","""event"",""trial"",""time""
""focus"",""2"",""7537""
","""event"",""trial"",""time""
""fullscreenenter"",""1"",""4946""
","
","","","","","","null","<div style=""font-size:60px;"">+</div>","null","","fixation","","",""
"memory-trial","195","460694","0.0-18.0-1.75","8032","approach_avoid_sv1","""event"",""trial"",""time""
""fullscreenenter"",""1"",""4946""
""blur"",""2"",""7062""
""focus"",""2"",""7537""
","""event"",""trial"",""time""
""blur"",""2"",""7062""
","""event"",""trial"",""time""
""focus"",""2"",""7537""
","""event"",""trial"",""time""
""fullscreenenter"",""1"",""4946""
","
","","","","","","1223.5999999046326","images/chair1.png","","","memory_trial","3","maybe_new",""
"html-keyboard-response","196","461196","0.0-18.0-0.76","8032","approach_avoid_sv1","""event"",""trial"",""time""
""fullscreenenter"",""1"",""4946""
""blur"",""2"",""7062""
""focus"",""2"",""7537""
","""event"",""trial"",""time""
""blur"",""2"",""7062""
","""event"",""trial"",""time""
""focus"",""2"",""7537""
","""event"",""trial"",""time""
""fullscreenenter"",""1"",""4946""
","
","","","","","","null","<div style=""font-size:60px;"">+</div>","null","","fixation","","",""
"memory-trial","197","464142","0.0-18.0-1.76","8032","approach_avoid_sv1","""event"",""trial"",""time""
""fullscreenenter"",""1"",""4946""
""blur"",""2"",""7062""
""focus"",""2"",""7537""
","""event"",""trial"",""time""
""blur"",""2"",""7062""
","""event"",""trial"",""time""
""focus"",""2"",""7537""
","""event"",""trial"",""time""
""fullscreenenter"",""1"",""4946""
","
","","","","","","1944.4000000953674","images/bed4.png","","","memory_trial","3","maybe_new",""
"html-keyboard-response","198","464643","0.0-18.0-0.77","8032","approach_avoid_sv1","""event"",""trial"",""time""
""fullscreenenter"",""1"",""4946""
""blur"",""2"",""7062""
""focus"",""2"",""7537""
","""event"",""trial"",""time""
""blur"",""2"",""7062""
","""event"",""trial"",""time""
""focus"",""2"",""7537""
","""event"",""trial"",""time""
""fullscreenenter"",""1"",""4946""
","
","","","","","","null","<div style=""font-size:60px;"">+</div>","null","","fixation","","",""
"memory-trial","199","466871","0.0-18.0-1.77","8032","approach_avoid_sv1","""event"",""trial"",""time""
""fullscreenenter"",""1"",""4946""
""blur"",""2"",""7062""
""focus"",""2"",""7537""
","""event"",""trial"",""time""
""blur"",""2"",""7062""
","""event"",""trial"",""time""
""focus"",""2"",""7537""
","""event"",""trial"",""time""
""fullscreenenter"",""1"",""4946""
","
","","","","","","1224.6000001430511","images/rabbit6.png","","","memory_trial","2","maybe_old",""
"html-keyboard-response","200","467372","0.0-18.0-0.78","8032","approach_avoid_sv1","""event"",""trial"",""time""
""fullscreenenter"",""1"",""4946""
""blur"",""2"",""7062""
""focus"",""2"",""7537""
","""event"",""trial"",""time""
""blur"",""2"",""7062""
","""event"",""trial"",""time""
""focus"",""2"",""7537""
","""event"",""trial"",""time""
""fullscreenenter"",""1"",""4946""
","
","","","","","","null","<div style=""font-size:60px;"">+</div>","null","","fixation","","",""
"memory-trial","201","470999","0.0-18.0-1.78","8032","approach_avoid_sv1","""event"",""trial"",""time""
""fullscreenenter"",""1"",""4946""
""blur"",""2"",""7062""
""focus"",""2"",""7537""
