"trial_type","trial_index","time_elapsed","internal_node_id","subject_id","task_version","interactions","blur_events","focus_events","fullscreenenter_events","fullscreenexit_events","success","timeout","failed_images","failed_audio","failed_video","rt","stimulus","response","button_pressed","task_part","key_press","answer","correct"
"pavlovia","0","29","0.0-0.0","7643","approach_avoid_sv1","""event"",""trial"",""time""
""fullscreenenter"",""1"",""6656""
","
","
","""event"",""trial"",""time""
""fullscreenenter"",""1"",""6656""
","
","","","","","","","","","","","","",""
"fullscreen","1","7478","0.0-1.0","7643","approach_avoid_sv1","""event"",""trial"",""time""
""fullscreenenter"",""1"",""6656""
","
","
","""event"",""trial"",""time""
""fullscreenenter"",""1"",""6656""
","
","true","","","","","","","","","","","",""
"preload","2","10585","0.0-2.0","7643","approach_avoid_sv1","""event"",""trial"",""time""
""fullscreenenter"",""1"",""6656""
","
","
","""event"",""trial"",""time""
""fullscreenenter"",""1"",""6656""
","
","true","false","[]","[]","[]","","","","","","","",""
"preload","3","12654","0.0-3.0","7643","approach_avoid_sv1","""event"",""trial"",""time""
""fullscreenenter"",""1"",""6656""
","
","
","""event"",""trial"",""time""
""fullscreenenter"",""1"",""6656""
","
","true","false","[]","[]","[]","","","","","","","",""
"preload","4","13886","0.0-4.0","7643","approach_avoid_sv1","""event"",""trial"",""time""
""fullscreenenter"",""1"",""6656""
","
","
","""event"",""trial"",""time""
""fullscreenenter"",""1"",""6656""
","
","true","false","[]","[]","[]","","","","","","","",""
"audio-keyboard-response","5","18666","0.0-5.0","7643","approach_avoid_sv1","""event"",""trial"",""time""
""fullscreenenter"",""1"",""6656""
","
","
","""event"",""trial"",""time""
""fullscreenenter"",""1"",""6656""
","
","","","","","","4770.666666666665","audio/beep_loop.wav"," ","","","","",""
"audio-button-response","6","20440","0.0-6.0","7643","approach_avoid_sv1","""event"",""trial"",""time""
""fullscreenenter"",""1"",""6656""
","
","
","""event"",""trial"",""time""
""fullscreenenter"",""1"",""6656""
","
","","","","","","1760","audio/turtle.wav","3","","","","",""
"audio-button-response","7","24448","0.0-7.0","7643","approach_avoid_sv1","""event"",""trial"",""time""
""fullscreenenter"",""1"",""6656""
","
","
","""event"",""trial"",""time""
""fullscreenenter"",""1"",""6656""
","
","","","","","","2992","audio/shark.wav","2","","","","",""
"preload","8","28608","0.0-8.0","7643","approach_avoid_sv1","""event"",""trial"",""time""
""fullscreenenter"",""1"",""6656""
","
","
","""event"",""trial"",""time""
""fullscreenenter"",""1"",""6656""
","
","true","false","[]","[]","[]","","","","","","","",""
"learning-instructions","9","35800","0.0-9.0-0.0","7643","approach_avoid_sv1","""event"",""trial"",""time""
""fullscreenenter"",""1"",""6656""
","
","
","""event"",""trial"",""time""
""fullscreenenter"",""1"",""6656""
","
","","","","","","2708.5","<p> Welcome back! </p><p> Last week, you had to make choices about lots of different items.  </p>","","0","instructions","","",""
"learning-instructions","10","41033","0.0-9.0-0.1","7643","approach_avoid_sv1","""event"",""trial"",""time""
""fullscreenenter"",""1"",""6656""
","
","
","""event"",""trial"",""time""
""fullscreenenter"",""1"",""6656""
","
","","","","","","1113.5","<p> Today, we are going to ask you to try to remember all the items. </p>","","0","instructions","","",""
"learning-instructions","11","51586","0.0-9.0-0.2","7643","approach_avoid_sv1","""event"",""trial"",""time""
""fullscreenenter"",""1"",""6656""
","
","
","""event"",""trial"",""time""
""fullscreenenter"",""1"",""6656""
","
","","","","","","415.5","<p> On every trial, you will see an image. </p><p> The image may be an OLD image you saw during the games last week or it may be a NEW image that was not presented. </p>","","0","instructions","","",""
"learning-instructions","12","62321","0.0-9.0-0.3","7643","approach_avoid_sv1","""event"",""trial"",""time""
""fullscreenenter"",""1"",""6656""
","
","
","""event"",""trial"",""time""
""fullscreenenter"",""1"",""6656""
","
","","","","","","2208.0999999046326","<p> You need to select whether the image is:  </p><p>  'Definitely old', 'Maybe old', 'Maybe new', or 'Definitely new.'  </p><div class=""mem-choice-instructions-grid""><div class=""choice-option"" id=""choice-option-1"" ><img src=""images/definitely_old_1.png"" id=""choice-option-img-1"" class=""choice-option-img"" stage=""1""></div><div class=""choice-option"" id=""choice-option-2"" ><img src=""images/maybe_old_1.png"" id=""choice-option-img-2"" class=""choice-option-img"" stage=""1""></div><div class=""choice-option"" id=""choice-option-3"" ><img src=""images/maybe_new_1.png"" id=""choice-option-img-3"" class=""choice-option-img"" stage=""1""></div><div class=""choice-option"" id=""choice-option-4"" > <img src=""images/definitely_new_1.png"" id=""choice-option-img-4"" class=""choice-option-img"" stage=""1""></div></div>","","0","instructions","","",""
"learning-instructions","13","69298","0.0-9.0-0.4","7643","approach_avoid_sv1","""event"",""trial"",""time""
""fullscreenenter"",""1"",""6656""
","
","
","""event"",""trial"",""time""
""fullscreenenter"",""1"",""6656""
","
","","","","","","454","<p> You should use the 1, 2, 3, and 4 keys to make your responses.  </p><div class=""mem-choice-instructions-grid""><div class=""choice-option"" id=""choice-option-1"" ><img src=""images/definitely_old.png"" id=""choice-option-img-1"" class=""choice-option-img"" stage=""1""></div><div class=""choice-option"" id=""choice-option-2"" ><img src=""images/maybe_old.png"" id=""choice-option-img-2"" class=""choice-option-img"" stage=""1""></div><div class=""choice-option"" id=""choice-option-3"" ><img src=""images/maybe_new.png"" id=""choice-option-img-3"" class=""choice-option-img"" stage=""1""></div><div class=""choice-option"" id=""choice-option-4"" > <img src=""images/definitely_new.png"" id=""choice-option-img-4"" class=""choice-option-img"" stage=""1""></div></div>","","0","instructions","","",""
"learning-instructions","14","76726","0.0-9.0-0.5","7643","approach_avoid_sv1","""event"",""trial"",""time""
""fullscreenenter"",""1"",""6656""
","
","
","""event"",""trial"",""time""
""fullscreenenter"",""1"",""6656""
","
","","","","","","1093","<p> You will have 10 seconds to make each response.  </p><p>  Make sure to respond before time runs out! </p>","","0","instructions","","",""
"learning-instructions","15","84673","0.0-9.0-0.6","7643","approach_avoid_sv1","""event"",""trial"",""time""
""fullscreenenter"",""1"",""6656""
","
","
","""event"",""trial"",""time""
""fullscreenenter"",""1"",""6656""
","
","","","","","","851.0999999046326","<p> Today, you will see each image ONCE only.  </p><p>  That means none of the images will repeat. </p>","","0","instructions","","",""
"learning-instructions","16","97753","0.0-9.0-0.7","7643","approach_avoid_sv1","""event"",""trial"",""time""
""fullscreenenter"",""1"",""6656""
","
","
","""event"",""trial"",""time""
""fullscreenenter"",""1"",""6656""
","
","","","","","","390.5","<p> Before you play the real game, it is time to practice. </p><p>  Just like in the real game, some of the images in the practice will be ones you have seen before. </p><p>  Others will be entirely new. </p>","","0","instructions","","",""
"html-button-response","17","99355","0.0-10.0","7643","approach_avoid_sv1","""event"",""trial"",""time""
""fullscreenenter"",""1"",""6656""
","
","
","""event"",""trial"",""time""
""fullscreenenter"",""1"",""6656""
","
","","","","","","1498.1000003814697","<p> Ready to practice? </p><p> Remember, use the 1, 2, 3, and 4 keys to make your responses. </p>","0","","instructions","","",""
"html-keyboard-response","18","99977","0.0-11.0-0.0","7643","approach_avoid_sv1","""event"",""trial"",""time""
""fullscreenenter"",""1"",""6656""
","
","
","""event"",""trial"",""time""
""fullscreenenter"",""1"",""6656""
","
","","","","","","null","<div style=""font-size:60px;"">+</div>","null","","fixation","","",""
"memory-trial","19","103387","0.0-11.0-1.0","7643","approach_avoid_sv1","""event"",""trial"",""time""
""fullscreenenter"",""1"",""6656""
","
","
","""event"",""trial"",""time""
""fullscreenenter"",""1"",""6656""
","
","","","","","","2382.5","images/racket3.png","","","practice","4","definitely_new",""
"html-keyboard-response","20","103894","0.0-11.0-0.1","7643","approach_avoid_sv1","""event"",""trial"",""time""
""fullscreenenter"",""1"",""6656""
","
","
","""event"",""trial"",""time""
""fullscreenenter"",""1"",""6656""
","
","","","","","","null","<div style=""font-size:60px;"">+</div>","null","","fixation","","",""
"memory-trial","21","108198","0.0-11.0-1.1","7643","approach_avoid_sv1","""event"",""trial"",""time""
""fullscreenenter"",""1"",""6656""
","
","
","""event"",""trial"",""time""
""fullscreenenter"",""1"",""6656""
","
","","","","","","3284.0999999046326","images/racket5.png","","","practice","1","definitely_old",""
"html-keyboard-response","22","108716","0.0-11.0-0.2","7643","approach_avoid_sv1","""event"",""trial"",""time""
""fullscreenenter"",""1"",""6656""
","
","
","""event"",""trial"",""time""
""fullscreenenter"",""1"",""6656""
","
","","","","","","null","<div style=""font-size:60px;"">+</div>","null","","fixation","","",""
"memory-trial","23","111632","0.0-11.0-1.2","7643","approach_avoid_sv1","""event"",""trial"",""time""
""fullscreenenter"",""1"",""6656""
","
","
","""event"",""trial"",""time""
""fullscreenenter"",""1"",""6656""
","
","","","","","","1886.0999999046326","images/racket2.png","","","practice","1","definitely_old",""
"html-keyboard-response","24","112162","0.0-11.0-0.3","7643","approach_avoid_sv1","""event"",""trial"",""time""
""fullscreenenter"",""1"",""6656""
","
","
","""event"",""trial"",""time""
""fullscreenenter"",""1"",""6656""
","
","","","","","","null","<div style=""font-size:60px;"">+</div>","null","","fixation","","",""
"memory-trial","25","115284","0.0-11.0-1.3","7643","approach_avoid_sv1","""event"",""trial"",""time""
""fullscreenenter"",""1"",""6656""
","
","
","""event"",""trial"",""time""
""fullscreenenter"",""1"",""6656""
","
","","","","","","2077.0999999046326","images/ball2.png","","","practice","1","definitely_old",""
"html-keyboard-response","26","115791","0.0-11.0-0.4","7643","approach_avoid_sv1","""event"",""trial"",""time""
""fullscreenenter"",""1"",""6656""
","
","
","""event"",""trial"",""time""
""fullscreenenter"",""1"",""6656""
","
","","","","","","null","<div style=""font-size:60px;"">+</div>","null","","fixation","","",""
"memory-trial","27","118160","0.0-11.0-1.4","7643","approach_avoid_sv1","""event"",""trial"",""time""
""fullscreenenter"",""1"",""6656""
","
","
","""event"",""trial"",""time""
""fullscreenenter"",""1"",""6656""
","
","","","","","","1329.5","images/ball3.png","","","practice","4","definitely_new",""
"html-keyboard-response","28","118685","0.0-11.0-0.5","7643","approach_avoid_sv1","""event"",""trial"",""time""
""fullscreenenter"",""1"",""6656""
","
","
","""event"",""trial"",""time""
""fullscreenenter"",""1"",""6656""
","
","","","","","","null","<div style=""font-size:60px;"">+</div>","null","","fixation","","",""
"memory-trial","29","122834","0.0-11.0-1.5","7643","approach_avoid_sv1","""event"",""trial"",""time""
""fullscreenenter"",""1"",""6656""
","
","
","""event"",""trial"",""time""
""fullscreenenter"",""1"",""6656""
","
","","","","","","3119.7999997138977","images/ball1.png","","","practice","4","definitely_new",""
"html-keyboard-response","30","123356","0.0-11.0-0.6","7643","approach_avoid_sv1","""event"",""trial"",""time""
""fullscreenenter"",""1"",""6656""
","
","
","""event"",""trial"",""time""
""fullscreenenter"",""1"",""6656""
","
","","","","","","null","<div style=""font-size:60px;"">+</div>","null","","fixation","","",""
"memory-trial","31","126567","0.0-11.0-1.6","7643","approach_avoid_sv1","""event"",""trial"",""time""
""fullscreenenter"",""1"",""6656""
","
","
","""event"",""trial"",""time""
""fullscreenenter"",""1"",""6656""
","
","","","","","","2200.1000003814697","images/racket1.png","","","practice","1","definitely_old",""
"html-keyboard-response","32","127083","0.0-11.0-0.7","7643","approach_avoid_sv1","""event"",""trial"",""time""
""fullscreenenter"",""1"",""6656""
","
","
","""event"",""trial"",""time""
""fullscreenenter"",""1"",""6656""
","
","","","","","","null","<div style=""font-size:60px;"">+</div>","null","","fixation","","",""
"memory-trial","33","130824","0.0-11.0-1.7","7643","approach_avoid_sv1","""event"",""trial"",""time""
""fullscreenenter"",""1"",""6656""
","
","
","""event"",""trial"",""time""
""fullscreenenter"",""1"",""6656""
","
","","","","","","2729","images/ball5.png","","","practice","4","definitely_new",""
"learning-instructions","34","142139","0.0-12.0-0.0","7643","approach_avoid_sv1","""event"",""trial"",""time""
""fullscreenenter"",""1"",""6656""
","
","
","""event"",""trial"",""time""
""fullscreenenter"",""1"",""6656""
","
","","","","","","4006.800000190735","<p> Great! You have completed the practice. </p><p> Before you start, we're going to ask you a few questions about how the game works.  </p>","","0","instructions","","",""
"preload","35","144692","0.0-13.0","7643","approach_avoid_sv1","""event"",""trial"",""time""
""fullscreenenter"",""1"",""6656""
","
","
","""event"",""trial"",""time""
""fullscreenenter"",""1"",""6656""
","
","true","false","[]","[]","[]","","","","","","","",""
"comp-q","36","151539","0.0-14.0-0.0","7643","approach_avoid_sv1","""event"",""trial"",""time""
""fullscreenenter"",""1"",""6656""
","
","
","""event"",""trial"",""time""
""fullscreenenter"",""1"",""6656""
","
","","","","","","1015.1000003814697","<p> <b> True or False? </b> </p><p> In this game, you will only see each image once. </p>","","0","comp_question","","","true"
"comp-q","37","159078","0.0-14.0-1.0","7643","approach_avoid_sv1","""event"",""trial"",""time""
""fullscreenenter"",""1"",""6656""
","
","
","""event"",""trial"",""time""
""fullscreenenter"",""1"",""6656""
","
","","","","","","1203.9000000953674","<p> <b> That's right! </b> You will see many different images <i> one time each </i> in this game. </p>","","0","comp_answer","","",""
"comp-q","38","164989","0.0-15.0-0.0","7643","approach_avoid_sv1","""event"",""trial"",""time""
""fullscreenenter"",""1"",""6656""
","
","
","""event"",""trial"",""time""
""fullscreenenter"",""1"",""6656""
","
","","","","","","895.7999997138977","<p> <b> True or False? </b> </p><p> You should use the mouse and click to make your response. </p>","","1","comp_question","","","true"
"comp-q","39","177738","0.0-15.0-1.0","7643","approach_avoid_sv1","""event"",""trial"",""time""
""fullscreenenter"",""1"",""6656""
","
","
","""event"",""trial"",""time""
""fullscreenenter"",""1"",""6656""
","
","","","","","","6244.5","<p><b> That's right! </b> You should use the '1', '2', '3', and '4' keys to make your response. </p>","","0","comp_answer","","",""
"comp-q","40","184632","0.0-16.0-0.0","7643","approach_avoid_sv1","""event"",""trial"",""time""
""fullscreenenter"",""1"",""6656""
","
","
","""event"",""trial"",""time""
""fullscreenenter"",""1"",""6656""
","
","","","","","","1177.5999999046326","<p> <b> True or False? </b> </p><p> You will have as much time as you want to make each choice. </p>","","1","comp_question","","","true"
"comp-q","41","248502","0.0-16.0-1.0","7643","approach_avoid_sv1","""event"",""trial"",""time""
""fullscreenenter"",""1"",""6656""
","
","
","""event"",""trial"",""time""
""fullscreenenter"",""1"",""6656""
","
","","","","","","59115.800000190735","<p> <b> That's right! </b> You will only have 10 seconds to make each choice. </p>","","0","comp_answer","","",""
"learning-instructions","42","263729","0.0-17.0","7643","approach_avoid_sv1","""event"",""trial"",""time""
""fullscreenenter"",""1"",""6656""
","
","
","""event"",""trial"",""time""
""fullscreenenter"",""1"",""6656""
","
","","","","","","6033.5","<p> Great! You are now ready to begin the game. </p><p> Remember, use the 1, 2, 3, and 4 keys to make your responses. </p>","","0","instructions","","",""
"html-keyboard-response","43","264400","0.0-18.0-0.0","7643","approach_avoid_sv1","""event"",""trial"",""time""
""fullscreenenter"",""1"",""6656""
","
","
","""event"",""trial"",""time""
""fullscreenenter"",""1"",""6656""
","
","","","","","","null","<div style=""font-size:60px;"">+</div>","null","","fixation","","",""
"memory-trial","44","274116","0.0-18.0-1.0","7643","approach_avoid_sv1","""event"",""trial"",""time""
""fullscreenenter"",""1"",""6656""
","
","
","""event"",""trial"",""time""
""fullscreenenter"",""1"",""6656""
","
","","","","","","8679.400000095367","images/apple5.png","","","memory_trial","4","definitely_new",""
"html-keyboard-response","45","274628","0.0-18.0-0.1","7643","approach_avoid_sv1","""event"",""trial"",""time""
""fullscreenenter"",""1"",""6656""
","
","
","""event"",""trial"",""time""
""fullscreenenter"",""1"",""6656""
","
","","","","","","null","<div style=""font-size:60px;"">+</div>","null","","fixation","","",""
"memory-trial","46","278300","0.0-18.0-1.1","7643","approach_avoid_sv1","""event"",""trial"",""time""
""fullscreenenter"",""1"",""6656""
","
","
","""event"",""trial"",""time""
""fullscreenenter"",""1"",""6656""
","
","","","","","","2619.5","images/bed2.png","","","memory_trial","4","definitely_new",""
"html-keyboard-response","47","278848","0.0-18.0-0.2","7643","approach_avoid_sv1","""event"",""trial"",""time""
""fullscreenenter"",""1"",""6656""
","
","
","""event"",""trial"",""time""
""fullscreenenter"",""1"",""6656""
","
","","","","","","null","<div style=""font-size:60px;"">+</div>","null","","fixation","","",""
"memory-trial","48","281961","0.0-18.0-1.2","7643","approach_avoid_sv1","""event"",""trial"",""time""
""fullscreenenter"",""1"",""6656""
","
","
","""event"",""trial"",""time""
""fullscreenenter"",""1"",""6656""
","
","","","","","","2095.800000190735","images/train7.png","","","memory_trial","1","definitely_old",""
"html-keyboard-response","49","282465","0.0-18.0-0.3","7643","approach_avoid_sv1","""event"",""trial"",""time""
""fullscreenenter"",""1"",""6656""
","
","
","""event"",""trial"",""time""
""fullscreenenter"",""1"",""6656""
","
","","","","","","null","<div style=""font-size:60px;"">+</div>","null","","fixation","","",""
"memory-trial","50","284778","0.0-18.0-1.3","7643","approach_avoid_sv1","""event"",""trial"",""time""
""fullscreenenter"",""1"",""6656""
","
","
","""event"",""trial"",""time""
""fullscreenenter"",""1"",""6656""
","
","","","","","","1291.5","images/flower7.png","","","memory_trial","4","definitely_new",""
"html-keyboard-response","51","285307","0.0-18.0-0.4","7643","approach_avoid_sv1","""event"",""trial"",""time""
""fullscreenenter"",""1"",""6656""
","
","
","""event"",""trial"",""time""
""fullscreenenter"",""1"",""6656""
","
","","","","","","null","<div style=""font-size:60px;"">+</div>","null","","fixation","","",""
"memory-trial","52","288790","0.0-18.0-1.4","7643","approach_avoid_sv1","""event"",""trial"",""time""
""fullscreenenter"",""1"",""6656""
","
","
","""event"",""trial"",""time""
""fullscreenenter"",""1"",""6656""
","
","","","","","","2457.5","images/sheep2.png","","","memory_trial","3","maybe_new",""
"html-keyboard-response","53","289304","0.0-18.0-0.5","7643","approach_avoid_sv1","""event"",""trial"",""time""
""fullscreenenter"",""1"",""6656""
","
","
","""event"",""trial"",""time""
""fullscreenenter"",""1"",""6656""
","
","","","","","","null","<div style=""font-size:60px;"">+</div>","null","","fixation","","",""
"memory-trial","54","292364","0.0-18.0-1.5","7643","approach_avoid_sv1","""event"",""trial"",""time""
""fullscreenenter"",""1"",""6656""
","
","
","""event"",""trial"",""time""
""fullscreenenter"",""1"",""6656""
","
","","","","","","2041.1000003814697","images/rodent7.png","","","memory_trial","2","maybe_old",""
"html-keyboard-response","55","292877","0.0-18.0-0.6","7643","approach_avoid_sv1","""event"",""trial"",""time""
""fullscreenenter"",""1"",""6656""
","
","
","""event"",""trial"",""time""
""fullscreenenter"",""1"",""6656""
","
","","","","","","null","<div style=""font-size:60px;"">+</div>","null","","fixation","","",""
"memory-trial","56","295609","0.0-18.0-1.6","7643","approach_avoid_sv1","""event"",""trial"",""time""
""fullscreenenter"",""1"",""6656""
","
","
","""event"",""trial"",""time""
""fullscreenenter"",""1"",""6656""
","
","","","","","","1716.7999997138977","images/banana7.png","","","memory_trial","1","definitely_old",""
"html-keyboard-response","57","296123","0.0-18.0-0.7","7643","approach_avoid_sv1","""event"",""trial"",""time""
""fullscreenenter"",""1"",""6656""
","
","
","""event"",""trial"",""time""
""fullscreenenter"",""1"",""6656""
","
","","","","","","null","<div style=""font-size:60px;"">+</div>","null","","fixation","","",""
"memory-trial","58","299318","0.0-18.0-1.7","7643","approach_avoid_sv1","""event"",""trial"",""time""
""fullscreenenter"",""1"",""6656""
","
","
","""event"",""trial"",""time""
""fullscreenenter"",""1"",""6656""
","
","","","","","","2180.3999996185303","images/chair6.png","","","memory_trial","1","definitely_old",""
"html-keyboard-response","59","299824","0.0-18.0-0.8","7643","approach_avoid_sv1","""event"",""trial"",""time""
""fullscreenenter"",""1"",""6656""
","
","
","""event"",""trial"",""time""
""fullscreenenter"",""1"",""6656""
","
","","","","","","null","<div style=""font-size:60px;"">+</div>","null","","fixation","","",""
"memory-trial","60","302663","0.0-18.0-1.8","7643","approach_avoid_sv1","""event"",""trial"",""time""
""fullscreenenter"",""1"",""6656""
","
","
","""event"",""trial"",""time""
""fullscreenenter"",""1"",""6656""
","
","","","","","","1822.3000001907349","images/tree1.png","","","memory_trial","1","definitely_old",""
"html-keyboard-response","61","303177","0.0-18.0-0.9","7643","approach_avoid_sv1","""event"",""trial"",""time""
""fullscreenenter"",""1"",""6656""
","
","
","""event"",""trial"",""time""
""fullscreenenter"",""1"",""6656""
","
","","","","","","null","<div style=""font-size:60px;"">+</div>","null","","fixation","","",""
"memory-trial","62","305731","0.0-18.0-1.9","7643","approach_avoid_sv1","""event"",""trial"",""time""
""fullscreenenter"",""1"",""6656""
","
","
","""event"",""trial"",""time""
""fullscreenenter"",""1"",""6656""
","
","","","","","","1539.3000001907349","images/rabbit6.png","","","memory_trial","3","maybe_new",""
"html-keyboard-response","63","306243","0.0-18.0-0.10","7643","approach_avoid_sv1","""event"",""trial"",""time""
""fullscreenenter"",""1"",""6656""
","
","
","""event"",""trial"",""time""
""fullscreenenter"",""1"",""6656""
","
","","","","","","null","<div style=""font-size:60px;"">+</div>","null","","fixation","","",""
"memory-trial","64","309358","0.0-18.0-1.10","7643","approach_avoid_sv1","""event"",""trial"",""time""
""fullscreenenter"",""1"",""6656""
","
","
","""event"",""trial"",""time""
""fullscreenenter"",""1"",""6656""
","
","","","","","","2101.0999999046326","images/bush4.png","","","memory_trial","2","maybe_old",""
"html-keyboard-response","65","309864","0.0-18.0-0.11","7643","approach_avoid_sv1","""event"",""trial"",""time""
""fullscreenenter"",""1"",""6656""
","
","
","""event"",""trial"",""time""
""fullscreenenter"",""1"",""6656""
","
","","","","","","null","<div style=""font-size:60px;"">+</div>","null","","fixation","","",""
"memory-trial","66","313719","0.0-18.0-1.11","7643","approach_avoid_sv1","""event"",""trial"",""time""
""fullscreenenter"",""1"",""6656""
","
","
","""event"",""trial"",""time""
""fullscreenenter"",""1"",""6656""
","
","","","","","","2838.4000000953674","images/apple4.png","","","memory_trial","1","definitely_old",""
"html-keyboard-response","67","314235","0.0-18.0-0.12","7643","approach_avoid_sv1","""event"",""trial"",""time""
""fullscreenenter"",""1"",""6656""
","
","
","""event"",""trial"",""time""
""fullscreenenter"",""1"",""6656""
","
","","","","","","null","<div style=""font-size:60px;"">+</div>","null","","fixation","","",""
"memory-trial","68","317506","0.0-18.0-1.12","7643","approach_avoid_sv1","""event"",""trial"",""time""
""fullscreenenter"",""1"",""6656""
","
","
","""event"",""trial"",""time""
""fullscreenenter"",""1"",""6656""
","
","","","","","","2255.5","images/goat7.png","","","memory_trial","1","definitely_old",""
"html-keyboard-response","69","318018","0.0-18.0-0.13","7643","approach_avoid_sv1","""event"",""trial"",""time""
""fullscreenenter"",""1"",""6656""
","
","
","""event"",""trial"",""time""
""fullscreenenter"",""1"",""6656""
","
","","","","","","null","<div style=""font-size:60px;"">+</div>","null","","fixation","","",""
"memory-trial","70","320667","0.0-18.0-1.13","7643","approach_avoid_sv1","""event"",""trial"",""time""
""fullscreenenter"",""1"",""6656""
","
","
","""event"",""trial"",""time""
""fullscreenenter"",""1"",""6656""
","
","","","","","","1635.3000001907349","images/train2.png","","","memory_trial","4","definitely_new",""
"html-keyboard-response","71","321178","0.0-18.0-0.14","7643","approach_avoid_sv1","""event"",""trial"",""time""
""fullscreenenter"",""1"",""6656""
","
","
","""event"",""trial"",""time""
""fullscreenenter"",""1"",""6656""
","
","","","","","","null","<div style=""font-size:60px;"">+</div>","null","","fixation","","",""
"memory-trial","72","323617","0.0-18.0-1.14","7643","approach_avoid_sv1","""event"",""trial"",""time""
""fullscreenenter"",""1"",""6656""
","
","
","""event"",""trial"",""time""
""fullscreenenter"",""1"",""6656""
","
","","","","","","1424.8000001907349","images/rabbit5.png","","","memory_trial","1","definitely_old",""
"html-keyboard-response","73","324126","0.0-18.0-0.15","7643","approach_avoid_sv1","""event"",""trial"",""time""
""fullscreenenter"",""1"",""6656""
","
","
","""event"",""trial"",""time""
""fullscreenenter"",""1"",""6656""
","
","","","","","","null","<div style=""font-size:60px;"">+</div>","null","","fixation","","",""
"memory-trial","74","326382","0.0-18.0-1.15","7643","approach_avoid_sv1","""event"",""trial"",""time""
""fullscreenenter"",""1"",""6656""
","
","
","""event"",""trial"",""time""
""fullscreenenter"",""1"",""6656""
","
","","","","","","1244.0999999046326","images/cactus1.png","","","memory_trial","1","definitely_old",""
"html-keyboard-response","75","326886","0.0-18.0-0.16","7643","approach_avoid_sv1","""event"",""trial"",""time""
""fullscreenenter"",""1"",""6656""
","
","
","""event"",""trial"",""time""
""fullscreenenter"",""1"",""6656""
","
","","","","","","null","<div style=""font-size:60px;"">+</div>","null","","fixation","","",""
"memory-trial","76","329262","0.0-18.0-1.16","7643","approach_avoid_sv1","""event"",""trial"",""time""
""fullscreenenter"",""1"",""6656""
","
","
","""event"",""trial"",""time""
""fullscreenenter"",""1"",""6656""
","
","","","","","","1367.5","images/tree8.png","","","memory_trial","1","definitely_old",""
"html-keyboard-response","77","329766","0.0-18.0-0.17","7643","approach_avoid_sv1","""event"",""trial"",""time""
""fullscreenenter"",""1"",""6656""
","
","
","""event"",""trial"",""time""
""fullscreenenter"",""1"",""6656""
","
","","","","","","null","<div style=""font-size:60px;"">+</div>","null","","fixation","","",""
"memory-trial","78","332703","0.0-18.0-1.17","7643","approach_avoid_sv1","""event"",""trial"",""time""
""fullscreenenter"",""1"",""6656""
","
","
","""event"",""trial"",""time""
""fullscreenenter"",""1"",""6656""
","
","","","","","","1924.6999998092651","images/rabbit7.png","","","memory_trial","2","maybe_old",""
"html-keyboard-response","79","333213","0.0-18.0-0.18","7643","approach_avoid_sv1","""event"",""trial"",""time""
""fullscreenenter"",""1"",""6656""
","
","
","""event"",""trial"",""time""
""fullscreenenter"",""1"",""6656""
","
","","","","","","null","<div style=""font-size:60px;"">+</div>","null","","fixation","","",""
"memory-trial","80","335527","0.0-18.0-1.18","7643","approach_avoid_sv1","""event"",""trial"",""time""
""fullscreenenter"",""1"",""6656""
","
","
","""event"",""trial"",""time""
""fullscreenenter"",""1"",""6656""
","
","","","","","","1299.5999999046326","images/tree5.png","","","memory_trial","4","definitely_new",""
"html-keyboard-response","81","336037","0.0-18.0-0.19","7643","approach_avoid_sv1","""event"",""trial"",""time""
""fullscreenenter"",""1"",""6656""
","
","
","""event"",""trial"",""time""
""fullscreenenter"",""1"",""6656""
","
","","","","","","null","<div style=""font-size:60px;"">+</div>","null","","fixation","","",""
"memory-trial","82","338478","0.0-18.0-1.19","7643","approach_avoid_sv1","""event"",""trial"",""time""
""fullscreenenter"",""1"",""6656""
","
","
","""event"",""trial"",""time""
""fullscreenenter"",""1"",""6656""
","
","","","","","","1430","images/table7.png","","","memory_trial","1","definitely_old",""
"html-keyboard-response","83","338981","0.0-18.0-0.20","7643","approach_avoid_sv1","""event"",""trial"",""time""
""fullscreenenter"",""1"",""6656""
","
","
","""event"",""trial"",""time""
""fullscreenenter"",""1"",""6656""
","
","","","","","","null","<div style=""font-size:60px;"">+</div>","null","","fixation","","",""
"memory-trial","84","340874","0.0-18.0-1.20","7643","approach_avoid_sv1","""event"",""trial"",""time""
""fullscreenenter"",""1"",""6656""
","
","
","""event"",""trial"",""time""
""fullscreenenter"",""1"",""6656""
","
","","","","","","873.2999997138977","images/chair7.png","","","memory_trial","1","definitely_old",""
"html-keyboard-response","85","341385","0.0-18.0-0.21","7643","approach_avoid_sv1","""event"",""trial"",""time""
""fullscreenenter"",""1"",""6656""
","
","
","""event"",""trial"",""time""
""fullscreenenter"",""1"",""6656""
","
","","","","","","null","<div style=""font-size:60px;"">+</div>","null","","fixation","","",""
"memory-trial","86","343667","0.0-18.0-1.21","7643","approach_avoid_sv1","""event"",""trial"",""time""
""fullscreenenter"",""1"",""6656""
","
","
","""event"",""trial"",""time""
""fullscreenenter"",""1"",""6656""
","
","","","","","","1269.0999999046326","images/straw8.png","","","memory_trial","1","definitely_old",""
"html-keyboard-response","87","344184","0.0-18.0-0.22","7643","approach_avoid_sv1","""event"",""trial"",""time""
""fullscreenenter"",""1"",""6656""
","
","
","""event"",""trial"",""time""
""fullscreenenter"",""1"",""6656""
","
","","","","","","null","<div style=""font-size:60px;"">+</div>","null","","fixation","","",""
"memory-trial","88","346207","0.0-18.0-1.22","7643","approach_avoid_sv1","""event"",""trial"",""time""
""fullscreenenter"",""1"",""6656""
","
","
","""event"",""trial"",""time""
""fullscreenenter"",""1"",""6656""
","
","","","","","","1015.1999998092651","images/banana3.png","","","memory_trial","1","definitely_old",""
"html-keyboard-response","89","346712","0.0-18.0-0.23","7643","approach_avoid_sv1","""event"",""trial"",""time""
""fullscreenenter"",""1"",""6656""
","
","
","""event"",""trial"",""time""
""fullscreenenter"",""1"",""6656""
","
","","","","","","null","<div style=""font-size:60px;"">+</div>","null","","fixation","","",""
"memory-trial","90","348953","0.0-18.0-1.23","7643","approach_avoid_sv1","""event"",""trial"",""time""
""fullscreenenter"",""1"",""6656""
","
","
","""event"",""trial"",""time""
""fullscreenenter"",""1"",""6656""
","
","","","","","","1231","images/bed6.png","","","memory_trial","4","definitely_new",""
"html-keyboard-response","91","349463","0.0-18.0-0.24","7643","approach_avoid_sv1","""event"",""trial"",""time""
""fullscreenenter"",""1"",""6656""
","
","
","""event"",""trial"",""time""
""fullscreenenter"",""1"",""6656""
","
","","","","","","null","<div style=""font-size:60px;"">+</div>","null","","fixation","","",""
"memory-trial","92","351782","0.0-18.0-1.24","7643","approach_avoid_sv1","""event"",""trial"",""time""
""fullscreenenter"",""1"",""6656""
","
","
","""event"",""trial"",""time""
""fullscreenenter"",""1"",""6656""
","
","","","","","","1302.8000001907349","images/truck8.png","","","memory_trial","1","definitely_old",""
"html-keyboard-response","93","352286","0.0-18.0-0.25","7643","approach_avoid_sv1","""event"",""trial"",""time""
""fullscreenenter"",""1"",""6656""
","
","
","""event"",""trial"",""time""
""fullscreenenter"",""1"",""6656""
","
","","","","","","null","<div style=""font-size:60px;"">+</div>","null","","fixation","","",""
"memory-trial","94","354669","0.0-18.0-1.25","7643","approach_avoid_sv1","""event"",""trial"",""time""
""fullscreenenter"",""1"",""6656""
","
","
","""event"",""trial"",""time""
""fullscreenenter"",""1"",""6656""
","
","","","","","","1370.7999997138977","images/truck2.png","","","memory_trial","2","maybe_old",""
"html-keyboard-response","95","355174","0.0-18.0-0.26","7643","approach_avoid_sv1","""event"",""trial"",""time""
""fullscreenenter"",""1"",""6656""
","
","
","""event"",""trial"",""time""
""fullscreenenter"",""1"",""6656""
","
","","","","","","null","<div style=""font-size:60px;"">+</div>","null","","fixation","","",""
"memory-trial","96","357803","0.0-18.0-1.26","7643","approach_avoid_sv1","""event"",""trial"",""time""
""fullscreenenter"",""1"",""6656""
","
","
","""event"",""trial"",""time""
""fullscreenenter"",""1"",""6656""
","
","","","","","","1616.6999998092651","images/bush2.png","","","memory_trial","3","maybe_new",""
"html-keyboard-response","97","358310","0.0-18.0-0.27","7643","approach_avoid_sv1","""event"",""trial"",""time""
""fullscreenenter"",""1"",""6656""
","
","
","""event"",""trial"",""time""
""fullscreenenter"",""1"",""6656""
","
","","","","","","null","<div style=""font-size:60px;"">+</div>","null","","fixation","","",""
"memory-trial","98","361809","0.0-18.0-1.27","7643","approach_avoid_sv1","""event"",""trial"",""time""
""fullscreenenter"",""1"",""6656""
","
","
","""event"",""trial"",""time""
""fullscreenenter"",""1"",""6656""
","
","","","","","","2488.199999809265","images/table8.png","","","memory_trial","3","maybe_new",""
"html-keyboard-response","99","362320","0.0-18.0-0.28","7643","approach_avoid_sv1","""event"",""trial"",""time""
""fullscreenenter"",""1"",""6656""
","
","
","""event"",""trial"",""time""
""fullscreenenter"",""1"",""6656""
","
","","","","","","null","<div style=""font-size:60px;"">+</div>","null","","fixation","","",""
"memory-trial","100","364623","0.0-18.0-1.28","7643","approach_avoid_sv1","""event"",""trial"",""time""
""fullscreenenter"",""1"",""6656""
","
","
","""event"",""trial"",""time""
""fullscreenenter"",""1"",""6656""
","
","","","","","","1291.5","images/sheep4.png","","","memory_trial","3","maybe_new",""
"html-keyboard-response","101","365131","0.0-18.0-0.29","7643","approach_avoid_sv1","""event"",""trial"",""time""
""fullscreenenter"",""1"",""6656""
","
","
","""event"",""trial"",""time""
""fullscreenenter"",""1"",""6656""
","
","","","","","","null","<div style=""font-size:60px;"">+</div>","null","","fixation","","",""
"memory-trial","102","367848","0.0-18.0-1.29","7643","approach_avoid_sv1","""event"",""trial"",""time""
""fullscreenenter"",""1"",""6656""
","
","
","""event"",""trial"",""time""
""fullscreenenter"",""1"",""6656""
","
","","","","","","1701.9000000953674","images/truck5.png","","","memory_trial","1","definitely_old",""
"html-keyboard-response","103","368358","0.0-18.0-0.30","7643","approach_avoid_sv1","""event"",""trial"",""time""
""fullscreenenter"",""1"",""6656""
","
","
","""event"",""trial"",""time""
""fullscreenenter"",""1"",""6656""
","
","","","","","","null","<div style=""font-size:60px;"">+</div>","null","","fixation","","",""
"memory-trial","104","371616","0.0-18.0-1.30","7643","approach_avoid_sv1","""event"",""trial"",""time""
""fullscreenenter"",""1"",""6656""
","
","
","""event"",""trial"",""time""
""fullscreenenter"",""1"",""6656""
","
","","","","","","2246.4000000953674","images/sheep1.png","","","memory_trial","2","maybe_old",""
"html-keyboard-response","105","372134","0.0-18.0-0.31","7643","approach_avoid_sv1","""event"",""trial"",""time""
""fullscreenenter"",""1"",""6656""
","
","
","""event"",""trial"",""time""
""fullscreenenter"",""1"",""6656""
","
","","","","","","null","<div style=""font-size:60px;"">+</div>","null","","fixation","","",""
"memory-trial","106","375432","0.0-18.0-1.31","7643","approach_avoid_sv1","""event"",""trial"",""time""
""fullscreenenter"",""1"",""6656""
","
","
","""event"",""trial"",""time""
""fullscreenenter"",""1"",""6656""
","
","","","","","","2283.300000190735","images/straw4.png","","","memory_trial","2","maybe_old",""
"html-keyboard-response","107","375948","0.0-18.0-0.32","7643","approach_avoid_sv1","""event"",""trial"",""time""
""fullscreenenter"",""1"",""6656""
","
","
","""event"",""trial"",""time""
""fullscreenenter"",""1"",""6656""
","
","","","","","","null","<div style=""font-size:60px;"">+</div>","null","","fixation","","",""
"memory-trial","108","378598","0.0-18.0-1.32","7643","approach_avoid_sv1","""event"",""trial"",""time""
""fullscreenenter"",""1"",""6656""
","
","
","""event"",""trial"",""time""
""fullscreenenter"",""1"",""6656""
","
","","","","","","1642.1999998092651","images/flower2.png","","","memory_trial","4","definitely_new",""
"html-keyboard-response","109","379102","0.0-18.0-0.33","7643","approach_avoid_sv1","""event"",""trial"",""time""
""fullscreenenter"",""1"",""6656""
","
","
","""event"",""trial"",""time""
""fullscreenenter"",""1"",""6656""
","
","","","","","","null","<div style=""font-size:60px;"">+</div>","null","","fixation","","",""
"memory-trial","110","382154","0.0-18.0-1.33","7643","approach_avoid_sv1","""event"",""trial"",""time""
""fullscreenenter"",""1"",""6656""
","
","
","""event"",""trial"",""time""
""fullscreenenter"",""1"",""6656""
","
","","","","","","2032.8000001907349","images/cat5.png","","","memory_trial","4","definitely_new",""
"html-keyboard-response","111","382662","0.0-18.0-0.34","7643","approach_avoid_sv1","""event"",""trial"",""time""
""fullscreenenter"",""1"",""6656""
","
","
","""event"",""trial"",""time""
""fullscreenenter"",""1"",""6656""
","
","","","","","","null","<div style=""font-size:60px;"">+</div>","null","","fixation","","",""
"memory-trial","112","384589","0.0-18.0-1.34","7643","approach_avoid_sv1","""event"",""trial"",""time""
""fullscreenenter"",""1"",""6656""
","
","
","""event"",""trial"",""time""
""fullscreenenter"",""1"",""6656""
","
","","","","","","922.3000001907349","images/flower1.png","","","memory_trial","4","definitely_new",""
"html-keyboard-response","113","385099","0.0-18.0-0.35","7643","approach_avoid_sv1","""event"",""trial"",""time""
""fullscreenenter"",""1"",""6656""
","
","
","""event"",""trial"",""time""
""fullscreenenter"",""1"",""6656""
","
","","","","","","null","<div style=""font-size:60px;"">+</div>","null","","fixation","","",""
"memory-trial","114","387048","0.0-18.0-1.35","7643","approach_avoid_sv1","""event"",""trial"",""time""
""fullscreenenter"",""1"",""6656""
","
","
","""event"",""trial"",""time""
""fullscreenenter"",""1"",""6656""
","
","","","","","","934","images/banana6.png","","","memory_trial","1","definitely_old",""
"html-keyboard-response","115","387558","0.0-18.0-0.36","7643","approach_avoid_sv1","""event"",""trial"",""time""
""fullscreenenter"",""1"",""6656""
","
","
","""event"",""trial"",""time""
""fullscreenenter"",""1"",""6656""
","
","","","","","","null","<div style=""font-size:60px;"">+</div>","null","","fixation","","",""
"memory-trial","116","389622","0.0-18.0-1.36","7643","approach_avoid_sv1","""event"",""trial"",""time""
""fullscreenenter"",""1"",""6656""
","
","
","""event"",""trial"",""time""
""fullscreenenter"",""1"",""6656""
","
","","","","","","1048.3999996185303","images/bed8.png","","","memory_trial","3","maybe_new",""
"html-keyboard-response","117","390126","0.0-18.0-0.37","7643","approach_avoid_sv1","""event"",""trial"",""time""
""fullscreenenter"",""1"",""6656""
","
","
","""event"",""trial"",""time""
""fullscreenenter"",""1"",""6656""
","
","","","","","","null","<div style=""font-size:60px;"">+</div>","null","","fixation","","",""
"memory-trial","118","392734","0.0-18.0-1.37","7643","approach_avoid_sv1","""event"",""trial"",""time""
""fullscreenenter"",""1"",""6656""
","
","
","""event"",""trial"",""time""
""fullscreenenter"",""1"",""6656""
","
","","","","","","1601.2999997138977","images/rodent3.png","","","memory_trial","3","maybe_new",""
"html-keyboard-response","119","393238","0.0-18.0-0.38","7643","approach_avoid_sv1","""event"",""trial"",""time""
""fullscreenenter"",""1"",""6656""
","
","
","""event"",""trial"",""time""
""fullscreenenter"",""1"",""6656""
","
","","","","","","null","<div style=""font-size:60px;"">+</div>","null","","fixation","","",""
"memory-trial","120","395590","0.0-18.0-1.38","7643","approach_avoid_sv1","""event"",""trial"",""time""
""fullscreenenter"",""1"",""6656""
","
","
","""event"",""trial"",""time""
""fullscreenenter"",""1"",""6656""
","
","","","","","","1342.2000002861023","images/sofa5.png","","","memory_trial","1","definitely_old",""
"html-keyboard-response","121","396094","0.0-18.0-0.39","7643","approach_avoid_sv1","""event"",""trial"",""time""
""fullscreenenter"",""1"",""6656""
","
","
","""event"",""trial"",""time""
""fullscreenenter"",""1"",""6656""
","
","","","","","","null","<div style=""font-size:60px;"">+</div>","null","","fixation","","",""
"memory-trial","122","398678","0.0-18.0-1.39","7643","approach_avoid_sv1","""event"",""trial"",""time""
""fullscreenenter"",""1"",""6656""
","
","
","""event"",""trial"",""time""
""fullscreenenter"",""1"",""6656""
","
","","","","","","1575.8000001907349","images/banana1.png","","","memory_trial","1","definitely_old",""
"html-keyboard-response","123","399181","0.0-18.0-0.40","7643","approach_avoid_sv1","""event"",""trial"",""time""
""fullscreenenter"",""1"",""6656""
","
","
","""event"",""trial"",""time""
""fullscreenenter"",""1"",""6656""
","
","","","","","","null","<div style=""font-size:60px;"">+</div>","null","","fixation","","",""
"memory-trial","124","401910","0.0-18.0-1.40","7643","approach_avoid_sv1","""event"",""trial"",""time""
""fullscreenenter"",""1"",""6656""
","
","
","""event"",""trial"",""time""
""fullscreenenter"",""1"",""6656""
","
","","","","","","1715.2999997138977","images/plane6.png","","","memory_trial","1","definitely_old",""
"html-keyboard-response","125","402415","0.0-18.0-0.41","7643","approach_avoid_sv1","""event"",""trial"",""time""
""fullscreenenter"",""1"",""6656""
","
","
","""event"",""trial"",""time""
""fullscreenenter"",""1"",""6656""
","
","","","","","","null","<div style=""font-size:60px;"">+</div>","null","","fixation","","",""
"memory-trial","126","405071","0.0-18.0-1.41","7643","approach_avoid_sv1","""event"",""trial"",""time""
""fullscreenenter"",""1"",""6656""
","
","
","""event"",""trial"",""time""
""fullscreenenter"",""1"",""6656""
","
","","","","","","1643.3000001907349","images/horse6.png","","","memory_trial","4","definitely_new",""
"html-button-response","127","409191","0.0-18.0-2.41-0.41","7643","approach_avoid_sv1","""event"",""trial"",""time""
""fullscreenenter"",""1"",""6656""
","
","
","""event"",""trial"",""time""
""fullscreenenter"",""1"",""6656""
","
","","","","","","4117.199999809265","<p> Take a break! </p><p> Click the button to continue. </p>","0","","break","","",""
"html-keyboard-response","128","409695","0.0-18.0-0.42","7643","approach_avoid_sv1","""event"",""trial"",""time""
""fullscreenenter"",""1"",""6656""
","
","
","""event"",""trial"",""time""
""fullscreenenter"",""1"",""6656""
","
","","","","","","null","<div style=""font-size:60px;"">+</div>","null","","fixation","","",""
"memory-trial","129","411750","0.0-18.0-1.42","7643","approach_avoid_sv1","""event"",""trial"",""time""
""fullscreenenter"",""1"",""6656""
","
","
","""event"",""trial"",""time""
""fullscreenenter"",""1"",""6656""
","
","","","","","","1040.5999999046326","images/apple2.png","","","memory_trial","1","definitely_old",""
"html-keyboard-response","130","412253","0.0-18.0-0.43","7643","approach_avoid_sv1","""event"",""trial"",""time""
""fullscreenenter"",""1"",""6656""
","
","
","""event"",""trial"",""time""
""fullscreenenter"",""1"",""6656""
","
","","","","","","null","<div style=""font-size:60px;"">+</div>","null","","fixation","","",""
"memory-trial","131","414222","0.0-18.0-1.43","7643","approach_avoid_sv1","""event"",""trial"",""time""
""fullscreenenter"",""1"",""6656""
","
","
","""event"",""trial"",""time""
""fullscreenenter"",""1"",""6656""
","
","","","","","","957.4000000953674","images/cat3.png","","","memory_trial","4","definitely_new",""
"html-keyboard-response","132","414727","0.0-18.0-0.44","7643","approach_avoid_sv1","""event"",""trial"",""time""
""fullscreenenter"",""1"",""6656""
","
","
","""event"",""trial"",""time""
""fullscreenenter"",""1"",""6656""
","
","","","","","","null","<div style=""font-size:60px;"">+</div>","null","","fixation","","",""
"memory-trial","133","418671","0.0-18.0-1.44","7643","approach_avoid_sv1","""event"",""trial"",""time""
""fullscreenenter"",""1"",""6656""
","
","
","""event"",""trial"",""time""
""fullscreenenter"",""1"",""6656""
","
","","","","","","2933.9000000953674","images/plane3.png","","","memory_trial","4","definitely_new",""
"html-keyboard-response","134","419181","0.0-18.0-0.45","7643","approach_avoid_sv1","""event"",""trial"",""time""
""fullscreenenter"",""1"",""6656""
","
","
","""event"",""trial"",""time""
""fullscreenenter"",""1"",""6656""
","
","","","","","","null","<div style=""font-size:60px;"">+</div>","null","","fixation","","",""
"memory-trial","135","421943","0.0-18.0-1.45","7643","approach_avoid_sv1","""event"",""trial"",""time""
""fullscreenenter"",""1"",""6656""
","
","
","""event"",""trial"",""time""
""fullscreenenter"",""1"",""6656""
","
","","","","","","1746.3000001907349","images/rodent1.png","","","memory_trial","1","definitely_old",""
"html-keyboard-response","136","422454","0.0-18.0-0.46","7643","approach_avoid_sv1","""event"",""trial"",""time""
""fullscreenenter"",""1"",""6656""
","
","
","""event"",""trial"",""time""
""fullscreenenter"",""1"",""6656""
","
","","","","","","null","<div style=""font-size:60px;"">+</div>","null","","fixation","","",""
"memory-trial","137","427175","0.0-18.0-1.46","7643","approach_avoid_sv1","""event"",""trial"",""time""
""fullscreenenter"",""1"",""6656""
","
","
","""event"",""trial"",""time""
""fullscreenenter"",""1"",""6656""
","
","","","","","","3712.0999999046326","images/goat5.png","","","memory_trial","1","definitely_old",""
"html-keyboard-response","138","427679","0.0-18.0-0.47","7643","approach_avoid_sv1","""event"",""trial"",""time""
""fullscreenenter"",""1"",""6656""
","
","
","""event"",""trial"",""time""
""fullscreenenter"",""1"",""6656""
","
","","","","","","null","<div style=""font-size:60px;"">+</div>","null","","fixation","","",""
"memory-trial","139","429585","0.0-18.0-1.47","7643","approach_avoid_sv1","""event"",""trial"",""time""
""fullscreenenter"",""1"",""6656""
","
","
","""event"",""trial"",""time""
""fullscreenenter"",""1"",""6656""
","
","","","","","","891.3000001907349","images/banana4.png","","","memory_trial","1","definitely_old",""
"html-keyboard-response","140","430095","0.0-18.0-0.48","7643","approach_avoid_sv1","""event"",""trial"",""time""
""fullscreenenter"",""1"",""6656""
","
","
","""event"",""trial"",""time""
""fullscreenenter"",""1"",""6656""
","
","","","","","","null","<div style=""font-size:60px;"">+</div>","null","","fixation","","",""
"memory-trial","141","433065","0.0-18.0-1.48","7643","approach_avoid_sv1","""event"",""trial"",""time""
""fullscreenenter"",""1"",""6656""
","
","
","""event"",""trial"",""time""
""fullscreenenter"",""1"",""6656""
","
","","","","","","1954","images/train8.png","","","memory_trial","4","definitely_new",""
"html-keyboard-response","142","433574","0.0-18.0-0.49","7643","approach_avoid_sv1","""event"",""trial"",""time""
""fullscreenenter"",""1"",""6656""
","
","
","""event"",""trial"",""time""
""fullscreenenter"",""1"",""6656""
","
","","","","","","null","<div style=""font-size:60px;"">+</div>","null","","fixation","","",""
"memory-trial","143","436838","0.0-18.0-1.49","7643","approach_avoid_sv1","""event"",""trial"",""time""
""fullscreenenter"",""1"",""6656""
","
","
","""event"",""trial"",""time""
""fullscreenenter"",""1"",""6656""
","
","","","","","","2253.5999999046326","images/goat2.png","","","memory_trial","2","maybe_old",""
"html-keyboard-response","144","437342","0.0-18.0-0.50","7643","approach_avoid_sv1","""event"",""trial"",""time""
""fullscreenenter"",""1"",""6656""
","
","
","""event"",""trial"",""time""
""fullscreenenter"",""1"",""6656""
","
","","","","","","null","<div style=""font-size:60px;"">+</div>","null","","fixation","","",""
"memory-trial","145","439031","0.0-18.0-1.50","7643","approach_avoid_sv1","""event"",""trial"",""time""
""fullscreenenter"",""1"",""6656""
","
","
","""event"",""trial"",""time""
""fullscreenenter"",""1"",""6656""
","
","","","","","","680.5999999046326","images/orange5.png","","","memory_trial","1","definitely_old",""
"html-keyboard-response","146","439535","0.0-18.0-0.51","7643","approach_avoid_sv1","""event"",""trial"",""time""
""fullscreenenter"",""1"",""6656""
","
","
","""event"",""trial"",""time""
""fullscreenenter"",""1"",""6656""
","
","","","","","","null","<div style=""font-size:60px;"">+</div>","null","","fixation","","",""
"memory-trial","147","441751","0.0-18.0-1.51","7643","approach_avoid_sv1","""event"",""trial"",""time""
""fullscreenenter"",""1"",""6656""
","
","
","""event"",""trial"",""time""
""fullscreenenter"",""1"",""6656""
","
","","","","","","1206.9000000953674","images/bush1.png","","","memory_trial","1","definitely_old",""
"html-keyboard-response","148","442254","0.0-18.0-0.52","7643","approach_avoid_sv1","""event"",""trial"",""time""
""fullscreenenter"",""1"",""6656""
","
","
","""event"",""trial"",""time""
""fullscreenenter"",""1"",""6656""
","
","","","","","","null","<div style=""font-size:60px;"">+</div>","null","","fixation","","",""
"memory-trial","149","444095","0.0-18.0-1.52","7643","approach_avoid_sv1","""event"",""trial"",""time""
""fullscreenenter"",""1"",""6656""
","
","
","""event"",""trial"",""time""
""fullscreenenter"",""1"",""6656""
","
","","","","","","830.5999999046326","images/cactus2.png","","","memory_trial","1","definitely_old",""
"html-keyboard-response","150","444598","0.0-18.0-0.53","7643","approach_avoid_sv1","""event"",""trial"",""time""
""fullscreenenter"",""1"",""6656""
","
","
","""event"",""trial"",""time""
""fullscreenenter"",""1"",""6656""
","
","","","","","","null","<div style=""font-size:60px;"">+</div>","null","","fixation","","",""
"memory-trial","151","448263","0.0-18.0-1.53","7643","approach_avoid_sv1","""event"",""trial"",""time""
""fullscreenenter"",""1"",""6656""
","
","
","""event"",""trial"",""time""
""fullscreenenter"",""1"",""6656""
","
","","","","","","2654.5","images/truck4.png","","","memory_trial","4","definitely_new",""
"html-keyboard-response","152","448774","0.0-18.0-0.54","7643","approach_avoid_sv1","""event"",""trial"",""time""
""fullscreenenter"",""1"",""6656""
","
","
","""event"",""trial"",""time""
""fullscreenenter"",""1"",""6656""
","
","","","","","","null","<div style=""font-size:60px;"">+</div>","null","","fixation","","",""
"memory-trial","153","450591","0.0-18.0-1.54","7643","approach_avoid_sv1","""event"",""trial"",""time""
""fullscreenenter"",""1"",""6656""
","
","
","""event"",""trial"",""time""
""fullscreenenter"",""1"",""6656""
","
","","","","","","803.9000000953674","images/cactus7.png","","","memory_trial","1","definitely_old",""
"html-keyboard-response","154","451094","0.0-18.0-0.55","7643","approach_avoid_sv1","""event"",""trial"",""time""
""fullscreenenter"",""1"",""6656""
","
","
","""event"",""trial"",""time""
""fullscreenenter"",""1"",""6656""
","
","","","","","","null","<div style=""font-size:60px;"">+</div>","null","","fixation","","",""
"memory-trial","155","453198","0.0-18.0-1.55","7643","approach_avoid_sv1","""event"",""trial"",""time""
""fullscreenenter"",""1"",""6656""
","
","
","""event"",""trial"",""time""
""fullscreenenter"",""1"",""6656""
","
","","","","","","1075.4000000953674","images/sheep7.png","","","memory_trial","3","maybe_new",""
"html-keyboard-response","156","453717","0.0-18.0-0.56","7643","approach_avoid_sv1","""event"",""trial"",""time""
""fullscreenenter"",""1"",""6656""
","
","
","""event"",""trial"",""time""
""fullscreenenter"",""1"",""6656""
","
","","","","","","null","<div style=""font-size:60px;"">+</div>","null","","fixation","","",""
"memory-trial","157","458223","0.0-18.0-1.56","7643","approach_avoid_sv1","""event"",""trial"",""time""
""fullscreenenter"",""1"",""6656""
","
","
","""event"",""trial"",""time""
""fullscreenenter"",""1"",""6656""
","
","","","","","","3487.0999999046326","images/sofa4.png","","","memory_trial","1","definitely_old",""
"html-keyboard-response","158","458726","0.0-18.0-0.57","7643","approach_avoid_sv1","""event"",""trial"",""time""
""fullscreenenter"",""1"",""6656""
","
","
","""event"",""trial"",""time""
""fullscreenenter"",""1"",""6656""
","
","","","","","","null","<div style=""font-size:60px;"">+</div>","null","","fixation","","",""
"memory-trial","159","461207","0.0-18.0-1.57","7643","approach_avoid_sv1","""event"",""trial"",""time""
""fullscreenenter"",""1"",""6656""
","
","
","""event"",""trial"",""time""
""fullscreenenter"",""1"",""6656""
","
","","","","","","1467.0999999046326","images/table4.png","","","memory_trial","1","definitely_old",""
"html-keyboard-response","160","461710","0.0-18.0-0.58","7643","approach_avoid_sv1","""event"",""trial"",""time""
""fullscreenenter"",""1"",""6656""
","
","
","""event"",""trial"",""time""
""fullscreenenter"",""1"",""6656""
","
","","","","","","null","<div style=""font-size:60px;"">+</div>","null","","fixation","","",""
"memory-trial","161","464238","0.0-18.0-1.58","7643","approach_avoid_sv1","""event"",""trial"",""time""
""fullscreenenter"",""1"",""6656""
","
","
","""event"",""trial"",""time""
""fullscreenenter"",""1"",""6656""
","
","","","","","","1519","images/cat4.png","","","memory_trial","4","definitely_new",""
"html-keyboard-response","162","464742","0.0-18.0-0.59","7643","approach_avoid_sv1","""event"",""trial"",""time""
""fullscreenenter"",""1"",""6656""
","
","
","""event"",""trial"",""time""
""fullscreenenter"",""1"",""6656""
","
","","","","","","null","<div style=""font-size:60px;"">+</div>","null","","fixation","","",""
"memory-trial","163","467503","0.0-18.0-1.59","7643","approach_avoid_sv1","""event"",""trial"",""time""
""fullscreenenter"",""1"",""6656""
","
","
","""event"",""trial"",""time""
""fullscreenenter"",""1"",""6656""
","
","","","","","","1751.5","images/rodent4.png","","","memory_trial","4","definitely_new",""
"html-keyboard-response","164","468007","0.0-18.0-0.60","7643","approach_avoid_sv1","""event"",""trial"",""time""
""fullscreenenter"",""1"",""6656""
","
","
","""event"",""trial"",""time""
""fullscreenenter"",""1"",""6656""
","
","","","","","","null","<div style=""font-size:60px;"">+</div>","null","","fixation","","",""
"memory-trial","165","470170","0.0-18.0-1.60","7643","approach_avoid_sv1","""event"",""trial"",""time""
""fullscreenenter"",""1"",""6656""
","
","
","""event"",""trial"",""time""
""fullscreenenter"",""1"",""6656""
","
","","","","","","1144.2999997138977","images/dog3.png","","","memory_trial","1","definitely_old",""
"html-keyboard-response","166","470678","0.0-18.0-0.61","7643","approach_avoid_sv1","""event"",""trial"",""time""
""fullscreenenter"",""1"",""6656""
","
","
","""event"",""trial"",""time""
""fullscreenenter"",""1"",""6656""
","
","","","","","","null","<div style=""font-size:60px;"">+</div>","null","","fixation","","",""
"memory-trial","167","472655","0.0-18.0-1.61","7643","approach_avoid_sv1","""event"",""trial"",""time""
""fullscreenenter"",""1"",""6656""
","
","
","""event"",""trial"",""time""
""fullscreenenter"",""1"",""6656""
","
","","","","","","966.7999997138977","images/cat8.png","","","memory_trial","3","maybe_new",""
"html-keyboard-response","168","473171","0.0-18.0-0.62","7643","approach_avoid_sv1","""event"",""trial"",""time""
""fullscreenenter"",""1"",""6656""
","
","
","""event"",""trial"",""time""
""fullscreenenter"",""1"",""6656""
","
","","","","","","null","<div style=""font-size:60px;"">+</div>","null","","fixation","","",""
"memory-trial","169","474934","0.0-18.0-1.62","7643","approach_avoid_sv1","""event"",""trial"",""time""
""fullscreenenter"",""1"",""6656""
","
","
","""event"",""trial"",""time""
""fullscreenenter"",""1"",""6656""
","
","","","","","","749.4000000953674","images/cactus6.png","","","memory_trial","1","definitely_old",""
"html-keyboard-response","170","475437","0.0-18.0-0.63","7643","approach_avoid_sv1","""event"",""trial"",""time""
""fullscreenenter"",""1"",""6656""
","
","
","""event"",""trial"",""time""
""fullscreenenter"",""1"",""6656""
","
","","","","","","null","<div style=""font-size:60px;"">+</div>","null","","fixation","","",""
"memory-trial","171","478558","0.0-18.0-1.63","7643","approach_avoid_sv1","""event"",""trial"",""time""
""fullscreenenter"",""1"",""6656""
","
","
","""event"",""trial"",""time""
""fullscreenenter"",""1"",""6656""
","
","","","","","","2114.5999999046326","images/dog1.png","","","memory_trial","4","definitely_new",""
"html-keyboard-response","172","479063","0.0-18.0-0.64","7643","approach_avoid_sv1","""event"",""trial"",""time""
""fullscreenenter"",""1"",""6656""
","
","
","""event"",""trial"",""time""
""fullscreenenter"",""1"",""6656""
","
","","","","","","null","<div style=""font-size:60px;"">+</div>","null","","fixation","","",""
"memory-trial","173","481487","0.0-18.0-1.64","7643","approach_avoid_sv1","""event"",""trial"",""time""
""fullscreenenter"",""1"",""6656""
","
","
","""event"",""trial"",""time""
""fullscreenenter"",""1"",""6656""
","
","","","","","","1412.6000003814697","images/horse7.png","","","memory_trial","1","definitely_old",""
"html-keyboard-response","174","481990","0.0-18.0-0.65","7643","approach_avoid_sv1","""event"",""trial"",""time""
""fullscreenenter"",""1"",""6656""
","
","
","""event"",""trial"",""time""
""fullscreenenter"",""1"",""6656""
","
","","","","","","null","<div style=""font-size:60px;"">+</div>","null","","fixation","","",""
"memory-trial","175","483903","0.0-18.0-1.65","7643","approach_avoid_sv1","""event"",""trial"",""time""
""fullscreenenter"",""1"",""6656""
","
","
","""event"",""trial"",""time""
""fullscreenenter"",""1"",""6656""
","
","","","","","","899.2000002861023","images/rabbit2.png","","","memory_trial","1","definitely_old",""
"html-keyboard-response","176","484405","0.0-18.0-0.66","7643","approach_avoid_sv1","""event"",""trial"",""time""
""fullscreenenter"",""1"",""6656""
","
","
","""event"",""trial"",""time""
""fullscreenenter"",""1"",""6656""
","
","","","","","","null","<div style=""font-size:60px;"">+</div>","null","","fixation","","",""
"memory-trial","177","487447","0.0-18.0-1.66","7643","approach_avoid_sv1","""event"",""trial"",""time""
""fullscreenenter"",""1"",""6656""
","
","
","""event"",""trial"",""time""
""fullscreenenter"",""1"",""6656""
","
","","","","","","2035.2999997138977","images/cat6.png","","","memory_trial","4","definitely_new",""
"html-keyboard-response","178","487950","0.0-18.0-0.67","7643","approach_avoid_sv1","""event"",""trial"",""time""
""fullscreenenter"",""1"",""6656""
","
","
","""event"",""trial"",""time""
""fullscreenenter"",""1"",""6656""
","
","","","","","","null","<div style=""font-size:60px;"">+</div>","null","","fixation","","",""
"memory-trial","179","490303","0.0-18.0-1.67","7643","approach_avoid_sv1","""event"",""trial"",""time""
""fullscreenenter"",""1"",""6656""
","
","
","""event"",""trial"",""time""
""fullscreenenter"",""1"",""6656""
","
","","","","","","1342.5","images/boat3.png","","","memory_trial","4","definitely_new",""
"html-keyboard-response","180","490806","0.0-18.0-0.68","7643","approach_avoid_sv1","""event"",""trial"",""time""
""fullscreenenter"",""1"",""6656""
","
","
","""event"",""trial"",""time""
""fullscreenenter"",""1"",""6656""
","
","","","","","","null","<div style=""font-size:60px;"">+</div>","null","","fixation","","",""
"memory-trial","181","492709","0.0-18.0-1.68","7643","approach_avoid_sv1","""event"",""trial"",""time""
""fullscreenenter"",""1"",""6656""
","
","
","""event"",""trial"",""time""
""fullscreenenter"",""1"",""6656""
","
","","","","","","896","images/rodent6.png","","","memory_trial","1","definitely_old",""
"html-keyboard-response","182","493213","0.0-18.0-0.69","7643","approach_avoid_sv1","""event"",""trial"",""time""
""fullscreenenter"",""1"",""6656""
","
","
","""event"",""trial"",""time""
""fullscreenenter"",""1"",""6656""
","
","","","","","","null","<div style=""font-size:60px;"">+</div>","null","","fixation","","",""
"memory-trial","183","496549","0.0-18.0-1.69","7643","approach_avoid_sv1","""event"",""trial"",""time""
""fullscreenenter"",""1"",""6656""
","
","
","""event"",""trial"",""time""
""fullscreenenter"",""1"",""6656""
","
","","","","","","2327.9000000953674","images/horse8.png","","","memory_trial","1","definitely_old",""
"html-keyboard-response","184","497052","0.0-18.0-0.70","7643","approach_avoid_sv1","""event"",""trial"",""time""
""fullscreenenter"",""1"",""6656""
","
","
","""event"",""trial"",""time""
""fullscreenenter"",""1"",""6656""
","
","","","","","","null","<div style=""font-size:60px;"">+</div>","null","","fixation","","",""
"memory-trial","185","499759","0.0-18.0-1.70","7643","approach_avoid_sv1","""event"",""trial"",""time""
""fullscreenenter"",""1"",""6656""
","
","
","""event"",""trial"",""time""
""fullscreenenter"",""1"",""6656""
","
","","","","","","1695.7000002861023","images/rodent5.png","","","memory_trial","3","maybe_new",""
"html-keyboard-response","186","500262","0.0-18.0-0.71","7643","approach_avoid_sv1","""event"",""trial"",""time""
""fullscreenenter"",""1"",""6656""
","
","
","""event"",""trial"",""time""
""fullscreenenter"",""1"",""6656""
","
","","","","","","null","<div style=""font-size:60px;"">+</div>","null","","fixation","","",""
"memory-trial","187","501983","0.0-18.0-1.71","7643","approach_avoid_sv1","""event"",""trial"",""time""
""fullscreenenter"",""1"",""6656""
","
","
","""event"",""trial"",""time""
""fullscreenenter"",""1"",""6656""
","
","","","","","","708.6999998092651","images/orange6.png","","","memory_trial","1","definitely_old",""
"html-keyboard-response","188","502495","0.0-18.0-0.72","7643","approach_avoid_sv1","""event"",""trial"",""time""
""fullscreenenter"",""1"",""6656""
","
","
","""event"",""trial"",""time""
""fullscreenenter"",""1"",""6656""
","
","","","","","","null","<div style=""font-size:60px;"">+</div>","null","","fixation","","",""
"memory-trial","189","504486","0.0-18.0-1.72","7643","approach_avoid_sv1","""event"",""trial"",""time""
""fullscreenenter"",""1"",""6656""
","
","
","""event"",""trial"",""time""
""fullscreenenter"",""1"",""6656""
","
","","","","","","980.1999998092651","images/boat5.png","","","memory_trial","4","definitely_new",""
"html-keyboard-response","190","504990","0.0-18.0-0.73","7643","approach_avoid_sv1","""event"",""trial"",""time""
""fullscreenenter"",""1"",""6656""
","
","
","""event"",""trial"",""time""
""fullscreenenter"",""1"",""6656""
","
","","","","","","null","<div style=""font-size:60px;"">+</div>","null","","fixation","","",""
"memory-trial","191","508133","0.0-18.0-1.73","7643","approach_avoid_sv1","""event"",""trial"",""time""
""fullscreenenter"",""1"",""6656""
","
","
","""event"",""trial"",""time""
""fullscreenenter"",""1"",""6656""
","
","","","","","","2131.8999996185303","images/horse2.png","","","memory_trial","2","maybe_old",""
"html-keyboard-response","192","508639","0.0-18.0-0.74","7643","approach_avoid_sv1","""event"",""trial"",""time""
""fullscreenenter"",""1"",""6656""
","
","
","""event"",""trial"",""time""
""fullscreenenter"",""1"",""6656""
","
","","","","","","null","<div style=""font-size:60px;"">+</div>","null","","fixation","","",""
"memory-trial","193","512245","0.0-18.0-1.74","7643","approach_avoid_sv1","""event"",""trial"",""time""
""fullscreenenter"",""1"",""6656""
","
","
","""event"",""trial"",""time""
""fullscreenenter"",""1"",""6656""
","
","","","","","","2594.199999809265","images/bed4.png","","","memory_trial","4","definitely_new",""
"html-keyboard-response","194","512750","0.0-18.0-0.75","7643","approach_avoid_sv1","""event"",""trial"",""time""
""fullscreenenter"",""1"",""6656""
","
","
","""event"",""trial"",""time""
""fullscreenenter"",""1"",""6656""
","
","","","","","","null","<div style=""font-size:60px;"">+</div>","null","","fixation","","",""
"memory-trial","195","514999","0.0-18.0-1.75","7643","approach_avoid_sv1","""event"",""trial"",""time""
""fullscreenenter"",""1"",""6656""
","
","
","""event"",""trial"",""time""
""fullscreenenter"",""1"",""6656""
","
","","","","","","1239.6000003814697","images/cactus8.png","","","memory_trial","2","maybe_old",""
"html-keyboard-response","196","515501","0.0-18.0-0.76","7643","approach_avoid_sv1","""event"",""trial"",""time""
""fullscreenenter"",""1"",""6656""
","
","
","""event"",""trial"",""time""
""fullscreenenter"",""1"",""6656""
","
","","","","","","null","<div style=""font-size:60px;"">+</div>","null","","fixation","","",""
"memory-trial","197","518805","0.0-18.0-1.76","7643","approach_avoid_sv1","""event"",""trial"",""time""
""fullscreenenter"",""1"",""6656""
","
","
","""event"",""trial"",""time""
""fullscreenenter"",""1"",""6656""
","
","","","","","","2293.2000002861023","images/cow6.png","","","memory_trial","1","definitely_old",""
"html-keyboard-response","198","519310","0.0-18.0-0.77","7643","approach_avoid_sv1","""event"",""trial"",""time""
""fullscreenenter"",""1"",""6656""
","
","
","""event"",""trial"",""time""
""fullscreenenter"",""1"",""6656""
","
","","","","","","null","<div style=""font-size:60px;"">+</div>","null","","fixation","","",""
"memory-trial","199","521558","0.0-18.0-1.77","7643","approach_avoid_sv1","""event"",""trial"",""time""
""fullscreenenter"",""1"",""6656""
","
","
","""event"",""trial"",""time""
""fullscreenenter"",""1"",""6656""
","
","","","","","","1238.9000000953674","images/sheep3.png","","","memory_trial","3","maybe_new",""
"html-keyboard-response","200","522062","0.0-18.0-0.78","7643","approach_avoid_sv1","""event"",""trial"",""time""
""fullscreenenter"",""1"",""6656""
","
","
","""event"",""trial"",""time""
""fullscreenenter"",""1"",""6656""
","
","","","","","","null","<div style=""font-size:60px;"">+</div>","null","","fixation","","",""
"memory-trial","201","525094","0.0-18.0-1.78","7643","approach_avoid_sv1","""event"",""trial"",""time""
""fullscreenenter"",""1"",""6656""
","
","
","""event"",""trial"",""time""
""fullscreenenter"",""1"",""6656""
","
","","","","","","2025.1000003814697","images/sheep6.png","","","memory_trial","3","maybe_new",""
"html-keyboard-response","202","525598","0.0-18.0-0.79","7643","approach_avoid_sv1","""event"",""trial"",""time""
""fullscreenenter"",""1"",""6656""
","
","
","""event"",""trial"",""time""
""fullscreenenter"",""1"",""6656""
","
","","","","","","null","<div style=""font-size:60px;"">+</div>","null","","fixation","","",""
"memory-trial","203","528221","0.0-18.0-1.79","7643","approach_avoid_sv1","""event"",""trial"",""time""
""fullscreenenter"",""1"",""6656""
","
","
","""event"",""trial"",""time""
""fullscreenenter"",""1"",""6656""
","
","","","","","","1611.2999997138977","images/apple7.png","","","memory_trial","1","definitely_old",""
"html-keyboard-response","204","528725","0.0-18.0-0.80","7643","approach_avoid_sv1","""event"",""trial"",""time""
""fullscreenenter"",""1"",""6656""
","
","
","""event"",""trial"",""time""
""fullscreenenter"",""1"",""6656""
","
","","","","","","null","<div style=""font-size:60px;"">+</div>","null","","fixation","","",""
"memory-trial","205","530661","0.0-18.0-1.80","7643","approach_avoid_sv1","""event"",""trial"",""time""
""fullscreenenter"",""1"",""6656""
","
","
","""event"",""trial"",""time""
""fullscreenenter"",""1"",""6656""
","
","","","","","","928.4000000953674","images/apple6.png","","","memory_trial","1","definitely_old",""
"html-keyboard-response","206","531166","0.0-18.0-0.81","7643","approach_avoid_sv1","""event"",""trial"",""time""
""fullscreenenter"",""1"",""6656""
","
","
","""event"",""trial"",""time""
""fullscreenenter"",""1"",""6656""
","
","","","","","","null","<div style=""font-size:60px;"">+</div>","null","","fixation","","",""
"memory-trial","207","535109","0.0-18.0-1.81","7643","approach_avoid_sv1","""event"",""trial"",""time""
""fullscreenenter"",""1"",""6656""
","
","
","""event"",""trial"",""time""
""fullscreenenter"",""1"",""6656""
","
","","","","","","2931.0999999046326","images/goat3.png","","","memory_trial","3","maybe_new",""
"html-keyboard-response","208","535614","0.0-18.0-0.82","7643","approach_avoid_sv1","""event"",""trial"",""time""
""fullscreenenter"",""1"",""6656""
","
","
","""event"",""trial"",""time""
""fullscreenenter"",""1"",""6656""
","
","","","","","","null","<div style=""font-size:60px;"">+</div>","null","","fixation","","",""
"memory-trial","209","540335","0.0-18.0-1.82","7643","approach_avoid_sv1","""event"",""trial"",""time""
""fullscreenenter"",""1"",""6656""
","
","
","""event"",""trial"",""time""
""fullscreenenter"",""1"",""6656""
","
","","","","","","3712.199999809265","images/bush8.png","","","memory_trial","1","definitely_old",""
"html-keyboard-response","210","540846","0.0-18.0-0.83","7643","approach_avoid_sv1","""event"",""trial"",""time""
""fullscreenenter"",""1"",""6656""
","
","
","""event"",""trial"",""time""
""fullscreenenter"",""1"",""6656""
","
","","","","","","null","<div style=""font-size:60px;"">+</div>","null","","fixation","","",""
"memory-trial","211","543982","0.0-18.0-1.83","7643","approach_avoid_sv1","""event"",""trial"",""time""
""fullscreenenter"",""1"",""6656""
","
","
","""event"",""trial"",""time""
""fullscreenenter"",""1"",""6656""
","
","","","","","","2121.5","images/tree6.png","","","memory_trial","2","maybe_old",""
"html-keyboard-response","212","544486","0.0-18.0-0.84","7643","approach_avoid_sv1","""event"",""trial"",""time""
""fullscreenenter"",""1"",""6656""
","
","
","""event"",""trial"",""time""
""fullscreenenter"",""1"",""6656""
","
","","","","","","null","<div style=""font-size:60px;"">+</div>","null","","fixation","","",""
"memory-trial","213","547606","0.0-18.0-1.84","7643","approach_avoid_sv1","""event"",""trial"",""time""
""fullscreenenter"",""1"",""6656""
","
","
","""event"",""trial"",""time""
""fullscreenenter"",""1"",""6656""
","
","","","","","","2112.2999997138977","images/chair4.png","","","memory_trial","1","definitely_old",""
"html-keyboard-response","214","548110","0.0-18.0-0.85","7643","approach_avoid_sv1","""event"",""trial"",""time""
""fullscreenenter"",""1"",""6656""
","
","
","""event"",""trial"",""time""
""fullscreenenter"",""1"",""6656""
","
","","","","","","null","<div style=""font-size:60px;"">+</div>","null","","fixation","","",""
"memory-trial","215","549870","0.0-18.0-1.85","7643","approach_avoid_sv1","""event"",""trial"",""time""
""fullscreenenter"",""1"",""6656""
","
","
","""event"",""trial"",""time""
""fullscreenenter"",""1"",""6656""
","
","","","","","","746.5999999046326","images/apple3.png","","","memory_trial","1","definitely_old",""
"html-keyboard-response","216","550373","0.0-18.0-0.86","7643","approach_avoid_sv1","""event"",""trial"",""time""
""fullscreenenter"",""1"",""6656""
","
","
","""event"",""trial"",""time""
""fullscreenenter"",""1"",""6656""
","
","","","","","","null","<div style=""font-size:60px;"">+</div>","null","","fixation","","",""
"memory-trial","217","552909","0.0-18.0-1.86","7643","approach_avoid_sv1","""event"",""trial"",""time""
""fullscreenenter"",""1"",""6656""
","
","
","""event"",""trial"",""time""
""fullscreenenter"",""1"",""6656""
","
","","","","","","1523.5","images/train1.png","","","memory_trial","2","maybe_old",""
"html-keyboard-response","218","553417","0.0-18.0-0.87","7643","approach_avoid_sv1","""event"",""trial"",""time""
""fullscreenenter"",""1"",""6656""
","
","
","""event"",""trial"",""time""
""fullscreenenter"",""1"",""6656""
","
","","","","","","null","<div style=""font-size:60px;"">+</div>","null","","fixation","","",""
"memory-trial","219","555877","0.0-18.0-1.87","7643","approach_avoid_sv1","""event"",""trial"",""time""
""fullscreenenter"",""1"",""6656""
","
","
","""event"",""trial"",""time""
""fullscreenenter"",""1"",""6656""
","
","","","","","","1446.6999998092651","images/table5.png","","","memory_trial","3","maybe_new",""
"html-keyboard-response","220","556381","0.0-18.0-0.88","7643","approach_avoid_sv1","""event"",""trial"",""time""
""fullscreenenter"",""1"",""6656""
","
","
","""event"",""trial"",""time""
""fullscreenenter"",""1"",""6656""
","
","","","","","","null","<div style=""font-size:60px;"">+</div>","null","","fixation","","",""
"memory-trial","221","559766","0.0-18.0-1.88","7643","approach_avoid_sv1","""event"",""trial"",""time""
""fullscreenenter"",""1"",""6656""
","
","
","""event"",""trial"",""time""
""fullscreenenter"",""1"",""6656""
","
","","","","","","2370.9000000953674","images/goat4.png","","","memory_trial","2","maybe_old",""
"html-keyboard-response","222","560269","0.0-18.0-0.89","7643","approach_avoid_sv1","""event"",""trial"",""time""
""fullscreenenter"",""1"",""6656""
","
","
","""event"",""trial"",""time""
""fullscreenenter"",""1"",""6656""
","
","","","","","","null","<div style=""font-size:60px;"">+</div>","null","","fixation","","",""
"memory-trial","223","562365","0.0-18.0-1.89","7643","approach_avoid_sv1","""event"",""trial"",""time""
""fullscreenenter"",""1"",""6656""
","
","
","""event"",""trial"",""time""
""fullscreenenter"",""1"",""6656""
","
","","","","","","1087.5","images/flower3.png","","","memory_trial","4","definitely_new",""
"html-keyboard-response","224","562871","0.0-18.0-0.90","7643","approach_avoid_sv1","""event"",""trial"",""time""
""fullscreenenter"",""1"",""6656""
","
","
","""event"",""trial"",""time""
""fullscreenenter"",""1"",""6656""
","
","","","","","","null","<div style=""font-size:60px;"">+</div>","null","","fixation","","",""
"memory-trial","225","564670","0.0-18.0-1.90","7643","approach_avoid_sv1","""event"",""trial"",""time""
""fullscreenenter"",""1"",""6656""
","
","
","""event"",""trial"",""time""
""fullscreenenter"",""1"",""6656""
","
","","","","","","792.2000002861023","images/table1.png","","","memory_trial","1","definitely_old",""
"html-keyboard-response","226","565173","0.0-18.0-0.91","7643","approach_avoid_sv1","""event"",""trial"",""time""
""fullscreenenter"",""1"",""6656""
","
","
","""event"",""trial"",""time""
""fullscreenenter"",""1"",""6656""
","
","","","","","","null","<div style=""font-size:60px;"">+</div>","null","","fixation","","",""
"memory-trial","227","569237","0.0-18.0-1.91","7643","approach_avoid_sv1","""event"",""trial"",""time""
""fullscreenenter"",""1"",""6656""
","
","
","""event"",""trial"",""time""
""fullscreenenter"",""1"",""6656""
","
","","","","","","3056","images/goat1.png","","","memory_trial","3","maybe_new",""
"html-button-response","228","572260","0.0-18.0-2.91-0.91","7643","approach_avoid_sv1","""event"",""trial"",""time""
""fullscreenenter"",""1"",""6656""
","
","
","""event"",""trial"",""time""
""fullscreenenter"",""1"",""6656""
","
","","","","","","3020.7999997138977","<p> Take a break! </p><p> Click the button to continue. </p>","0","","break","","",""
"html-keyboard-response","229","572765","0.0-18.0-0.92","7643","approach_avoid_sv1","""event"",""trial"",""time""
""fullscreenenter"",""1"",""6656""
","
","
","""event"",""trial"",""time""
""fullscreenenter"",""1"",""6656""
","
","","","","","","null","<div style=""font-size:60px;"">+</div>","null","","fixation","","",""
"memory-trial","230","575469","0.0-18.0-1.92","7643","approach_avoid_sv1","""event"",""trial"",""time""
""fullscreenenter"",""1"",""6656""
","
","
","""event"",""trial"",""time""
""fullscreenenter"",""1"",""6656""
","
","","","","","","1696.1999998092651","images/bush3.png","","","memory_trial","2","maybe_old",""
"html-keyboard-response","231","575973","0.0-18.0-0.93","7643","approach_avoid_sv1","""event"",""trial"",""time""
""fullscreenenter"",""1"",""6656""
","
","
","""event"",""trial"",""time""
""fullscreenenter"",""1"",""6656""
","
","","","","","","null","<div style=""font-size:60px;"">+</div>","null","","fixation","","",""
"memory-trial","232","578413","0.0-18.0-1.93","7643","approach_avoid_sv1","""event"",""trial"",""time""
""fullscreenenter"",""1"",""6656""
","
","
","""event"",""trial"",""time""
""fullscreenenter"",""1"",""6656""
","
","","","","","","1428.5999999046326","images/cow3.png","","","memory_trial","1","definitely_old",""
"html-keyboard-response","233","578917","0.0-18.0-0.94","7643","approach_avoid_sv1","""event"",""trial"",""time""
""fullscreenenter"",""1"",""6656""
","
","
","""event"",""trial"",""time""
""fullscreenenter"",""1"",""6656""
","
","","","","","","null","<div style=""font-size:60px;"">+</div>","null","","fixation","","",""
"memory-trial","234","581030","0.0-18.0-1.94","7643","approach_avoid_sv1","""event"",""trial"",""time""
""fullscreenenter"",""1"",""6656""
","
","
","""event"",""trial"",""time""
""fullscreenenter"",""1"",""6656""
","
","","","","","","1100.3999996185303","images/cat2.png","","","memory_trial","4","definitely_new",""
"html-keyboard-response","235","581533","0.0-18.0-0.95","7643","approach_avoid_sv1","""event"",""trial"",""time""
""fullscreenenter"",""1"",""6656""
","
","
","""event"",""trial"",""time""
""fullscreenenter"",""1"",""6656""
","
","","","","","","null","<div style=""font-size:60px;"">+</div>","null","","fixation","","",""
"memory-trial","236","583918","0.0-18.0-1.95","7643","approach_avoid_sv1","""event"",""trial"",""time""
""fullscreenenter"",""1"",""6656""
","
","
","""event"",""trial"",""time""
""fullscreenenter"",""1"",""6656""
","
","","","","","","1358.5","images/orange7.png","","","memory_trial","1","definitely_old",""
"html-keyboard-response","237","584420","0.0-18.0-0.96","7643","approach_avoid_sv1","""event"",""trial"",""time""
""fullscreenenter"",""1"",""6656""
","
","
","""event"",""trial"",""time""
""fullscreenenter"",""1"",""6656""
","
","","","","","","null","<div style=""font-size:60px;"">+</div>","null","","fixation","","",""
"memory-trial","238","586973","0.0-18.0-1.96","7643","approach_avoid_sv1","""event"",""trial"",""time""
""fullscreenenter"",""1"",""6656""
","
","
","""event"",""trial"",""time""
""fullscreenenter"",""1"",""6656""
","
","","","","","","1544","images/boat4.png","","","memory_trial","4","definitely_new",""
"html-keyboard-response","239","587478","0.0-18.0-0.97","7643","approach_avoid_sv1","""event"",""trial"",""time""
""fullscreenenter"",""1"",""6656""
","
","
","""event"",""trial"",""time""
""fullscreenenter"",""1"",""6656""
","
","","","","","","null","<div style=""font-size:60px;"">+</div>","null","","fixation","","",""
"memory-trial","240","589821","0.0-18.0-1.97","7643","approach_avoid_sv1","""event"",""trial"",""time""
""fullscreenenter"",""1"",""6656""
","
","
","""event"",""trial"",""time""
""fullscreenenter"",""1"",""6656""
","
","","","","","","1337.2999997138977","images/tree3.png","","","memory_trial","1","definitely_old",""
"html-keyboard-response","241","590325","0.0-18.0-0.98","7643","approach_avoid_sv1","""event"",""trial"",""time""
""fullscreenenter"",""1"",""6656""
","
","
","""event"",""trial"",""time""
""fullscreenenter"",""1"",""6656""
","
","","","","","","null","<div style=""font-size:60px;"">+</div>","null","","fixation","","",""
"memory-trial","242","592997","0.0-18.0-1.98","7643","approach_avoid_sv1","""event"",""trial"",""time""
""fullscreenenter"",""1"",""6656""
","
","
","""event"",""trial"",""time""
""fullscreenenter"",""1"",""6656""
","
","","","","","","1657.9000000953674","images/cow8.png","","","memory_trial","1","definitely_old",""
"html-keyboard-response","243","593501","0.0-18.0-0.99","7643","approach_avoid_sv1","""event"",""trial"",""time""
""fullscreenenter"",""1"",""6656""
","
","
","""event"",""trial"",""time""
""fullscreenenter"",""1"",""6656""
","
","","","","","","null","<div style=""font-size:60px;"">+</div>","null","","fixation","","",""
"memory-trial","244","595502","0.0-18.0-1.99","7643","approach_avoid_sv1","""event"",""trial"",""time""
""fullscreenenter"",""1"",""6656""
","
","
","""event"",""trial"",""time""
""fullscreenenter"",""1"",""6656""
","
","","","","","","992.3000001907349","images/table6.png","","","memory_trial","1","definitely_old",""
"html-keyboard-response","245","596004","0.0-18.0-0.100","7643","approach_avoid_sv1","""event"",""trial"",""time""
""fullscreenenter"",""1"",""6656""
","
","
","""event"",""trial"",""time""
""fullscreenenter"",""1"",""6656""
","
","","","","","","null","<div style=""font-size:60px;"">+</div>","null","","fixation","","",""
"memory-trial","246","599373","0.0-18.0-1.100","7643","approach_avoid_sv1","""event"",""trial"",""time""
""fullscreenenter"",""1"",""6656""
","
","
","""event"",""trial"",""time""
""fullscreenenter"",""1"",""6656""
","
","","","","","","2356.5","images/rabbit1.png","","","memory_trial","1","definitely_old",""
"html-keyboard-response","247","599877","0.0-18.0-0.101","7643","approach_avoid_sv1","""event"",""trial"",""time""
""fullscreenenter"",""1"",""6656""
","
","
","""event"",""trial"",""time""
""fullscreenenter"",""1"",""6656""
","
","","","","","","null","<div style=""font-size:60px;"">+</div>","null","","fixation","","",""
"memory-trial","248","602269","0.0-18.0-1.101","7643","approach_avoid_sv1","""event"",""trial"",""time""
""fullscreenenter"",""1"",""6656""
","
","
","""event"",""trial"",""time""
""fullscreenenter"",""1"",""6656""
","
","","","","","","1385.7000002861023","images/cow5.png","","","memory_trial","1","definitely_old",""
"html-keyboard-response","249","602773","0.0-18.0-0.102","7643","approach_avoid_sv1","""event"",""trial"",""time""
""fullscreenenter"",""1"",""6656""
","
","
","""event"",""trial"",""time""
""fullscreenenter"",""1"",""6656""
","
","","","","","","null","<div style=""font-size:60px;"">+</div>","null","","fixation","","",""
"memory-trial","250","604605","0.0-18.0-1.102","7643","approach_avoid_sv1","""event"",""trial"",""time""
""fullscreenenter"",""1"",""6656""
","
","
","""event"",""trial"",""time""
""fullscreenenter"",""1"",""6656""
","
","","","","","","822","images/banana2.png","","","memory_trial","1","definitely_old",""
"html-keyboard-response","251","605108","0.0-18.0-0.103","7643","approach_avoid_sv1","""event"",""trial"",""time""
""fullscreenenter"",""1"",""6656""
","
","
","""event"",""trial"",""time""
""fullscreenenter"",""1"",""6656""
","
","","","","","","null","<div style=""font-size:60px;"">+</div>","null","","fixation","","",""
"memory-trial","252","607109","0.0-18.0-1.103","7643","approach_avoid_sv1","""event"",""trial"",""time""
""fullscreenenter"",""1"",""6656""
","
","
","""event"",""trial"",""time""
""fullscreenenter"",""1"",""6656""
","
","","","","","","988.5","images/plane8.png","","","memory_trial","4","definitely_new",""
"html-keyboard-response","253","607622","0.0-18.0-0.104","7643","approach_avoid_sv1","""event"",""trial"",""time""
""fullscreenenter"",""1"",""6656""
","
","
","""event"",""trial"",""time""
""fullscreenenter"",""1"",""6656""
","
","","","","","","null","<div style=""font-size:60px;"">+</div>","null","","fixation","","",""
"memory-trial","254","611094","0.0-18.0-1.104","7643","approach_avoid_sv1","""event"",""trial"",""time""
""fullscreenenter"",""1"",""6656""
","
","
","""event"",""trial"",""time""
""fullscreenenter"",""1"",""6656""
","
","","","","","","2464.5","images/straw6.png","","","memory_trial","2","maybe_old",""
"html-keyboard-response","255","611597","0.0-18.0-0.105","7643","approach_avoid_sv1","""event"",""trial"",""time""
""fullscreenenter"",""1"",""6656""
","
","
","""event"",""trial"",""time""
""fullscreenenter"",""1"",""6656""
","
","","","","","","null","<div style=""font-size:60px;"">+</div>","null","","fixation","","",""
"memory-trial","256","613662","0.0-18.0-1.105","7643","approach_avoid_sv1","""event"",""trial"",""time""
""fullscreenenter"",""1"",""6656""
","
","
","""event"",""trial"",""time""
""fullscreenenter"",""1"",""6656""
","
","","","","","","1055.4000000953674","images/train4.png","","","memory_trial","4","definitely_new",""
"html-keyboard-response","257","614173","0.0-18.0-0.106","7643","approach_avoid_sv1","""event"",""trial"",""time""
""fullscreenenter"",""1"",""6656""
","
","
","""event"",""trial"",""time""
""fullscreenenter"",""1"",""6656""
","
","","","","","","null","<div style=""font-size:60px;"">+</div>","null","","fixation","","",""
"memory-trial","258","615797","0.0-18.0-1.106","7643","approach_avoid_sv1","""event"",""trial"",""time""
""fullscreenenter"",""1"",""6656""
","
","
","""event"",""trial"",""time""
""fullscreenenter"",""1"",""6656""
","
","","","","","","616.4000000953674","images/flower8.png","","","memory_trial","4","definitely_new",""
"html-keyboard-response","259","616301","0.0-18.0-0.107","7643","approach_avoid_sv1","""event"",""trial"",""time""
""fullscreenenter"",""1"",""6656""
","
","
","""event"",""trial"",""time""
""fullscreenenter"",""1"",""6656""
","
","","","","","","null","<div style=""font-size:60px;"">+</div>","null","","fixation","","",""
"memory-trial","260","617989","0.0-18.0-1.107","7643","approach_avoid_sv1","""event"",""trial"",""time""
""fullscreenenter"",""1"",""6656""
","
","
","""event"",""trial"",""time""
""fullscreenenter"",""1"",""6656""
","
","","","","","","681.3000001907349","images/orange2.png","","","memory_trial","1","definitely_old",""
"html-keyboard-response","261","618493","0.0-18.0-0.108","7643","approach_avoid_sv1","""event"",""trial"",""time""
""fullscreenenter"",""1"",""6656""
","
","
","""event"",""trial"",""time""
""fullscreenenter"",""1"",""6656""
","
","","","","","","null","<div style=""font-size:60px;"">+</div>","null","","fixation","","",""
"memory-trial","262","620334","0.0-18.0-1.108","7643","approach_avoid_sv1","""event"",""trial"",""time""
""fullscreenenter"",""1"",""6656""
","
","
","""event"",""trial"",""time""
""fullscreenenter"",""1"",""6656""
","
","","","","","","831.8000001907349","images/horse1.png","","","memory_trial","1","definitely_old",""
"html-keyboard-response","263","620837","0.0-18.0-0.109","7643","approach_avoid_sv1","""event"",""trial"",""time""
""fullscreenenter"",""1"",""6656""
","
","
","""event"",""trial"",""time""
""fullscreenenter"",""1"",""6656""
","
","","","","","","null","<div style=""font-size:60px;"">+</div>","null","","fixation","","",""
"memory-trial","264","623197","0.0-18.0-1.109","7643","approach_avoid_sv1","""event"",""trial"",""time""
""fullscreenenter"",""1"",""6656""
","
","
","""event"",""trial"",""time""
""fullscreenenter"",""1"",""6656""
","
","","","","","","1349.7999997138977","images/sofa3.png","","","memory_trial","2","maybe_old",""
"html-keyboard-response","265","623700","0.0-18.0-0.110","7643","approach_avoid_sv1","""event"",""trial"",""time""
""fullscreenenter"",""1"",""6656""
","
","
","""event"",""trial"",""time""
""fullscreenenter"",""1"",""6656""
","
","","","","","","null","<div style=""font-size:60px;"">+</div>","null","","fixation","","",""
"memory-trial","266","625397","0.0-18.0-1.110","7643","approach_avoid_sv1","""event"",""trial"",""time""
""fullscreenenter"",""1"",""6656""
","
","
","""event"",""trial"",""time""
""fullscreenenter"",""1"",""6656""
","
","","","","","","689.4000000953674","images/flower4.png","","","memory_trial","4","definitely_new",""
"html-keyboard-response","267","625901","0.0-18.0-0.111","7643","approach_avoid_sv1","""event"",""trial"",""time""
""fullscreenenter"",""1"",""6656""
","
","
","""event"",""trial"",""time""
""fullscreenenter"",""1"",""6656""
","
","","","","","","null","<div style=""font-size:60px;"">+</div>","null","","fixation","","",""
"memory-trial","268","629461","0.0-18.0-1.111","7643","approach_avoid_sv1","""event"",""trial"",""time""
""fullscreenenter"",""1"",""6656""
","
","
","""event"",""trial"",""time""
""fullscreenenter"",""1"",""6656""
","
","","","","","","2551.2000002861023","images/horse5.png","","","memory_trial","2","maybe_old",""
"html-keyboard-response","269","629965","0.0-18.0-0.112","7643","approach_avoid_sv1","""event"",""trial"",""time""
""fullscreenenter"",""1"",""6656""
","
","
","""event"",""trial"",""time""
""fullscreenenter"",""1"",""6656""
","
","","","","","","null","<div style=""font-size:60px;"">+</div>","null","","fixation","","",""
"memory-trial","270","633517","0.0-18.0-1.112","7643","approach_avoid_sv1","""event"",""trial"",""time""
""fullscreenenter"",""1"",""6656""
","
","
","""event"",""trial"",""time""
""fullscreenenter"",""1"",""6656""
","
","","","","","","2546.300000190735","images/sofa6.png","","","memory_trial","2","maybe_old",""
"html-keyboard-response","271","634021","0.0-18.0-0.113","7643","approach_avoid_sv1","""event"",""trial"",""time""
""fullscreenenter"",""1"",""6656""
","
","
","""event"",""trial"",""time""
""fullscreenenter"",""1"",""6656""
","
","","","","","","null","<div style=""font-size:60px;"">+</div>","null","","fixation","","",""
"memory-trial","272","635702","0.0-18.0-1.113","7643","approach_avoid_sv1","""event"",""trial"",""time""
""fullscreenenter"",""1"",""6656""
","
","
","""event"",""trial"",""time""
""fullscreenenter"",""1"",""6656""
","
","","","","","","670.4000000953674","images/boat8.png","","","memory_trial","4","definitely_new",""
"html-keyboard-response","273","636206","0.0-18.0-0.114","7643","approach_avoid_sv1","""event"",""trial"",""time""
""fullscreenenter"",""1"",""6656""
","
","
","""event"",""trial"",""time""
""fullscreenenter"",""1"",""6656""
","
","","","","","","null","<div style=""font-size:60px;"">+</div>","null","","fixation","","",""
"memory-trial","274","639286","0.0-18.0-1.114","7643","approach_avoid_sv1","""event"",""trial"",""time""
""fullscreenenter"",""1"",""6656""
","
","
","""event"",""trial"",""time""
""fullscreenenter"",""1"",""6656""
","
","","","","","","2066.300000190735","images/plane4.png","","","memory_trial","2","maybe_old",""
"html-keyboard-response","275","639790","0.0-18.0-0.115","7643","approach_avoid_sv1","""event"",""trial"",""time""
""fullscreenenter"",""1"",""6656""
","
","
","""event"",""trial"",""time""
""fullscreenenter"",""1"",""6656""
","
","","","","","","null","<div style=""font-size:60px;"">+</div>","null","","fixation","","",""
"memory-trial","276","642205","0.0-18.0-1.115","7643","approach_avoid_sv1","""event"",""trial"",""time""
""fullscreenenter"",""1"",""6656""
","
","
","""event"",""trial"",""time""
""fullscreenenter"",""1"",""6656""
","
","","","","","","1406.1999998092651","images/rabbit8.png","","","memory_trial","1","definitely_old",""
"html-keyboard-response","277","642709","0.0-18.0-0.116","7643","approach_avoid_sv1","""event"",""trial"",""time""
""fullscreenenter"",""1"",""6656""
","
","
","""event"",""trial"",""time""
""fullscreenenter"",""1"",""6656""
","
","","","","","","null","<div style=""font-size:60px;"">+</div>","null","","fixation","","",""
"memory-trial","278","645358","0.0-18.0-1.116","7643","approach_avoid_sv1","""event"",""trial"",""time""
""fullscreenenter"",""1"",""6656""
","
","
","""event"",""trial"",""time""
""fullscreenenter"",""1"",""6656""
","
","","","","","","1637.6000003814697","images/straw3.png","","","memory_trial","2","maybe_old",""
"html-keyboard-response","279","645862","0.0-18.0-0.117","7643","approach_avoid_sv1","""event"",""trial"",""time""
""fullscreenenter"",""1"",""6656""
","
","
","""event"",""trial"",""time""
""fullscreenenter"",""1"",""6656""
","
","","","","","","null","<div style=""font-size:60px;"">+</div>","null","","fixation","","",""
"memory-trial","280","648710","0.0-18.0-1.117","7643","approach_avoid_sv1","""event"",""trial"",""time""
""fullscreenenter"",""1"",""6656""
","
","
","""event"",""trial"",""time""
""fullscreenenter"",""1"",""6656""
","
","","","","","","1841.5999999046326","images/sheep8.png","","","memory_trial","3","maybe_new",""
"html-keyboard-response","281","649214","0.0-18.0-0.118","7643","approach_avoid_sv1","""event"",""trial"",""time""
""fullscreenenter"",""1"",""6656""
","
","
","""event"",""trial"",""time""
""fullscreenenter"",""1"",""6656""
","
","","","","","","null","<div style=""font-size:60px;"">+</div>","null","","fixation","","",""
"memory-trial","282","651485","0.0-18.0-1.118","7643","approach_avoid_sv1","""event"",""trial"",""time""
""fullscreenenter"",""1"",""6656""
","
","
","""event"",""trial"",""time""
""fullscreenenter"",""1"",""6656""
","
","","","","","","1265.1999998092651","images/bush6.png","","","memory_trial","2","maybe_old",""
"html-keyboard-response","283","651989","0.0-18.0-0.119","7643","approach_avoid_sv1","""event"",""trial"",""time""
""fullscreenenter"",""1"",""6656""
","
","
","""event"",""trial"",""time""
""fullscreenenter"",""1"",""6656""
","
","","","","","","null","<div style=""font-size:60px;"">+</div>","null","","fixation","","",""
"memory-trial","284","655207","0.0-18.0-1.119","7643","approach_avoid_sv1","""event"",""trial"",""time""
""fullscreenenter"",""1"",""6656""
","
","
","""event"",""trial"",""time""
""fullscreenenter"",""1"",""6656""
","
","","","","","","2203.8999996185303","images/truck7.png","","","memory_trial","3","maybe_new",""
"html-keyboard-response","285","655718","0.0-18.0-0.120","7643","approach_avoid_sv1","""event"",""trial"",""time""
""fullscreenenter"",""1"",""6656""
","
","
","""event"",""trial"",""time""
""fullscreenenter"",""1"",""6656""
","
","","","","","","null","<div style=""font-size:60px;"">+</div>","null","","fixation","","",""
"memory-trial","286","657613","0.0-18.0-1.120","7643","approach_avoid_sv1","""event"",""trial"",""time""
""fullscreenenter"",""1"",""6656""
","
","
","""event"",""trial"",""time""
""fullscreenenter"",""1"",""6656""
","
","","","","","","883","images/cow4.png","","","memory_trial","1","definitely_old",""
"html-keyboard-response","287","658118","0.0-18.0-0.121","7643","approach_avoid_sv1","""event"",""trial"",""time""
""fullscreenenter"",""1"",""6656""
","
","
","""event"",""trial"",""time""
""fullscreenenter"",""1"",""6656""
","
","","","","","","null","<div style=""font-size:60px;"">+</div>","null","","fixation","","",""
"memory-trial","288","660839","0.0-18.0-1.121","7643","approach_avoid_sv1","""event"",""trial"",""time""
""fullscreenenter"",""1"",""6656""
","
","
","""event"",""trial"",""time""
""fullscreenenter"",""1"",""6656""
","
","","","","","","1705.6999998092651","images/straw5.png","","","memory_trial","4","definitely_new",""
"html-keyboard-response","289","661350","0.0-18.0-0.122","7643","approach_avoid_sv1","""event"",""trial"",""time""
""fullscreenenter"",""1"",""6656""
","
","
","""event"",""trial"",""time""
""fullscreenenter"",""1"",""6656""
","
","","","","","","null","<div style=""font-size:60px;"">+</div>","null","","fixation","","",""
"memory-trial","290","664093","0.0-18.0-1.122","7643","approach_avoid_sv1","""event"",""trial"",""time""
""fullscreenenter"",""1"",""6656""
","
","
","""event"",""trial"",""time""
""fullscreenenter"",""1"",""6656""
","
","","","","","","1730.4000000953674","images/straw1.png","","","memory_trial","2","maybe_old",""
"html-keyboard-response","291","664596","0.0-18.0-0.123","7643","approach_avoid_sv1","""event"",""trial"",""time""
""fullscreenenter"",""1"",""6656""
","
","
","""event"",""trial"",""time""
""fullscreenenter"",""1"",""6656""
","
","","","","","","null","<div style=""font-size:60px;"">+</div>","null","","fixation","","",""
"memory-trial","292","667613","0.0-18.0-1.123","7643","approach_avoid_sv1","""event"",""trial"",""time""
""fullscreenenter"",""1"",""6656""
","
","
","""event"",""trial"",""time""
""fullscreenenter"",""1"",""6656""
","
","","","","","","2003.3000001907349","images/dog5.png","","","memory_trial","1","definitely_old",""
"html-keyboard-response","293","668118","0.0-18.0-0.124","7643","approach_avoid_sv1","""event"",""trial"",""time""
""fullscreenenter"",""1"",""6656""
","
","
","""event"",""trial"",""time""
""fullscreenenter"",""1"",""6656""
","
","","","","","","null","<div style=""font-size:60px;"">+</div>","null","","fixation","","",""
"memory-trial","294","670358","0.0-18.0-1.124","7643","approach_avoid_sv1","""event"",""trial"",""time""
""fullscreenenter"",""1"",""6656""
","
","
","""event"",""trial"",""time""
""fullscreenenter"",""1"",""6656""
","
","","","","","","1233.3999996185303","images/train3.png","","","memory_trial","1","definitely_old",""
"html-keyboard-response","295","670861","0.0-18.0-0.125","7643","approach_avoid_sv1","""event"",""trial"",""time""
""fullscreenenter"",""1"",""6656""
","
","
","""event"",""trial"",""time""
""fullscreenenter"",""1"",""6656""
","
","","","","","","null","<div style=""font-size:60px;"">+</div>","null","","fixation","","",""
"memory-trial","296","673237","0.0-18.0-1.125","7643","approach_avoid_sv1","""event"",""trial"",""time""
""fullscreenenter"",""1"",""6656""
","
","
","""event"",""trial"",""time""
""fullscreenenter"",""1"",""6656""
","
","","","","","","1366.5","images/bed1.png","","","memory_trial","3","maybe_new",""
"html-keyboard-response","297","673742","0.0-18.0-0.126","7643","approach_avoid_sv1","""event"",""trial"",""time""
""fullscreenenter"",""1"",""6656""
","
","
","""event"",""trial"",""time""
