"trial_type","trial_index","time_elapsed","internal_node_id","subject_id","task_version","interactions","blur_events","focus_events","fullscreenenter_events","fullscreenexit_events","success","timeout","failed_images","failed_audio","failed_video","rt","stimulus","response","button_pressed","task_part","key_press","answer","correct"
"pavlovia","0","11","0.0-0.0","4176","approach_avoid_sv1","""event"",""trial"",""time""
""fullscreenenter"",""1"",""23588""
","
","
","""event"",""trial"",""time""
""fullscreenenter"",""1"",""23588""
","
","","","","","","","","","","","","",""
"fullscreen","1","24542","0.0-1.0","4176","approach_avoid_sv1","""event"",""trial"",""time""
""fullscreenenter"",""1"",""23588""
","
","
","""event"",""trial"",""time""
""fullscreenenter"",""1"",""23588""
","
","true","","","","","","","","","","","",""
"preload","2","28536","0.0-2.0","4176","approach_avoid_sv1","""event"",""trial"",""time""
""fullscreenenter"",""1"",""23588""
","
","
","""event"",""trial"",""time""
""fullscreenenter"",""1"",""23588""
","
","true","false","[]","[]","[]","","","","","","","",""
"preload","3","32593","0.0-3.0","4176","approach_avoid_sv1","""event"",""trial"",""time""
""fullscreenenter"",""1"",""23588""
","
","
","""event"",""trial"",""time""
""fullscreenenter"",""1"",""23588""
","
","true","false","[]","[]","[]","","","","","","","",""
"preload","4","33003","0.0-4.0","4176","approach_avoid_sv1","""event"",""trial"",""time""
""fullscreenenter"",""1"",""23588""
","
","
","""event"",""trial"",""time""
""fullscreenenter"",""1"",""23588""
","
","true","false","[]","[]","[]","","","","","","","",""
"audio-keyboard-response","5","35815","0.0-5.0","4176","approach_avoid_sv1","""event"",""trial"",""time""
""fullscreenenter"",""1"",""23588""
","
","
","""event"",""trial"",""time""
""fullscreenenter"",""1"",""23588""
","
","","","","","","2805.333333333333","audio/beep_loop.wav"," ","","","","",""
"audio-button-response","6","37813","0.0-6.0","4176","approach_avoid_sv1","""event"",""trial"",""time""
""fullscreenenter"",""1"",""23588""
","
","
","""event"",""trial"",""time""
""fullscreenenter"",""1"",""23588""
","
","","","","","","1995","audio/turtle.wav","3","","","","",""
"audio-button-response","7","40193","0.0-7.0","4176","approach_avoid_sv1","""event"",""trial"",""time""
""fullscreenenter"",""1"",""23588""
","
","
","""event"",""trial"",""time""
""fullscreenenter"",""1"",""23588""
","
","","","","","","1376","audio/shark.wav","2","","","","",""
"preload","8","46083","0.0-8.0","4176","approach_avoid_sv1","""event"",""trial"",""time""
""fullscreenenter"",""1"",""23588""
","
","
","""event"",""trial"",""time""
""fullscreenenter"",""1"",""23588""
","
","true","false","[]","[]","[]","","","","","","","",""
"learning-instructions","9","57409","0.0-9.0-0.0","4176","approach_avoid_sv1","""event"",""trial"",""time""
""fullscreenenter"",""1"",""23588""
","
","
","""event"",""trial"",""time""
""fullscreenenter"",""1"",""23588""
","
","","","","","","6843.800000000745","<p> Welcome back! </p><p> Last week, you had to make choices about lots of different items.  </p>","","0","instructions","","",""
"learning-instructions","10","62908","0.0-9.0-0.1","4176","approach_avoid_sv1","""event"",""trial"",""time""
""fullscreenenter"",""1"",""23588""
","
","
","""event"",""trial"",""time""
""fullscreenenter"",""1"",""23588""
","
","","","","","","1388.9000000003725","<p> Today, we are going to ask you to try to remember all the items. </p>","","0","instructions","","",""
"learning-instructions","11","74268","0.0-9.0-0.2","4176","approach_avoid_sv1","""event"",""trial"",""time""
""fullscreenenter"",""1"",""23588""
","
","
","""event"",""trial"",""time""
""fullscreenenter"",""1"",""23588""
","
","","","","","","1218.4000000003725","<p> On every trial, you will see an image. </p><p> The image may be an OLD image you saw during the games last week or it may be a NEW image that was not presented. </p>","","0","instructions","","",""
"learning-instructions","12","85134","0.0-9.0-0.3","4176","approach_avoid_sv1","""event"",""trial"",""time""
""fullscreenenter"",""1"",""23588""
","
","
","""event"",""trial"",""time""
""fullscreenenter"",""1"",""23588""
","
","","","","","","2364.60000000149","<p> You need to select whether the image is:  </p><p>  'Definitely old', 'Maybe old', 'Maybe new', or 'Definitely new.'  </p><div class=""mem-choice-instructions-grid""><div class=""choice-option"" id=""choice-option-1"" ><img src=""images/definitely_old_1.png"" id=""choice-option-img-1"" class=""choice-option-img"" stage=""1""></div><div class=""choice-option"" id=""choice-option-2"" ><img src=""images/maybe_old_1.png"" id=""choice-option-img-2"" class=""choice-option-img"" stage=""1""></div><div class=""choice-option"" id=""choice-option-3"" ><img src=""images/maybe_new_1.png"" id=""choice-option-img-3"" class=""choice-option-img"" stage=""1""></div><div class=""choice-option"" id=""choice-option-4"" > <img src=""images/definitely_new_1.png"" id=""choice-option-img-4"" class=""choice-option-img"" stage=""1""></div></div>","","0","instructions","","",""
"learning-instructions","13","92344","0.0-9.0-0.4","4176","approach_avoid_sv1","""event"",""trial"",""time""
""fullscreenenter"",""1"",""23588""
","
","
","""event"",""trial"",""time""
""fullscreenenter"",""1"",""23588""
","
","","","","","","700.3000000007451","<p> You should use the 1, 2, 3, and 4 keys to make your responses.  </p><div class=""mem-choice-instructions-grid""><div class=""choice-option"" id=""choice-option-1"" ><img src=""images/definitely_old.png"" id=""choice-option-img-1"" class=""choice-option-img"" stage=""1""></div><div class=""choice-option"" id=""choice-option-2"" ><img src=""images/maybe_old.png"" id=""choice-option-img-2"" class=""choice-option-img"" stage=""1""></div><div class=""choice-option"" id=""choice-option-3"" ><img src=""images/maybe_new.png"" id=""choice-option-img-3"" class=""choice-option-img"" stage=""1""></div><div class=""choice-option"" id=""choice-option-4"" > <img src=""images/definitely_new.png"" id=""choice-option-img-4"" class=""choice-option-img"" stage=""1""></div></div>","","0","instructions","","",""
"learning-instructions","14","99225","0.0-9.0-0.5","4176","approach_avoid_sv1","""event"",""trial"",""time""
""fullscreenenter"",""1"",""23588""
","
","
","""event"",""trial"",""time""
""fullscreenenter"",""1"",""23588""
","
","","","","","","553.5","<p> You will have 10 seconds to make each response.  </p><p>  Make sure to respond before time runs out! </p>","","0","instructions","","",""
"learning-instructions","15","106903","0.0-9.0-0.6","4176","approach_avoid_sv1","""event"",""trial"",""time""
""fullscreenenter"",""1"",""23588""
","
","
","""event"",""trial"",""time""
""fullscreenenter"",""1"",""23588""
","
","","","","","","604.0999999996275","<p> Today, you will see each image ONCE only.  </p><p>  That means none of the images will repeat. </p>","","0","instructions","","",""
"learning-instructions","16","121113","0.0-9.0-0.7","4176","approach_avoid_sv1","""event"",""trial"",""time""
""fullscreenenter"",""1"",""23588""
","
","
","""event"",""trial"",""time""
""fullscreenenter"",""1"",""23588""
","
","","","","","","1546","<p> Before you play the real game, it is time to practice. </p><p>  Just like in the real game, some of the images in the practice will be ones you have seen before. </p><p>  Others will be entirely new. </p>","","0","instructions","","",""
"html-button-response","17","125215","0.0-10.0","4176","approach_avoid_sv1","""event"",""trial"",""time""
""fullscreenenter"",""1"",""23588""
","
","
","""event"",""trial"",""time""
""fullscreenenter"",""1"",""23588""
","
","","","","","","3998.89999999851","<p> Ready to practice? </p><p> Remember, use the 1, 2, 3, and 4 keys to make your responses. </p>","0","","instructions","","",""
"html-keyboard-response","18","125818","0.0-11.0-0.0","4176","approach_avoid_sv1","""event"",""trial"",""time""
""fullscreenenter"",""1"",""23588""
","
","
","""event"",""trial"",""time""
""fullscreenenter"",""1"",""23588""
","
","","","","","","null","<div style=""font-size:60px;"">+</div>","null","","fixation","","",""
"memory-trial","19","128281","0.0-11.0-1.0","4176","approach_avoid_sv1","""event"",""trial"",""time""
""fullscreenenter"",""1"",""23588""
","
","
","""event"",""trial"",""time""
""fullscreenenter"",""1"",""23588""
","
","","","","","","1456.9000000003725","images/racket1.png","","","practice","1","definitely_old",""
"html-keyboard-response","20","128783","0.0-11.0-0.1","4176","approach_avoid_sv1","""event"",""trial"",""time""
""fullscreenenter"",""1"",""23588""
","
","
","""event"",""trial"",""time""
""fullscreenenter"",""1"",""23588""
","
","","","","","","null","<div style=""font-size:60px;"">+</div>","null","","fixation","","",""
"memory-trial","21","132633","0.0-11.0-1.1","4176","approach_avoid_sv1","""event"",""trial"",""time""
""fullscreenenter"",""1"",""23588""
","
","
","""event"",""trial"",""time""
""fullscreenenter"",""1"",""23588""
","
","","","","","","2845.699999999255","images/racket3.png","","","practice","4","definitely_new",""
"html-keyboard-response","22","133134","0.0-11.0-0.2","4176","approach_avoid_sv1","""event"",""trial"",""time""
""fullscreenenter"",""1"",""23588""
","
","
","""event"",""trial"",""time""
""fullscreenenter"",""1"",""23588""
","
","","","","","","null","<div style=""font-size:60px;"">+</div>","null","","fixation","","",""
"memory-trial","23","137475","0.0-11.0-1.2","4176","approach_avoid_sv1","""event"",""trial"",""time""
""fullscreenenter"",""1"",""23588""
","
","
","""event"",""trial"",""time""
""fullscreenenter"",""1"",""23588""
","
","","","","","","3335.5","images/racket5.png","","","practice","4","definitely_new",""
"html-keyboard-response","24","137977","0.0-11.0-0.3","4176","approach_avoid_sv1","""event"",""trial"",""time""
""fullscreenenter"",""1"",""23588""
","
","
","""event"",""trial"",""time""
""fullscreenenter"",""1"",""23588""
","
","","","","","","null","<div style=""font-size:60px;"">+</div>","null","","fixation","","",""
"memory-trial","25","140441","0.0-11.0-1.3","4176","approach_avoid_sv1","""event"",""trial"",""time""
""fullscreenenter"",""1"",""23588""
","
","
","""event"",""trial"",""time""
""fullscreenenter"",""1"",""23588""
","
","","","","","","1458.9000000003725","images/racket2.png","","","practice","4","definitely_new",""
"html-keyboard-response","26","140943","0.0-11.0-0.4","4176","approach_avoid_sv1","""event"",""trial"",""time""
""fullscreenenter"",""1"",""23588""
","
","
","""event"",""trial"",""time""
""fullscreenenter"",""1"",""23588""
","
","","","","","","null","<div style=""font-size:60px;"">+</div>","null","","fixation","","",""
"memory-trial","27","143568","0.0-11.0-1.4","4176","approach_avoid_sv1","""event"",""trial"",""time""
""fullscreenenter"",""1"",""23588""
","
","
","""event"",""trial"",""time""
""fullscreenenter"",""1"",""23588""
","
","","","","","","1621.300000000745","images/ball1.png","","","practice","1","definitely_old",""
"html-keyboard-response","28","144070","0.0-11.0-0.5","4176","approach_avoid_sv1","""event"",""trial"",""time""
""fullscreenenter"",""1"",""23588""
","
","
","""event"",""trial"",""time""
""fullscreenenter"",""1"",""23588""
","
","","","","","","null","<div style=""font-size:60px;"">+</div>","null","","fixation","","",""
"memory-trial","29","146512","0.0-11.0-1.5","4176","approach_avoid_sv1","""event"",""trial"",""time""
""fullscreenenter"",""1"",""23588""
","
","
","""event"",""trial"",""time""
""fullscreenenter"",""1"",""23588""
","
","","","","","","1437.5999999996275","images/ball3.png","","","practice","4","definitely_new",""
"html-keyboard-response","30","147014","0.0-11.0-0.6","4176","approach_avoid_sv1","""event"",""trial"",""time""
""fullscreenenter"",""1"",""23588""
","
","
","""event"",""trial"",""time""
""fullscreenenter"",""1"",""23588""
","
","","","","","","null","<div style=""font-size:60px;"">+</div>","null","","fixation","","",""
"memory-trial","31","149766","0.0-11.0-1.6","4176","approach_avoid_sv1","""event"",""trial"",""time""
""fullscreenenter"",""1"",""23588""
","
","
","""event"",""trial"",""time""
""fullscreenenter"",""1"",""23588""
","
","","","","","","1748.9000000003725","images/ball2.png","","","practice","2","maybe_old",""
"html-keyboard-response","32","150268","0.0-11.0-0.7","4176","approach_avoid_sv1","""event"",""trial"",""time""
""fullscreenenter"",""1"",""23588""
","
","
","""event"",""trial"",""time""
""fullscreenenter"",""1"",""23588""
","
","","","","","","null","<div style=""font-size:60px;"">+</div>","null","","fixation","","",""
"memory-trial","33","153036","0.0-11.0-1.7","4176","approach_avoid_sv1","""event"",""trial"",""time""
""fullscreenenter"",""1"",""23588""
","
","
","""event"",""trial"",""time""
""fullscreenenter"",""1"",""23588""
","
","","","","","","1763.300000000745","images/ball5.png","","","practice","2","maybe_old",""
"learning-instructions","34","163785","0.0-12.0-0.0","4176","approach_avoid_sv1","""event"",""trial"",""time""
""fullscreenenter"",""1"",""23588""
","
","
","""event"",""trial"",""time""
""fullscreenenter"",""1"",""23588""
","
","","","","","","3454.5999999996275","<p> Great! You have completed the practice. </p><p> Before you start, we're going to ask you a few questions about how the game works.  </p>","","0","instructions","","",""
"preload","35","166797","0.0-13.0","4176","approach_avoid_sv1","""event"",""trial"",""time""
""fullscreenenter"",""1"",""23588""
","
","
","""event"",""trial"",""time""
""fullscreenenter"",""1"",""23588""
","
","true","false","[]","[]","[]","","","","","","","",""
"comp-q","36","174400","0.0-14.0-0.0","4176","approach_avoid_sv1","""event"",""trial"",""time""
""fullscreenenter"",""1"",""23588""
","
","
","""event"",""trial"",""time""
""fullscreenenter"",""1"",""23588""
","
","","","","","","1771.300000000745","<p> <b> True or False? </b> </p><p> In this game, you will only see each image once. </p>","","0","comp_question","","","true"
"comp-q","37","181845","0.0-14.0-1.0","4176","approach_avoid_sv1","""event"",""trial"",""time""
""fullscreenenter"",""1"",""23588""
","
","
","""event"",""trial"",""time""
""fullscreenenter"",""1"",""23588""
","
","","","","","","1100.1000000014901","<p> <b> That's right! </b> You will see many different images <i> one time each </i> in this game. </p>","","0","comp_answer","","",""
"comp-q","38","188008","0.0-15.0-0.0","4176","approach_avoid_sv1","""event"",""trial"",""time""
""fullscreenenter"",""1"",""23588""
","
","
","""event"",""trial"",""time""
""fullscreenenter"",""1"",""23588""
","
","","","","","","1151.5999999996275","<p> <b> True or False? </b> </p><p> You should use the mouse and click to make your response. </p>","","1","comp_question","","","true"
"comp-q","39","195852","0.0-15.0-1.0","4176","approach_avoid_sv1","""event"",""trial"",""time""
""fullscreenenter"",""1"",""23588""
","
","
","""event"",""trial"",""time""
""fullscreenenter"",""1"",""23588""
","
","","","","","","1346.9000000003725","<p><b> That's right! </b> You should use the '1', '2', '3', and '4' keys to make your response. </p>","","0","comp_answer","","",""
"comp-q","40","202854","0.0-16.0-0.0","4176","approach_avoid_sv1","""event"",""trial"",""time""
""fullscreenenter"",""1"",""23588""
","
","
","""event"",""trial"",""time""
""fullscreenenter"",""1"",""23588""
","
","","","","","","1320.199999999255","<p> <b> True or False? </b> </p><p> You will have as much time as you want to make each choice. </p>","","1","comp_question","","","true"
"comp-q","41","208425","0.0-16.0-1.0","4176","approach_avoid_sv1","""event"",""trial"",""time""
""fullscreenenter"",""1"",""23588""
","
","
","""event"",""trial"",""time""
""fullscreenenter"",""1"",""23588""
","
","","","","","","874.3000000007451","<p> <b> That's right! </b> You will only have 10 seconds to make each choice. </p>","","0","comp_answer","","",""
"learning-instructions","42","219497","0.0-17.0","4176","approach_avoid_sv1","""event"",""trial"",""time""
""fullscreenenter"",""1"",""23588""
","
","
","""event"",""trial"",""time""
""fullscreenenter"",""1"",""23588""
","
","","","","","","2411","<p> Great! You are now ready to begin the game. </p><p> Remember, use the 1, 2, 3, and 4 keys to make your responses. </p>","","0","instructions","","",""
"html-keyboard-response","43","220100","0.0-18.0-0.0","4176","approach_avoid_sv1","""event"",""trial"",""time""
""fullscreenenter"",""1"",""23588""
","
","
","""event"",""trial"",""time""
""fullscreenenter"",""1"",""23588""
","
","","","","","","null","<div style=""font-size:60px;"">+</div>","null","","fixation","","",""
"memory-trial","44","222730","0.0-18.0-1.0","4176","approach_avoid_sv1","""event"",""trial"",""time""
""fullscreenenter"",""1"",""23588""
","
","
","""event"",""trial"",""time""
""fullscreenenter"",""1"",""23588""
","
","","","","","","1624.5","images/bush8.png","","","memory_trial","4","definitely_new",""
"html-keyboard-response","45","223233","0.0-18.0-0.1","4176","approach_avoid_sv1","""event"",""trial"",""time""
""fullscreenenter"",""1"",""23588""
","
","
","""event"",""trial"",""time""
""fullscreenenter"",""1"",""23588""
","
","","","","","","null","<div style=""font-size:60px;"">+</div>","null","","fixation","","",""
"memory-trial","46","225840","0.0-18.0-1.1","4176","approach_avoid_sv1","""event"",""trial"",""time""
""fullscreenenter"",""1"",""23588""
","
","
","""event"",""trial"",""time""
""fullscreenenter"",""1"",""23588""
","
","","","","","","1603.4000000003725","images/apple3.png","","","memory_trial","4","definitely_new",""
"html-keyboard-response","47","226342","0.0-18.0-0.2","4176","approach_avoid_sv1","""event"",""trial"",""time""
""fullscreenenter"",""1"",""23588""
","
","
","""event"",""trial"",""time""
""fullscreenenter"",""1"",""23588""
","
","","","","","","null","<div style=""font-size:60px;"">+</div>","null","","fixation","","",""
"memory-trial","48","228809","0.0-18.0-1.2","4176","approach_avoid_sv1","""event"",""trial"",""time""
""fullscreenenter"",""1"",""23588""
","
","
","""event"",""trial"",""time""
""fullscreenenter"",""1"",""23588""
","
","","","","","","1461.4000000003725","images/boat2.png","","","memory_trial","4","definitely_new",""
"html-keyboard-response","49","229310","0.0-18.0-0.3","4176","approach_avoid_sv1","""event"",""trial"",""time""
""fullscreenenter"",""1"",""23588""
","
","
","""event"",""trial"",""time""
""fullscreenenter"",""1"",""23588""
","
","","","","","","null","<div style=""font-size:60px;"">+</div>","null","","fixation","","",""
"memory-trial","50","231916","0.0-18.0-1.3","4176","approach_avoid_sv1","""event"",""trial"",""time""
""fullscreenenter"",""1"",""23588""
","
","
","""event"",""trial"",""time""
""fullscreenenter"",""1"",""23588""
","
","","","","","","1602.2999999988824","images/table7.png","","","memory_trial","1","definitely_old",""
"html-keyboard-response","51","232418","0.0-18.0-0.4","4176","approach_avoid_sv1","""event"",""trial"",""time""
""fullscreenenter"",""1"",""23588""
","
","
","""event"",""trial"",""time""
""fullscreenenter"",""1"",""23588""
","
","","","","","","null","<div style=""font-size:60px;"">+</div>","null","","fixation","","",""
"memory-trial","52","234525","0.0-18.0-1.4","4176","approach_avoid_sv1","""event"",""trial"",""time""
""fullscreenenter"",""1"",""23588""
","
","
","""event"",""trial"",""time""
""fullscreenenter"",""1"",""23588""
","
","","","","","","1103.4000000003725","images/truck5.png","","","memory_trial","1","definitely_old",""
"html-keyboard-response","53","235026","0.0-18.0-0.5","4176","approach_avoid_sv1","""event"",""trial"",""time""
""fullscreenenter"",""1"",""23588""
","
","
","""event"",""trial"",""time""
""fullscreenenter"",""1"",""23588""
","
","","","","","","null","<div style=""font-size:60px;"">+</div>","null","","fixation","","",""
"memory-trial","54","237915","0.0-18.0-1.5","4176","approach_avoid_sv1","""event"",""trial"",""time""
""fullscreenenter"",""1"",""23588""
","
","
","""event"",""trial"",""time""
""fullscreenenter"",""1"",""23588""
","
","","","","","","1884.6000000014901","images/horse2.png","","","memory_trial","1","definitely_old",""
"html-keyboard-response","55","238417","0.0-18.0-0.6","4176","approach_avoid_sv1","""event"",""trial"",""time""
""fullscreenenter"",""1"",""23588""
","
","
","""event"",""trial"",""time""
""fullscreenenter"",""1"",""23588""
","
","","","","","","null","<div style=""font-size:60px;"">+</div>","null","","fixation","","",""
"memory-trial","56","241129","0.0-18.0-1.6","4176","approach_avoid_sv1","""event"",""trial"",""time""
""fullscreenenter"",""1"",""23588""
","
","
","""event"",""trial"",""time""
""fullscreenenter"",""1"",""23588""
","
","","","","","","1706.9000000003725","images/orange8.png","","","memory_trial","4","definitely_new",""
"html-keyboard-response","57","241631","0.0-18.0-0.7","4176","approach_avoid_sv1","""event"",""trial"",""time""
""fullscreenenter"",""1"",""23588""
","
","
","""event"",""trial"",""time""
""fullscreenenter"",""1"",""23588""
","
","","","","","","null","<div style=""font-size:60px;"">+</div>","null","","fixation","","",""
"memory-trial","58","244761","0.0-18.0-1.7","4176","approach_avoid_sv1","""event"",""trial"",""time""
""fullscreenenter"",""1"",""23588""
","
","
","""event"",""trial"",""time""
""fullscreenenter"",""1"",""23588""
","
","","","","","","2125.9000000003725","images/flower2.png","","","memory_trial","4","definitely_new",""
"html-keyboard-response","59","245263","0.0-18.0-0.8","4176","approach_avoid_sv1","""event"",""trial"",""time""
""fullscreenenter"",""1"",""23588""
","
","
","""event"",""trial"",""time""
""fullscreenenter"",""1"",""23588""
","
","","","","","","null","<div style=""font-size:60px;"">+</div>","null","","fixation","","",""
"memory-trial","60","247681","0.0-18.0-1.8","4176","approach_avoid_sv1","""event"",""trial"",""time""
""fullscreenenter"",""1"",""23588""
","
","
","""event"",""trial"",""time""
""fullscreenenter"",""1"",""23588""
","
","","","","","","1413.4000000003725","images/flower3.png","","","memory_trial","1","definitely_old",""
"html-keyboard-response","61","248183","0.0-18.0-0.9","4176","approach_avoid_sv1","""event"",""trial"",""time""
""fullscreenenter"",""1"",""23588""
","
","
","""event"",""trial"",""time""
""fullscreenenter"",""1"",""23588""
","
","","","","","","null","<div style=""font-size:60px;"">+</div>","null","","fixation","","",""
"memory-trial","62","250537","0.0-18.0-1.9","4176","approach_avoid_sv1","""event"",""trial"",""time""
""fullscreenenter"",""1"",""23588""
","
","
","""event"",""trial"",""time""
""fullscreenenter"",""1"",""23588""
","
","","","","","","1350.0999999996275","images/chair8.png","","","memory_trial","1","definitely_old",""
"html-keyboard-response","63","251040","0.0-18.0-0.10","4176","approach_avoid_sv1","""event"",""trial"",""time""
""fullscreenenter"",""1"",""23588""
","
","
","""event"",""trial"",""time""
""fullscreenenter"",""1"",""23588""
","
","","","","","","null","<div style=""font-size:60px;"">+</div>","null","","fixation","","",""
"memory-trial","64","253569","0.0-18.0-1.10","4176","approach_avoid_sv1","""event"",""trial"",""time""
""fullscreenenter"",""1"",""23588""
","
","
","""event"",""trial"",""time""
""fullscreenenter"",""1"",""23588""
","
","","","","","","1524.9000000003725","images/cat4.png","","","memory_trial","1","definitely_old",""
"html-keyboard-response","65","254071","0.0-18.0-0.11","4176","approach_avoid_sv1","""event"",""trial"",""time""
""fullscreenenter"",""1"",""23588""
","
","
","""event"",""trial"",""time""
""fullscreenenter"",""1"",""23588""
","
","","","","","","null","<div style=""font-size:60px;"">+</div>","null","","fixation","","",""
"memory-trial","66","257878","0.0-18.0-1.11","4176","approach_avoid_sv1","""event"",""trial"",""time""
""fullscreenenter"",""1"",""23588""
","
","
","""event"",""trial"",""time""
""fullscreenenter"",""1"",""23588""
","
","","","","","","2803.300000000745","images/train4.png","","","memory_trial","4","definitely_new",""
"html-keyboard-response","67","258380","0.0-18.0-0.12","4176","approach_avoid_sv1","""event"",""trial"",""time""
""fullscreenenter"",""1"",""23588""
","
","
","""event"",""trial"",""time""
""fullscreenenter"",""1"",""23588""
","
","","","","","","null","<div style=""font-size:60px;"">+</div>","null","","fixation","","",""
"memory-trial","68","260683","0.0-18.0-1.12","4176","approach_avoid_sv1","""event"",""trial"",""time""
""fullscreenenter"",""1"",""23588""
","
","
","""event"",""trial"",""time""
""fullscreenenter"",""1"",""23588""
","
","","","","","","1298.5","images/sofa3.png","","","memory_trial","4","definitely_new",""
"html-keyboard-response","69","261184","0.0-18.0-0.13","4176","approach_avoid_sv1","""event"",""trial"",""time""
""fullscreenenter"",""1"",""23588""
","
","
","""event"",""trial"",""time""
""fullscreenenter"",""1"",""23588""
","
","","","","","","null","<div style=""font-size:60px;"">+</div>","null","","fixation","","",""
"memory-trial","70","263490","0.0-18.0-1.13","4176","approach_avoid_sv1","""event"",""trial"",""time""
""fullscreenenter"",""1"",""23588""
","
","
","""event"",""trial"",""time""
""fullscreenenter"",""1"",""23588""
","
","","","","","","1301.4000000003725","images/sheep4.png","","","memory_trial","1","definitely_old",""
"html-keyboard-response","71","263992","0.0-18.0-0.14","4176","approach_avoid_sv1","""event"",""trial"",""time""
""fullscreenenter"",""1"",""23588""
","
","
","""event"",""trial"",""time""
""fullscreenenter"",""1"",""23588""
","
","","","","","","null","<div style=""font-size:60px;"">+</div>","null","","fixation","","",""
"memory-trial","72","266869","0.0-18.0-1.14","4176","approach_avoid_sv1","""event"",""trial"",""time""
""fullscreenenter"",""1"",""23588""
","
","
","""event"",""trial"",""time""
""fullscreenenter"",""1"",""23588""
","
","","","","","","1873.300000000745","images/apple4.png","","","memory_trial","4","definitely_new",""
"html-keyboard-response","73","267371","0.0-18.0-0.15","4176","approach_avoid_sv1","""event"",""trial"",""time""
""fullscreenenter"",""1"",""23588""
","
","
","""event"",""trial"",""time""
""fullscreenenter"",""1"",""23588""
","
","","","","","","null","<div style=""font-size:60px;"">+</div>","null","","fixation","","",""
"memory-trial","74","269379","0.0-18.0-1.15","4176","approach_avoid_sv1","""event"",""trial"",""time""
""fullscreenenter"",""1"",""23588""
","
","
","""event"",""trial"",""time""
""fullscreenenter"",""1"",""23588""
","
","","","","","","1003.3000000007451","images/cow7.png","","","memory_trial","1","definitely_old",""
"html-keyboard-response","75","269881","0.0-18.0-0.16","4176","approach_avoid_sv1","""event"",""trial"",""time""
""fullscreenenter"",""1"",""23588""
","
","
","""event"",""trial"",""time""
""fullscreenenter"",""1"",""23588""
","
","","","","","","null","<div style=""font-size:60px;"">+</div>","null","","fixation","","",""
"memory-trial","76","272103","0.0-18.0-1.16","4176","approach_avoid_sv1","""event"",""trial"",""time""
""fullscreenenter"",""1"",""23588""
","
","
","""event"",""trial"",""time""
""fullscreenenter"",""1"",""23588""
","
","","","","","","1218.7000000011176","images/bush5.png","","","memory_trial","4","definitely_new",""
"html-keyboard-response","77","272605","0.0-18.0-0.17","4176","approach_avoid_sv1","""event"",""trial"",""time""
""fullscreenenter"",""1"",""23588""
","
","
","""event"",""trial"",""time""
""fullscreenenter"",""1"",""23588""
","
","","","","","","null","<div style=""font-size:60px;"">+</div>","null","","fixation","","",""
"memory-trial","78","274745","0.0-18.0-1.17","4176","approach_avoid_sv1","""event"",""trial"",""time""
""fullscreenenter"",""1"",""23588""
","
","
","""event"",""trial"",""time""
""fullscreenenter"",""1"",""23588""
","
","","","","","","1134.800000000745","images/orange2.png","","","memory_trial","4","definitely_new",""
"html-keyboard-response","79","275246","0.0-18.0-0.18","4176","approach_avoid_sv1","""event"",""trial"",""time""
""fullscreenenter"",""1"",""23588""
","
","
","""event"",""trial"",""time""
""fullscreenenter"",""1"",""23588""
","
","","","","","","null","<div style=""font-size:60px;"">+</div>","null","","fixation","","",""
"memory-trial","80","277208","0.0-18.0-1.18","4176","approach_avoid_sv1","""event"",""trial"",""time""
""fullscreenenter"",""1"",""23588""
","
","
","""event"",""trial"",""time""
""fullscreenenter"",""1"",""23588""
","
","","","","","","957.4000000003725","images/train8.png","","","memory_trial","4","definitely_new",""
"html-keyboard-response","81","277709","0.0-18.0-0.19","4176","approach_avoid_sv1","""event"",""trial"",""time""
""fullscreenenter"",""1"",""23588""
","
","
","""event"",""trial"",""time""
""fullscreenenter"",""1"",""23588""
","
","","","","","","null","<div style=""font-size:60px;"">+</div>","null","","fixation","","",""
"memory-trial","82","280125","0.0-18.0-1.19","4176","approach_avoid_sv1","""event"",""trial"",""time""
""fullscreenenter"",""1"",""23588""
","
","
","""event"",""trial"",""time""
""fullscreenenter"",""1"",""23588""
","
","","","","","","1412","images/train5.png","","","memory_trial","1","definitely_old",""
"html-keyboard-response","83","280627","0.0-18.0-0.20","4176","approach_avoid_sv1","""event"",""trial"",""time""
""fullscreenenter"",""1"",""23588""
","
","
","""event"",""trial"",""time""
""fullscreenenter"",""1"",""23588""
","
","","","","","","null","<div style=""font-size:60px;"">+</div>","null","","fixation","","",""
"memory-trial","84","283057","0.0-18.0-1.20","4176","approach_avoid_sv1","""event"",""trial"",""time""
""fullscreenenter"",""1"",""23588""
","
","
","""event"",""trial"",""time""
""fullscreenenter"",""1"",""23588""
","
","","","","","","1425.7999999988824","images/sheep8.png","","","memory_trial","1","definitely_old",""
"html-keyboard-response","85","283559","0.0-18.0-0.21","4176","approach_avoid_sv1","""event"",""trial"",""time""
""fullscreenenter"",""1"",""23588""
","
","
","""event"",""trial"",""time""
""fullscreenenter"",""1"",""23588""
","
","","","","","","null","<div style=""font-size:60px;"">+</div>","null","","fixation","","",""
"memory-trial","86","286312","0.0-18.0-1.21","4176","approach_avoid_sv1","""event"",""trial"",""time""
""fullscreenenter"",""1"",""23588""
","
","
","""event"",""trial"",""time""
""fullscreenenter"",""1"",""23588""
","
","","","","","","1748.4000000003725","images/truck8.png","","","memory_trial","4","definitely_new",""
"html-keyboard-response","87","286813","0.0-18.0-0.22","4176","approach_avoid_sv1","""event"",""trial"",""time""
""fullscreenenter"",""1"",""23588""
","
","
","""event"",""trial"",""time""
""fullscreenenter"",""1"",""23588""
","
","","","","","","null","<div style=""font-size:60px;"">+</div>","null","","fixation","","",""
"memory-trial","88","289273","0.0-18.0-1.22","4176","approach_avoid_sv1","""event"",""trial"",""time""
""fullscreenenter"",""1"",""23588""
","
","
","""event"",""trial"",""time""
""fullscreenenter"",""1"",""23588""
","
","","","","","","1455.0999999996275","images/goat6.png","","","memory_trial","1","definitely_old",""
"html-keyboard-response","89","289775","0.0-18.0-0.23","4176","approach_avoid_sv1","""event"",""trial"",""time""
""fullscreenenter"",""1"",""23588""
","
","
","""event"",""trial"",""time""
""fullscreenenter"",""1"",""23588""
","
","","","","","","null","<div style=""font-size:60px;"">+</div>","null","","fixation","","",""
"memory-trial","90","291869","0.0-18.0-1.23","4176","approach_avoid_sv1","""event"",""trial"",""time""
""fullscreenenter"",""1"",""23588""
","
","
","""event"",""trial"",""time""
""fullscreenenter"",""1"",""23588""
","
","","","","","","1090.300000000745","images/rodent7.png","","","memory_trial","1","definitely_old",""
"html-keyboard-response","91","292371","0.0-18.0-0.24","4176","approach_avoid_sv1","""event"",""trial"",""time""
""fullscreenenter"",""1"",""23588""
","
","
","""event"",""trial"",""time""
""fullscreenenter"",""1"",""23588""
","
","","","","","","null","<div style=""font-size:60px;"">+</div>","null","","fixation","","",""
"memory-trial","92","294480","0.0-18.0-1.24","4176","approach_avoid_sv1","""event"",""trial"",""time""
""fullscreenenter"",""1"",""23588""
","
","
","""event"",""trial"",""time""
""fullscreenenter"",""1"",""23588""
","
","","","","","","1104.4000000003725","images/plane6.png","","","memory_trial","1","definitely_old",""
"html-keyboard-response","93","294982","0.0-18.0-0.25","4176","approach_avoid_sv1","""event"",""trial"",""time""
""fullscreenenter"",""1"",""23588""
","
","
","""event"",""trial"",""time""
""fullscreenenter"",""1"",""23588""
","
","","","","","","null","<div style=""font-size:60px;"">+</div>","null","","fixation","","",""
"memory-trial","94","297591","0.0-18.0-1.25","4176","approach_avoid_sv1","""event"",""trial"",""time""
""fullscreenenter"",""1"",""23588""
","
","
","""event"",""trial"",""time""
""fullscreenenter"",""1"",""23588""
","
","","","","","","1605.4000000003725","images/goat2.png","","","memory_trial","4","definitely_new",""
"html-keyboard-response","95","298093","0.0-18.0-0.26","4176","approach_avoid_sv1","""event"",""trial"",""time""
""fullscreenenter"",""1"",""23588""
","
","
","""event"",""trial"",""time""
""fullscreenenter"",""1"",""23588""
","
","","","","","","null","<div style=""font-size:60px;"">+</div>","null","","fixation","","",""
"memory-trial","96","300471","0.0-18.0-1.26","4176","approach_avoid_sv1","""event"",""trial"",""time""
""fullscreenenter"",""1"",""23588""
","
","
","""event"",""trial"",""time""
""fullscreenenter"",""1"",""23588""
","
","","","","","","1374.300000000745","images/rabbit4.png","","","memory_trial","1","definitely_old",""
"html-keyboard-response","97","300972","0.0-18.0-0.27","4176","approach_avoid_sv1","""event"",""trial"",""time""
""fullscreenenter"",""1"",""23588""
","
","
","""event"",""trial"",""time""
""fullscreenenter"",""1"",""23588""
","
","","","","","","null","<div style=""font-size:60px;"">+</div>","null","","fixation","","",""
"memory-trial","98","303324","0.0-18.0-1.27","4176","approach_avoid_sv1","""event"",""trial"",""time""
""fullscreenenter"",""1"",""23588""
","
","
","""event"",""trial"",""time""
""fullscreenenter"",""1"",""23588""
","
","","","","","","1347.0999999996275","images/boat7.png","","","memory_trial","4","definitely_new",""
"html-keyboard-response","99","303826","0.0-18.0-0.28","4176","approach_avoid_sv1","""event"",""trial"",""time""
""fullscreenenter"",""1"",""23588""
","
","
","""event"",""trial"",""time""
""fullscreenenter"",""1"",""23588""
","
","","","","","","null","<div style=""font-size:60px;"">+</div>","null","","fixation","","",""
"memory-trial","100","306127","0.0-18.0-1.28","4176","approach_avoid_sv1","""event"",""trial"",""time""
""fullscreenenter"",""1"",""23588""
","
","
","""event"",""trial"",""time""
""fullscreenenter"",""1"",""23588""
","
","","","","","","1297","images/goat8.png","","","memory_trial","1","definitely_old",""
"html-keyboard-response","101","306629","0.0-18.0-0.29","4176","approach_avoid_sv1","""event"",""trial"",""time""
""fullscreenenter"",""1"",""23588""
","
","
","""event"",""trial"",""time""
""fullscreenenter"",""1"",""23588""
","
","","","","","","null","<div style=""font-size:60px;"">+</div>","null","","fixation","","",""
"memory-trial","102","309133","0.0-18.0-1.29","4176","approach_avoid_sv1","""event"",""trial"",""time""
""fullscreenenter"",""1"",""23588""
","
","
","""event"",""trial"",""time""
""fullscreenenter"",""1"",""23588""
","
","","","","","","1498.9000000003725","images/goat1.png","","","memory_trial","4","definitely_new",""
"html-keyboard-response","103","309635","0.0-18.0-0.30","4176","approach_avoid_sv1","""event"",""trial"",""time""
""fullscreenenter"",""1"",""23588""
","
","
","""event"",""trial"",""time""
""fullscreenenter"",""1"",""23588""
","
","","","","","","null","<div style=""font-size:60px;"">+</div>","null","","fixation","","",""
"memory-trial","104","312185","0.0-18.0-1.30","4176","approach_avoid_sv1","""event"",""trial"",""time""
""fullscreenenter"",""1"",""23588""
","
","
","""event"",""trial"",""time""
""fullscreenenter"",""1"",""23588""
","
","","","","","","1546","images/table3.png","","","memory_trial","4","definitely_new",""
"html-keyboard-response","105","312686","0.0-18.0-0.31","4176","approach_avoid_sv1","""event"",""trial"",""time""
""fullscreenenter"",""1"",""23588""
","
","
","""event"",""trial"",""time""
""fullscreenenter"",""1"",""23588""
","
","","","","","","null","<div style=""font-size:60px;"">+</div>","null","","fixation","","",""
"memory-trial","106","314778","0.0-18.0-1.31","4176","approach_avoid_sv1","""event"",""trial"",""time""
""fullscreenenter"",""1"",""23588""
","
","
","""event"",""trial"",""time""
""fullscreenenter"",""1"",""23588""
","
","","","","","","1087.300000000745","images/rabbit7.png","","","memory_trial","4","definitely_new",""
"html-keyboard-response","107","315280","0.0-18.0-0.32","4176","approach_avoid_sv1","""event"",""trial"",""time""
""fullscreenenter"",""1"",""23588""
","
","
","""event"",""trial"",""time""
""fullscreenenter"",""1"",""23588""
","
","","","","","","null","<div style=""font-size:60px;"">+</div>","null","","fixation","","",""
"memory-trial","108","318081","0.0-18.0-1.32","4176","approach_avoid_sv1","""event"",""trial"",""time""
""fullscreenenter"",""1"",""23588""
","
","
","""event"",""trial"",""time""
""fullscreenenter"",""1"",""23588""
","
","","","","","","1796.5","images/bed2.png","","","memory_trial","1","definitely_old",""
"html-keyboard-response","109","318583","0.0-18.0-0.33","4176","approach_avoid_sv1","""event"",""trial"",""time""
""fullscreenenter"",""1"",""23588""
","
","
","""event"",""trial"",""time""
""fullscreenenter"",""1"",""23588""
","
","","","","","","null","<div style=""font-size:60px;"">+</div>","null","","fixation","","",""
"memory-trial","110","320986","0.0-18.0-1.33","4176","approach_avoid_sv1","""event"",""trial"",""time""
""fullscreenenter"",""1"",""23588""
","
","
","""event"",""trial"",""time""
""fullscreenenter"",""1"",""23588""
","
","","","","","","1399.199999999255","images/dog5.png","","","memory_trial","1","definitely_old",""
"html-keyboard-response","111","321488","0.0-18.0-0.34","4176","approach_avoid_sv1","""event"",""trial"",""time""
""fullscreenenter"",""1"",""23588""
","
","
","""event"",""trial"",""time""
""fullscreenenter"",""1"",""23588""
","
","","","","","","null","<div style=""font-size:60px;"">+</div>","null","","fixation","","",""
"memory-trial","112","323691","0.0-18.0-1.34","4176","approach_avoid_sv1","""event"",""trial"",""time""
""fullscreenenter"",""1"",""23588""
","
","
","""event"",""trial"",""time""
""fullscreenenter"",""1"",""23588""
","
","","","","","","1197.5999999996275","images/bush4.png","","","memory_trial","4","definitely_new",""
"html-keyboard-response","113","324193","0.0-18.0-0.35","4176","approach_avoid_sv1","""event"",""trial"",""time""
""fullscreenenter"",""1"",""23588""
","
","
","""event"",""trial"",""time""
""fullscreenenter"",""1"",""23588""
","
","","","","","","null","<div style=""font-size:60px;"">+</div>","null","","fixation","","",""
"memory-trial","114","326386","0.0-18.0-1.35","4176","approach_avoid_sv1","""event"",""trial"",""time""
""fullscreenenter"",""1"",""23588""
","
","
","""event"",""trial"",""time""
""fullscreenenter"",""1"",""23588""
","
","","","","","","1188.5","images/table4.png","","","memory_trial","4","definitely_new",""
"html-keyboard-response","115","326891","0.0-18.0-0.36","4176","approach_avoid_sv1","""event"",""trial"",""time""
""fullscreenenter"",""1"",""23588""
","
","
","""event"",""trial"",""time""
""fullscreenenter"",""1"",""23588""
","
","","","","","","null","<div style=""font-size:60px;"">+</div>","null","","fixation","","",""
"memory-trial","116","329456","0.0-18.0-1.36","4176","approach_avoid_sv1","""event"",""trial"",""time""
""fullscreenenter"",""1"",""23588""
","
","
","""event"",""trial"",""time""
""fullscreenenter"",""1"",""23588""
","
","","","","","","1562","images/flower7.png","","","memory_trial","4","definitely_new",""
"html-keyboard-response","117","329958","0.0-18.0-0.37","4176","approach_avoid_sv1","""event"",""trial"",""time""
""fullscreenenter"",""1"",""23588""
","
","
","""event"",""trial"",""time""
""fullscreenenter"",""1"",""23588""
","
","","","","","","null","<div style=""font-size:60px;"">+</div>","null","","fixation","","",""
"memory-trial","118","332628","0.0-18.0-1.37","4176","approach_avoid_sv1","""event"",""trial"",""time""
""fullscreenenter"",""1"",""23588""
","
","
","""event"",""trial"",""time""
""fullscreenenter"",""1"",""23588""
","
","","","","","","1665.9000000003725","images/sofa1.png","","","memory_trial","4","definitely_new",""
"html-keyboard-response","119","333129","0.0-18.0-0.38","4176","approach_avoid_sv1","""event"",""trial"",""time""
""fullscreenenter"",""1"",""23588""
","
","
","""event"",""trial"",""time""
""fullscreenenter"",""1"",""23588""
","
","","","","","","null","<div style=""font-size:60px;"">+</div>","null","","fixation","","",""
"memory-trial","120","335546","0.0-18.0-1.38","4176","approach_avoid_sv1","""event"",""trial"",""time""
""fullscreenenter"",""1"",""23588""
","
","
","""event"",""trial"",""time""
""fullscreenenter"",""1"",""23588""
","
","","","","","","1411.5","images/cow1.png","","","memory_trial","1","definitely_old",""
"html-keyboard-response","121","336048","0.0-18.0-0.39","4176","approach_avoid_sv1","""event"",""trial"",""time""
""fullscreenenter"",""1"",""23588""
","
","
","""event"",""trial"",""time""
""fullscreenenter"",""1"",""23588""
","
","","","","","","null","<div style=""font-size:60px;"">+</div>","null","","fixation","","",""
"memory-trial","122","338371","0.0-18.0-1.39","4176","approach_avoid_sv1","""event"",""trial"",""time""
""fullscreenenter"",""1"",""23588""
","
","
","""event"",""trial"",""time""
""fullscreenenter"",""1"",""23588""
","
","","","","","","1319.4000000003725","images/orange1.png","","","memory_trial","1","definitely_old",""
"html-keyboard-response","123","338873","0.0-18.0-0.40","4176","approach_avoid_sv1","""event"",""trial"",""time""
""fullscreenenter"",""1"",""23588""
","
","
","""event"",""trial"",""time""
""fullscreenenter"",""1"",""23588""
","
","","","","","","null","<div style=""font-size:60px;"">+</div>","null","","fixation","","",""
"memory-trial","124","341385","0.0-18.0-1.40","4176","approach_avoid_sv1","""event"",""trial"",""time""
""fullscreenenter"",""1"",""23588""
","
","
","""event"",""trial"",""time""
""fullscreenenter"",""1"",""23588""
","
","","","","","","1506.800000000745","images/sofa7.png","","","memory_trial","4","definitely_new",""
"html-keyboard-response","125","341887","0.0-18.0-0.41","4176","approach_avoid_sv1","""event"",""trial"",""time""
""fullscreenenter"",""1"",""23588""
","
","
","""event"",""trial"",""time""
""fullscreenenter"",""1"",""23588""
","
","","","","","","null","<div style=""font-size:60px;"">+</div>","null","","fixation","","",""
"memory-trial","126","345025","0.0-18.0-1.41","4176","approach_avoid_sv1","""event"",""trial"",""time""
""fullscreenenter"",""1"",""23588""
","
","
","""event"",""trial"",""time""
""fullscreenenter"",""1"",""23588""
","
","","","","","","2133.9000000003725","images/flower1.png","","","memory_trial","4","definitely_new",""
"html-button-response","127","348916","0.0-18.0-2.41-0.41","4176","approach_avoid_sv1","""event"",""trial"",""time""
""fullscreenenter"",""1"",""23588""
","
","
","""event"",""trial"",""time""
""fullscreenenter"",""1"",""23588""
","
","","","","","","3888.5","<p> Take a break! </p><p> Click the button to continue. </p>","0","","break","","",""
"html-keyboard-response","128","349418","0.0-18.0-0.42","4176","approach_avoid_sv1","""event"",""trial"",""time""
""fullscreenenter"",""1"",""23588""
","
","
","""event"",""trial"",""time""
""fullscreenenter"",""1"",""23588""
","
","","","","","","null","<div style=""font-size:60px;"">+</div>","null","","fixation","","",""
"memory-trial","129","352331","0.0-18.0-1.42","4176","approach_avoid_sv1","""event"",""trial"",""time""
""fullscreenenter"",""1"",""23588""
","
","
","""event"",""trial"",""time""
""fullscreenenter"",""1"",""23588""
","
","","","","","","1906.7000000011176","images/bed1.png","","","memory_trial","1","definitely_old",""
"html-keyboard-response","130","352833","0.0-18.0-0.43","4176","approach_avoid_sv1","""event"",""trial"",""time""
""fullscreenenter"",""1"",""23588""
","
","
","""event"",""trial"",""time""
""fullscreenenter"",""1"",""23588""
","
","","","","","","null","<div style=""font-size:60px;"">+</div>","null","","fixation","","",""
"memory-trial","131","354923","0.0-18.0-1.43","4176","approach_avoid_sv1","""event"",""trial"",""time""
""fullscreenenter"",""1"",""23588""
","
","
","""event"",""trial"",""time""
""fullscreenenter"",""1"",""23588""
","
","","","","","","1085.0999999996275","images/banana4.png","","","memory_trial","4","definitely_new",""
"html-keyboard-response","132","355425","0.0-18.0-0.44","4176","approach_avoid_sv1","""event"",""trial"",""time""
""fullscreenenter"",""1"",""23588""
","
","
","""event"",""trial"",""time""
""fullscreenenter"",""1"",""23588""
","
","","","","","","null","<div style=""font-size:60px;"">+</div>","null","","fixation","","",""
"memory-trial","133","357495","0.0-18.0-1.44","4176","approach_avoid_sv1","""event"",""trial"",""time""
""fullscreenenter"",""1"",""23588""
","
","
","""event"",""trial"",""time""
""fullscreenenter"",""1"",""23588""
","
","","","","","","1065.9000000003725","images/cactus5.png","","","memory_trial","4","definitely_new",""
"html-keyboard-response","134","357997","0.0-18.0-0.45","4176","approach_avoid_sv1","""event"",""trial"",""time""
""fullscreenenter"",""1"",""23588""
","
","
","""event"",""trial"",""time""
""fullscreenenter"",""1"",""23588""
","
","","","","","","null","<div style=""font-size:60px;"">+</div>","null","","fixation","","",""
"memory-trial","135","359872","0.0-18.0-1.45","4176","approach_avoid_sv1","""event"",""trial"",""time""
""fullscreenenter"",""1"",""23588""
","
","
","""event"",""trial"",""time""
""fullscreenenter"",""1"",""23588""
","
","","","","","","871","images/tree5.png","","","memory_trial","4","definitely_new",""
"html-keyboard-response","136","360374","0.0-18.0-0.46","4176","approach_avoid_sv1","""event"",""trial"",""time""
""fullscreenenter"",""1"",""23588""
","
","
","""event"",""trial"",""time""
""fullscreenenter"",""1"",""23588""
","
","","","","","","null","<div style=""font-size:60px;"">+</div>","null","","fixation","","",""
"memory-trial","137","362683","0.0-18.0-1.46","4176","approach_avoid_sv1","""event"",""trial"",""time""
""fullscreenenter"",""1"",""23588""
","
","
","""event"",""trial"",""time""
""fullscreenenter"",""1"",""23588""
","
","","","","","","1304.1000000014901","images/plane4.png","","","memory_trial","4","definitely_new",""
"html-keyboard-response","138","363185","0.0-18.0-0.47","4176","approach_avoid_sv1","""event"",""trial"",""time""
""fullscreenenter"",""1"",""23588""
","
","
","""event"",""trial"",""time""
""fullscreenenter"",""1"",""23588""
","
","","","","","","null","<div style=""font-size:60px;"">+</div>","null","","fixation","","",""
"memory-trial","139","365048","0.0-18.0-1.47","4176","approach_avoid_sv1","""event"",""trial"",""time""
""fullscreenenter"",""1"",""23588""
","
","
","""event"",""trial"",""time""
""fullscreenenter"",""1"",""23588""
","
","","","","","","858.9000000003725","images/banana8.png","","","memory_trial","4","definitely_new",""
"html-keyboard-response","140","365550","0.0-18.0-0.48","4176","approach_avoid_sv1","""event"",""trial"",""time""
""fullscreenenter"",""1"",""23588""
","
","
","""event"",""trial"",""time""
""fullscreenenter"",""1"",""23588""
","
","","","","","","null","<div style=""font-size:60px;"">+</div>","null","","fixation","","",""
"memory-trial","141","367975","0.0-18.0-1.48","4176","approach_avoid_sv1","""event"",""trial"",""time""
""fullscreenenter"",""1"",""23588""
","
","
","""event"",""trial"",""time""
""fullscreenenter"",""1"",""23588""
","
","","","","","","1421.5","images/straw2.png","","","memory_trial","1","definitely_old",""
"html-keyboard-response","142","368477","0.0-18.0-0.49","4176","approach_avoid_sv1","""event"",""trial"",""time""
""fullscreenenter"",""1"",""23588""
","
","
","""event"",""trial"",""time""
""fullscreenenter"",""1"",""23588""
","
","","","","","","null","<div style=""font-size:60px;"">+</div>","null","","fixation","","",""
"memory-trial","143","370832","0.0-18.0-1.49","4176","approach_avoid_sv1","""event"",""trial"",""time""
""fullscreenenter"",""1"",""23588""
","
","
","""event"",""trial"",""time""
""fullscreenenter"",""1"",""23588""
","
","","","","","","1349.7999999988824","images/rabbit8.png","","","memory_trial","1","definitely_old",""
"html-keyboard-response","144","371334","0.0-18.0-0.50","4176","approach_avoid_sv1","""event"",""trial"",""time""
""fullscreenenter"",""1"",""23588""
","
","
","""event"",""trial"",""time""
""fullscreenenter"",""1"",""23588""
","
","","","","","","null","<div style=""font-size:60px;"">+</div>","null","","fixation","","",""
"memory-trial","145","373762","0.0-18.0-1.50","4176","approach_avoid_sv1","""event"",""trial"",""time""
""fullscreenenter"",""1"",""23588""
","
","
","""event"",""trial"",""time""
""fullscreenenter"",""1"",""23588""
","
","","","","","","1424.5999999996275","images/chair7.png","","","memory_trial","4","definitely_new",""
"html-keyboard-response","146","374265","0.0-18.0-0.51","4176","approach_avoid_sv1","""event"",""trial"",""time""
""fullscreenenter"",""1"",""23588""
","
","
","""event"",""trial"",""time""
""fullscreenenter"",""1"",""23588""
","
","","","","","","null","<div style=""font-size:60px;"">+</div>","null","","fixation","","",""
"memory-trial","147","377454","0.0-18.0-1.51","4176","approach_avoid_sv1","""event"",""trial"",""time""
""fullscreenenter"",""1"",""23588""
","
","
","""event"",""trial"",""time""
""fullscreenenter"",""1"",""23588""
","
","","","","","","2184.7000000011176","images/rodent8.png","","","memory_trial","1","definitely_old",""
"html-keyboard-response","148","377956","0.0-18.0-0.52","4176","approach_avoid_sv1","""event"",""trial"",""time""
""fullscreenenter"",""1"",""23588""
","
","
","""event"",""trial"",""time""
""fullscreenenter"",""1"",""23588""
","
","","","","","","null","<div style=""font-size:60px;"">+</div>","null","","fixation","","",""
"memory-trial","149","382150","0.0-18.0-1.52","4176","approach_avoid_sv1","""event"",""trial"",""time""
""fullscreenenter"",""1"",""23588""
","
","
","""event"",""trial"",""time""
""fullscreenenter"",""1"",""23588""
","
","","","","","","3190.2999999988824","images/dog1.png","","","memory_trial","4","definitely_new",""
"html-keyboard-response","150","382652","0.0-18.0-0.53","4176","approach_avoid_sv1","""event"",""trial"",""time""
""fullscreenenter"",""1"",""23588""
","
","
","""event"",""trial"",""time""
""fullscreenenter"",""1"",""23588""
","
","","","","","","null","<div style=""font-size:60px;"">+</div>","null","","fixation","","",""
"memory-trial","151","384562","0.0-18.0-1.53","4176","approach_avoid_sv1","""event"",""trial"",""time""
""fullscreenenter"",""1"",""23588""
","
","
","""event"",""trial"",""time""
""fullscreenenter"",""1"",""23588""
","
","","","","","","904.7999999988824","images/apple6.png","","","memory_trial","4","definitely_new",""
"html-keyboard-response","152","385064","0.0-18.0-0.54","4176","approach_avoid_sv1","""event"",""trial"",""time""
""fullscreenenter"",""1"",""23588""
","
","
","""event"",""trial"",""time""
""fullscreenenter"",""1"",""23588""
","
","","","","","","null","<div style=""font-size:60px;"">+</div>","null","","fixation","","",""
"memory-trial","153","386752","0.0-18.0-1.54","4176","approach_avoid_sv1","""event"",""trial"",""time""
""fullscreenenter"",""1"",""23588""
","
","
","""event"",""trial"",""time""
""fullscreenenter"",""1"",""23588""
","
","","","","","","684.3000000007451","images/cactus1.png","","","memory_trial","4","definitely_new",""
"html-keyboard-response","154","387254","0.0-18.0-0.55","4176","approach_avoid_sv1","""event"",""trial"",""time""
""fullscreenenter"",""1"",""23588""
","
","
","""event"",""trial"",""time""
""fullscreenenter"",""1"",""23588""
","
","","","","","","null","<div style=""font-size:60px;"">+</div>","null","","fixation","","",""
"memory-trial","155","389648","0.0-18.0-1.55","4176","approach_avoid_sv1","""event"",""trial"",""time""
""fullscreenenter"",""1"",""23588""
","
","
","""event"",""trial"",""time""
""fullscreenenter"",""1"",""23588""
","
","","","","","","1389.800000000745","images/dog6.png","","","memory_trial","1","definitely_old",""
"html-keyboard-response","156","390150","0.0-18.0-0.56","4176","approach_avoid_sv1","""event"",""trial"",""time""
""fullscreenenter"",""1"",""23588""
","
","
","""event"",""trial"",""time""
""fullscreenenter"",""1"",""23588""
","
","","","","","","null","<div style=""font-size:60px;"">+</div>","null","","fixation","","",""
"memory-trial","157","392761","0.0-18.0-1.56","4176","approach_avoid_sv1","""event"",""trial"",""time""
""fullscreenenter"",""1"",""23588""
","
","
","""event"",""trial"",""time""
""fullscreenenter"",""1"",""23588""
","
","","","","","","1606.300000000745","images/rodent4.png","","","memory_trial","1","definitely_old",""
"html-keyboard-response","158","393263","0.0-18.0-0.57","4176","approach_avoid_sv1","""event"",""trial"",""time""
""fullscreenenter"",""1"",""23588""
","
","
","""event"",""trial"",""time""
""fullscreenenter"",""1"",""23588""
","
","","","","","","null","<div style=""font-size:60px;"">+</div>","null","","fixation","","",""
"memory-trial","159","394993","0.0-18.0-1.57","4176","approach_avoid_sv1","""event"",""trial"",""time""
""fullscreenenter"",""1"",""23588""
","
","
","""event"",""trial"",""time""
""fullscreenenter"",""1"",""23588""
","
","","","","","","725.7999999988824","images/bush6.png","","","memory_trial","4","definitely_new",""
"html-keyboard-response","160","395495","0.0-18.0-0.58","4176","approach_avoid_sv1","""event"",""trial"",""time""
""fullscreenenter"",""1"",""23588""
","
","
","""event"",""trial"",""time""
""fullscreenenter"",""1"",""23588""
","
","","","","","","null","<div style=""font-size:60px;"">+</div>","null","","fixation","","",""
"memory-trial","161","398292","0.0-18.0-1.58","4176","approach_avoid_sv1","""event"",""trial"",""time""
""fullscreenenter"",""1"",""23588""
","
","
","""event"",""trial"",""time""
""fullscreenenter"",""1"",""23588""
","
","","","","","","1793.5","images/dog4.png","","","memory_trial","1","definitely_old",""
"html-keyboard-response","162","398794","0.0-18.0-0.59","4176","approach_avoid_sv1","""event"",""trial"",""time""
""fullscreenenter"",""1"",""23588""
","
","
","""event"",""trial"",""time""
""fullscreenenter"",""1"",""23588""
","
","","","","","","null","<div style=""font-size:60px;"">+</div>","null","","fixation","","",""
"memory-trial","163","400791","0.0-18.0-1.59","4176","approach_avoid_sv1","""event"",""trial"",""time""
""fullscreenenter"",""1"",""23588""
","
","
","""event"",""trial"",""time""
""fullscreenenter"",""1"",""23588""
","
","","","","","","992.5999999996275","images/horse4.png","","","memory_trial","1","definitely_old",""
"html-keyboard-response","164","401293","0.0-18.0-0.60","4176","approach_avoid_sv1","""event"",""trial"",""time""
""fullscreenenter"",""1"",""23588""
","
","
","""event"",""trial"",""time""
""fullscreenenter"",""1"",""23588""
","
","","","","","","null","<div style=""font-size:60px;"">+</div>","null","","fixation","","",""
"memory-trial","165","403484","0.0-18.0-1.60","4176","approach_avoid_sv1","""event"",""trial"",""time""
""fullscreenenter"",""1"",""23588""
","
","
","""event"",""trial"",""time""
""fullscreenenter"",""1"",""23588""
","
","","","","","","1187","images/sheep5.png","","","memory_trial","1","definitely_old",""
"html-keyboard-response","166","403987","0.0-18.0-0.61","4176","approach_avoid_sv1","""event"",""trial"",""time""
""fullscreenenter"",""1"",""23588""
","
","
","""event"",""trial"",""time""
""fullscreenenter"",""1"",""23588""
","
","","","","","","null","<div style=""font-size:60px;"">+</div>","null","","fixation","","",""
"memory-trial","167","407302","0.0-18.0-1.61","4176","approach_avoid_sv1","""event"",""trial"",""time""
""fullscreenenter"",""1"",""23588""
","
","
","""event"",""trial"",""time""
""fullscreenenter"",""1"",""23588""
","
","","","","","","2312.5","images/orange5.png","","","memory_trial","4","definitely_new",""
"html-keyboard-response","168","407804","0.0-18.0-0.62","4176","approach_avoid_sv1","""event"",""trial"",""time""
""fullscreenenter"",""1"",""23588""
","
","
","""event"",""trial"",""time""
""fullscreenenter"",""1"",""23588""
","
","","","","","","null","<div style=""font-size:60px;"">+</div>","null","","fixation","","",""
"memory-trial","169","410248","0.0-18.0-1.62","4176","approach_avoid_sv1","""event"",""trial"",""time""
""fullscreenenter"",""1"",""23588""
","
","
","""event"",""trial"",""time""
""fullscreenenter"",""1"",""23588""
","
","","","","","","1438","images/cat5.png","","","memory_trial","1","definitely_old",""
"html-keyboard-response","170","410751","0.0-18.0-0.63","4176","approach_avoid_sv1","""event"",""trial"",""time""
""fullscreenenter"",""1"",""23588""
","
","
","""event"",""trial"",""time""
""fullscreenenter"",""1"",""23588""
","
","","","","","","null","<div style=""font-size:60px;"">+</div>","null","","fixation","","",""
"memory-trial","171","413191","0.0-18.0-1.63","4176","approach_avoid_sv1","""event"",""trial"",""time""
""fullscreenenter"",""1"",""23588""
","
","
","""event"",""trial"",""time""
""fullscreenenter"",""1"",""23588""
","
","","","","","","1434.9000000003725","images/sofa2.png","","","memory_trial","4","definitely_new",""
"html-keyboard-response","172","413693","0.0-18.0-0.64","4176","approach_avoid_sv1","""event"",""trial"",""time""
""fullscreenenter"",""1"",""23588""
","
","
","""event"",""trial"",""time""
""fullscreenenter"",""1"",""23588""
","
","","","","","","null","<div style=""font-size:60px;"">+</div>","null","","fixation","","",""
"memory-trial","173","417236","0.0-18.0-1.64","4176","approach_avoid_sv1","""event"",""trial"",""time""
""fullscreenenter"",""1"",""23588""
","
","
","""event"",""trial"",""time""
""fullscreenenter"",""1"",""23588""
","
","","","","","","2538.800000000745","images/cat2.png","","","memory_trial","1","definitely_old",""
"html-keyboard-response","174","417738","0.0-18.0-0.65","4176","approach_avoid_sv1","""event"",""trial"",""time""
""fullscreenenter"",""1"",""23588""
","
","
","""event"",""trial"",""time""
""fullscreenenter"",""1"",""23588""
","
","","","","","","null","<div style=""font-size:60px;"">+</div>","null","","fixation","","",""
"memory-trial","175","420159","0.0-18.0-1.65","4176","approach_avoid_sv1","""event"",""trial"",""time""
""fullscreenenter"",""1"",""23588""
","
","
","""event"",""trial"",""time""
""fullscreenenter"",""1"",""23588""
","
","","","","","","1415.5999999996275","images/apple1.png","","","memory_trial","4","definitely_new",""
"html-keyboard-response","176","420661","0.0-18.0-0.66","4176","approach_avoid_sv1","""event"",""trial"",""time""
""fullscreenenter"",""1"",""23588""
","
","
","""event"",""trial"",""time""
""fullscreenenter"",""1"",""23588""
","
","","","","","","null","<div style=""font-size:60px;"">+</div>","null","","fixation","","",""
"memory-trial","177","422512","0.0-18.0-1.66","4176","approach_avoid_sv1","""event"",""trial"",""time""
""fullscreenenter"",""1"",""23588""
","
","
","""event"",""trial"",""time""
""fullscreenenter"",""1"",""23588""
","
","","","","","","846.4000000003725","images/banana7.png","","","memory_trial","4","definitely_new",""
"html-keyboard-response","178","423014","0.0-18.0-0.67","4176","approach_avoid_sv1","""event"",""trial"",""time""
""fullscreenenter"",""1"",""23588""
","
","
","""event"",""trial"",""time""
""fullscreenenter"",""1"",""23588""
","
","","","","","","null","<div style=""font-size:60px;"">+</div>","null","","fixation","","",""
"memory-trial","179","425267","0.0-18.0-1.67","4176","approach_avoid_sv1","""event"",""trial"",""time""
""fullscreenenter"",""1"",""23588""
","
","
","""event"",""trial"",""time""
""fullscreenenter"",""1"",""23588""
","
","","","","","","1248.9000000003725","images/tree2.png","","","memory_trial","4","definitely_new",""
"html-keyboard-response","180","425769","0.0-18.0-0.68","4176","approach_avoid_sv1","""event"",""trial"",""time""
""fullscreenenter"",""1"",""23588""
","
","
","""event"",""trial"",""time""
""fullscreenenter"",""1"",""23588""
","
","","","","","","null","<div style=""font-size:60px;"">+</div>","null","","fixation","","",""
"memory-trial","181","431204","0.0-18.0-1.68","4176","approach_avoid_sv1","""event"",""trial"",""time""
""fullscreenenter"",""1"",""23588""
","
","
","""event"",""trial"",""time""
""fullscreenenter"",""1"",""23588""
","
","","","","","","4430.5999999996275","images/dog2.png","","","memory_trial","1","definitely_old",""
"html-keyboard-response","182","431706","0.0-18.0-0.69","4176","approach_avoid_sv1","""event"",""trial"",""time""
""fullscreenenter"",""1"",""23588""
","
","
","""event"",""trial"",""time""
""fullscreenenter"",""1"",""23588""
","
","","","","","","null","<div style=""font-size:60px;"">+</div>","null","","fixation","","",""
"memory-trial","183","433570","0.0-18.0-1.69","4176","approach_avoid_sv1","""event"",""trial"",""time""
""fullscreenenter"",""1"",""23588""
","
","
","""event"",""trial"",""time""
""fullscreenenter"",""1"",""23588""
","
","","","","","","858.5999999996275","images/table5.png","","","memory_trial","4","definitely_new",""
"html-keyboard-response","184","434072","0.0-18.0-0.70","4176","approach_avoid_sv1","""event"",""trial"",""time""
""fullscreenenter"",""1"",""23588""
","
","
","""event"",""trial"",""time""
""fullscreenenter"",""1"",""23588""
","
","","","","","","null","<div style=""font-size:60px;"">+</div>","null","","fixation","","",""
"memory-trial","185","436312","0.0-18.0-1.70","4176","approach_avoid_sv1","""event"",""trial"",""time""
""fullscreenenter"",""1"",""23588""
","
","
","""event"",""trial"",""time""
""fullscreenenter"",""1"",""23588""
","
","","","","","","1235","images/plane3.png","","","memory_trial","1","definitely_old",""
"html-keyboard-response","186","436814","0.0-18.0-0.71","4176","approach_avoid_sv1","""event"",""trial"",""time""
""fullscreenenter"",""1"",""23588""
","
","
","""event"",""trial"",""time""
""fullscreenenter"",""1"",""23588""
","
","","","","","","null","<div style=""font-size:60px;"">+</div>","null","","fixation","","",""
"memory-trial","187","438943","0.0-18.0-1.71","4176","approach_avoid_sv1","""event"",""trial"",""time""
""fullscreenenter"",""1"",""23588""
","
","
","""event"",""trial"",""time""
""fullscreenenter"",""1"",""23588""
","
","","","","","","1125.199999999255","images/banana2.png","","","memory_trial","4","definitely_new",""
"html-keyboard-response","188","439445","0.0-18.0-0.72","4176","approach_avoid_sv1","""event"",""trial"",""time""
""fullscreenenter"",""1"",""23588""
","
","
","""event"",""trial"",""time""
""fullscreenenter"",""1"",""23588""
","
","","","","","","null","<div style=""font-size:60px;"">+</div>","null","","fixation","","",""
"memory-trial","189","442586","0.0-18.0-1.72","4176","approach_avoid_sv1","""event"",""trial"",""time""
""fullscreenenter"",""1"",""23588""
","
","
","""event"",""trial"",""time""
""fullscreenenter"",""1"",""23588""
","
","","","","","","2136.9000000003725","images/truck1.png","","","memory_trial","4","definitely_new",""
"html-keyboard-response","190","443087","0.0-18.0-0.73","4176","approach_avoid_sv1","""event"",""trial"",""time""
""fullscreenenter"",""1"",""23588""
","
","
","""event"",""trial"",""time""
""fullscreenenter"",""1"",""23588""
","
","","","","","","null","<div style=""font-size:60px;"">+</div>","null","","fixation","","",""
"memory-trial","191","445105","0.0-18.0-1.73","4176","approach_avoid_sv1","""event"",""trial"",""time""
""fullscreenenter"",""1"",""23588""
","
","
","""event"",""trial"",""time""
""fullscreenenter"",""1"",""23588""
","
","","","","","","1014","images/sofa6.png","","","memory_trial","4","definitely_new",""
"html-keyboard-response","192","445607","0.0-18.0-0.74","4176","approach_avoid_sv1","""event"",""trial"",""time""
""fullscreenenter"",""1"",""23588""
","
","
","""event"",""trial"",""time""
""fullscreenenter"",""1"",""23588""
","
","","","","","","null","<div style=""font-size:60px;"">+</div>","null","","fixation","","",""
"memory-trial","193","448657","0.0-18.0-1.74","4176","approach_avoid_sv1","""event"",""trial"",""time""
""fullscreenenter"",""1"",""23588""
","
","
","""event"",""trial"",""time""
""fullscreenenter"",""1"",""23588""
","
","","","","","","2046.5999999996275","images/horse5.png","","","memory_trial","4","definitely_new",""
"html-keyboard-response","194","449158","0.0-18.0-0.75","4176","approach_avoid_sv1","""event"",""trial"",""time""
""fullscreenenter"",""1"",""23588""
","
","
","""event"",""trial"",""time""
""fullscreenenter"",""1"",""23588""
","
","","","","","","null","<div style=""font-size:60px;"">+</div>","null","","fixation","","",""
"memory-trial","195","451587","0.0-18.0-1.75","4176","approach_avoid_sv1","""event"",""trial"",""time""
""fullscreenenter"",""1"",""23588""
","
","
","""event"",""trial"",""time""
""fullscreenenter"",""1"",""23588""
","
","","","","","","1423.5999999996275","images/rodent1.png","","","memory_trial","1","definitely_old",""
"html-keyboard-response","196","452089","0.0-18.0-0.76","4176","approach_avoid_sv1","""event"",""trial"",""time""
""fullscreenenter"",""1"",""23588""
","
","
","""event"",""trial"",""time""
""fullscreenenter"",""1"",""23588""
","
","","","","","","null","<div style=""font-size:60px;"">+</div>","null","","fixation","","",""
"memory-trial","197","454440","0.0-18.0-1.76","4176","approach_avoid_sv1","""event"",""trial"",""time""
""fullscreenenter"",""1"",""23588""
","
","
","""event"",""trial"",""time""
""fullscreenenter"",""1"",""23588""
","
","","","","","","1347.0999999996275","images/truck7.png","","","memory_trial","1","definitely_old",""
"html-keyboard-response","198","454942","0.0-18.0-0.77","4176","approach_avoid_sv1","""event"",""trial"",""time""
""fullscreenenter"",""1"",""23588""
","
","
","""event"",""trial"",""time""
""fullscreenenter"",""1"",""23588""
","
","","","","","","null","<div style=""font-size:60px;"">+</div>","null","","fixation","","",""
"memory-trial","199","456944","0.0-18.0-1.77","4176","approach_avoid_sv1","""event"",""trial"",""time""
""fullscreenenter"",""1"",""23588""
","
","
","""event"",""trial"",""time""
""fullscreenenter"",""1"",""23588""
","
","","","","","","997.8999999985099","images/sheep1.png","","","memory_trial","1","definitely_old",""
"html-keyboard-response","200","457445","0.0-18.0-0.78","4176","approach_avoid_sv1","""event"",""trial"",""time""
""fullscreenenter"",""1"",""23588""
","
","
","""event"",""trial"",""time""
""fullscreenenter"",""1"",""23588""
","
","","","","","","null","<div style=""font-size:60px;"">+</div>","null","","fixation","","",""
"memory-trial","201","460665","0.0-18.0-1.78","4176","approach_avoid_sv1","""event"",""trial"",""time""
""fullscreenenter"",""1"",""23588""
","
","
","""event"",""trial"",""time""
""fullscreenenter"",""1"",""23588""
","
","","","","","","2214.7999999988824","images/rodent6.png","","","memory_trial","2","maybe_old",""
"html-keyboard-response","202","461166","0.0-18.0-0.79","4176","approach_avoid_sv1","""event"",""trial"",""time""
""fullscreenenter"",""1"",""23588""
","
","
","""event"",""trial"",""time""
""fullscreenenter"",""1"",""23588""
","
","","","","","","null","<div style=""font-size:60px;"">+</div>","null","","fixation","","",""
"memory-trial","203","464679","0.0-18.0-1.79","4176","approach_avoid_sv1","""event"",""trial"",""time""
""fullscreenenter"",""1"",""23588""
","
","
","""event"",""trial"",""time""
""fullscreenenter"",""1"",""23588""
","
","","","","","","2507.9000000003725","images/flower5.png","","","memory_trial","3","maybe_new",""
"html-keyboard-response","204","465181","0.0-18.0-0.80","4176","approach_avoid_sv1","""event"",""trial"",""time""
""fullscreenenter"",""1"",""23588""
","
","
","""event"",""trial"",""time""
""fullscreenenter"",""1"",""23588""
","
","","","","","","null","<div style=""font-size:60px;"">+</div>","null","","fixation","","",""
"memory-trial","205","468304","0.0-18.0-1.80","4176","approach_avoid_sv1","""event"",""trial"",""time""
""fullscreenenter"",""1"",""23588""
","
","
","""event"",""trial"",""time""
""fullscreenenter"",""1"",""23588""
","
","","","","","","2118.199999999255","images/table1.png","","","memory_trial","1","definitely_old",""
"html-keyboard-response","206","468806","0.0-18.0-0.81","4176","approach_avoid_sv1","""event"",""trial"",""time""
""fullscreenenter"",""1"",""23588""
","
","
","""event"",""trial"",""time""
""fullscreenenter"",""1"",""23588""
","
","","","","","","null","<div style=""font-size:60px;"">+</div>","null","","fixation","","",""
"memory-trial","207","471006","0.0-18.0-1.81","4176","approach_avoid_sv1","""event"",""trial"",""time""
""fullscreenenter"",""1"",""23588""
","
","
","""event"",""trial"",""time""
""fullscreenenter"",""1"",""23588""
","
","","","","","","1195.5","images/tree4.png","","","memory_trial","4","definitely_new",""
"html-keyboard-response","208","471508","0.0-18.0-0.82","4176","approach_avoid_sv1","""event"",""trial"",""time""
""fullscreenenter"",""1"",""23588""
","
","
","""event"",""trial"",""time""
""fullscreenenter"",""1"",""23588""
","
","","","","","","null","<div style=""font-size:60px;"">+</div>","null","","fixation","","",""
"memory-trial","209","473843","0.0-18.0-1.82","4176","approach_avoid_sv1","""event"",""trial"",""time""
""fullscreenenter"",""1"",""23588""
","
","
","""event"",""trial"",""time""
""fullscreenenter"",""1"",""23588""
","
","","","","","","1331.5999999996275","images/orange6.png","","","memory_trial","1","definitely_old",""
"html-keyboard-response","210","474344","0.0-18.0-0.83","4176","approach_avoid_sv1","""event"",""trial"",""time""
""fullscreenenter"",""1"",""23588""
","
","
","""event"",""trial"",""time""
""fullscreenenter"",""1"",""23588""
","
","","","","","","null","<div style=""font-size:60px;"">+</div>","null","","fixation","","",""
"memory-trial","211","476450","0.0-18.0-1.83","4176","approach_avoid_sv1","""event"",""trial"",""time""
""fullscreenenter"",""1"",""23588""
","
","
","""event"",""trial"",""time""
""fullscreenenter"",""1"",""23588""
","
","","","","","","1102.5999999996275","images/cactus7.png","","","memory_trial","4","definitely_new",""
"html-keyboard-response","212","476952","0.0-18.0-0.84","4176","approach_avoid_sv1","""event"",""trial"",""time""
""fullscreenenter"",""1"",""23588""
","
","
","""event"",""trial"",""time""
""fullscreenenter"",""1"",""23588""
","
","","","","","","null","<div style=""font-size:60px;"">+</div>","null","","fixation","","",""
"memory-trial","213","478921","0.0-18.0-1.84","4176","approach_avoid_sv1","""event"",""trial"",""time""
""fullscreenenter"",""1"",""23588""
","
","
","""event"",""trial"",""time""
""fullscreenenter"",""1"",""23588""
","
","","","","","","965.6999999992549","images/bed8.png","","","memory_trial","4","definitely_new",""
"html-keyboard-response","214","479423","0.0-18.0-0.85","4176","approach_avoid_sv1","""event"",""trial"",""time""
""fullscreenenter"",""1"",""23588""
","
","
","""event"",""trial"",""time""
""fullscreenenter"",""1"",""23588""
","
","","","","","","null","<div style=""font-size:60px;"">+</div>","null","","fixation","","",""
"memory-trial","215","481704","0.0-18.0-1.85","4176","approach_avoid_sv1","""event"",""trial"",""time""
""fullscreenenter"",""1"",""23588""
","
","
","""event"",""trial"",""time""
""fullscreenenter"",""1"",""23588""
","
","","","","","","1277.5","images/straw3.png","","","memory_trial","1","definitely_old",""
"html-keyboard-response","216","482206","0.0-18.0-0.86","4176","approach_avoid_sv1","""event"",""trial"",""time""
""fullscreenenter"",""1"",""23588""
","
","
","""event"",""trial"",""time""
""fullscreenenter"",""1"",""23588""
","
","","","","","","null","<div style=""font-size:60px;"">+</div>","null","","fixation","","",""
"memory-trial","217","485114","0.0-18.0-1.86","4176","approach_avoid_sv1","""event"",""trial"",""time""
""fullscreenenter"",""1"",""23588""
","
","
","""event"",""trial"",""time""
""fullscreenenter"",""1"",""23588""
","
","","","","","","1903.9000000003725","images/goat4.png","","","memory_trial","4","definitely_new",""
"html-keyboard-response","218","485616","0.0-18.0-0.87","4176","approach_avoid_sv1","""event"",""trial"",""time""
""fullscreenenter"",""1"",""23588""
","
","
","""event"",""trial"",""time""
""fullscreenenter"",""1"",""23588""
","
","","","","","","null","<div style=""font-size:60px;"">+</div>","null","","fixation","","",""
"memory-trial","219","487388","0.0-18.0-1.87","4176","approach_avoid_sv1","""event"",""trial"",""time""
""fullscreenenter"",""1"",""23588""
","
","
","""event"",""trial"",""time""
""fullscreenenter"",""1"",""23588""
","
","","","","","","767","images/tree8.png","","","memory_trial","4","definitely_new",""
"html-keyboard-response","220","487890","0.0-18.0-0.88","4176","approach_avoid_sv1","""event"",""trial"",""time""
""fullscreenenter"",""1"",""23588""
","
","
","""event"",""trial"",""time""
""fullscreenenter"",""1"",""23588""
","
","","","","","","null","<div style=""font-size:60px;"">+</div>","null","","fixation","","",""
"memory-trial","221","489524","0.0-18.0-1.88","4176","approach_avoid_sv1","""event"",""trial"",""time""
""fullscreenenter"",""1"",""23588""
","
","
","""event"",""trial"",""time""
""fullscreenenter"",""1"",""23588""
","
","","","","","","630.1999999992549","images/tree7.png","","","memory_trial","4","definitely_new",""
"html-keyboard-response","222","490025","0.0-18.0-0.89","4176","approach_avoid_sv1","""event"",""trial"",""time""
""fullscreenenter"",""1"",""23588""
","
","
","""event"",""trial"",""time""
""fullscreenenter"",""1"",""23588""
","
","","","","","","null","<div style=""font-size:60px;"">+</div>","null","","fixation","","",""
"memory-trial","223","492652","0.0-18.0-1.89","4176","approach_avoid_sv1","""event"",""trial"",""time""
""fullscreenenter"",""1"",""23588""
","
","
","""event"",""trial"",""time""
""fullscreenenter"",""1"",""23588""
","
","","","","","","1622.5999999996275","images/rabbit3.png","","","memory_trial","1","definitely_old",""
"html-keyboard-response","224","493154","0.0-18.0-0.90","4176","approach_avoid_sv1","""event"",""trial"",""time""
""fullscreenenter"",""1"",""23588""
","
","
","""event"",""trial"",""time""
""fullscreenenter"",""1"",""23588""
","
","","","","","","null","<div style=""font-size:60px;"">+</div>","null","","fixation","","",""
"memory-trial","225","495300","0.0-18.0-1.90","4176","approach_avoid_sv1","""event"",""trial"",""time""
""fullscreenenter"",""1"",""23588""
","
","
","""event"",""trial"",""time""
""fullscreenenter"",""1"",""23588""
","
","","","","","","1139.3999999985099","images/chair4.png","","","memory_trial","4","definitely_new",""
"html-keyboard-response","226","495801","0.0-18.0-0.91","4176","approach_avoid_sv1","""event"",""trial"",""time""
""fullscreenenter"",""1"",""23588""
","
","
","""event"",""trial"",""time""
""fullscreenenter"",""1"",""23588""
","
","","","","","","null","<div style=""font-size:60px;"">+</div>","null","","fixation","","",""
"memory-trial","227","497724","0.0-18.0-1.91","4176","approach_avoid_sv1","""event"",""trial"",""time""
""fullscreenenter"",""1"",""23588""
","
","
","""event"",""trial"",""time""
""fullscreenenter"",""1"",""23588""
","
","","","","","","918.5999999996275","images/rodent3.png","","","memory_trial","4","definitely_new",""
"html-button-response","228","621369","0.0-18.0-2.91-0.91","4176","approach_avoid_sv1","""event"",""trial"",""time""
""fullscreenenter"",""1"",""23588""
","
","
","""event"",""trial"",""time""
""fullscreenenter"",""1"",""23588""
","
","","","","","","123642.69999999925","<p> Take a break! </p><p> Click the button to continue. </p>","0","","break","","",""
"html-keyboard-response","229","621871","0.0-18.0-0.92","4176","approach_avoid_sv1","""event"",""trial"",""time""
""fullscreenenter"",""1"",""23588""
","
","
","""event"",""trial"",""time""
""fullscreenenter"",""1"",""23588""
","
","","","","","","null","<div style=""font-size:60px;"">+</div>","null","","fixation","","",""
"memory-trial","230","624494","0.0-18.0-1.92","4176","approach_avoid_sv1","""event"",""trial"",""time""
""fullscreenenter"",""1"",""23588""
","
","
","""event"",""trial"",""time""
""fullscreenenter"",""1"",""23588""
","
","","","","","","1618","images/horse3.png","","","memory_trial","4","definitely_new",""
"html-keyboard-response","231","624996","0.0-18.0-0.93","4176","approach_avoid_sv1","""event"",""trial"",""time""
""fullscreenenter"",""1"",""23588""
","
","
","""event"",""trial"",""time""
""fullscreenenter"",""1"",""23588""
","
","","","","","","null","<div style=""font-size:60px;"">+</div>","null","","fixation","","",""
"memory-trial","232","626919","0.0-18.0-1.93","4176","approach_avoid_sv1","""event"",""trial"",""time""
""fullscreenenter"",""1"",""23588""
","
","
","""event"",""trial"",""time""
""fullscreenenter"",""1"",""23588""
","
","","","","","","919.7999999988824","images/cow4.png","","","memory_trial","1","definitely_old",""
"html-keyboard-response","233","627421","0.0-18.0-0.94","4176","approach_avoid_sv1","""event"",""trial"",""time""
""fullscreenenter"",""1"",""23588""
","
","
","""event"",""trial"",""time""
""fullscreenenter"",""1"",""23588""
","
","","","","","","null","<div style=""font-size:60px;"">+</div>","null","","fixation","","",""
"memory-trial","234","629371","0.0-18.0-1.94","4176","approach_avoid_sv1","""event"",""trial"",""time""
""fullscreenenter"",""1"",""23588""
","
","
","""event"",""trial"",""time""
""fullscreenenter"",""1"",""23588""
","
","","","","","","945.8999999985099","images/goat3.png","","","memory_trial","1","definitely_old",""
"html-keyboard-response","235","629872","0.0-18.0-0.95","4176","approach_avoid_sv1","""event"",""trial"",""time""
""fullscreenenter"",""1"",""23588""
","
","
","""event"",""trial"",""time""
""fullscreenenter"",""1"",""23588""
","
","","","","","","null","<div style=""font-size:60px;"">+</div>","null","","fixation","","",""
"memory-trial","236","632569","0.0-18.0-1.95","4176","approach_avoid_sv1","""event"",""trial"",""time""
""fullscreenenter"",""1"",""23588""
","
","
","""event"",""trial"",""time""
""fullscreenenter"",""1"",""23588""
","
","","","","","","1692.9000000003725","images/chair3.png","","","memory_trial","4","definitely_new",""
"html-keyboard-response","237","633071","0.0-18.0-0.96","4176","approach_avoid_sv1","""event"",""trial"",""time""
""fullscreenenter"",""1"",""23588""
","
","
","""event"",""trial"",""time""
""fullscreenenter"",""1"",""23588""
","
","","","","","","null","<div style=""font-size:60px;"">+</div>","null","","fixation","","",""
"memory-trial","238","635021","0.0-18.0-1.96","4176","approach_avoid_sv1","""event"",""trial"",""time""
""fullscreenenter"",""1"",""23588""
","
","
","""event"",""trial"",""time""
""fullscreenenter"",""1"",""23588""
","
","","","","","","945.3000000007451","images/plane5.png","","","memory_trial","4","definitely_new",""
"html-keyboard-response","239","635524","0.0-18.0-0.97","4176","approach_avoid_sv1","""event"",""trial"",""time""
""fullscreenenter"",""1"",""23588""
","
","
","""event"",""trial"",""time""
""fullscreenenter"",""1"",""23588""
","
","","","","","","null","<div style=""font-size:60px;"">+</div>","null","","fixation","","",""
"memory-trial","240","637319","0.0-18.0-1.97","4176","approach_avoid_sv1","""event"",""trial"",""time""
""fullscreenenter"",""1"",""23588""
","
","
","""event"",""trial"",""time""
""fullscreenenter"",""1"",""23588""
","
","","","","","","791.0999999996275","images/table6.png","","","memory_trial","4","definitely_new",""
"html-keyboard-response","241","637821","0.0-18.0-0.98","4176","approach_avoid_sv1","""event"",""trial"",""time""
""fullscreenenter"",""1"",""23588""
","
","
","""event"",""trial"",""time""
""fullscreenenter"",""1"",""23588""
","
","","","","","","null","<div style=""font-size:60px;"">+</div>","null","","fixation","","",""
"memory-trial","242","639552","0.0-18.0-1.98","4176","approach_avoid_sv1","""event"",""trial"",""time""
""fullscreenenter"",""1"",""23588""
","
","
","""event"",""trial"",""time""
""fullscreenenter"",""1"",""23588""
","
","","","","","","727.3000000007451","images/truck4.png","","","memory_trial","4","definitely_new",""
"html-keyboard-response","243","640054","0.0-18.0-0.99","4176","approach_avoid_sv1","""event"",""trial"",""time""
""fullscreenenter"",""1"",""23588""
","
","
","""event"",""trial"",""time""
""fullscreenenter"",""1"",""23588""
","
","","","","","","null","<div style=""font-size:60px;"">+</div>","null","","fixation","","",""
"memory-trial","244","642132","0.0-18.0-1.99","4176","approach_avoid_sv1","""event"",""trial"",""time""
""fullscreenenter"",""1"",""23588""
","
","
","""event"",""trial"",""time""
""fullscreenenter"",""1"",""23588""
","
","","","","","","1073.300000000745","images/orange4.png","","","memory_trial","1","definitely_old",""
"html-keyboard-response","245","642634","0.0-18.0-0.100","4176","approach_avoid_sv1","""event"",""trial"",""time""
""fullscreenenter"",""1"",""23588""
","
","
","""event"",""trial"",""time""
""fullscreenenter"",""1"",""23588""
","
","","","","","","null","<div style=""font-size:60px;"">+</div>","null","","fixation","","",""
"memory-trial","246","644948","0.0-18.0-1.100","4176","approach_avoid_sv1","""event"",""trial"",""time""
""fullscreenenter"",""1"",""23588""
","
","
","""event"",""trial"",""time""
""fullscreenenter"",""1"",""23588""
","
","","","","","","1310","images/plane7.png","","","memory_trial","1","definitely_old",""
"html-keyboard-response","247","645452","0.0-18.0-0.101","4176","approach_avoid_sv1","""event"",""trial"",""time""
""fullscreenenter"",""1"",""23588""
","
","
","""event"",""trial"",""time""
""fullscreenenter"",""1"",""23588""
","
","","","","","","null","<div style=""font-size:60px;"">+</div>","null","","fixation","","",""
"memory-trial","248","647179","0.0-18.0-1.101","4176","approach_avoid_sv1","""event"",""trial"",""time""
""fullscreenenter"",""1"",""23588""
","
","
","""event"",""trial"",""time""
""fullscreenenter"",""1"",""23588""
","
","","","","","","722.0999999996275","images/cactus3.png","","","memory_trial","4","definitely_new",""
"html-keyboard-response","249","647680","0.0-18.0-0.102","4176","approach_avoid_sv1","""event"",""trial"",""time""
""fullscreenenter"",""1"",""23588""
","
","
","""event"",""trial"",""time""
""fullscreenenter"",""1"",""23588""
","
","","","","","","null","<div style=""font-size:60px;"">+</div>","null","","fixation","","",""
"memory-trial","250","649601","0.0-18.0-1.102","4176","approach_avoid_sv1","""event"",""trial"",""time""
""fullscreenenter"",""1"",""23588""
","
","
","""event"",""trial"",""time""
""fullscreenenter"",""1"",""23588""
","
","","","","","","916.9000000003725","images/dog3.png","","","memory_trial","1","definitely_old",""
"html-keyboard-response","251","650103","0.0-18.0-0.103","4176","approach_avoid_sv1","""event"",""trial"",""time""
""fullscreenenter"",""1"",""23588""
","
","
","""event"",""trial"",""time""
""fullscreenenter"",""1"",""23588""
","
","","","","","","null","<div style=""font-size:60px;"">+</div>","null","","fixation","","",""
"memory-trial","252","652137","0.0-18.0-1.103","4176","approach_avoid_sv1","""event"",""trial"",""time""
""fullscreenenter"",""1"",""23588""
","
","
","""event"",""trial"",""time""
""fullscreenenter"",""1"",""23588""
","
","","","","","","1028.7000000011176","images/apple7.png","","","memory_trial","1","definitely_old",""
"html-keyboard-response","253","652639","0.0-18.0-0.104","4176","approach_avoid_sv1","""event"",""trial"",""time""
""fullscreenenter"",""1"",""23588""
","
","
","""event"",""trial"",""time""
""fullscreenenter"",""1"",""23588""
","
","","","","","","null","<div style=""font-size:60px;"">+</div>","null","","fixation","","",""
"memory-trial","254","654777","0.0-18.0-1.104","4176","approach_avoid_sv1","""event"",""trial"",""time""
""fullscreenenter"",""1"",""23588""
","
","
","""event"",""trial"",""time""
""fullscreenenter"",""1"",""23588""
","
","","","","","","1134.300000000745","images/train7.png","","","memory_trial","1","definitely_old",""
"html-keyboard-response","255","655279","0.0-18.0-0.105","4176","approach_avoid_sv1","""event"",""trial"",""time""
""fullscreenenter"",""1"",""23588""
","
","
","""event"",""trial"",""time""
""fullscreenenter"",""1"",""23588""
","
","","","","","","null","<div style=""font-size:60px;"">+</div>","null","","fixation","","",""
"memory-trial","256","656894","0.0-18.0-1.105","4176","approach_avoid_sv1","""event"",""trial"",""time""
""fullscreenenter"",""1"",""23588""
","
","
","""event"",""trial"",""time""
""fullscreenenter"",""1"",""23588""
","
","","","","","","610.6999999992549","images/bush7.png","","","memory_trial","4","definitely_new",""
"html-keyboard-response","257","657395","0.0-18.0-0.106","4176","approach_avoid_sv1","""event"",""trial"",""time""
""fullscreenenter"",""1"",""23588""
","
","
","""event"",""trial"",""time""
""fullscreenenter"",""1"",""23588""
","
","","","","","","null","<div style=""font-size:60px;"">+</div>","null","","fixation","","",""
"memory-trial","258","660086","0.0-18.0-1.106","4176","approach_avoid_sv1","""event"",""trial"",""time""
""fullscreenenter"",""1"",""23588""
","
","
","""event"",""trial"",""time""
""fullscreenenter"",""1"",""23588""
","
","","","","","","1686.2999999988824","images/boat6.png","","","memory_trial","1","definitely_old",""
"html-keyboard-response","259","660589","0.0-18.0-0.107","4176","approach_avoid_sv1","""event"",""trial"",""time""
""fullscreenenter"",""1"",""23588""
","
","
","""event"",""trial"",""time""
""fullscreenenter"",""1"",""23588""
","
","","","","","","null","<div style=""font-size:60px;"">+</div>","null","","fixation","","",""
"memory-trial","260","662115","0.0-18.0-1.107","4176","approach_avoid_sv1","""event"",""trial"",""time""
""fullscreenenter"",""1"",""23588""
","
","
","""event"",""trial"",""time""
""fullscreenenter"",""1"",""23588""
","
","","","","","","522.2000000011176","images/cactus8.png","","","memory_trial","4","definitely_new",""
"html-keyboard-response","261","662616","0.0-18.0-0.108","4176","approach_avoid_sv1","""event"",""trial"",""time""
""fullscreenenter"",""1"",""23588""
","
","
","""event"",""trial"",""time""
""fullscreenenter"",""1"",""23588""
","
","","","","","","null","<div style=""font-size:60px;"">+</div>","null","","fixation","","",""
"memory-trial","262","664501","0.0-18.0-1.108","4176","approach_avoid_sv1","""event"",""trial"",""time""
""fullscreenenter"",""1"",""23588""
","
","
","""event"",""trial"",""time""
""fullscreenenter"",""1"",""23588""
","
","","","","","","882","images/goat5.png","","","memory_trial","4","definitely_new",""
"html-keyboard-response","263","665003","0.0-18.0-0.109","4176","approach_avoid_sv1","""event"",""trial"",""time""
""fullscreenenter"",""1"",""23588""
","
","
","""event"",""trial"",""time""
""fullscreenenter"",""1"",""23588""
","
","","","","","","null","<div style=""font-size:60px;"">+</div>","null","","fixation","","",""
"memory-trial","264","666489","0.0-18.0-1.109","4176","approach_avoid_sv1","""event"",""trial"",""time""
""fullscreenenter"",""1"",""23588""
","
","
","""event"",""trial"",""time""
""fullscreenenter"",""1"",""23588""
","
","","","","","","482.30000000074506","images/bed6.png","","","memory_trial","4","definitely_new",""
"html-keyboard-response","265","666991","0.0-18.0-0.110","4176","approach_avoid_sv1","""event"",""trial"",""time""
""fullscreenenter"",""1"",""23588""
","
","
","""event"",""trial"",""time""
""fullscreenenter"",""1"",""23588""
","
","","","","","","null","<div style=""font-size:60px;"">+</div>","null","","fixation","","",""
"memory-trial","266","669496","0.0-18.0-1.110","4176","approach_avoid_sv1","""event"",""trial"",""time""
""fullscreenenter"",""1"",""23588""
","
","
","""event"",""trial"",""time""
""fullscreenenter"",""1"",""23588""
","
","","","","","","1501.0999999996275","images/sheep6.png","","","memory_trial","1","definitely_old",""
"html-keyboard-response","267","669997","0.0-18.0-0.111","4176","approach_avoid_sv1","""event"",""trial"",""time""
""fullscreenenter"",""1"",""23588""
","
","
","""event"",""trial"",""time""
""fullscreenenter"",""1"",""23588""
","
","","","","","","null","<div style=""font-size:60px;"">+</div>","null","","fixation","","",""
"memory-trial","268","673311","0.0-18.0-1.111","4176","approach_avoid_sv1","""event"",""trial"",""time""
""fullscreenenter"",""1"",""23588""
","
","
","""event"",""trial"",""time""
""fullscreenenter"",""1"",""23588""
","
","","","","","","2309.0999999996275","images/cat1.png","","","memory_trial","4","definitely_new",""
"html-keyboard-response","269","673813","0.0-18.0-0.112","4176","approach_avoid_sv1","""event"",""trial"",""time""
""fullscreenenter"",""1"",""23588""
","
","
","""event"",""trial"",""time""
""fullscreenenter"",""1"",""23588""
","
","","","","","","null","<div style=""font-size:60px;"">+</div>","null","","fixation","","",""
"memory-trial","270","675189","0.0-18.0-1.112","4176","approach_avoid_sv1","""event"",""trial"",""time""
""fullscreenenter"",""1"",""23588""
","
","
","""event"",""trial"",""time""
""fullscreenenter"",""1"",""23588""
","
","","","","","","372","images/bed7.png","","","memory_trial","4","definitely_new",""
"html-keyboard-response","271","675691","0.0-18.0-0.113","4176","approach_avoid_sv1","""event"",""trial"",""time""
""fullscreenenter"",""1"",""23588""
","
","
","""event"",""trial"",""time""
""fullscreenenter"",""1"",""23588""
","
","","","","","","null","<div style=""font-size:60px;"">+</div>","null","","fixation","","",""
"memory-trial","272","677926","0.0-18.0-1.113","4176","approach_avoid_sv1","""event"",""trial"",""time""
""fullscreenenter"",""1"",""23588""
","
","
","""event"",""trial"",""time""
""fullscreenenter"",""1"",""23588""
","
","","","","","","1230.800000000745","images/sheep7.png","","","memory_trial","4","definitely_new",""
"html-keyboard-response","273","678428","0.0-18.0-0.114","4176","approach_avoid_sv1","""event"",""trial"",""time""
""fullscreenenter"",""1"",""23588""
","
","
","""event"",""trial"",""time""
""fullscreenenter"",""1"",""23588""
","
","","","","","","null","<div style=""font-size:60px;"">+</div>","null","","fixation","","",""
"memory-trial","274","680169","0.0-18.0-1.114","4176","approach_avoid_sv1","""event"",""trial"",""time""
""fullscreenenter"",""1"",""23588""
","
","
","""event"",""trial"",""time""
""fullscreenenter"",""1"",""23588""
","
","","","","","","736","images/apple5.png","","","memory_trial","4","definitely_new",""
"html-keyboard-response","275","680671","0.0-18.0-0.115","4176","approach_avoid_sv1","""event"",""trial"",""time""
""fullscreenenter"",""1"",""23588""
","
","
","""event"",""trial"",""time""
""fullscreenenter"",""1"",""23588""
","
","","","","","","null","<div style=""font-size:60px;"">+</div>","null","","fixation","","",""
"memory-trial","276","682150","0.0-18.0-1.115","4176","approach_avoid_sv1","""event"",""trial"",""time""
""fullscreenenter"",""1"",""23588""
","
","
","""event"",""trial"",""time""
""fullscreenenter"",""1"",""23588""
","
","","","","","","474.7999999988824","images/horse7.png","","","memory_trial","4","definitely_new",""
"html-keyboard-response","277","682652","0.0-18.0-0.116","4176","approach_avoid_sv1","""event"",""trial"",""time""
""fullscreenenter"",""1"",""23588""
","
","
","""event"",""trial"",""time""
""fullscreenenter"",""1"",""23588""
","
","","","","","","null","<div style=""font-size:60px;"">+</div>","null","","fixation","","",""
"memory-trial","278","685666","0.0-18.0-1.116","4176","approach_avoid_sv1","""event"",""trial"",""time""
""fullscreenenter"",""1"",""23588""
","
","
","""event"",""trial"",""time""
""fullscreenenter"",""1"",""23588""
","
","","","","","","2010.5999999996275","images/cow5.png","","","memory_trial","1","definitely_old",""
"html-keyboard-response","279","686169","0.0-18.0-0.117","4176","approach_avoid_sv1","""event"",""trial"",""time""
""fullscreenenter"",""1"",""23588""
","
","
","""event"",""trial"",""time""
""fullscreenenter"",""1"",""23588""
","
","","","","","","null","<div style=""font-size:60px;"">+</div>","null","","fixation","","",""
"memory-trial","280","687591","0.0-18.0-1.117","4176","approach_avoid_sv1","""event"",""trial"",""time""
""fullscreenenter"",""1"",""23588""
","
","
","""event"",""trial"",""time""
""fullscreenenter"",""1"",""23588""
","
","","","","","","417.2999999988824","images/rodent2.png","","","memory_trial","4","definitely_new",""
"html-keyboard-response","281","688093","0.0-18.0-0.118","4176","approach_avoid_sv1","""event"",""trial"",""time""
""fullscreenenter"",""1"",""23588""
","
","
","""event"",""trial"",""time""
""fullscreenenter"",""1"",""23588""
","
","","","","","","null","<div style=""font-size:60px;"">+</div>","null","","fixation","","",""
"memory-trial","282","689153","0.0-18.0-1.118","4176","approach_avoid_sv1","""event"",""trial"",""time""
""fullscreenenter"",""1"",""23588""
","
","
","""event"",""trial"",""time""
""fullscreenenter"",""1"",""23588""
","
","","","","","","56.29999999888241","images/cat7.png","","","memory_trial","4","definitely_new",""
"html-keyboard-response","283","689655","0.0-18.0-0.119","4176","approach_avoid_sv1","""event"",""trial"",""time""
""fullscreenenter"",""1"",""23588""
","
","
","""event"",""trial"",""time""
""fullscreenenter"",""1"",""23588""
","
","","","","","","null","<div style=""font-size:60px;"">+</div>","null","","fixation","","",""
"memory-trial","284","691043","0.0-18.0-1.119","4176","approach_avoid_sv1","""event"",""trial"",""time""
""fullscreenenter"",""1"",""23588""
","
","
","""event"",""trial"",""time""
""fullscreenenter"",""1"",""23588""
","
","","","","","","383.59999999962747","images/cow3.png","","","memory_trial","4","definitely_new",""
"html-keyboard-response","285","691545","0.0-18.0-0.120","4176","approach_avoid_sv1","""event"",""trial"",""time""
""fullscreenenter"",""1"",""23588""
","
","
","""event"",""trial"",""time""
""fullscreenenter"",""1"",""23588""
","
","","","","","","null","<div style=""font-size:60px;"">+</div>","null","","fixation","","",""
"memory-trial","286","692851","0.0-18.0-1.120","4176","approach_avoid_sv1","""event"",""trial"",""time""
""fullscreenenter"",""1"",""23588""
","
","
","""event"",""trial"",""time""
""fullscreenenter"",""1"",""23588""
","
","","","","","","302.2000000011176","images/orange3.png","","","memory_trial","4","definitely_new",""
"html-keyboard-response","287","693353","0.0-18.0-0.121","4176","approach_avoid_sv1","""event"",""trial"",""time""
""fullscreenenter"",""1"",""23588""
","
","
","""event"",""trial"",""time""
""fullscreenenter"",""1"",""23588""
","
","","","","","","null","<div style=""font-size:60px;"">+</div>","null","","fixation","","",""
"memory-trial","288","695026","0.0-18.0-1.121","4176","approach_avoid_sv1","""event"",""trial"",""time""
""fullscreenenter"",""1"",""23588""
","
","
","""event"",""trial"",""time""
""fullscreenenter"",""1"",""23588""
","
","","","","","","669.3000000007451","images/bush2.png","","","memory_trial","4","definitely_new",""
"html-keyboard-response","289","695528","0.0-18.0-0.122","4176","approach_avoid_sv1","""event"",""trial"",""time""
""fullscreenenter"",""1"",""23588""
","
","
","""event"",""trial"",""time""
""fullscreenenter"",""1"",""23588""
","
","","","","","","null","<div style=""font-size:60px;"">+</div>","null","","fixation","","",""
"memory-trial","290","697161","0.0-18.0-1.122","4176","approach_avoid_sv1","""event"",""trial"",""time""
""fullscreenenter"",""1"",""23588""
","
","
","""event"",""trial"",""time""
""fullscreenenter"",""1"",""23588""
","
","","","","","","628.6999999992549","images/chair6.png","","","memory_trial","4","definitely_new",""
"html-keyboard-response","291","697664","0.0-18.0-0.123","4176","approach_avoid_sv1","""event"",""trial"",""time""
""fullscreenenter"",""1"",""23588""
","
","
","""event"",""trial"",""time""
""fullscreenenter"",""1"",""23588""
","
","","","","","","null","<div style=""font-size:60px;"">+</div>","null","","fixation","","",""
"memory-trial","292","698964","0.0-18.0-1.123","4176","approach_avoid_sv1","""event"",""trial"",""time""
""fullscreenenter"",""1"",""23588""
","
","
","""event"",""trial"",""time""
""fullscreenenter"",""1"",""23588""
","
","","","","","","296.59999999962747","images/chair2.png","","","memory_trial","4","definitely_new",""
"html-keyboard-response","293","699466","0.0-18.0-0.124","4176","approach_avoid_sv1","""event"",""trial"",""time""
""fullscreenenter"",""1"",""23588""
","
","
","""event"",""trial"",""time""
""fullscreenenter"",""1"",""23588""
","
","","","","","","null","<div style=""font-size:60px;"">+</div>","null","","fixation","","",""
"memory-trial","294","700939","0.0-18.0-1.124","4176","approach_avoid_sv1","""event"",""trial"",""time""
""fullscreenenter"",""1"",""23588""
","
","
","""event"",""trial"",""time""
""fullscreenenter"",""1"",""23588""
","
","","","","","","467.7999999988824","images/train2.png","","","memory_trial","4","definitely_new",""
