"trial_type","trial_index","time_elapsed","internal_node_id","subject_id","task_version","interactions","blur_events","focus_events","fullscreenenter_events","fullscreenexit_events","success","timeout","failed_images","failed_audio","failed_video","rt","stimulus","response","button_pressed","task_part","key_press","answer","correct"
"pavlovia","0","10","0.0-0.0","5578","approach_avoid_sv1","""event"",""trial"",""time""
""fullscreenenter"",""1"",""3118""
","
","
","""event"",""trial"",""time""
""fullscreenenter"",""1"",""3118""
","
","","","","","","","","","","","","",""
"fullscreen","1","4076","0.0-1.0","5578","approach_avoid_sv1","""event"",""trial"",""time""
""fullscreenenter"",""1"",""3118""
","
","
","""event"",""trial"",""time""
""fullscreenenter"",""1"",""3118""
","
","true","","","","","","","","","","","",""
"preload","2","11690","0.0-2.0","5578","approach_avoid_sv1","""event"",""trial"",""time""
""fullscreenenter"",""1"",""3118""
","
","
","""event"",""trial"",""time""
""fullscreenenter"",""1"",""3118""
","
","true","false","[]","[]","[]","","","","","","","",""
"preload","3","17332","0.0-3.0","5578","approach_avoid_sv1","""event"",""trial"",""time""
""fullscreenenter"",""1"",""3118""
","
","
","""event"",""trial"",""time""
""fullscreenenter"",""1"",""3118""
","
","true","false","[]","[]","[]","","","","","","","",""
"preload","4","17840","0.0-4.0","5578","approach_avoid_sv1","""event"",""trial"",""time""
""fullscreenenter"",""1"",""3118""
","
","
","""event"",""trial"",""time""
""fullscreenenter"",""1"",""3118""
","
","true","false","[]","[]","[]","","","","","","","",""
"audio-keyboard-response","5","24452","0.0-5.0","5578","approach_avoid_sv1","""event"",""trial"",""time""
""fullscreenenter"",""1"",""3118""
","
","
","""event"",""trial"",""time""
""fullscreenenter"",""1"",""3118""
","
","","","","","","6613.333333333333","audio/beep_loop.wav"," ","","","","",""
"audio-button-response","6","26118","0.0-6.0","5578","approach_avoid_sv1","""event"",""trial"",""time""
""fullscreenenter"",""1"",""3118""
","
","
","""event"",""trial"",""time""
""fullscreenenter"",""1"",""3118""
","
","","","","","","1664","audio/turtle.wav","3","","","","",""
"audio-button-response","7","28395","0.0-7.0","5578","approach_avoid_sv1","""event"",""trial"",""time""
""fullscreenenter"",""1"",""3118""
","
","
","""event"",""trial"",""time""
""fullscreenenter"",""1"",""3118""
","
","","","","","","1269","audio/shark.wav","2","","","","",""
"preload","8","41836","0.0-8.0","5578","approach_avoid_sv1","""event"",""trial"",""time""
""fullscreenenter"",""1"",""3118""
","
","
","""event"",""trial"",""time""
""fullscreenenter"",""1"",""3118""
","
","true","false","[]","[]","[]","","","","","","","",""
"learning-instructions","9","50485","0.0-9.0-0.0","5578","approach_avoid_sv1","""event"",""trial"",""time""
""fullscreenenter"",""1"",""3118""
","
","
","""event"",""trial"",""time""
""fullscreenenter"",""1"",""3118""
","
","","","","","","4168","<p> Welcome back! </p><p> Last week, you had to make choices about lots of different items.  </p>","","0","instructions","","",""
"learning-instructions","10","57537","0.0-9.0-0.1","5578","approach_avoid_sv1","""event"",""trial"",""time""
""fullscreenenter"",""1"",""3118""
","
","
","""event"",""trial"",""time""
""fullscreenenter"",""1"",""3118""
","
","","","","","","2943.600000000035","<p> Today, we are going to ask you to try to remember all the items. </p>","","0","instructions","","",""
"learning-instructions","11","71028","0.0-9.0-0.2","5578","approach_avoid_sv1","""event"",""trial"",""time""
""fullscreenenter"",""1"",""3118""
","
","
","""event"",""trial"",""time""
""fullscreenenter"",""1"",""3118""
","
","","","","","","3346.399999999965","<p> On every trial, you will see an image. </p><p> The image may be an OLD image you saw during the games last week or it may be a NEW image that was not presented. </p>","","0","instructions","","",""
"learning-instructions","12","82423","0.0-9.0-0.3","5578","approach_avoid_sv1","""event"",""trial"",""time""
""fullscreenenter"",""1"",""3118""
","
","
","""event"",""trial"",""time""
""fullscreenenter"",""1"",""3118""
","
","","","","","","2890.5999999999767","<p> You need to select whether the image is:  </p><p>  'Definitely old', 'Maybe old', 'Maybe new', or 'Definitely new.'  </p><div class=""mem-choice-instructions-grid""><div class=""choice-option"" id=""choice-option-1"" ><img src=""images/definitely_old_1.png"" id=""choice-option-img-1"" class=""choice-option-img"" stage=""1""></div><div class=""choice-option"" id=""choice-option-2"" ><img src=""images/maybe_old_1.png"" id=""choice-option-img-2"" class=""choice-option-img"" stage=""1""></div><div class=""choice-option"" id=""choice-option-3"" ><img src=""images/maybe_new_1.png"" id=""choice-option-img-3"" class=""choice-option-img"" stage=""1""></div><div class=""choice-option"" id=""choice-option-4"" > <img src=""images/definitely_new_1.png"" id=""choice-option-img-4"" class=""choice-option-img"" stage=""1""></div></div>","","0","instructions","","",""
"learning-instructions","13","94443","0.0-9.0-0.4","5578","approach_avoid_sv1","""event"",""trial"",""time""
""fullscreenenter"",""1"",""3118""
","
","
","""event"",""trial"",""time""
""fullscreenenter"",""1"",""3118""
","
","","","","","","5499.799999999988","<p> You should use the 1, 2, 3, and 4 keys to make your responses.  </p><div class=""mem-choice-instructions-grid""><div class=""choice-option"" id=""choice-option-1"" ><img src=""images/definitely_old.png"" id=""choice-option-img-1"" class=""choice-option-img"" stage=""1""></div><div class=""choice-option"" id=""choice-option-2"" ><img src=""images/maybe_old.png"" id=""choice-option-img-2"" class=""choice-option-img"" stage=""1""></div><div class=""choice-option"" id=""choice-option-3"" ><img src=""images/maybe_new.png"" id=""choice-option-img-3"" class=""choice-option-img"" stage=""1""></div><div class=""choice-option"" id=""choice-option-4"" > <img src=""images/definitely_new.png"" id=""choice-option-img-4"" class=""choice-option-img"" stage=""1""></div></div>","","0","instructions","","",""
"learning-instructions","14","103637","0.0-9.0-0.5","5578","approach_avoid_sv1","""event"",""trial"",""time""
""fullscreenenter"",""1"",""3118""
","
","
","""event"",""trial"",""time""
""fullscreenenter"",""1"",""3118""
","
","","","","","","2856.7999999999884","<p> You will have 10 seconds to make each response.  </p><p>  Make sure to respond before time runs out! </p>","","0","instructions","","",""
"learning-instructions","15","116136","0.0-9.0-0.6","5578","approach_avoid_sv1","""event"",""trial"",""time""
""fullscreenenter"",""1"",""3118""
","
","
","""event"",""trial"",""time""
""fullscreenenter"",""1"",""3118""
","
","","","","","","5413.299999999988","<p> Today, you will see each image ONCE only.  </p><p>  That means none of the images will repeat. </p>","","0","instructions","","",""
"learning-instructions","16","133792","0.0-9.0-0.7","5578","approach_avoid_sv1","""event"",""trial"",""time""
""fullscreenenter"",""1"",""3118""
","
","
","""event"",""trial"",""time""
""fullscreenenter"",""1"",""3118""
","
","","","","","","4989.200000000012","<p> Before you play the real game, it is time to practice. </p><p>  Just like in the real game, some of the images in the practice will be ones you have seen before. </p><p>  Others will be entirely new. </p>","","0","instructions","","",""
"html-button-response","17","139686","0.0-10.0","5578","approach_avoid_sv1","""event"",""trial"",""time""
""fullscreenenter"",""1"",""3118""
","
","
","""event"",""trial"",""time""
""fullscreenenter"",""1"",""3118""
","
","","","","","","5782.200000000012","<p> Ready to practice? </p><p> Remember, use the 1, 2, 3, and 4 keys to make your responses. </p>","0","","instructions","","",""
"html-keyboard-response","18","140293","0.0-11.0-0.0","5578","approach_avoid_sv1","""event"",""trial"",""time""
""fullscreenenter"",""1"",""3118""
","
","
","""event"",""trial"",""time""
""fullscreenenter"",""1"",""3118""
","
","","","","","","null","<div style=""font-size:60px;"">+</div>","null","","fixation","","",""
"memory-trial","19","147557","0.0-11.0-1.0","5578","approach_avoid_sv1","""event"",""trial"",""time""
""fullscreenenter"",""1"",""3118""
","
","
","""event"",""trial"",""time""
""fullscreenenter"",""1"",""3118""
","
","","","","","","6251.200000000012","images/racket5.png","","","practice","2","maybe_old",""
"html-keyboard-response","20","148068","0.0-11.0-0.1","5578","approach_avoid_sv1","""event"",""trial"",""time""
""fullscreenenter"",""1"",""3118""
","
","
","""event"",""trial"",""time""
""fullscreenenter"",""1"",""3118""
","
","","","","","","null","<div style=""font-size:60px;"">+</div>","null","","fixation","","",""
"memory-trial","21","152269","0.0-11.0-1.1","5578","approach_avoid_sv1","""event"",""trial"",""time""
""fullscreenenter"",""1"",""3118""
","
","
","""event"",""trial"",""time""
""fullscreenenter"",""1"",""3118""
","
","","","","","","3188.600000000035","images/racket3.png","","","practice","4","definitely_new",""
"html-keyboard-response","22","152773","0.0-11.0-0.2","5578","approach_avoid_sv1","""event"",""trial"",""time""
""fullscreenenter"",""1"",""3118""
","
","
","""event"",""trial"",""time""
""fullscreenenter"",""1"",""3118""
","
","","","","","","null","<div style=""font-size:60px;"">+</div>","null","","fixation","","",""
"memory-trial","23","157749","0.0-11.0-1.2","5578","approach_avoid_sv1","""event"",""trial"",""time""
""fullscreenenter"",""1"",""3118""
","
","
","""event"",""trial"",""time""
""fullscreenenter"",""1"",""3118""
","
","","","","","","3965.2999999999884","images/racket2.png","","","practice","3","maybe_new",""
"html-keyboard-response","24","158252","0.0-11.0-0.3","5578","approach_avoid_sv1","""event"",""trial"",""time""
""fullscreenenter"",""1"",""3118""
","
","
","""event"",""trial"",""time""
""fullscreenenter"",""1"",""3118""
","
","","","","","","null","<div style=""font-size:60px;"">+</div>","null","","fixation","","",""
"memory-trial","25","163638","0.0-11.0-1.3","5578","approach_avoid_sv1","""event"",""trial"",""time""
""fullscreenenter"",""1"",""3118""
","
","
","""event"",""trial"",""time""
""fullscreenenter"",""1"",""3118""
","
","","","","","","4373.900000000023","images/ball1.png","","","practice","1","definitely_old",""
"html-keyboard-response","26","164149","0.0-11.0-0.4","5578","approach_avoid_sv1","""event"",""trial"",""time""
""fullscreenenter"",""1"",""3118""
","
","
","""event"",""trial"",""time""
""fullscreenenter"",""1"",""3118""
","
","","","","","","null","<div style=""font-size:60px;"">+</div>","null","","fixation","","",""
"memory-trial","27","169670","0.0-11.0-1.4","5578","approach_avoid_sv1","""event"",""trial"",""time""
""fullscreenenter"",""1"",""3118""
","
","
","""event"",""trial"",""time""
""fullscreenenter"",""1"",""3118""
","
","","","","","","4511.700000000012","images/ball3.png","","","practice","2","maybe_old",""
"html-keyboard-response","28","170173","0.0-11.0-0.5","5578","approach_avoid_sv1","""event"",""trial"",""time""
""fullscreenenter"",""1"",""3118""
","
","
","""event"",""trial"",""time""
""fullscreenenter"",""1"",""3118""
","
","","","","","","null","<div style=""font-size:60px;"">+</div>","null","","fixation","","",""
"memory-trial","29","177013","0.0-11.0-1.5","5578","approach_avoid_sv1","""event"",""trial"",""time""
""fullscreenenter"",""1"",""3118""
","
","
","""event"",""trial"",""time""
""fullscreenenter"",""1"",""3118""
","
","","","","","","5828.5","images/ball2.png","","","practice","2","maybe_old",""
"html-keyboard-response","30","177517","0.0-11.0-0.6","5578","approach_avoid_sv1","""event"",""trial"",""time""
""fullscreenenter"",""1"",""3118""
","
","
","""event"",""trial"",""time""
""fullscreenenter"",""1"",""3118""
","
","","","","","","null","<div style=""font-size:60px;"">+</div>","null","","fixation","","",""
"memory-trial","31","182846","0.0-11.0-1.6","5578","approach_avoid_sv1","""event"",""trial"",""time""
""fullscreenenter"",""1"",""3118""
","
","
","""event"",""trial"",""time""
""fullscreenenter"",""1"",""3118""
","
","","","","","","4312.700000000012","images/racket1.png","","","practice","3","maybe_new",""
"html-keyboard-response","32","183357","0.0-11.0-0.7","5578","approach_avoid_sv1","""event"",""trial"",""time""
""fullscreenenter"",""1"",""3118""
","
","
","""event"",""trial"",""time""
""fullscreenenter"",""1"",""3118""
","
","","","","","","null","<div style=""font-size:60px;"">+</div>","null","","fixation","","",""
"memory-trial","33","186429","0.0-11.0-1.7","5578","approach_avoid_sv1","""event"",""trial"",""time""
""fullscreenenter"",""1"",""3118""
","
","
","""event"",""trial"",""time""
""fullscreenenter"",""1"",""3118""
","
","","","","","","2059.4000000000233","images/ball5.png","","","practice","1","definitely_old",""
"learning-instructions","34","195666","0.0-12.0-0.0","5578","approach_avoid_sv1","""event"",""trial"",""time""
""fullscreenenter"",""1"",""3118""
","
","
","""event"",""trial"",""time""
""fullscreenenter"",""1"",""3118""
","
","","","","","","1848.2999999999884","<p> Great! You have completed the practice. </p><p> Before you start, we're going to ask you a few questions about how the game works.  </p>","","0","instructions","","",""
"preload","35","201749","0.0-13.0","5578","approach_avoid_sv1","""event"",""trial"",""time""
""fullscreenenter"",""1"",""3118""
","
","
","""event"",""trial"",""time""
""fullscreenenter"",""1"",""3118""
","
","true","false","[]","[]","[]","","","","","","","",""
"comp-q","36","208613","0.0-14.0-0.0","5578","approach_avoid_sv1","""event"",""trial"",""time""
""fullscreenenter"",""1"",""3118""
","
","
","""event"",""trial"",""time""
""fullscreenenter"",""1"",""3118""
","
","","","","","","1025.5","<p> <b> True or False? </b> </p><p> In this game, you will only see each image once. </p>","","0","comp_question","","","true"
"comp-q","37","216359","0.0-14.0-1.0","5578","approach_avoid_sv1","""event"",""trial"",""time""
""fullscreenenter"",""1"",""3118""
","
","
","""event"",""trial"",""time""
""fullscreenenter"",""1"",""3118""
","
","","","","","","1399.5","<p> <b> That's right! </b> You will see many different images <i> one time each </i> in this game. </p>","","0","comp_answer","","",""
"comp-q","38","222360","0.0-15.0-0.0","5578","approach_avoid_sv1","""event"",""trial"",""time""
""fullscreenenter"",""1"",""3118""
","
","
","""event"",""trial"",""time""
""fullscreenenter"",""1"",""3118""
","
","","","","","","991.9000000000233","<p> <b> True or False? </b> </p><p> You should use the mouse and click to make your response. </p>","","1","comp_question","","","true"
"comp-q","39","229810","0.0-15.0-1.0","5578","approach_avoid_sv1","""event"",""trial"",""time""
""fullscreenenter"",""1"",""3118""
","
","
","""event"",""trial"",""time""
""fullscreenenter"",""1"",""3118""
","
","","","","","","943.6999999999534","<p><b> That's right! </b> You should use the '1', '2', '3', and '4' keys to make your response. </p>","","0","comp_answer","","",""
"comp-q","40","239164","0.0-16.0-0.0","5578","approach_avoid_sv1","""event"",""trial"",""time""
""fullscreenenter"",""1"",""3118""
","
","
","""event"",""trial"",""time""
""fullscreenenter"",""1"",""3118""
","
","","","","","","3663.6999999999534","<p> <b> True or False? </b> </p><p> You will have as much time as you want to make each choice. </p>","","1","comp_question","","","true"
"comp-q","41","245040","0.0-16.0-1.0","5578","approach_avoid_sv1","""event"",""trial"",""time""
""fullscreenenter"",""1"",""3118""
","
","
","""event"",""trial"",""time""
""fullscreenenter"",""1"",""3118""
","
","","","","","","1176.8000000000466","<p> <b> That's right! </b> You will only have 10 seconds to make each choice. </p>","","0","comp_answer","","",""
"learning-instructions","42","255415","0.0-17.0","5578","approach_avoid_sv1","""event"",""trial"",""time""
""fullscreenenter"",""1"",""3118""
","
","
","""event"",""trial"",""time""
""fullscreenenter"",""1"",""3118""
","
","","","","","","1706","<p> Great! You are now ready to begin the game. </p><p> Remember, use the 1, 2, 3, and 4 keys to make your responses. </p>","","0","instructions","","",""
"html-keyboard-response","43","256021","0.0-18.0-0.0","5578","approach_avoid_sv1","""event"",""trial"",""time""
""fullscreenenter"",""1"",""3118""
","
","
","""event"",""trial"",""time""
""fullscreenenter"",""1"",""3118""
","
","","","","","","null","<div style=""font-size:60px;"">+</div>","null","","fixation","","",""
"memory-trial","44","259980","0.0-18.0-1.0","5578","approach_avoid_sv1","""event"",""trial"",""time""
""fullscreenenter"",""1"",""3118""
","
","
","""event"",""trial"",""time""
""fullscreenenter"",""1"",""3118""
","
","","","","","","2952.0999999999767","images/rabbit8.png","","","memory_trial","3","maybe_new",""
"html-keyboard-response","45","260484","0.0-18.0-0.1","5578","approach_avoid_sv1","""event"",""trial"",""time""
""fullscreenenter"",""1"",""3118""
","
","
","""event"",""trial"",""time""
""fullscreenenter"",""1"",""3118""
","
","","","","","","null","<div style=""font-size:60px;"">+</div>","null","","fixation","","",""
"memory-trial","46","264693","0.0-18.0-1.1","5578","approach_avoid_sv1","""event"",""trial"",""time""
""fullscreenenter"",""1"",""3118""
","
","
","""event"",""trial"",""time""
""fullscreenenter"",""1"",""3118""
","
","","","","","","3203.4000000000233","images/bush4.png","","","memory_trial","4","definitely_new",""
"html-keyboard-response","47","265197","0.0-18.0-0.2","5578","approach_avoid_sv1","""event"",""trial"",""time""
""fullscreenenter"",""1"",""3118""
","
","
","""event"",""trial"",""time""
""fullscreenenter"",""1"",""3118""
","
","","","","","","null","<div style=""font-size:60px;"">+</div>","null","","fixation","","",""
"memory-trial","48","269796","0.0-18.0-1.2","5578","approach_avoid_sv1","""event"",""trial"",""time""
""fullscreenenter"",""1"",""3118""
","
","
","""event"",""trial"",""time""
""fullscreenenter"",""1"",""3118""
","
","","","","","","3594.3000000000466","images/rabbit5.png","","","memory_trial","3","maybe_new",""
"html-keyboard-response","49","270301","0.0-18.0-0.3","5578","approach_avoid_sv1","""event"",""trial"",""time""
""fullscreenenter"",""1"",""3118""
","
","
","""event"",""trial"",""time""
""fullscreenenter"",""1"",""3118""
","
","","","","","","null","<div style=""font-size:60px;"">+</div>","null","","fixation","","",""
"memory-trial","50","274317","0.0-18.0-1.3","5578","approach_avoid_sv1","""event"",""trial"",""time""
""fullscreenenter"",""1"",""3118""
","
","
","""event"",""trial"",""time""
""fullscreenenter"",""1"",""3118""
","
","","","","","","3006.20000000007","images/truck8.png","","","memory_trial","1","definitely_old",""
"html-keyboard-response","51","274821","0.0-18.0-0.4","5578","approach_avoid_sv1","""event"",""trial"",""time""
""fullscreenenter"",""1"",""3118""
","
","
","""event"",""trial"",""time""
""fullscreenenter"",""1"",""3118""
","
","","","","","","null","<div style=""font-size:60px;"">+</div>","null","","fixation","","",""
"memory-trial","52","278253","0.0-18.0-1.4","5578","approach_avoid_sv1","""event"",""trial"",""time""
""fullscreenenter"",""1"",""3118""
","
","
","""event"",""trial"",""time""
""fullscreenenter"",""1"",""3118""
","
","","","","","","2424.3000000000466","images/sheep2.png","","","memory_trial","3","maybe_new",""
"html-keyboard-response","53","278757","0.0-18.0-0.5","5578","approach_avoid_sv1","""event"",""trial"",""time""
""fullscreenenter"",""1"",""3118""
","
","
","""event"",""trial"",""time""
""fullscreenenter"",""1"",""3118""
","
","","","","","","null","<div style=""font-size:60px;"">+</div>","null","","fixation","","",""
"memory-trial","54","281683","0.0-18.0-1.5","5578","approach_avoid_sv1","""event"",""trial"",""time""
""fullscreenenter"",""1"",""3118""
","
","
","""event"",""trial"",""time""
""fullscreenenter"",""1"",""3118""
","
","","","","","","1918.5","images/plane5.png","","","memory_trial","1","definitely_old",""
"html-keyboard-response","55","282188","0.0-18.0-0.6","5578","approach_avoid_sv1","""event"",""trial"",""time""
""fullscreenenter"",""1"",""3118""
","
","
","""event"",""trial"",""time""
""fullscreenenter"",""1"",""3118""
","
","","","","","","null","<div style=""font-size:60px;"">+</div>","null","","fixation","","",""
"memory-trial","56","284645","0.0-18.0-1.6","5578","approach_avoid_sv1","""event"",""trial"",""time""
""fullscreenenter"",""1"",""3118""
","
","
","""event"",""trial"",""time""
""fullscreenenter"",""1"",""3118""
","
","","","","","","1448.5999999999767","images/apple5.png","","","memory_trial","1","definitely_old",""
"html-keyboard-response","57","285148","0.0-18.0-0.7","5578","approach_avoid_sv1","""event"",""trial"",""time""
""fullscreenenter"",""1"",""3118""
","
","
","""event"",""trial"",""time""
""fullscreenenter"",""1"",""3118""
","
","","","","","","null","<div style=""font-size:60px;"">+</div>","null","","fixation","","",""
"memory-trial","58","288420","0.0-18.0-1.7","5578","approach_avoid_sv1","""event"",""trial"",""time""
""fullscreenenter"",""1"",""3118""
","
","
","""event"",""trial"",""time""
""fullscreenenter"",""1"",""3118""
","
","","","","","","2261.5","images/rabbit3.png","","","memory_trial","3","maybe_new",""
"html-keyboard-response","59","288924","0.0-18.0-0.8","5578","approach_avoid_sv1","""event"",""trial"",""time""
""fullscreenenter"",""1"",""3118""
","
","
","""event"",""trial"",""time""
""fullscreenenter"",""1"",""3118""
","
","","","","","","null","<div style=""font-size:60px;"">+</div>","null","","fixation","","",""
"memory-trial","60","291157","0.0-18.0-1.8","5578","approach_avoid_sv1","""event"",""trial"",""time""
""fullscreenenter"",""1"",""3118""
","
","
","""event"",""trial"",""time""
""fullscreenenter"",""1"",""3118""
","
","","","","","","1226.1999999999534","images/orange8.png","","","memory_trial","1","definitely_old",""
"html-keyboard-response","61","291661","0.0-18.0-0.9","5578","approach_avoid_sv1","""event"",""trial"",""time""
""fullscreenenter"",""1"",""3118""
","
","
","""event"",""trial"",""time""
""fullscreenenter"",""1"",""3118""
","
","","","","","","null","<div style=""font-size:60px;"">+</div>","null","","fixation","","",""
"memory-trial","62","294980","0.0-18.0-1.9","5578","approach_avoid_sv1","""event"",""trial"",""time""
""fullscreenenter"",""1"",""3118""
","
","
","""event"",""trial"",""time""
""fullscreenenter"",""1"",""3118""
","
","","","","","","2309","images/dog5.png","","","memory_trial","4","definitely_new",""
"html-keyboard-response","63","295484","0.0-18.0-0.10","5578","approach_avoid_sv1","""event"",""trial"",""time""
""fullscreenenter"",""1"",""3118""
","
","
","""event"",""trial"",""time""
""fullscreenenter"",""1"",""3118""
","
","","","","","","null","<div style=""font-size:60px;"">+</div>","null","","fixation","","",""
"memory-trial","64","297968","0.0-18.0-1.10","5578","approach_avoid_sv1","""event"",""trial"",""time""
""fullscreenenter"",""1"",""3118""
","
","
","""event"",""trial"",""time""
""fullscreenenter"",""1"",""3118""
","
","","","","","","1476.5","images/dog6.png","","","memory_trial","1","definitely_old",""
"html-keyboard-response","65","298476","0.0-18.0-0.11","5578","approach_avoid_sv1","""event"",""trial"",""time""
""fullscreenenter"",""1"",""3118""
","
","
","""event"",""trial"",""time""
""fullscreenenter"",""1"",""3118""
","
","","","","","","null","<div style=""font-size:60px;"">+</div>","null","","fixation","","",""
"memory-trial","66","305741","0.0-18.0-1.11","5578","approach_avoid_sv1","""event"",""trial"",""time""
""fullscreenenter"",""1"",""3118""
","
","
","""event"",""trial"",""time""
""fullscreenenter"",""1"",""3118""
","
","","","","","","6250.099999999977","images/chair7.png","","","memory_trial","4","definitely_new",""
"html-keyboard-response","67","306245","0.0-18.0-0.12","5578","approach_avoid_sv1","""event"",""trial"",""time""
""fullscreenenter"",""1"",""3118""
","
","
","""event"",""trial"",""time""
""fullscreenenter"",""1"",""3118""
","
","","","","","","null","<div style=""font-size:60px;"">+</div>","null","","fixation","","",""
"memory-trial","68","309013","0.0-18.0-1.12","5578","approach_avoid_sv1","""event"",""trial"",""time""
""fullscreenenter"",""1"",""3118""
","
","
","""event"",""trial"",""time""
""fullscreenenter"",""1"",""3118""
","
","","","","","","1755.5","images/sofa8.png","","","memory_trial","1","definitely_old",""
"html-keyboard-response","69","309516","0.0-18.0-0.13","5578","approach_avoid_sv1","""event"",""trial"",""time""
""fullscreenenter"",""1"",""3118""
","
","
","""event"",""trial"",""time""
""fullscreenenter"",""1"",""3118""
","
","","","","","","null","<div style=""font-size:60px;"">+</div>","null","","fixation","","",""
"memory-trial","70","313269","0.0-18.0-1.13","5578","approach_avoid_sv1","""event"",""trial"",""time""
""fullscreenenter"",""1"",""3118""
","
","
","""event"",""trial"",""time""
""fullscreenenter"",""1"",""3118""
","
","","","","","","2743.5999999999767","images/dog1.png","","","memory_trial","4","definitely_new",""
"html-keyboard-response","71","313773","0.0-18.0-0.14","5578","approach_avoid_sv1","""event"",""trial"",""time""
""fullscreenenter"",""1"",""3118""
","
","
","""event"",""trial"",""time""
""fullscreenenter"",""1"",""3118""
","
","","","","","","null","<div style=""font-size:60px;"">+</div>","null","","fixation","","",""
"memory-trial","72","317917","0.0-18.0-1.14","5578","approach_avoid_sv1","""event"",""trial"",""time""
""fullscreenenter"",""1"",""3118""
","
","
","""event"",""trial"",""time""
""fullscreenenter"",""1"",""3118""
","
","","","","","","3128.5999999999767","images/cat8.png","","","memory_trial","4","definitely_new",""
"html-keyboard-response","73","318421","0.0-18.0-0.15","5578","approach_avoid_sv1","""event"",""trial"",""time""
""fullscreenenter"",""1"",""3118""
","
","
","""event"",""trial"",""time""
""fullscreenenter"",""1"",""3118""
","
","","","","","","null","<div style=""font-size:60px;"">+</div>","null","","fixation","","",""
"memory-trial","74","321493","0.0-18.0-1.15","5578","approach_avoid_sv1","""event"",""trial"",""time""
""fullscreenenter"",""1"",""3118""
","
","
","""event"",""trial"",""time""
""fullscreenenter"",""1"",""3118""
","
","","","","","","2059.5","images/goat3.png","","","memory_trial","2","maybe_old",""
"html-keyboard-response","75","321997","0.0-18.0-0.16","5578","approach_avoid_sv1","""event"",""trial"",""time""
""fullscreenenter"",""1"",""3118""
","
","
","""event"",""trial"",""time""
""fullscreenenter"",""1"",""3118""
","
","","","","","","null","<div style=""font-size:60px;"">+</div>","null","","fixation","","",""
"memory-trial","76","326237","0.0-18.0-1.16","5578","approach_avoid_sv1","""event"",""trial"",""time""
""fullscreenenter"",""1"",""3118""
","
","
","""event"",""trial"",""time""
""fullscreenenter"",""1"",""3118""
","
","","","","","","3226.9000000000233","images/sofa3.png","","","memory_trial","1","definitely_old",""
"html-keyboard-response","77","326740","0.0-18.0-0.17","5578","approach_avoid_sv1","""event"",""trial"",""time""
""fullscreenenter"",""1"",""3118""
","
","
","""event"",""trial"",""time""
""fullscreenenter"",""1"",""3118""
","
","","","","","","null","<div style=""font-size:60px;"">+</div>","null","","fixation","","",""
"memory-trial","78","329213","0.0-18.0-1.17","5578","approach_avoid_sv1","""event"",""trial"",""time""
""fullscreenenter"",""1"",""3118""
","
","
","""event"",""trial"",""time""
""fullscreenenter"",""1"",""3118""
","
","","","","","","1460.2000000000698","images/cactus6.png","","","memory_trial","1","definitely_old",""
"html-keyboard-response","79","329716","0.0-18.0-0.18","5578","approach_avoid_sv1","""event"",""trial"",""time""
""fullscreenenter"",""1"",""3118""
","
","
","""event"",""trial"",""time""
""fullscreenenter"",""1"",""3118""
","
","","","","","","null","<div style=""font-size:60px;"">+</div>","null","","fixation","","",""
"memory-trial","80","332701","0.0-18.0-1.18","5578","approach_avoid_sv1","""event"",""trial"",""time""
""fullscreenenter"",""1"",""3118""
","
","
","""event"",""trial"",""time""
""fullscreenenter"",""1"",""3118""
","
","","","","","","1978.4000000000233","images/boat4.png","","","memory_trial","4","definitely_new",""
"html-keyboard-response","81","333204","0.0-18.0-0.19","5578","approach_avoid_sv1","""event"",""trial"",""time""
""fullscreenenter"",""1"",""3118""
","
","
","""event"",""trial"",""time""
""fullscreenenter"",""1"",""3118""
","
","","","","","","null","<div style=""font-size:60px;"">+</div>","null","","fixation","","",""
"memory-trial","82","336181","0.0-18.0-1.19","5578","approach_avoid_sv1","""event"",""trial"",""time""
""fullscreenenter"",""1"",""3118""
","
","
","""event"",""trial"",""time""
""fullscreenenter"",""1"",""3118""
","
","","","","","","1964.7999999999302","images/apple3.png","","","memory_trial","4","definitely_new",""
"html-keyboard-response","83","336684","0.0-18.0-0.20","5578","approach_avoid_sv1","""event"",""trial"",""time""
""fullscreenenter"",""1"",""3118""
","
","
","""event"",""trial"",""time""
""fullscreenenter"",""1"",""3118""
","
","","","","","","null","<div style=""font-size:60px;"">+</div>","null","","fixation","","",""
"memory-trial","84","339349","0.0-18.0-1.20","5578","approach_avoid_sv1","""event"",""trial"",""time""
""fullscreenenter"",""1"",""3118""
","
","
","""event"",""trial"",""time""
""fullscreenenter"",""1"",""3118""
","
","","","","","","1654.1999999999534","images/straw1.png","","","memory_trial","1","definitely_old",""
"html-keyboard-response","85","339852","0.0-18.0-0.21","5578","approach_avoid_sv1","""event"",""trial"",""time""
""fullscreenenter"",""1"",""3118""
","
","
","""event"",""trial"",""time""
""fullscreenenter"",""1"",""3118""
","
","","","","","","null","<div style=""font-size:60px;"">+</div>","null","","fixation","","",""
"memory-trial","86","342669","0.0-18.0-1.21","5578","approach_avoid_sv1","""event"",""trial"",""time""
""fullscreenenter"",""1"",""3118""
","
","
","""event"",""trial"",""time""
""fullscreenenter"",""1"",""3118""
","
","","","","","","1807.5","images/flower6.png","","","memory_trial","4","definitely_new",""
"html-keyboard-response","87","343173","0.0-18.0-0.22","5578","approach_avoid_sv1","""event"",""trial"",""time""
""fullscreenenter"",""1"",""3118""
","
","
","""event"",""trial"",""time""
""fullscreenenter"",""1"",""3118""
","
","","","","","","null","<div style=""font-size:60px;"">+</div>","null","","fixation","","",""
"memory-trial","88","346365","0.0-18.0-1.22","5578","approach_avoid_sv1","""event"",""trial"",""time""
""fullscreenenter"",""1"",""3118""
","
","
","""event"",""trial"",""time""
""fullscreenenter"",""1"",""3118""
","
","","","","","","2178.0999999999767","images/truck3.png","","","memory_trial","4","definitely_new",""
"html-keyboard-response","89","346868","0.0-18.0-0.23","5578","approach_avoid_sv1","""event"",""trial"",""time""
""fullscreenenter"",""1"",""3118""
","
","
","""event"",""trial"",""time""
""fullscreenenter"",""1"",""3118""
","
","","","","","","null","<div style=""font-size:60px;"">+</div>","null","","fixation","","",""
"memory-trial","90","349189","0.0-18.0-1.23","5578","approach_avoid_sv1","""event"",""trial"",""time""
""fullscreenenter"",""1"",""3118""
","
","
","""event"",""trial"",""time""
""fullscreenenter"",""1"",""3118""
","
","","","","","","1309.2999999999302","images/orange4.png","","","memory_trial","1","definitely_old",""
"html-keyboard-response","91","349692","0.0-18.0-0.24","5578","approach_avoid_sv1","""event"",""trial"",""time""
""fullscreenenter"",""1"",""3118""
","
","
","""event"",""trial"",""time""
""fullscreenenter"",""1"",""3118""
","
","","","","","","null","<div style=""font-size:60px;"">+</div>","null","","fixation","","",""
"memory-trial","92","352621","0.0-18.0-1.24","5578","approach_avoid_sv1","""event"",""trial"",""time""
""fullscreenenter"",""1"",""3118""
","
","
","""event"",""trial"",""time""
""fullscreenenter"",""1"",""3118""
","
","","","","","","1919.4000000000233","images/flower4.png","","","memory_trial","3","maybe_new",""
"html-keyboard-response","93","353125","0.0-18.0-0.25","5578","approach_avoid_sv1","""event"",""trial"",""time""
""fullscreenenter"",""1"",""3118""
","
","
","""event"",""trial"",""time""
""fullscreenenter"",""1"",""3118""
","
","","","","","","null","<div style=""font-size:60px;"">+</div>","null","","fixation","","",""
"memory-trial","94","357605","0.0-18.0-1.25","5578","approach_avoid_sv1","""event"",""trial"",""time""
""fullscreenenter"",""1"",""3118""
","
","
","""event"",""trial"",""time""
""fullscreenenter"",""1"",""3118""
","
","","","","","","3471.4000000000233","images/sofa2.png","","","memory_trial","3","maybe_new",""
"html-keyboard-response","95","358117","0.0-18.0-0.26","5578","approach_avoid_sv1","""event"",""trial"",""time""
""fullscreenenter"",""1"",""3118""
","
","
","""event"",""trial"",""time""
""fullscreenenter"",""1"",""3118""
","
","","","","","","null","<div style=""font-size:60px;"">+</div>","null","","fixation","","",""
"memory-trial","96","361181","0.0-18.0-1.26","5578","approach_avoid_sv1","""event"",""trial"",""time""
""fullscreenenter"",""1"",""3118""
","
","
","""event"",""trial"",""time""
""fullscreenenter"",""1"",""3118""
","
","","","","","","2049","images/sofa4.png","","","memory_trial","3","maybe_new",""
"html-keyboard-response","97","361685","0.0-18.0-0.27","5578","approach_avoid_sv1","""event"",""trial"",""time""
""fullscreenenter"",""1"",""3118""
","
","
","""event"",""trial"",""time""
""fullscreenenter"",""1"",""3118""
","
","","","","","","null","<div style=""font-size:60px;"">+</div>","null","","fixation","","",""
"memory-trial","98","366333","0.0-18.0-1.27","5578","approach_avoid_sv1","""event"",""trial"",""time""
""fullscreenenter"",""1"",""3118""
","
","
","""event"",""trial"",""time""
""fullscreenenter"",""1"",""3118""
","
","","","","","","3635.6999999999534","images/cat1.png","","","memory_trial","4","definitely_new",""
"html-keyboard-response","99","366837","0.0-18.0-0.28","5578","approach_avoid_sv1","""event"",""trial"",""time""
""fullscreenenter"",""1"",""3118""
","
","
","""event"",""trial"",""time""
""fullscreenenter"",""1"",""3118""
","
","","","","","","null","<div style=""font-size:60px;"">+</div>","null","","fixation","","",""
"memory-trial","100","369461","0.0-18.0-1.28","5578","approach_avoid_sv1","""event"",""trial"",""time""
""fullscreenenter"",""1"",""3118""
","
","
","""event"",""trial"",""time""
""fullscreenenter"",""1"",""3118""
","
","","","","","","1610.7000000000698","images/train7.png","","","memory_trial","1","definitely_old",""
"html-keyboard-response","101","369964","0.0-18.0-0.29","5578","approach_avoid_sv1","""event"",""trial"",""time""
""fullscreenenter"",""1"",""3118""
","
","
","""event"",""trial"",""time""
""fullscreenenter"",""1"",""3118""
","
","","","","","","null","<div style=""font-size:60px;"">+</div>","null","","fixation","","",""
"memory-trial","102","372901","0.0-18.0-1.29","5578","approach_avoid_sv1","""event"",""trial"",""time""
""fullscreenenter"",""1"",""3118""
","
","
","""event"",""trial"",""time""
""fullscreenenter"",""1"",""3118""
","
","","","","","","1928.4000000000233","images/rodent1.png","","","memory_trial","4","definitely_new",""
"html-keyboard-response","103","373405","0.0-18.0-0.30","5578","approach_avoid_sv1","""event"",""trial"",""time""
""fullscreenenter"",""1"",""3118""
","
","
","""event"",""trial"",""time""
""fullscreenenter"",""1"",""3118""
","
","","","","","","null","<div style=""font-size:60px;"">+</div>","null","","fixation","","",""
"memory-trial","104","376429","0.0-18.0-1.30","5578","approach_avoid_sv1","""event"",""trial"",""time""
""fullscreenenter"",""1"",""3118""
","
","
","""event"",""trial"",""time""
""fullscreenenter"",""1"",""3118""
","
","","","","","","2014.9000000000233","images/chair4.png","","","memory_trial","4","definitely_new",""
"html-keyboard-response","105","376933","0.0-18.0-0.31","5578","approach_avoid_sv1","""event"",""trial"",""time""
""fullscreenenter"",""1"",""3118""
","
","
","""event"",""trial"",""time""
""fullscreenenter"",""1"",""3118""
","
","","","","","","null","<div style=""font-size:60px;"">+</div>","null","","fixation","","",""
"memory-trial","106","380949","0.0-18.0-1.31","5578","approach_avoid_sv1","""event"",""trial"",""time""
""fullscreenenter"",""1"",""3118""
","
","
","""event"",""trial"",""time""
""fullscreenenter"",""1"",""3118""
","
","","","","","","3001.600000000093","images/cow8.png","","","memory_trial","3","maybe_new",""
"html-keyboard-response","107","381452","0.0-18.0-0.32","5578","approach_avoid_sv1","""event"",""trial"",""time""
""fullscreenenter"",""1"",""3118""
","
","
","""event"",""trial"",""time""
""fullscreenenter"",""1"",""3118""
","
","","","","","","null","<div style=""font-size:60px;"">+</div>","null","","fixation","","",""
"memory-trial","108","385854","0.0-18.0-1.32","5578","approach_avoid_sv1","""event"",""trial"",""time""
""fullscreenenter"",""1"",""3118""
","
","
","""event"",""trial"",""time""
""fullscreenenter"",""1"",""3118""
","
","","","","","","3387.4000000000233","images/bush5.png","","","memory_trial","1","definitely_old",""
"html-keyboard-response","109","386357","0.0-18.0-0.33","5578","approach_avoid_sv1","""event"",""trial"",""time""
""fullscreenenter"",""1"",""3118""
","
","
","""event"",""trial"",""time""
""fullscreenenter"",""1"",""3118""
","
","","","","","","null","<div style=""font-size:60px;"">+</div>","null","","fixation","","",""
"memory-trial","110","391990","0.0-18.0-1.33","5578","approach_avoid_sv1","""event"",""trial"",""time""
""fullscreenenter"",""1"",""3118""
","
","
","""event"",""trial"",""time""
""fullscreenenter"",""1"",""3118""
","
","","","","","","4619.199999999953","images/cow4.png","","","memory_trial","2","maybe_old",""
"html-keyboard-response","111","392492","0.0-18.0-0.34","5578","approach_avoid_sv1","""event"",""trial"",""time""
""fullscreenenter"",""1"",""3118""
","
","
","""event"",""trial"",""time""
""fullscreenenter"",""1"",""3118""
","
","","","","","","null","<div style=""font-size:60px;"">+</div>","null","","fixation","","",""
"memory-trial","112","396013","0.0-18.0-1.34","5578","approach_avoid_sv1","""event"",""trial"",""time""
""fullscreenenter"",""1"",""3118""
","
","
","""event"",""trial"",""time""
""fullscreenenter"",""1"",""3118""
","
","","","","","","2512.0999999999767","images/dog3.png","","","memory_trial","1","definitely_old",""
"html-keyboard-response","113","396516","0.0-18.0-0.35","5578","approach_avoid_sv1","""event"",""trial"",""time""
""fullscreenenter"",""1"",""3118""
","
","
","""event"",""trial"",""time""
""fullscreenenter"",""1"",""3118""
","
","","","","","","null","<div style=""font-size:60px;"">+</div>","null","","fixation","","",""
"memory-trial","114","398877","0.0-18.0-1.35","5578","approach_avoid_sv1","""event"",""trial"",""time""
""fullscreenenter"",""1"",""3118""
","
","
","""event"",""trial"",""time""
""fullscreenenter"",""1"",""3118""
","
","","","","","","1348.5999999999767","images/cow1.png","","","memory_trial","1","definitely_old",""
"html-keyboard-response","115","399381","0.0-18.0-0.36","5578","approach_avoid_sv1","""event"",""trial"",""time""
""fullscreenenter"",""1"",""3118""
","
","
","""event"",""trial"",""time""
""fullscreenenter"",""1"",""3118""
","
","","","","","","null","<div style=""font-size:60px;"">+</div>","null","","fixation","","",""
"memory-trial","116","402525","0.0-18.0-1.36","5578","approach_avoid_sv1","""event"",""trial"",""time""
""fullscreenenter"",""1"",""3118""
","
","
","""event"",""trial"",""time""
""fullscreenenter"",""1"",""3118""
","
","","","","","","2130","images/banana2.png","","","memory_trial","2","maybe_old",""
"html-keyboard-response","117","403028","0.0-18.0-0.37","5578","approach_avoid_sv1","""event"",""trial"",""time""
""fullscreenenter"",""1"",""3118""
","
","
","""event"",""trial"",""time""
""fullscreenenter"",""1"",""3118""
","
","","","","","","null","<div style=""font-size:60px;"">+</div>","null","","fixation","","",""
"memory-trial","118","405829","0.0-18.0-1.37","5578","approach_avoid_sv1","""event"",""trial"",""time""
""fullscreenenter"",""1"",""3118""
","
","
","""event"",""trial"",""time""
""fullscreenenter"",""1"",""3118""
","
","","","","","","1794.8000000000466","images/banana3.png","","","memory_trial","3","maybe_new",""
"html-keyboard-response","119","406332","0.0-18.0-0.38","5578","approach_avoid_sv1","""event"",""trial"",""time""
""fullscreenenter"",""1"",""3118""
","
","
","""event"",""trial"",""time""
""fullscreenenter"",""1"",""3118""
","
","","","","","","null","<div style=""font-size:60px;"">+</div>","null","","fixation","","",""
"memory-trial","120","411316","0.0-18.0-1.38","5578","approach_avoid_sv1","""event"",""trial"",""time""
""fullscreenenter"",""1"",""3118""
","
","
","""event"",""trial"",""time""
""fullscreenenter"",""1"",""3118""
","
","","","","","","3971.1999999999534","images/truck1.png","","","memory_trial","4","definitely_new",""
"html-keyboard-response","121","411821","0.0-18.0-0.39","5578","approach_avoid_sv1","""event"",""trial"",""time""
""fullscreenenter"",""1"",""3118""
","
","
","""event"",""trial"",""time""
""fullscreenenter"",""1"",""3118""
","
","","","","","","null","<div style=""font-size:60px;"">+</div>","null","","fixation","","",""
"memory-trial","122","415205","0.0-18.0-1.39","5578","approach_avoid_sv1","""event"",""trial"",""time""
""fullscreenenter"",""1"",""3118""
","
","
","""event"",""trial"",""time""
""fullscreenenter"",""1"",""3118""
","
","","","","","","2369.4000000000233","images/cat4.png","","","memory_trial","3","maybe_new",""
"html-keyboard-response","123","415709","0.0-18.0-0.40","5578","approach_avoid_sv1","""event"",""trial"",""time""
""fullscreenenter"",""1"",""3118""
","
","
","""event"",""trial"",""time""
""fullscreenenter"",""1"",""3118""
","
","","","","","","null","<div style=""font-size:60px;"">+</div>","null","","fixation","","",""
"memory-trial","124","418341","0.0-18.0-1.40","5578","approach_avoid_sv1","""event"",""trial"",""time""
""fullscreenenter"",""1"",""3118""
","
","
","""event"",""trial"",""time""
""fullscreenenter"",""1"",""3118""
","
","","","","","","1622.5","images/flower1.png","","","memory_trial","3","maybe_new",""
"html-keyboard-response","125","418844","0.0-18.0-0.41","5578","approach_avoid_sv1","""event"",""trial"",""time""
""fullscreenenter"",""1"",""3118""
","
","
","""event"",""trial"",""time""
""fullscreenenter"",""1"",""3118""
","
","","","","","","null","<div style=""font-size:60px;"">+</div>","null","","fixation","","",""
"memory-trial","126","421934","0.0-18.0-1.41","5578","approach_avoid_sv1","""event"",""trial"",""time""
""fullscreenenter"",""1"",""3118""
","
","
","""event"",""trial"",""time""
""fullscreenenter"",""1"",""3118""
","
","","","","","","2081.5","images/banana6.png","","","memory_trial","4","definitely_new",""
"html-button-response","127","424898","0.0-18.0-2.41-0.41","5578","approach_avoid_sv1","""event"",""trial"",""time""
""fullscreenenter"",""1"",""3118""
","
","
","""event"",""trial"",""time""
""fullscreenenter"",""1"",""3118""
","
","","","","","","2960","<p> Take a break! </p><p> Click the button to continue. </p>","0","","break","","",""
"html-keyboard-response","128","425404","0.0-18.0-0.42","5578","approach_avoid_sv1","""event"",""trial"",""time""
""fullscreenenter"",""1"",""3118""
","
","
","""event"",""trial"",""time""
""fullscreenenter"",""1"",""3118""
","
","","","","","","null","<div style=""font-size:60px;"">+</div>","null","","fixation","","",""
"memory-trial","129","431117","0.0-18.0-1.42","5578","approach_avoid_sv1","""event"",""trial"",""time""
""fullscreenenter"",""1"",""3118""
","
","
","""event"",""trial"",""time""
""fullscreenenter"",""1"",""3118""
","
","","","","","","4699.800000000047","images/train2.png","","","memory_trial","4","definitely_new",""
"html-keyboard-response","130","431621","0.0-18.0-0.43","5578","approach_avoid_sv1","""event"",""trial"",""time""
""fullscreenenter"",""1"",""3118""
","
","
","""event"",""trial"",""time""
""fullscreenenter"",""1"",""3118""
","
","","","","","","null","<div style=""font-size:60px;"">+</div>","null","","fixation","","",""
"memory-trial","131","435765","0.0-18.0-1.43","5578","approach_avoid_sv1","""event"",""trial"",""time""
""fullscreenenter"",""1"",""3118""
","
","
","""event"",""trial"",""time""
""fullscreenenter"",""1"",""3118""
","
","","","","","","3130","images/plane3.png","","","memory_trial","4","definitely_new",""
"html-keyboard-response","132","436269","0.0-18.0-0.44","5578","approach_avoid_sv1","""event"",""trial"",""time""
""fullscreenenter"",""1"",""3118""
","
","
","""event"",""trial"",""time""
""fullscreenenter"",""1"",""3118""
","
","","","","","","null","<div style=""font-size:60px;"">+</div>","null","","fixation","","",""
"memory-trial","133","438645","0.0-18.0-1.44","5578","approach_avoid_sv1","""event"",""trial"",""time""
""fullscreenenter"",""1"",""3118""
","
","
","""event"",""trial"",""time""
""fullscreenenter"",""1"",""3118""
","
","","","","","","1365.8999999999069","images/plane1.png","","","memory_trial","1","definitely_old",""
"html-keyboard-response","134","439149","0.0-18.0-0.45","5578","approach_avoid_sv1","""event"",""trial"",""time""
""fullscreenenter"",""1"",""3118""
","
","
","""event"",""trial"",""time""
""fullscreenenter"",""1"",""3118""
","
","","","","","","null","<div style=""font-size:60px;"">+</div>","null","","fixation","","",""
"memory-trial","135","442309","0.0-18.0-1.45","5578","approach_avoid_sv1","""event"",""trial"",""time""
""fullscreenenter"",""1"",""3118""
","
","
","""event"",""trial"",""time""
""fullscreenenter"",""1"",""3118""
","
","","","","","","2147","images/tree8.png","","","memory_trial","4","definitely_new",""
"html-keyboard-response","136","442813","0.0-18.0-0.46","5578","approach_avoid_sv1","""event"",""trial"",""time""
""fullscreenenter"",""1"",""3118""
","
","
","""event"",""trial"",""time""
""fullscreenenter"",""1"",""3118""
","
","","","","","","null","<div style=""font-size:60px;"">+</div>","null","","fixation","","",""
"memory-trial","137","446349","0.0-18.0-1.46","5578","approach_avoid_sv1","""event"",""trial"",""time""
""fullscreenenter"",""1"",""3118""
","
","
","""event"",""trial"",""time""
""fullscreenenter"",""1"",""3118""
","
","","","","","","2527.5","images/dog8.png","","","memory_trial","3","maybe_new",""
"html-keyboard-response","138","446853","0.0-18.0-0.47","5578","approach_avoid_sv1","""event"",""trial"",""time""
""fullscreenenter"",""1"",""3118""
","
","
","""event"",""trial"",""time""
""fullscreenenter"",""1"",""3118""
","
","","","","","","null","<div style=""font-size:60px;"">+</div>","null","","fixation","","",""
"memory-trial","139","449845","0.0-18.0-1.47","5578","approach_avoid_sv1","""event"",""trial"",""time""
""fullscreenenter"",""1"",""3118""
","
","
","""event"",""trial"",""time""
""fullscreenenter"",""1"",""3118""
","
","","","","","","1983.9000000000233","images/bed4.png","","","memory_trial","1","definitely_old",""
"html-keyboard-response","140","450349","0.0-18.0-0.48","5578","approach_avoid_sv1","""event"",""trial"",""time""
""fullscreenenter"",""1"",""3118""
","
","
","""event"",""trial"",""time""
""fullscreenenter"",""1"",""3118""
","
","","","","","","null","<div style=""font-size:60px;"">+</div>","null","","fixation","","",""
"memory-trial","141","452477","0.0-18.0-1.48","5578","approach_avoid_sv1","""event"",""trial"",""time""
""fullscreenenter"",""1"",""3118""
","
","
","""event"",""trial"",""time""
""fullscreenenter"",""1"",""3118""
","
","","","","","","1118.8000000000466","images/apple7.png","","","memory_trial","1","definitely_old",""
"html-keyboard-response","142","452981","0.0-18.0-0.49","5578","approach_avoid_sv1","""event"",""trial"",""time""
""fullscreenenter"",""1"",""3118""
","
","
","""event"",""trial"",""time""
""fullscreenenter"",""1"",""3118""
","
","","","","","","null","<div style=""font-size:60px;"">+</div>","null","","fixation","","",""
"memory-trial","143","458389","0.0-18.0-1.49","5578","approach_avoid_sv1","""event"",""trial"",""time""
""fullscreenenter"",""1"",""3118""
","
","
","""event"",""trial"",""time""
""fullscreenenter"",""1"",""3118""
","
","","","","","","4396.800000000047","images/truck2.png","","","memory_trial","3","maybe_new",""
"html-keyboard-response","144","458893","0.0-18.0-0.50","5578","approach_avoid_sv1","""event"",""trial"",""time""
""fullscreenenter"",""1"",""3118""
","
","
","""event"",""trial"",""time""
""fullscreenenter"",""1"",""3118""
","
","","","","","","null","<div style=""font-size:60px;"">+</div>","null","","fixation","","",""
"memory-trial","145","462173","0.0-18.0-1.50","5578","approach_avoid_sv1","""event"",""trial"",""time""
""fullscreenenter"",""1"",""3118""
","
","
","""event"",""trial"",""time""
""fullscreenenter"",""1"",""3118""
","
","","","","","","2267.79999999993","images/bed2.png","","","memory_trial","2","maybe_old",""
"html-keyboard-response","146","462677","0.0-18.0-0.51","5578","approach_avoid_sv1","""event"",""trial"",""time""
""fullscreenenter"",""1"",""3118""
","
","
","""event"",""trial"",""time""
""fullscreenenter"",""1"",""3118""
","
","","","","","","null","<div style=""font-size:60px;"">+</div>","null","","fixation","","",""
"memory-trial","147","467037","0.0-18.0-1.51","5578","approach_avoid_sv1","""event"",""trial"",""time""
""fullscreenenter"",""1"",""3118""
","
","
","""event"",""trial"",""time""
""fullscreenenter"",""1"",""3118""
","
","","","","","","3349.1999999999534","images/cow5.png","","","memory_trial","2","maybe_old",""
"html-keyboard-response","148","467541","0.0-18.0-0.52","5578","approach_avoid_sv1","""event"",""trial"",""time""
""fullscreenenter"",""1"",""3118""
","
","
","""event"",""trial"",""time""
""fullscreenenter"",""1"",""3118""
","
","","","","","","null","<div style=""font-size:60px;"">+</div>","null","","fixation","","",""
"memory-trial","149","473517","0.0-18.0-1.52","5578","approach_avoid_sv1","""event"",""trial"",""time""
""fullscreenenter"",""1"",""3118""
","
","
","""event"",""trial"",""time""
""fullscreenenter"",""1"",""3118""
","
","","","","","","4960.5","images/truck4.png","","","memory_trial","3","maybe_new",""
"html-keyboard-response","150","474021","0.0-18.0-0.53","5578","approach_avoid_sv1","""event"",""trial"",""time""
""fullscreenenter"",""1"",""3118""
","
","
","""event"",""trial"",""time""
""fullscreenenter"",""1"",""3118""
","
","","","","","","null","<div style=""font-size:60px;"">+</div>","null","","fixation","","",""
"memory-trial","151","477765","0.0-18.0-1.53","5578","approach_avoid_sv1","""event"",""trial"",""time""
""fullscreenenter"",""1"",""3118""
","
","
","""event"",""trial"",""time""
""fullscreenenter"",""1"",""3118""
","
","","","","","","2735","images/flower7.png","","","memory_trial","3","maybe_new",""
"html-keyboard-response","152","478269","0.0-18.0-0.54","5578","approach_avoid_sv1","""event"",""trial"",""time""
""fullscreenenter"",""1"",""3118""
","
","
","""event"",""trial"",""time""
""fullscreenenter"",""1"",""3118""
","
","","","","","","null","<div style=""font-size:60px;"">+</div>","null","","fixation","","",""
"memory-trial","153","480861","0.0-18.0-1.54","5578","approach_avoid_sv1","""event"",""trial"",""time""
""fullscreenenter"",""1"",""3118""
","
","
","""event"",""trial"",""time""
""fullscreenenter"",""1"",""3118""
","
","","","","","","1579.8000000000466","images/straw6.png","","","memory_trial","1","definitely_old",""
"html-keyboard-response","154","481365","0.0-18.0-0.55","5578","approach_avoid_sv1","""event"",""trial"",""time""
""fullscreenenter"",""1"",""3118""
","
","
","""event"",""trial"",""time""
""fullscreenenter"",""1"",""3118""
","
","","","","","","null","<div style=""font-size:60px;"">+</div>","null","","fixation","","",""
"memory-trial","155","487101","0.0-18.0-1.55","5578","approach_avoid_sv1","""event"",""trial"",""time""
""fullscreenenter"",""1"",""3118""
","
","
","""event"",""trial"",""time""
""fullscreenenter"",""1"",""3118""
","
","","","","","","4726.199999999953","images/horse8.png","","","memory_trial","2","maybe_old",""
"html-keyboard-response","156","487605","0.0-18.0-0.56","5578","approach_avoid_sv1","""event"",""trial"",""time""
""fullscreenenter"",""1"",""3118""
","
","
","""event"",""trial"",""time""
""fullscreenenter"",""1"",""3118""
","
","","","","","","null","<div style=""font-size:60px;"">+</div>","null","","fixation","","",""
"memory-trial","157","490581","0.0-18.0-1.56","5578","approach_avoid_sv1","""event"",""trial"",""time""
""fullscreenenter"",""1"",""3118""
","
","
","""event"",""trial"",""time""
""fullscreenenter"",""1"",""3118""
","
","","","","","","1964.0999999999767","images/rabbit6.png","","","memory_trial","1","definitely_old",""
"html-keyboard-response","158","491085","0.0-18.0-0.57","5578","approach_avoid_sv1","""event"",""trial"",""time""
""fullscreenenter"",""1"",""3118""
","
","
","""event"",""trial"",""time""
""fullscreenenter"",""1"",""3118""
","
","","","","","","null","<div style=""font-size:60px;"">+</div>","null","","fixation","","",""
"memory-trial","159","496164","0.0-18.0-1.57","5578","approach_avoid_sv1","""event"",""trial"",""time""
""fullscreenenter"",""1"",""3118""
","
","
","""event"",""trial"",""time""
""fullscreenenter"",""1"",""3118""
","
","","","","","","4070.6999999999534","images/cow6.png","","","memory_trial","1","definitely_old",""
"html-keyboard-response","160","496669","0.0-18.0-0.58","5578","approach_avoid_sv1","""event"",""trial"",""time""
""fullscreenenter"",""1"",""3118""
","
","
","""event"",""trial"",""time""
""fullscreenenter"",""1"",""3118""
","
","","","","","","null","<div style=""font-size:60px;"">+</div>","null","","fixation","","",""
"memory-trial","161","499790","0.0-18.0-1.58","5578","approach_avoid_sv1","""event"",""trial"",""time""
""fullscreenenter"",""1"",""3118""
","
","
","""event"",""trial"",""time""
""fullscreenenter"",""1"",""3118""
","
","","","","","","2107.5999999999767","images/dog4.png","","","memory_trial","1","definitely_old",""
"html-keyboard-response","162","500301","0.0-18.0-0.59","5578","approach_avoid_sv1","""event"",""trial"",""time""
""fullscreenenter"",""1"",""3118""
","
","
","""event"",""trial"",""time""
""fullscreenenter"",""1"",""3118""
","
","","","","","","null","<div style=""font-size:60px;"">+</div>","null","","fixation","","",""
"memory-trial","163","503541","0.0-18.0-1.59","5578","approach_avoid_sv1","""event"",""trial"",""time""
""fullscreenenter"",""1"",""3118""
","
","
","""event"",""trial"",""time""
""fullscreenenter"",""1"",""3118""
","
","","","","","","2227.8000000000466","images/boat2.png","","","memory_trial","2","maybe_old",""
"html-keyboard-response","164","504045","0.0-18.0-0.60","5578","approach_avoid_sv1","""event"",""trial"",""time""
""fullscreenenter"",""1"",""3118""
","
","
","""event"",""trial"",""time""
""fullscreenenter"",""1"",""3118""
","
","","","","","","null","<div style=""font-size:60px;"">+</div>","null","","fixation","","",""
"memory-trial","165","506389","0.0-18.0-1.60","5578","approach_avoid_sv1","""event"",""trial"",""time""
""fullscreenenter"",""1"",""3118""
","
","
","""event"",""trial"",""time""
""fullscreenenter"",""1"",""3118""
","
","","","","","","1329.2999999999302","images/bush1.png","","","memory_trial","1","definitely_old",""
"html-keyboard-response","166","506893","0.0-18.0-0.61","5578","approach_avoid_sv1","""event"",""trial"",""time""
""fullscreenenter"",""1"",""3118""
","
","
","""event"",""trial"",""time""
""fullscreenenter"",""1"",""3118""
","
","","","","","","null","<div style=""font-size:60px;"">+</div>","null","","fixation","","",""
"memory-trial","167","509173","0.0-18.0-1.61","5578","approach_avoid_sv1","""event"",""trial"",""time""
""fullscreenenter"",""1"",""3118""
","
","
","""event"",""trial"",""time""
""fullscreenenter"",""1"",""3118""
","
","","","","","","1267.5999999999767","images/train3.png","","","memory_trial","1","definitely_old",""
"html-keyboard-response","168","509685","0.0-18.0-0.62","5578","approach_avoid_sv1","""event"",""trial"",""time""
""fullscreenenter"",""1"",""3118""
","
","
","""event"",""trial"",""time""
""fullscreenenter"",""1"",""3118""
","
","","","","","","null","<div style=""font-size:60px;"">+</div>","null","","fixation","","",""
"memory-trial","169","513926","0.0-18.0-1.62","5578","approach_avoid_sv1","""event"",""trial"",""time""
""fullscreenenter"",""1"",""3118""
","
","
","""event"",""trial"",""time""
""fullscreenenter"",""1"",""3118""
","
","","","","","","3229.5","images/dog7.png","","","memory_trial","1","definitely_old",""
"html-keyboard-response","170","514429","0.0-18.0-0.63","5578","approach_avoid_sv1","""event"",""trial"",""time""
""fullscreenenter"",""1"",""3118""
","
","
","""event"",""trial"",""time""
""fullscreenenter"",""1"",""3118""
","
","","","","","","null","<div style=""font-size:60px;"">+</div>","null","","fixation","","",""
"memory-trial","171","518645","0.0-18.0-1.63","5578","approach_avoid_sv1","""event"",""trial"",""time""
""fullscreenenter"",""1"",""3118""
","
","
","""event"",""trial"",""time""
""fullscreenenter"",""1"",""3118""
","
","","","","","","3205.3000000000466","images/goat4.png","","","memory_trial","3","maybe_new",""
"html-keyboard-response","172","519149","0.0-18.0-0.64","5578","approach_avoid_sv1","""event"",""trial"",""time""
""fullscreenenter"",""1"",""3118""
","
","
","""event"",""trial"",""time""
""fullscreenenter"",""1"",""3118""
","
","","","","","","null","<div style=""font-size:60px;"">+</div>","null","","fixation","","",""
"memory-trial","173","522861","0.0-18.0-1.64","5578","approach_avoid_sv1","""event"",""trial"",""time""
""fullscreenenter"",""1"",""3118""
","
","
","""event"",""trial"",""time""
""fullscreenenter"",""1"",""3118""
","
","","","","","","2703.6999999999534","images/flower2.png","","","memory_trial","2","maybe_old",""
"html-keyboard-response","174","523365","0.0-18.0-0.65","5578","approach_avoid_sv1","""event"",""trial"",""time""
""fullscreenenter"",""1"",""3118""
","
","
","""event"",""trial"",""time""
""fullscreenenter"",""1"",""3118""
","
","","","","","","null","<div style=""font-size:60px;"">+</div>","null","","fixation","","",""
"memory-trial","175","525870","0.0-18.0-1.65","5578","approach_avoid_sv1","""event"",""trial"",""time""
""fullscreenenter"",""1"",""3118""
","
","
","""event"",""trial"",""time""
""fullscreenenter"",""1"",""3118""
","
","","","","","","1489.1999999999534","images/table4.png","","","memory_trial","1","definitely_old",""
"html-keyboard-response","176","526373","0.0-18.0-0.66","5578","approach_avoid_sv1","""event"",""trial"",""time""
""fullscreenenter"",""1"",""3118""
","
","
","""event"",""trial"",""time""
""fullscreenenter"",""1"",""3118""
","
","","","","","","null","<div style=""font-size:60px;"">+</div>","null","","fixation","","",""
"memory-trial","177","530733","0.0-18.0-1.66","5578","approach_avoid_sv1","""event"",""trial"",""time""
""fullscreenenter"",""1"",""3118""
","
","
","""event"",""trial"",""time""
""fullscreenenter"",""1"",""3118""
","
","","","","","","3351.899999999907","images/rodent6.png","","","memory_trial","3","maybe_new",""
"html-keyboard-response","178","531237","0.0-18.0-0.67","5578","approach_avoid_sv1","""event"",""trial"",""time""
""fullscreenenter"",""1"",""3118""
","
","
","""event"",""trial"",""time""
""fullscreenenter"",""1"",""3118""
","
","","","","","","null","<div style=""font-size:60px;"">+</div>","null","","fixation","","",""
"memory-trial","179","534062","0.0-18.0-1.67","5578","approach_avoid_sv1","""event"",""trial"",""time""
""fullscreenenter"",""1"",""3118""
","
","
","""event"",""trial"",""time""
""fullscreenenter"",""1"",""3118""
","
","","","","","","1814.6000000000931","images/apple1.png","","","memory_trial","1","definitely_old",""
"html-keyboard-response","180","534573","0.0-18.0-0.68","5578","approach_avoid_sv1","""event"",""trial"",""time""
""fullscreenenter"",""1"",""3118""
","
","
","""event"",""trial"",""time""
""fullscreenenter"",""1"",""3118""
","
","","","","","","null","<div style=""font-size:60px;"">+</div>","null","","fixation","","",""
"memory-trial","181","538053","0.0-18.0-1.68","5578","approach_avoid_sv1","""event"",""trial"",""time""
""fullscreenenter"",""1"",""3118""
","
","
","""event"",""trial"",""time""
""fullscreenenter"",""1"",""3118""
","
","","","","","","2469.399999999907","images/goat5.png","","","memory_trial","2","maybe_old",""
"html-keyboard-response","182","538557","0.0-18.0-0.69","5578","approach_avoid_sv1","""event"",""trial"",""time""
""fullscreenenter"",""1"",""3118""
","
","
","""event"",""trial"",""time""
""fullscreenenter"",""1"",""3118""
","
","","","","","","null","<div style=""font-size:60px;"">+</div>","null","","fixation","","",""
"memory-trial","183","542157","0.0-18.0-1.69","5578","approach_avoid_sv1","""event"",""trial"",""time""
""fullscreenenter"",""1"",""3118""
","
","
","""event"",""trial"",""time""
""fullscreenenter"",""1"",""3118""
","
","","","","","","2585.4000000001397","images/boat3.png","","","memory_trial","4","definitely_new",""
"html-keyboard-response","184","542661","0.0-18.0-0.70","5578","approach_avoid_sv1","""event"",""trial"",""time""
""fullscreenenter"",""1"",""3118""
","
","
","""event"",""trial"",""time""
""fullscreenenter"",""1"",""3118""
","
","","","","","","null","<div style=""font-size:60px;"">+</div>","null","","fixation","","",""
"memory-trial","185","545693","0.0-18.0-1.70","5578","approach_avoid_sv1","""event"",""trial"",""time""
""fullscreenenter"",""1"",""3118""
","
","
","""event"",""trial"",""time""
""fullscreenenter"",""1"",""3118""
","
","","","","","","2020","images/boat5.png","","","memory_trial","4","definitely_new",""
"html-keyboard-response","186","546197","0.0-18.0-0.71","5578","approach_avoid_sv1","""event"",""trial"",""time""
""fullscreenenter"",""1"",""3118""
","
","
","""event"",""trial"",""time""
""fullscreenenter"",""1"",""3118""
","
","","","","","","null","<div style=""font-size:60px;"">+</div>","null","","fixation","","",""
"memory-trial","187","549653","0.0-18.0-1.71","5578","approach_avoid_sv1","""event"",""trial"",""time""
""fullscreenenter"",""1"",""3118""
","
","
","""event"",""trial"",""time""
""fullscreenenter"",""1"",""3118""
","
","","","","","","2441.6999999999534","images/banana5.png","","","memory_trial","1","definitely_old",""
"html-keyboard-response","188","550157","0.0-18.0-0.72","5578","approach_avoid_sv1","""event"",""trial"",""time""
""fullscreenenter"",""1"",""3118""
","
","
","""event"",""trial"",""time""
""fullscreenenter"",""1"",""3118""
","
","","","","","","null","<div style=""font-size:60px;"">+</div>","null","","fixation","","",""
"memory-trial","189","553957","0.0-18.0-1.72","5578","approach_avoid_sv1","""event"",""trial"",""time""
""fullscreenenter"",""1"",""3118""
","
","
","""event"",""trial"",""time""
""fullscreenenter"",""1"",""3118""
","
","","","","","","2791.100000000093","images/cat7.png","","","memory_trial","1","definitely_old",""
"html-keyboard-response","190","554461","0.0-18.0-0.73","5578","approach_avoid_sv1","""event"",""trial"",""time""
""fullscreenenter"",""1"",""3118""
","
","
","""event"",""trial"",""time""
""fullscreenenter"",""1"",""3118""
","
","","","","","","null","<div style=""font-size:60px;"">+</div>","null","","fixation","","",""
"memory-trial","191","557734","0.0-18.0-1.73","5578","approach_avoid_sv1","""event"",""trial"",""time""
""fullscreenenter"",""1"",""3118""
","
","
","""event"",""trial"",""time""
""fullscreenenter"",""1"",""3118""
","
","","","","","","2263.899999999907","images/apple6.png","","","memory_trial","1","definitely_old",""
"html-keyboard-response","192","558245","0.0-18.0-0.74","5578","approach_avoid_sv1","""event"",""trial"",""time""
""fullscreenenter"",""1"",""3118""
","
","
","""event"",""trial"",""time""
""fullscreenenter"",""1"",""3118""
","
","","","","","","null","<div style=""font-size:60px;"">+</div>","null","","fixation","","",""
"memory-trial","193","561029","0.0-18.0-1.74","5578","approach_avoid_sv1","""event"",""trial"",""time""
""fullscreenenter"",""1"",""3118""
","
","
","""event"",""trial"",""time""
""fullscreenenter"",""1"",""3118""
","
","","","","","","1769.3000000000466","images/goat8.png","","","memory_trial","2","maybe_old",""
"html-keyboard-response","194","561533","0.0-18.0-0.75","5578","approach_avoid_sv1","""event"",""trial"",""time""
""fullscreenenter"",""1"",""3118""
","
","
","""event"",""trial"",""time""
""fullscreenenter"",""1"",""3118""
","
","","","","","","null","<div style=""font-size:60px;"">+</div>","null","","fixation","","",""
"memory-trial","195","564062","0.0-18.0-1.75","5578","approach_avoid_sv1","""event"",""trial"",""time""
""fullscreenenter"",""1"",""3118""
","
","
","""event"",""trial"",""time""
""fullscreenenter"",""1"",""3118""
","
","","","","","","1513.5999999998603","images/horse5.png","","","memory_trial","1","definitely_old",""
"html-keyboard-response","196","564573","0.0-18.0-0.76","5578","approach_avoid_sv1","""event"",""trial"",""time""
""fullscreenenter"",""1"",""3118""
","
","
","""event"",""trial"",""time""
""fullscreenenter"",""1"",""3118""
","
","","","","","","null","<div style=""font-size:60px;"">+</div>","null","","fixation","","",""
"memory-trial","197","567493","0.0-18.0-1.76","5578","approach_avoid_sv1","""event"",""trial"",""time""
""fullscreenenter"",""1"",""3118""
","
","
","""event"",""trial"",""time""
""fullscreenenter"",""1"",""3118""
","
","","","","","","1906.3000000000466","images/table2.png","","","memory_trial","2","maybe_old",""
"html-keyboard-response","198","567996","0.0-18.0-0.77","5578","approach_avoid_sv1","""event"",""trial"",""time""
""fullscreenenter"",""1"",""3118""
","
","
","""event"",""trial"",""time""
""fullscreenenter"",""1"",""3118""
","
","","","","","","null","<div style=""font-size:60px;"">+</div>","null","","fixation","","",""
"memory-trial","199","570173","0.0-18.0-1.77","5578","approach_avoid_sv1","""event"",""trial"",""time""
""fullscreenenter"",""1"",""3118""
","
","
","""event"",""trial"",""time""
""fullscreenenter"",""1"",""3118""
","
","","","","","","1161.3999999999069","images/chair2.png","","","memory_trial","1","definitely_old",""
"html-keyboard-response","200","570677","0.0-18.0-0.78","5578","approach_avoid_sv1","""event"",""trial"",""time""
""fullscreenenter"",""1"",""3118""
","
","
","""event"",""trial"",""time""
""fullscreenenter"",""1"",""3118""
","
","","","","","","null","<div style=""font-size:60px;"">+</div>","null","","fixation","","",""
"memory-trial","201","573965","0.0-18.0-1.78","5578","approach_avoid_sv1","""event"",""trial"",""time""
""fullscreenenter"",""1"",""3118""
","
","
","""event"",""trial"",""time""
""fullscreenenter"",""1"",""3118""
","
","","","","","","2280.100000000093","images/chair1.png","","","memory_trial","2","maybe_old",""
"html-keyboard-response","202","574469","0.0-18.0-0.79","5578","approach_avoid_sv1","""event"",""trial"",""time""
""fullscreenenter"",""1"",""3118""
","
","
","""event"",""trial"",""time""
""fullscreenenter"",""1"",""3118""
","
","","","","","","null","<div style=""font-size:60px;"">+</div>","null","","fixation","","",""
"memory-trial","203","578053","0.0-18.0-1.79","5578","approach_avoid_sv1","""event"",""trial"",""time""
""fullscreenenter"",""1"",""3118""
","
","
","""event"",""trial"",""time""
""fullscreenenter"",""1"",""3118""
","
","","","","","","2572.3000000000466","images/cow2.png","","","memory_trial","3","maybe_new",""
"html-keyboard-response","204","578557","0.0-18.0-0.80","5578","approach_avoid_sv1","""event"",""trial"",""time""
""fullscreenenter"",""1"",""3118""
","
","
","""event"",""trial"",""time""
""fullscreenenter"",""1"",""3118""
","
","","","","","","null","<div style=""font-size:60px;"">+</div>","null","","fixation","","",""
"memory-trial","205","581493","0.0-18.0-1.80","5578","approach_avoid_sv1","""event"",""trial"",""time""
""fullscreenenter"",""1"",""3118""
","
","
","""event"",""trial"",""time""
""fullscreenenter"",""1"",""3118""
","
","","","","","","1920.3999999999069","images/sofa7.png","","","memory_trial","1","definitely_old",""
"html-keyboard-response","206","581996","0.0-18.0-0.81","5578","approach_avoid_sv1","""event"",""trial"",""time""
""fullscreenenter"",""1"",""3118""
","
","
","""event"",""trial"",""time""
""fullscreenenter"",""1"",""3118""
","
","","","","","","null","<div style=""font-size:60px;"">+</div>","null","","fixation","","",""
"memory-trial","207","584677","0.0-18.0-1.81","5578","approach_avoid_sv1","""event"",""trial"",""time""
""fullscreenenter"",""1"",""3118""
","
","
","""event"",""trial"",""time""
""fullscreenenter"",""1"",""3118""
","
","","","","","","1666.8999999999069","images/rabbit1.png","","","memory_trial","3","maybe_new",""
"html-keyboard-response","208","585181","0.0-18.0-0.82","5578","approach_avoid_sv1","""event"",""trial"",""time""
""fullscreenenter"",""1"",""3118""
","
","
","""event"",""trial"",""time""
""fullscreenenter"",""1"",""3118""
","
","","","","","","null","<div style=""font-size:60px;"">+</div>","null","","fixation","","",""
"memory-trial","209","587645","0.0-18.0-1.82","5578","approach_avoid_sv1","""event"",""trial"",""time""
""fullscreenenter"",""1"",""3118""
","
","
","""event"",""trial"",""time""
""fullscreenenter"",""1"",""3118""
","
","","","","","","1455.6999999999534","images/flower3.png","","","memory_trial","3","maybe_new",""
"html-keyboard-response","210","588149","0.0-18.0-0.83","5578","approach_avoid_sv1","""event"",""trial"",""time""
""fullscreenenter"",""1"",""3118""
","
","
","""event"",""trial"",""time""
""fullscreenenter"",""1"",""3118""
","
","","","","","","null","<div style=""font-size:60px;"">+</div>","null","","fixation","","",""
"memory-trial","211","591437","0.0-18.0-1.83","5578","approach_avoid_sv1","""event"",""trial"",""time""
""fullscreenenter"",""1"",""3118""
","
","
","""event"",""trial"",""time""
""fullscreenenter"",""1"",""3118""
","
","","","","","","2278","images/cactus7.png","","","memory_trial","1","definitely_old",""
"html-keyboard-response","212","591941","0.0-18.0-0.84","5578","approach_avoid_sv1","""event"",""trial"",""time""
""fullscreenenter"",""1"",""3118""
","
","
","""event"",""trial"",""time""
""fullscreenenter"",""1"",""3118""
","
","","","","","","null","<div style=""font-size:60px;"">+</div>","null","","fixation","","",""
"memory-trial","213","594893","0.0-18.0-1.84","5578","approach_avoid_sv1","""event"",""trial"",""time""
""fullscreenenter"",""1"",""3118""
","
","
","""event"",""trial"",""time""
""fullscreenenter"",""1"",""3118""
","
","","","","","","1941.8000000000466","images/horse6.png","","","memory_trial","1","definitely_old",""
"html-keyboard-response","214","595397","0.0-18.0-0.85","5578","approach_avoid_sv1","""event"",""trial"",""time""
""fullscreenenter"",""1"",""3118""
","
","
","""event"",""trial"",""time""
""fullscreenenter"",""1"",""3118""
","
","","","","","","null","<div style=""font-size:60px;"">+</div>","null","","fixation","","",""
"memory-trial","215","599381","0.0-18.0-1.85","5578","approach_avoid_sv1","""event"",""trial"",""time""
""fullscreenenter"",""1"",""3118""
","
","
","""event"",""trial"",""time""
""fullscreenenter"",""1"",""3118""
","
","","","","","","2969.5999999998603","images/table6.png","","","memory_trial","3","maybe_new",""
"html-keyboard-response","216","599885","0.0-18.0-0.86","5578","approach_avoid_sv1","""event"",""trial"",""time""
""fullscreenenter"",""1"",""3118""
","
","
","""event"",""trial"",""time""
""fullscreenenter"",""1"",""3118""
","
","","","","","","null","<div style=""font-size:60px;"">+</div>","null","","fixation","","",""
"memory-trial","217","602789","0.0-18.0-1.86","5578","approach_avoid_sv1","""event"",""trial"",""time""
""fullscreenenter"",""1"",""3118""
","
","
","""event"",""trial"",""time""
""fullscreenenter"",""1"",""3118""
","
","","","","","","1892","images/tree4.png","","","memory_trial","1","definitely_old",""
"html-keyboard-response","218","603301","0.0-18.0-0.87","5578","approach_avoid_sv1","""event"",""trial"",""time""
""fullscreenenter"",""1"",""3118""
","
","
","""event"",""trial"",""time""
""fullscreenenter"",""1"",""3118""
","
","","","","","","null","<div style=""font-size:60px;"">+</div>","null","","fixation","","",""
"memory-trial","219","607213","0.0-18.0-1.87","5578","approach_avoid_sv1","""event"",""trial"",""time""
""fullscreenenter"",""1"",""3118""
","
","
","""event"",""trial"",""time""
""fullscreenenter"",""1"",""3118""
","
","","","","","","2900.600000000093","images/chair5.png","","","memory_trial","2","maybe_old",""
"html-keyboard-response","220","607717","0.0-18.0-0.88","5578","approach_avoid_sv1","""event"",""trial"",""time""
""fullscreenenter"",""1"",""3118""
","
","
","""event"",""trial"",""time""
""fullscreenenter"",""1"",""3118""
","
","","","","","","null","<div style=""font-size:60px;"">+</div>","null","","fixation","","",""
"memory-trial","221","610286","0.0-18.0-1.88","5578","approach_avoid_sv1","""event"",""trial"",""time""
""fullscreenenter"",""1"",""3118""
","
","
","""event"",""trial"",""time""
""fullscreenenter"",""1"",""3118""
","
","","","","","","1559.7000000001863","images/dog2.png","","","memory_trial","2","maybe_old",""
"html-keyboard-response","222","610789","0.0-18.0-0.89","5578","approach_avoid_sv1","""event"",""trial"",""time""
""fullscreenenter"",""1"",""3118""
","
","
","""event"",""trial"",""time""
""fullscreenenter"",""1"",""3118""
","
","","","","","","null","<div style=""font-size:60px;"">+</div>","null","","fixation","","",""
"memory-trial","223","613469","0.0-18.0-1.89","5578","approach_avoid_sv1","""event"",""trial"",""time""
""fullscreenenter"",""1"",""3118""
","
","
","""event"",""trial"",""time""
""fullscreenenter"",""1"",""3118""
","
","","","","","","1668.0999999998603","images/sofa5.png","","","memory_trial","2","maybe_old",""
"html-keyboard-response","224","613973","0.0-18.0-0.90","5578","approach_avoid_sv1","""event"",""trial"",""time""
""fullscreenenter"",""1"",""3118""
","
","
","""event"",""trial"",""time""
""fullscreenenter"",""1"",""3118""
","
","","","","","","null","<div style=""font-size:60px;"">+</div>","null","","fixation","","",""
"memory-trial","225","618197","0.0-18.0-1.90","5578","approach_avoid_sv1","""event"",""trial"",""time""
""fullscreenenter"",""1"",""3118""
","
","
","""event"",""trial"",""time""
""fullscreenenter"",""1"",""3118""
","
","","","","","","3213.600000000093","images/bed6.png","","","memory_trial","2","maybe_old",""
"html-keyboard-response","226","618701","0.0-18.0-0.91","5578","approach_avoid_sv1","""event"",""trial"",""time""
""fullscreenenter"",""1"",""3118""
","
","
","""event"",""trial"",""time""
""fullscreenenter"",""1"",""3118""
","
","","","","","","null","<div style=""font-size:60px;"">+</div>","null","","fixation","","",""
"memory-trial","227","621446","0.0-18.0-1.91","5578","approach_avoid_sv1","""event"",""trial"",""time""
""fullscreenenter"",""1"",""3118""
","
","
","""event"",""trial"",""time""
""fullscreenenter"",""1"",""3118""
","
","","","","","","1732.1999999999534","images/rodent2.png","","","memory_trial","4","definitely_new",""
"html-button-response","228","652844","0.0-18.0-2.91-0.91","5578","approach_avoid_sv1","""event"",""trial"",""time""
""fullscreenenter"",""1"",""3118""
","
","
","""event"",""trial"",""time""
""fullscreenenter"",""1"",""3118""
","
","","","","","","31394.399999999907","<p> Take a break! </p><p> Click the button to continue. </p>","0","","break","","",""
"html-keyboard-response","229","653349","0.0-18.0-0.92","5578","approach_avoid_sv1","""event"",""trial"",""time""
""fullscreenenter"",""1"",""3118""
","
","
","""event"",""trial"",""time""
""fullscreenenter"",""1"",""3118""
","
","","","","","","null","<div style=""font-size:60px;"">+</div>","null","","fixation","","",""
"memory-trial","230","658838","0.0-18.0-1.92","5578","approach_avoid_sv1","""event"",""trial"",""time""
""fullscreenenter"",""1"",""3118""
","
","
","""event"",""trial"",""time""
""fullscreenenter"",""1"",""3118""
","
","","","","","","4474.699999999953","images/cactus5.png","","","memory_trial","1","definitely_old",""
"html-keyboard-response","231","659341","0.0-18.0-0.93","5578","approach_avoid_sv1","""event"",""trial"",""time""
""fullscreenenter"",""1"",""3118""
","
","
","""event"",""trial"",""time""
""fullscreenenter"",""1"",""3118""
","
","","","","","","null","<div style=""font-size:60px;"">+</div>","null","","fixation","","",""
"memory-trial","232","662005","0.0-18.0-1.93","5578","approach_avoid_sv1","""event"",""trial"",""time""
""fullscreenenter"",""1"",""3118""
","
","
","""event"",""trial"",""time""
""fullscreenenter"",""1"",""3118""
","
","","","","","","1654.7000000001863","images/straw7.png","","","memory_trial","1","definitely_old",""
"html-keyboard-response","233","662508","0.0-18.0-0.94","5578","approach_avoid_sv1","""event"",""trial"",""time""
""fullscreenenter"",""1"",""3118""
","
","
","""event"",""trial"",""time""
""fullscreenenter"",""1"",""3118""
","
","","","","","","null","<div style=""font-size:60px;"">+</div>","null","","fixation","","",""
"memory-trial","234","666093","0.0-18.0-1.94","5578","approach_avoid_sv1","""event"",""trial"",""time""
""fullscreenenter"",""1"",""3118""
","
","
","""event"",""trial"",""time""
""fullscreenenter"",""1"",""3118""
","
","","","","","","2570.100000000093","images/horse3.png","","","memory_trial","2","maybe_old",""
"html-keyboard-response","235","666597","0.0-18.0-0.95","5578","approach_avoid_sv1","""event"",""trial"",""time""
""fullscreenenter"",""1"",""3118""
","
","
","""event"",""trial"",""time""
""fullscreenenter"",""1"",""3118""
","
","","","","","","null","<div style=""font-size:60px;"">+</div>","null","","fixation","","",""
"memory-trial","236","669613","0.0-18.0-1.95","5578","approach_avoid_sv1","""event"",""trial"",""time""
""fullscreenenter"",""1"",""3118""
","
","
","""event"",""trial"",""time""
""fullscreenenter"",""1"",""3118""
","
","","","","","","2004.5999999998603","images/straw2.png","","","memory_trial","1","definitely_old",""
"html-keyboard-response","237","670117","0.0-18.0-0.96","5578","approach_avoid_sv1","""event"",""trial"",""time""
""fullscreenenter"",""1"",""3118""
","
","
","""event"",""trial"",""time""
""fullscreenenter"",""1"",""3118""
","
","","","","","","null","<div style=""font-size:60px;"">+</div>","null","","fixation","","",""
"memory-trial","238","673445","0.0-18.0-1.96","5578","approach_avoid_sv1","""event"",""trial"",""time""
""fullscreenenter"",""1"",""3118""
","
","
","""event"",""trial"",""time""
""fullscreenenter"",""1"",""3118""
","
","","","","","","2315.5","images/boat7.png","","","memory_trial","3","maybe_new",""
"html-keyboard-response","239","673948","0.0-18.0-0.97","5578","approach_avoid_sv1","""event"",""trial"",""time""
""fullscreenenter"",""1"",""3118""
","
","
","""event"",""trial"",""time""
""fullscreenenter"",""1"",""3118""
","
","","","","","","null","<div style=""font-size:60px;"">+</div>","null","","fixation","","",""
"memory-trial","240","678125","0.0-18.0-1.97","5578","approach_avoid_sv1","""event"",""trial"",""time""
""fullscreenenter"",""1"",""3118""
","
","
","""event"",""trial"",""time""
""fullscreenenter"",""1"",""3118""
","
","","","","","","3164.9000000001397","images/rabbit7.png","","","memory_trial","2","maybe_old",""
"html-keyboard-response","241","678629","0.0-18.0-0.98","5578","approach_avoid_sv1","""event"",""trial"",""time""
""fullscreenenter"",""1"",""3118""
","
","
","""event"",""trial"",""time""
""fullscreenenter"",""1"",""3118""
","
","","","","","","null","<div style=""font-size:60px;"">+</div>","null","","fixation","","",""
"memory-trial","242","681653","0.0-18.0-1.98","5578","approach_avoid_sv1","""event"",""trial"",""time""
""fullscreenenter"",""1"",""3118""
","
","
","""event"",""trial"",""time""
""fullscreenenter"",""1"",""3118""
","
","","","","","","2009.4000000001397","images/cat2.png","","","memory_trial","1","definitely_old",""
"html-keyboard-response","243","682157","0.0-18.0-0.99","5578","approach_avoid_sv1","""event"",""trial"",""time""
""fullscreenenter"",""1"",""3118""
","
","
","""event"",""trial"",""time""
""fullscreenenter"",""1"",""3118""
","
","","","","","","null","<div style=""font-size:60px;"">+</div>","null","","fixation","","",""
"memory-trial","244","685413","0.0-18.0-1.99","5578","approach_avoid_sv1","""event"",""trial"",""time""
""fullscreenenter"",""1"",""3118""
","
","
","""event"",""trial"",""time""
""fullscreenenter"",""1"",""3118""
","
","","","","","","2247.5","images/boat8.png","","","memory_trial","4","definitely_new",""
"html-keyboard-response","245","685917","0.0-18.0-0.100","5578","approach_avoid_sv1","""event"",""trial"",""time""
""fullscreenenter"",""1"",""3118""
","
","
","""event"",""trial"",""time""
""fullscreenenter"",""1"",""3118""
","
","","","","","","null","<div style=""font-size:60px;"">+</div>","null","","fixation","","",""
"memory-trial","246","689669","0.0-18.0-1.100","5578","approach_avoid_sv1","""event"",""trial"",""time""
""fullscreenenter"",""1"",""3118""
","
","
","""event"",""trial"",""time""
""fullscreenenter"",""1"",""3118""
","
","","","","","","2740.0999999998603","images/plane8.png","","","memory_trial","1","definitely_old",""
"html-keyboard-response","247","690173","0.0-18.0-0.101","5578","approach_avoid_sv1","""event"",""trial"",""time""
""fullscreenenter"",""1"",""3118""
","
","
","""event"",""trial"",""time""
""fullscreenenter"",""1"",""3118""
","
","","","","","","null","<div style=""font-size:60px;"">+</div>","null","","fixation","","",""
"memory-trial","248","693182","0.0-18.0-1.101","5578","approach_avoid_sv1","""event"",""trial"",""time""
""fullscreenenter"",""1"",""3118""
","
","
","""event"",""trial"",""time""
""fullscreenenter"",""1"",""3118""
","
","","","","","","1998.4000000001397","images/orange7.png","","","memory_trial","1","definitely_old",""
"html-keyboard-response","249","693693","0.0-18.0-0.102","5578","approach_avoid_sv1","""event"",""trial"",""time""
""fullscreenenter"",""1"",""3118""
","
","
","""event"",""trial"",""time""
""fullscreenenter"",""1"",""3118""
","
","","","","","","null","<div style=""font-size:60px;"">+</div>","null","","fixation","","",""
"memory-trial","250","696925","0.0-18.0-1.102","5578","approach_avoid_sv1","""event"",""trial"",""time""
""fullscreenenter"",""1"",""3118""
","
","
","""event"",""trial"",""time""
""fullscreenenter"",""1"",""3118""
","
","","","","","","2215.6999999999534","images/sheep3.png","","","memory_trial","3","maybe_new",""
"html-keyboard-response","251","697429","0.0-18.0-0.103","5578","approach_avoid_sv1","""event"",""trial"",""time""
""fullscreenenter"",""1"",""3118""
","
","
","""event"",""trial"",""time""
""fullscreenenter"",""1"",""3118""
","
","","","","","","null","<div style=""font-size:60px;"">+</div>","null","","fixation","","",""
"memory-trial","252","701757","0.0-18.0-1.103","5578","approach_avoid_sv1","""event"",""trial"",""time""
""fullscreenenter"",""1"",""3118""
","
","
","""event"",""trial"",""time""
""fullscreenenter"",""1"",""3118""
","
","","","","","","3314.5","images/boat6.png","","","memory_trial","4","definitely_new",""
"html-keyboard-response","253","702260","0.0-18.0-0.104","5578","approach_avoid_sv1","""event"",""trial"",""time""
""fullscreenenter"",""1"",""3118""
","
","
","""event"",""trial"",""time""
""fullscreenenter"",""1"",""3118""
","
","","","","","","null","<div style=""font-size:60px;"">+</div>","null","","fixation","","",""
"memory-trial","254","705181","0.0-18.0-1.104","5578","approach_avoid_sv1","""event"",""trial"",""time""
""fullscreenenter"",""1"",""3118""
","
","
","""event"",""trial"",""time""
""fullscreenenter"",""1"",""3118""
","
","","","","","","1911.3000000000466","images/rabbit2.png","","","memory_trial","2","maybe_old",""
"html-keyboard-response","255","705684","0.0-18.0-0.105","5578","approach_avoid_sv1","""event"",""trial"",""time""
""fullscreenenter"",""1"",""3118""
","
","
","""event"",""trial"",""time""
""fullscreenenter"",""1"",""3118""
","
","","","","","","null","<div style=""font-size:60px;"">+</div>","null","","fixation","","",""
"memory-trial","256","708413","0.0-18.0-1.105","5578","approach_avoid_sv1","""event"",""trial"",""time""
""fullscreenenter"",""1"",""3118""
","
","
","""event"",""trial"",""time""
""fullscreenenter"",""1"",""3118""
","
","","","","","","1718.2999999998137","images/cow3.png","","","memory_trial","1","definitely_old",""
"html-keyboard-response","257","708916","0.0-18.0-0.106","5578","approach_avoid_sv1","""event"",""trial"",""time""
""fullscreenenter"",""1"",""3118""
","
","
","""event"",""trial"",""time""
""fullscreenenter"",""1"",""3118""
","
","","","","","","null","<div style=""font-size:60px;"">+</div>","null","","fixation","","",""
"memory-trial","258","712797","0.0-18.0-1.106","5578","approach_avoid_sv1","""event"",""trial"",""time""
""fullscreenenter"",""1"",""3118""
","
","
","""event"",""trial"",""time""
""fullscreenenter"",""1"",""3118""
","
","","","","","","2872.399999999907","images/goat6.png","","","memory_trial","4","definitely_new",""
"html-keyboard-response","259","713301","0.0-18.0-0.107","5578","approach_avoid_sv1","""event"",""trial"",""time""
""fullscreenenter"",""1"",""3118""
","
","
","""event"",""trial"",""time""
""fullscreenenter"",""1"",""3118""
","
","","","","","","null","<div style=""font-size:60px;"">+</div>","null","","fixation","","",""
"memory-trial","260","717637","0.0-18.0-1.107","5578","approach_avoid_sv1","""event"",""trial"",""time""
""fullscreenenter"",""1"",""3118""
","
","
","""event"",""trial"",""time""
""fullscreenenter"",""1"",""3118""
","
","","","","","","3323.600000000093","images/bed8.png","","","memory_trial","4","definitely_new",""
"html-keyboard-response","261","718141","0.0-18.0-0.108","5578","approach_avoid_sv1","""event"",""trial"",""time""
""fullscreenenter"",""1"",""3118""
","
","
","""event"",""trial"",""time""
""fullscreenenter"",""1"",""3118""
","
","","","","","","null","<div style=""font-size:60px;"">+</div>","null","","fixation","","",""
"memory-trial","262","721022","0.0-18.0-1.108","5578","approach_avoid_sv1","""event"",""trial"",""time""
""fullscreenenter"",""1"",""3118""
","
","
","""event"",""trial"",""time""
""fullscreenenter"",""1"",""3118""
","
","","","","","","1871.1000000000931","images/sheep1.png","","","memory_trial","3","maybe_new",""
"html-keyboard-response","263","721533","0.0-18.0-0.109","5578","approach_avoid_sv1","""event"",""trial"",""time""
""fullscreenenter"",""1"",""3118""
","
","
","""event"",""trial"",""time""
""fullscreenenter"",""1"",""3118""
","
","","","","","","null","<div style=""font-size:60px;"">+</div>","null","","fixation","","",""
"memory-trial","264","724133","0.0-18.0-1.109","5578","approach_avoid_sv1","""event"",""trial"",""time""
""fullscreenenter"",""1"",""3118""
","
","
","""event"",""trial"",""time""
""fullscreenenter"",""1"",""3118""
","
","","","","","","1589.9000000001397","images/train6.png","","","memory_trial","1","definitely_old",""
"html-keyboard-response","265","724636","0.0-18.0-0.110","5578","approach_avoid_sv1","""event"",""trial"",""time""
""fullscreenenter"",""1"",""3118""
","
","
","""event"",""trial"",""time""
""fullscreenenter"",""1"",""3118""
","
","","","","","","null","<div style=""font-size:60px;"">+</div>","null","","fixation","","",""
"memory-trial","266","729629","0.0-18.0-1.110","5578","approach_avoid_sv1","""event"",""trial"",""time""
""fullscreenenter"",""1"",""3118""
","
","
","""event"",""trial"",""time""
""fullscreenenter"",""1"",""3118""
","
","","","","","","3983.3000000000466","images/cow7.png","","","memory_trial","2","maybe_old",""
"html-keyboard-response","267","730132","0.0-18.0-0.111","5578","approach_avoid_sv1","""event"",""trial"",""time""
""fullscreenenter"",""1"",""3118""
","
","
","""event"",""trial"",""time""
""fullscreenenter"",""1"",""3118""
","
","","","","","","null","<div style=""font-size:60px;"">+</div>","null","","fixation","","",""
"memory-trial","268","734398","0.0-18.0-1.111","5578","approach_avoid_sv1","""event"",""trial"",""time""
""fullscreenenter"",""1"",""3118""
","
","
","""event"",""trial"",""time""
""fullscreenenter"",""1"",""3118""
","
","","","","","","3249","images/horse1.png","","","memory_trial","4","definitely_new",""
"html-keyboard-response","269","734900","0.0-18.0-0.112","5578","approach_avoid_sv1","""event"",""trial"",""time""
""fullscreenenter"",""1"",""3118""
","
","
","""event"",""trial"",""time""
""fullscreenenter"",""1"",""3118""
","
","","","","","","null","<div style=""font-size:60px;"">+</div>","null","","fixation","","",""
"memory-trial","270","737837","0.0-18.0-1.112","5578","approach_avoid_sv1","""event"",""trial"",""time""
""fullscreenenter"",""1"",""3118""
","
","
","""event"",""trial"",""time""
""fullscreenenter"",""1"",""3118""
","
","","","","","","1926.0999999998603","images/cat5.png","","","memory_trial","1","definitely_old",""
"html-keyboard-response","271","738340","0.0-18.0-0.113","5578","approach_avoid_sv1","""event"",""trial"",""time""
""fullscreenenter"",""1"",""3118""
","
","
","""event"",""trial"",""time""
""fullscreenenter"",""1"",""3118""
","
","","","","","","null","<div style=""font-size:60px;"">+</div>","null","","fixation","","",""
"memory-trial","272","740773","0.0-18.0-1.113","5578","approach_avoid_sv1","""event"",""trial"",""time""
""fullscreenenter"",""1"",""3118""
","
","
","""event"",""trial"",""time""
""fullscreenenter"",""1"",""3118""
","
","","","","","","1423.0999999998603","images/orange3.png","","","memory_trial","1","definitely_old",""
"html-keyboard-response","273","741276","0.0-18.0-0.114","5578","approach_avoid_sv1","""event"",""trial"",""time""
""fullscreenenter"",""1"",""3118""
","
","
","""event"",""trial"",""time""
""fullscreenenter"",""1"",""3118""
","
","","","","","","null","<div style=""font-size:60px;"">+</div>","null","","fixation","","",""
"memory-trial","274","744253","0.0-18.0-1.114","5578","approach_avoid_sv1","""event"",""trial"",""time""
""fullscreenenter"",""1"",""3118""
","
","
","""event"",""trial"",""time""
""fullscreenenter"",""1"",""3118""
","
","","","","","","1968.3000000000466","images/flower8.png","","","memory_trial","4","definitely_new",""
"html-keyboard-response","275","744757","0.0-18.0-0.115","5578","approach_avoid_sv1","""event"",""trial"",""time""
""fullscreenenter"",""1"",""3118""
","
","
","""event"",""trial"",""time""
""fullscreenenter"",""1"",""3118""
","
","","","","","","null","<div style=""font-size:60px;"">+</div>","null","","fixation","","",""
"memory-trial","276","747773","0.0-18.0-1.115","5578","approach_avoid_sv1","""event"",""trial"",""time""
""fullscreenenter"",""1"",""3118""
","
","
","""event"",""trial"",""time""
""fullscreenenter"",""1"",""3118""
","
","","","","","","1999.7999999998137","images/sofa6.png","","","memory_trial","1","definitely_old",""
"html-keyboard-response","277","748276","0.0-18.0-0.116","5578","approach_avoid_sv1","""event"",""trial"",""time""
""fullscreenenter"",""1"",""3118""
","
","
","""event"",""trial"",""time""
""fullscreenenter"",""1"",""3118""
","
","","","","","","null","<div style=""font-size:60px;"">+</div>","null","","fixation","","",""
"memory-trial","278","750773","0.0-18.0-1.116","5578","approach_avoid_sv1","""event"",""trial"",""time""
""fullscreenenter"",""1"",""3118""
","
","
","""event"",""trial"",""time""
""fullscreenenter"",""1"",""3118""
","
","","","","","","1481","images/cat6.png","","","memory_trial","1","definitely_old",""
"html-keyboard-response","279","751277","0.0-18.0-0.117","5578","approach_avoid_sv1","""event"",""trial"",""time""
""fullscreenenter"",""1"",""3118""
","
","
","""event"",""trial"",""time""
""fullscreenenter"",""1"",""3118""
","
","","","","","","null","<div style=""font-size:60px;"">+</div>","null","","fixation","","",""
"memory-trial","280","753429","0.0-18.0-1.117","5578","approach_avoid_sv1","""event"",""trial"",""time""
""fullscreenenter"",""1"",""3118""
","
","
","""event"",""trial"",""time""
""fullscreenenter"",""1"",""3118""
","
","","","","","","1140","images/banana1.png","","","memory_trial","1","definitely_old",""
"html-keyboard-response","281","753933","0.0-18.0-0.118","5578","approach_avoid_sv1","""event"",""trial"",""time""
""fullscreenenter"",""1"",""3118""
","
","
","""event"",""trial"",""time""
""fullscreenenter"",""1"",""3118""
","
","","","","","","null","<div style=""font-size:60px;"">+</div>","null","","fixation","","",""
"memory-trial","282","756950","0.0-18.0-1.118","5578","approach_avoid_sv1","""event"",""trial"",""time""
""fullscreenenter"",""1"",""3118""
","
","
","""event"",""trial"",""time""
""fullscreenenter"",""1"",""3118""
","
","","","","","","2004.6999999999534","images/tree2.png","","","memory_trial","1","definitely_old",""
"html-keyboard-response","283","757452","0.0-18.0-0.119","5578","approach_avoid_sv1","""event"",""trial"",""time""
""fullscreenenter"",""1"",""3118""
","
","
","""event"",""trial"",""time""
""fullscreenenter"",""1"",""3118""
","
","","","","","","null","<div style=""font-size:60px;"">+</div>","null","","fixation","","",""
"memory-trial","284","763149","0.0-18.0-1.119","5578","approach_avoid_sv1","""event"",""trial"",""time""
""fullscreenenter"",""1"",""3118""
","
","
","""event"",""trial"",""time""
""fullscreenenter"",""1"",""3118""
","
","","","","","","4687.90000000014","images/sheep5.png","","","memory_trial","3","maybe_new",""
"html-keyboard-response","285","763652","0.0-18.0-0.120","5578","approach_avoid_sv1","""event"",""trial"",""time""
""fullscreenenter"",""1"",""3118""
","
","
","""event"",""trial"",""time""
""fullscreenenter"",""1"",""3118""
","
","","","","","","null","<div style=""font-size:60px;"">+</div>","null","","fixation","","",""
"memory-trial","286","766133","0.0-18.0-1.120","5578","approach_avoid_sv1","""event"",""trial"",""time""
""fullscreenenter"",""1"",""3118""
","
","
","""event"",""trial"",""time""
""fullscreenenter"",""1"",""3118""
","
","","","","","","1465.5","images/plane4.png","","","memory_trial","1","definitely_old",""
"html-keyboard-response","287","766636","0.0-18.0-0.121","5578","approach_avoid_sv1","""event"",""trial"",""time""
""fullscreenenter"",""1"",""3118""
","
","
","""event"",""trial"",""time""
""fullscreenenter"",""1"",""3118""
","
","","","","","","null","<div style=""font-size:60px;"">+</div>","null","","fixation","","",""
"memory-trial","288","771021","0.0-18.0-1.121","5578","approach_avoid_sv1","""event"",""trial"",""time""
""fullscreenenter"",""1"",""3118""
","
","
","""event"",""trial"",""time""
""fullscreenenter"",""1"",""3118""
","
","","","","","","3372.5","images/horse2.png","","","memory_trial","3","maybe_new",""
"html-keyboard-response","289","771524","0.0-18.0-0.122","5578","approach_avoid_sv1","""event"",""trial"",""time""
""fullscreenenter"",""1"",""3118""
","
","
","""event"",""trial"",""time""
""fullscreenenter"",""1"",""3118""
","
","","","","","","null","<div style=""font-size:60px;"">+</div>","null","","fixation","","",""
"memory-trial","290","774317","0.0-18.0-1.122","5578","approach_avoid_sv1","""event"",""trial"",""time""
""fullscreenenter"",""1"",""3118""
","
","
","""event"",""trial"",""time""
""fullscreenenter"",""1"",""3118""
","
","","","","","","1782.8999999999069","images/bush6.png","","","memory_trial","2","maybe_old",""
"html-keyboard-response","291","774821","0.0-18.0-0.123","5578","approach_avoid_sv1","""event"",""trial"",""time""
""fullscreenenter"",""1"",""3118""
","
","
","""event"",""trial"",""time""
""fullscreenenter"",""1"",""3118""
","
","","","","","","null","<div style=""font-size:60px;"">+</div>","null","","fixation","","",""
"memory-trial","292","779605","0.0-18.0-1.123","5578","approach_avoid_sv1","""event"",""trial"",""time""
""fullscreenenter"",""1"",""3118""
","
","
","""event"",""trial"",""time""
""fullscreenenter"",""1"",""3118""
","
","","","","","","3771.5","images/truck6.png","","","memory_trial","1","definitely_old",""
"html-keyboard-response","293","780109","0.0-18.0-0.124","5578","approach_avoid_sv1","""event"",""trial"",""time""
""fullscreenenter"",""1"",""3118""
","
","
","""event"",""trial"",""time""
""fullscreenenter"",""1"",""3118""
","
","","","","","","null","<div style=""font-size:60px;"">+</div>","null","","fixation","","",""
"memory-trial","294","782493","0.0-18.0-1.124","5578","approach_avoid_sv1","""event"",""trial"",""time""
""fullscreenenter"",""1"",""3118""
","
","
","""event"",""trial"",""time""
""fullscreenenter"",""1"",""3118""
","
","","","","","","1371.1999999999534","images/rabbit4.png","","","memory_trial","3","maybe_new",""
"html-keyboard-response","295","782997","0.0-18.0-0.125","5578","approach_avoid_sv1","""event"",""trial"",""time""
""fullscreenenter"",""1"",""3118""
","
","
","""event"",""trial"",""time""
""fullscreenenter"",""1"",""3118""
","
","","","","","","null","<div style=""font-size:60px;"">+</div>","null","","fixation","","",""
"memory-trial","296","785293","0.0-18.0-1.125","5578","approach_avoid_sv1","""event"",""trial"",""time""
""fullscreenenter"",""1"",""3118""
","
","
","""event"",""trial"",""time""
""fullscreenenter"",""1"",""3118""
","
","","","","","","1285.4000000001397","images/orange5.png","","","memory_trial","1","definitely_old",""
"html-keyboard-response","297","785797","0.0-18.0-0.126","5578","approach_avoid_sv1","""event"",""trial"",""time""
""fullscreenenter"",""1"",""3118""
","
","
","""event"",""trial"",""time""
""fullscreenenter"",""1"",""3118""
","
