"trial_type","trial_index","time_elapsed","internal_node_id","subject_id","task_version","interactions","blur_events","focus_events","fullscreenenter_events","fullscreenexit_events","success","timeout","failed_images","failed_audio","failed_video","rt","stimulus","response","button_pressed","task_part","key_press","answer","correct"
"pavlovia","0","20","0.0-0.0","6207","approach_avoid_sv1","""event"",""trial"",""time""
""focus"",""0"",""1""
""fullscreenenter"",""1"",""5082""
","
","""event"",""trial"",""time""
""focus"",""0"",""1""
","""event"",""trial"",""time""
""fullscreenenter"",""1"",""5082""
","
","","","","","","","","","","","","",""
"fullscreen","1","5749","0.0-1.0","6207","approach_avoid_sv1","""event"",""trial"",""time""
""focus"",""0"",""1""
""fullscreenenter"",""1"",""5082""
","
","""event"",""trial"",""time""
""focus"",""0"",""1""
","""event"",""trial"",""time""
""fullscreenenter"",""1"",""5082""
","
","true","","","","","","","","","","","",""
"preload","2","7391","0.0-2.0","6207","approach_avoid_sv1","""event"",""trial"",""time""
""focus"",""0"",""1""
""fullscreenenter"",""1"",""5082""
","
","""event"",""trial"",""time""
""focus"",""0"",""1""
","""event"",""trial"",""time""
""fullscreenenter"",""1"",""5082""
","
","true","false","[]","[]","[]","","","","","","","",""
"preload","3","8223","0.0-3.0","6207","approach_avoid_sv1","""event"",""trial"",""time""
""focus"",""0"",""1""
""fullscreenenter"",""1"",""5082""
","
","""event"",""trial"",""time""
""focus"",""0"",""1""
","""event"",""trial"",""time""
""fullscreenenter"",""1"",""5082""
","
","true","false","[]","[]","[]","","","","","","","",""
"preload","4","8486","0.0-4.0","6207","approach_avoid_sv1","""event"",""trial"",""time""
""focus"",""0"",""1""
""fullscreenenter"",""1"",""5082""
","
","""event"",""trial"",""time""
""focus"",""0"",""1""
","""event"",""trial"",""time""
""fullscreenenter"",""1"",""5082""
","
","true","false","[]","[]","[]","","","","","","","",""
"audio-keyboard-response","5","13542","0.0-5.0","6207","approach_avoid_sv1","""event"",""trial"",""time""
""focus"",""0"",""1""
""fullscreenenter"",""1"",""5082""
","
","""event"",""trial"",""time""
""focus"",""0"",""1""
","""event"",""trial"",""time""
""fullscreenenter"",""1"",""5082""
","
","","","","","","5058.666666666666","audio/beep_loop.wav"," ","","","","",""
"audio-button-response","6","19798","0.0-6.0","6207","approach_avoid_sv1","""event"",""trial"",""time""
""focus"",""0"",""1""
""fullscreenenter"",""1"",""5082""
""blur"",""7"",""24386""
""focus"",""7"",""33799""
","""event"",""trial"",""time""
""blur"",""7"",""24386""
","""event"",""trial"",""time""
""focus"",""0"",""1""
""focus"",""7"",""33799""
","""event"",""trial"",""time""
""fullscreenenter"",""1"",""5082""
","
","","","","","","6261","audio/turtle.wav","0","","","","",""
"audio-button-response","7","33869","0.0-7.0","6207","approach_avoid_sv1","""event"",""trial"",""time""
""focus"",""0"",""1""
""fullscreenenter"",""1"",""5082""
""blur"",""7"",""24386""
""focus"",""7"",""33799""
","""event"",""trial"",""time""
""blur"",""7"",""24386""
","""event"",""trial"",""time""
""focus"",""0"",""1""
""focus"",""7"",""33799""
","""event"",""trial"",""time""
""fullscreenenter"",""1"",""5082""
","
","","","","","","13061","audio/shark.wav","0","","","","",""
"preload","8","36780","0.0-8.0","6207","approach_avoid_sv1","""event"",""trial"",""time""
""focus"",""0"",""1""
""fullscreenenter"",""1"",""5082""
""blur"",""7"",""24386""
""focus"",""7"",""33799""
","""event"",""trial"",""time""
""blur"",""7"",""24386""
","""event"",""trial"",""time""
""focus"",""0"",""1""
""focus"",""7"",""33799""
","""event"",""trial"",""time""
""fullscreenenter"",""1"",""5082""
","
","true","false","[]","[]","[]","","","","","","","",""
"learning-instructions","9","44182","0.0-9.0-0.0","6207","approach_avoid_sv1","""event"",""trial"",""time""
""focus"",""0"",""1""
""fullscreenenter"",""1"",""5082""
""blur"",""7"",""24386""
""focus"",""7"",""33799""
","""event"",""trial"",""time""
""blur"",""7"",""24386""
","""event"",""trial"",""time""
""focus"",""0"",""1""
""focus"",""7"",""33799""
","""event"",""trial"",""time""
""fullscreenenter"",""1"",""5082""
","
","","","","","","2915","<p> Welcome back! </p><p> Last week, you had to make choices about lots of different items.  </p>","","0","instructions","","",""
"learning-instructions","10","51429","0.0-9.0-0.1","6207","approach_avoid_sv1","""event"",""trial"",""time""
""focus"",""0"",""1""
""fullscreenenter"",""1"",""5082""
""blur"",""7"",""24386""
""focus"",""7"",""33799""
","""event"",""trial"",""time""
""blur"",""7"",""24386""
","""event"",""trial"",""time""
""focus"",""0"",""1""
""focus"",""7"",""33799""
","""event"",""trial"",""time""
""fullscreenenter"",""1"",""5082""
","
","","","","","","3122","<p> Today, we are going to ask you to try to remember all the items. </p>","","0","instructions","","",""
"learning-instructions","11","63461","0.0-9.0-0.2","6207","approach_avoid_sv1","""event"",""trial"",""time""
""focus"",""0"",""1""
""fullscreenenter"",""1"",""5082""
""blur"",""7"",""24386""
""focus"",""7"",""33799""
","""event"",""trial"",""time""
""blur"",""7"",""24386""
","""event"",""trial"",""time""
""focus"",""0"",""1""
""focus"",""7"",""33799""
","""event"",""trial"",""time""
""fullscreenenter"",""1"",""5082""
","
","","","","","","1884","<p> On every trial, you will see an image. </p><p> The image may be an OLD image you saw during the games last week or it may be a NEW image that was not presented. </p>","","0","instructions","","",""
"learning-instructions","12","73406","0.0-9.0-0.3","6207","approach_avoid_sv1","""event"",""trial"",""time""
""focus"",""0"",""1""
""fullscreenenter"",""1"",""5082""
""blur"",""7"",""24386""
""focus"",""7"",""33799""
","""event"",""trial"",""time""
""blur"",""7"",""24386""
","""event"",""trial"",""time""
""focus"",""0"",""1""
""focus"",""7"",""33799""
","""event"",""trial"",""time""
""fullscreenenter"",""1"",""5082""
","
","","","","","","1428","<p> You need to select whether the image is:  </p><p>  'Definitely old', 'Maybe old', 'Maybe new', or 'Definitely new.'  </p><div class=""mem-choice-instructions-grid""><div class=""choice-option"" id=""choice-option-1"" ><img src=""images/definitely_old_1.png"" id=""choice-option-img-1"" class=""choice-option-img"" stage=""1""></div><div class=""choice-option"" id=""choice-option-2"" ><img src=""images/maybe_old_1.png"" id=""choice-option-img-2"" class=""choice-option-img"" stage=""1""></div><div class=""choice-option"" id=""choice-option-3"" ><img src=""images/maybe_new_1.png"" id=""choice-option-img-3"" class=""choice-option-img"" stage=""1""></div><div class=""choice-option"" id=""choice-option-4"" > <img src=""images/definitely_new_1.png"" id=""choice-option-img-4"" class=""choice-option-img"" stage=""1""></div></div>","","0","instructions","","",""
"learning-instructions","13","80502","0.0-9.0-0.4","6207","approach_avoid_sv1","""event"",""trial"",""time""
""focus"",""0"",""1""
""fullscreenenter"",""1"",""5082""
""blur"",""7"",""24386""
""focus"",""7"",""33799""
","""event"",""trial"",""time""
""blur"",""7"",""24386""
","""event"",""trial"",""time""
""focus"",""0"",""1""
""focus"",""7"",""33799""
","""event"",""trial"",""time""
""fullscreenenter"",""1"",""5082""
","
","","","","","","573","<p> You should use the 1, 2, 3, and 4 keys to make your responses.  </p><div class=""mem-choice-instructions-grid""><div class=""choice-option"" id=""choice-option-1"" ><img src=""images/definitely_old.png"" id=""choice-option-img-1"" class=""choice-option-img"" stage=""1""></div><div class=""choice-option"" id=""choice-option-2"" ><img src=""images/maybe_old.png"" id=""choice-option-img-2"" class=""choice-option-img"" stage=""1""></div><div class=""choice-option"" id=""choice-option-3"" ><img src=""images/maybe_new.png"" id=""choice-option-img-3"" class=""choice-option-img"" stage=""1""></div><div class=""choice-option"" id=""choice-option-4"" > <img src=""images/definitely_new.png"" id=""choice-option-img-4"" class=""choice-option-img"" stage=""1""></div></div>","","0","instructions","","",""
"learning-instructions","14","87422","0.0-9.0-0.5","6207","approach_avoid_sv1","""event"",""trial"",""time""
""focus"",""0"",""1""
""fullscreenenter"",""1"",""5082""
""blur"",""7"",""24386""
""focus"",""7"",""33799""
","""event"",""trial"",""time""
""blur"",""7"",""24386""
","""event"",""trial"",""time""
""focus"",""0"",""1""
""focus"",""7"",""33799""
","""event"",""trial"",""time""
""fullscreenenter"",""1"",""5082""
","
","","","","","","575","<p> You will have 10 seconds to make each response.  </p><p>  Make sure to respond before time runs out! </p>","","0","instructions","","",""
"learning-instructions","15","96245","0.0-9.0-0.6","6207","approach_avoid_sv1","""event"",""trial"",""time""
""focus"",""0"",""1""
""fullscreenenter"",""1"",""5082""
""blur"",""7"",""24386""
""focus"",""7"",""33799""
","""event"",""trial"",""time""
""blur"",""7"",""24386""
","""event"",""trial"",""time""
""focus"",""0"",""1""
""focus"",""7"",""33799""
","""event"",""trial"",""time""
""fullscreenenter"",""1"",""5082""
","
","","","","","","1738","<p> Today, you will see each image ONCE only.  </p><p>  That means none of the images will repeat. </p>","","0","instructions","","",""
"learning-instructions","16","110645","0.0-9.0-0.7","6207","approach_avoid_sv1","""event"",""trial"",""time""
""focus"",""0"",""1""
""fullscreenenter"",""1"",""5082""
""blur"",""7"",""24386""
""focus"",""7"",""33799""
","""event"",""trial"",""time""
""blur"",""7"",""24386""
","""event"",""trial"",""time""
""focus"",""0"",""1""
""focus"",""7"",""33799""
","""event"",""trial"",""time""
""fullscreenenter"",""1"",""5082""
","
","","","","","","1717","<p> Before you play the real game, it is time to practice. </p><p>  Just like in the real game, some of the images in the practice will be ones you have seen before. </p><p>  Others will be entirely new. </p>","","0","instructions","","",""
"html-button-response","17","113542","0.0-10.0","6207","approach_avoid_sv1","""event"",""trial"",""time""
""focus"",""0"",""1""
""fullscreenenter"",""1"",""5082""
""blur"",""7"",""24386""
""focus"",""7"",""33799""
","""event"",""trial"",""time""
""blur"",""7"",""24386""
","""event"",""trial"",""time""
""focus"",""0"",""1""
""focus"",""7"",""33799""
","""event"",""trial"",""time""
""fullscreenenter"",""1"",""5082""
","
","","","","","","2791","<p> Ready to practice? </p><p> Remember, use the 1, 2, 3, and 4 keys to make your responses. </p>","0","","instructions","","",""
"html-keyboard-response","18","114161","0.0-11.0-0.0","6207","approach_avoid_sv1","""event"",""trial"",""time""
""focus"",""0"",""1""
""fullscreenenter"",""1"",""5082""
""blur"",""7"",""24386""
""focus"",""7"",""33799""
","""event"",""trial"",""time""
""blur"",""7"",""24386""
","""event"",""trial"",""time""
""focus"",""0"",""1""
""focus"",""7"",""33799""
","""event"",""trial"",""time""
""fullscreenenter"",""1"",""5082""
","
","","","","","","null","<div style=""font-size:60px;"">+</div>","null","","fixation","","",""
"memory-trial","19","118166","0.0-11.0-1.0","6207","approach_avoid_sv1","""event"",""trial"",""time""
""focus"",""0"",""1""
""fullscreenenter"",""1"",""5082""
""blur"",""7"",""24386""
""focus"",""7"",""33799""
","""event"",""trial"",""time""
""blur"",""7"",""24386""
","""event"",""trial"",""time""
""focus"",""0"",""1""
""focus"",""7"",""33799""
","""event"",""trial"",""time""
""fullscreenenter"",""1"",""5082""
","
","","","","","","2990","images/racket3.png","","","practice","1","definitely_old",""
"html-keyboard-response","20","118681","0.0-11.0-0.1","6207","approach_avoid_sv1","""event"",""trial"",""time""
""focus"",""0"",""1""
""fullscreenenter"",""1"",""5082""
""blur"",""7"",""24386""
""focus"",""7"",""33799""
","""event"",""trial"",""time""
""blur"",""7"",""24386""
","""event"",""trial"",""time""
""focus"",""0"",""1""
""focus"",""7"",""33799""
","""event"",""trial"",""time""
""fullscreenenter"",""1"",""5082""
","
","","","","","","null","<div style=""font-size:60px;"">+</div>","null","","fixation","","",""
"memory-trial","21","122082","0.0-11.0-1.1","6207","approach_avoid_sv1","""event"",""trial"",""time""
""focus"",""0"",""1""
""fullscreenenter"",""1"",""5082""
""blur"",""7"",""24386""
""focus"",""7"",""33799""
","""event"",""trial"",""time""
""blur"",""7"",""24386""
","""event"",""trial"",""time""
""focus"",""0"",""1""
""focus"",""7"",""33799""
","""event"",""trial"",""time""
""fullscreenenter"",""1"",""5082""
","
","","","","","","2391","images/ball2.png","","","practice","3","maybe_new",""
"html-keyboard-response","22","122587","0.0-11.0-0.2","6207","approach_avoid_sv1","""event"",""trial"",""time""
""focus"",""0"",""1""
""fullscreenenter"",""1"",""5082""
""blur"",""7"",""24386""
""focus"",""7"",""33799""
","""event"",""trial"",""time""
""blur"",""7"",""24386""
","""event"",""trial"",""time""
""focus"",""0"",""1""
""focus"",""7"",""33799""
","""event"",""trial"",""time""
""fullscreenenter"",""1"",""5082""
","
","","","","","","null","<div style=""font-size:60px;"">+</div>","null","","fixation","","",""
"memory-trial","23","125605","0.0-11.0-1.2","6207","approach_avoid_sv1","""event"",""trial"",""time""
""focus"",""0"",""1""
""fullscreenenter"",""1"",""5082""
""blur"",""7"",""24386""
""focus"",""7"",""33799""
","""event"",""trial"",""time""
""blur"",""7"",""24386""
","""event"",""trial"",""time""
""focus"",""0"",""1""
""focus"",""7"",""33799""
","""event"",""trial"",""time""
""fullscreenenter"",""1"",""5082""
","
","","","","","","2015","images/ball1.png","","","practice","4","definitely_new",""
"html-keyboard-response","24","126125","0.0-11.0-0.3","6207","approach_avoid_sv1","""event"",""trial"",""time""
""focus"",""0"",""1""
""fullscreenenter"",""1"",""5082""
""blur"",""7"",""24386""
""focus"",""7"",""33799""
","""event"",""trial"",""time""
""blur"",""7"",""24386""
","""event"",""trial"",""time""
""focus"",""0"",""1""
""focus"",""7"",""33799""
","""event"",""trial"",""time""
""fullscreenenter"",""1"",""5082""
","
","","","","","","null","<div style=""font-size:60px;"">+</div>","null","","fixation","","",""
"memory-trial","25","129091","0.0-11.0-1.3","6207","approach_avoid_sv1","""event"",""trial"",""time""
""focus"",""0"",""1""
""fullscreenenter"",""1"",""5082""
""blur"",""7"",""24386""
""focus"",""7"",""33799""
","""event"",""trial"",""time""
""blur"",""7"",""24386""
","""event"",""trial"",""time""
""focus"",""0"",""1""
""focus"",""7"",""33799""
","""event"",""trial"",""time""
""fullscreenenter"",""1"",""5082""
","
","","","","","","1948","images/racket2.png","","","practice","3","maybe_new",""
"html-keyboard-response","26","129601","0.0-11.0-0.4","6207","approach_avoid_sv1","""event"",""trial"",""time""
""focus"",""0"",""1""
""fullscreenenter"",""1"",""5082""
""blur"",""7"",""24386""
""focus"",""7"",""33799""
","""event"",""trial"",""time""
""blur"",""7"",""24386""
","""event"",""trial"",""time""
""focus"",""0"",""1""
""focus"",""7"",""33799""
","""event"",""trial"",""time""
""fullscreenenter"",""1"",""5082""
","
","","","","","","null","<div style=""font-size:60px;"">+</div>","null","","fixation","","",""
"memory-trial","27","132847","0.0-11.0-1.4","6207","approach_avoid_sv1","""event"",""trial"",""time""
""focus"",""0"",""1""
""fullscreenenter"",""1"",""5082""
""blur"",""7"",""24386""
""focus"",""7"",""33799""
","""event"",""trial"",""time""
""blur"",""7"",""24386""
","""event"",""trial"",""time""
""focus"",""0"",""1""
""focus"",""7"",""33799""
","""event"",""trial"",""time""
""fullscreenenter"",""1"",""5082""
","
","","","","","","2232","images/ball3.png","","","practice","3","maybe_new",""
"html-keyboard-response","28","133355","0.0-11.0-0.5","6207","approach_avoid_sv1","""event"",""trial"",""time""
""focus"",""0"",""1""
""fullscreenenter"",""1"",""5082""
""blur"",""7"",""24386""
""focus"",""7"",""33799""
","""event"",""trial"",""time""
""blur"",""7"",""24386""
","""event"",""trial"",""time""
""focus"",""0"",""1""
""focus"",""7"",""33799""
","""event"",""trial"",""time""
""fullscreenenter"",""1"",""5082""
","
","","","","","","null","<div style=""font-size:60px;"">+</div>","null","","fixation","","",""
"memory-trial","29","135686","0.0-11.0-1.5","6207","approach_avoid_sv1","""event"",""trial"",""time""
""focus"",""0"",""1""
""fullscreenenter"",""1"",""5082""
""blur"",""7"",""24386""
""focus"",""7"",""33799""
","""event"",""trial"",""time""
""blur"",""7"",""24386""
","""event"",""trial"",""time""
""focus"",""0"",""1""
""focus"",""7"",""33799""
","""event"",""trial"",""time""
""fullscreenenter"",""1"",""5082""
","
","","","","","","1326","images/racket5.png","","","practice","3","maybe_new",""
"html-keyboard-response","30","136205","0.0-11.0-0.6","6207","approach_avoid_sv1","""event"",""trial"",""time""
""focus"",""0"",""1""
""fullscreenenter"",""1"",""5082""
""blur"",""7"",""24386""
""focus"",""7"",""33799""
","""event"",""trial"",""time""
""blur"",""7"",""24386""
","""event"",""trial"",""time""
""focus"",""0"",""1""
""focus"",""7"",""33799""
","""event"",""trial"",""time""
""fullscreenenter"",""1"",""5082""
","
","","","","","","null","<div style=""font-size:60px;"">+</div>","null","","fixation","","",""
"memory-trial","31","141440","0.0-11.0-1.6","6207","approach_avoid_sv1","""event"",""trial"",""time""
""focus"",""0"",""1""
""fullscreenenter"",""1"",""5082""
""blur"",""7"",""24386""
""focus"",""7"",""33799""
","""event"",""trial"",""time""
""blur"",""7"",""24386""
","""event"",""trial"",""time""
""focus"",""0"",""1""
""focus"",""7"",""33799""
","""event"",""trial"",""time""
""fullscreenenter"",""1"",""5082""
","
","","","","","","4219","images/ball5.png","","","practice","4","definitely_new",""
"html-keyboard-response","32","141961","0.0-11.0-0.7","6207","approach_avoid_sv1","""event"",""trial"",""time""
""focus"",""0"",""1""
""fullscreenenter"",""1"",""5082""
""blur"",""7"",""24386""
""focus"",""7"",""33799""
","""event"",""trial"",""time""
""blur"",""7"",""24386""
","""event"",""trial"",""time""
""focus"",""0"",""1""
""focus"",""7"",""33799""
","""event"",""trial"",""time""
""fullscreenenter"",""1"",""5082""
","
","","","","","","null","<div style=""font-size:60px;"">+</div>","null","","fixation","","",""
"memory-trial","33","145365","0.0-11.0-1.7","6207","approach_avoid_sv1","""event"",""trial"",""time""
""focus"",""0"",""1""
""fullscreenenter"",""1"",""5082""
""blur"",""7"",""24386""
""focus"",""7"",""33799""
","""event"",""trial"",""time""
""blur"",""7"",""24386""
","""event"",""trial"",""time""
""focus"",""0"",""1""
""focus"",""7"",""33799""
","""event"",""trial"",""time""
""fullscreenenter"",""1"",""5082""
","
","","","","","","2385","images/racket1.png","","","practice","4","definitely_new",""
"learning-instructions","34","155709","0.0-12.0-0.0","6207","approach_avoid_sv1","""event"",""trial"",""time""
""focus"",""0"",""1""
""fullscreenenter"",""1"",""5082""
""blur"",""7"",""24386""
""focus"",""7"",""33799""
","""event"",""trial"",""time""
""blur"",""7"",""24386""
","""event"",""trial"",""time""
""focus"",""0"",""1""
""focus"",""7"",""33799""
","""event"",""trial"",""time""
""fullscreenenter"",""1"",""5082""
","
","","","","","","3022","<p> Great! You have completed the practice. </p><p> Before you start, we're going to ask you a few questions about how the game works.  </p>","","0","instructions","","",""
"preload","35","157314","0.0-13.0","6207","approach_avoid_sv1","""event"",""trial"",""time""
""focus"",""0"",""1""
""fullscreenenter"",""1"",""5082""
""blur"",""7"",""24386""
""focus"",""7"",""33799""
","""event"",""trial"",""time""
""blur"",""7"",""24386""
","""event"",""trial"",""time""
""focus"",""0"",""1""
""focus"",""7"",""33799""
","""event"",""trial"",""time""
""fullscreenenter"",""1"",""5082""
","
","true","false","[]","[]","[]","","","","","","","",""
"comp-q","36","163933","0.0-14.0-0.0","6207","approach_avoid_sv1","""event"",""trial"",""time""
""focus"",""0"",""1""
""fullscreenenter"",""1"",""5082""
""blur"",""7"",""24386""
""focus"",""7"",""33799""
","""event"",""trial"",""time""
""blur"",""7"",""24386""
","""event"",""trial"",""time""
""focus"",""0"",""1""
""focus"",""7"",""33799""
","""event"",""trial"",""time""
""fullscreenenter"",""1"",""5082""
","
","","","","","","786","<p> <b> True or False? </b> </p><p> In this game, you will only see each image once. </p>","","0","comp_question","","","true"
"comp-q","37","175708","0.0-14.0-1.0","6207","approach_avoid_sv1","""event"",""trial"",""time""
""focus"",""0"",""1""
""fullscreenenter"",""1"",""5082""
""blur"",""7"",""24386""
""focus"",""7"",""33799""
","""event"",""trial"",""time""
""blur"",""7"",""24386""
","""event"",""trial"",""time""
""focus"",""0"",""1""
""focus"",""7"",""33799""
","""event"",""trial"",""time""
""fullscreenenter"",""1"",""5082""
","
","","","","","","5431","<p> <b> That's right! </b> You will see many different images <i> one time each </i> in this game. </p>","","0","comp_answer","","",""
"comp-q","38","181397","0.0-15.0-0.0","6207","approach_avoid_sv1","""event"",""trial"",""time""
""focus"",""0"",""1""
""fullscreenenter"",""1"",""5082""
""blur"",""7"",""24386""
""focus"",""7"",""33799""
","""event"",""trial"",""time""
""blur"",""7"",""24386""
","""event"",""trial"",""time""
""focus"",""0"",""1""
""focus"",""7"",""33799""
","""event"",""trial"",""time""
""fullscreenenter"",""1"",""5082""
","
","","","","","","660","<p> <b> True or False? </b> </p><p> You should use the mouse and click to make your response. </p>","","1","comp_question","","","true"
"comp-q","39","190252","0.0-15.0-1.0","6207","approach_avoid_sv1","""event"",""trial"",""time""
""focus"",""0"",""1""
""fullscreenenter"",""1"",""5082""
""blur"",""7"",""24386""
""focus"",""7"",""33799""
","""event"",""trial"",""time""
""blur"",""7"",""24386""
","""event"",""trial"",""time""
""focus"",""0"",""1""
""focus"",""7"",""33799""
","""event"",""trial"",""time""
""fullscreenenter"",""1"",""5082""
","
","","","","","","2336","<p><b> That's right! </b> You should use the '1', '2', '3', and '4' keys to make your response. </p>","","0","comp_answer","","",""
"comp-q","40","198725","0.0-16.0-0.0","6207","approach_avoid_sv1","""event"",""trial"",""time""
""focus"",""0"",""1""
""fullscreenenter"",""1"",""5082""
""blur"",""7"",""24386""
""focus"",""7"",""33799""
","""event"",""trial"",""time""
""blur"",""7"",""24386""
","""event"",""trial"",""time""
""focus"",""0"",""1""
""focus"",""7"",""33799""
","""event"",""trial"",""time""
""fullscreenenter"",""1"",""5082""
","
","","","","","","2789","<p> <b> True or False? </b> </p><p> You will have as much time as you want to make each choice. </p>","","1","comp_question","","","true"
"comp-q","41","206276","0.0-16.0-1.0","6207","approach_avoid_sv1","""event"",""trial"",""time""
""focus"",""0"",""1""
""fullscreenenter"",""1"",""5082""
""blur"",""7"",""24386""
""focus"",""7"",""33799""
","""event"",""trial"",""time""
""blur"",""7"",""24386""
","""event"",""trial"",""time""
""focus"",""0"",""1""
""focus"",""7"",""33799""
","""event"",""trial"",""time""
""fullscreenenter"",""1"",""5082""
","
","","","","","","2840","<p> <b> That's right! </b> You will only have 10 seconds to make each choice. </p>","","0","comp_answer","","",""
"learning-instructions","42","223508","0.0-17.0","6207","approach_avoid_sv1","""event"",""trial"",""time""
""focus"",""0"",""1""
""fullscreenenter"",""1"",""5082""
""blur"",""7"",""24386""
""focus"",""7"",""33799""
","""event"",""trial"",""time""
""blur"",""7"",""24386""
","""event"",""trial"",""time""
""focus"",""0"",""1""
""focus"",""7"",""33799""
","""event"",""trial"",""time""
""fullscreenenter"",""1"",""5082""
","
","","","","","","8541","<p> Great! You are now ready to begin the game. </p><p> Remember, use the 1, 2, 3, and 4 keys to make your responses. </p>","","0","instructions","","",""
"html-keyboard-response","43","224125","0.0-18.0-0.0","6207","approach_avoid_sv1","""event"",""trial"",""time""
""focus"",""0"",""1""
""fullscreenenter"",""1"",""5082""
""blur"",""7"",""24386""
""focus"",""7"",""33799""
","""event"",""trial"",""time""
""blur"",""7"",""24386""
","""event"",""trial"",""time""
""focus"",""0"",""1""
""focus"",""7"",""33799""
","""event"",""trial"",""time""
""fullscreenenter"",""1"",""5082""
","
","","","","","","null","<div style=""font-size:60px;"">+</div>","null","","fixation","","",""
"memory-trial","44","228880","0.0-18.0-1.0","6207","approach_avoid_sv1","""event"",""trial"",""time""
""focus"",""0"",""1""
""fullscreenenter"",""1"",""5082""
""blur"",""7"",""24386""
""focus"",""7"",""33799""
","""event"",""trial"",""time""
""blur"",""7"",""24386""
","""event"",""trial"",""time""
""focus"",""0"",""1""
""focus"",""7"",""33799""
","""event"",""trial"",""time""
""fullscreenenter"",""1"",""5082""
","
","","","","","","3746","images/apple5.png","","","memory_trial","1","definitely_old",""
"html-keyboard-response","45","229400","0.0-18.0-0.1","6207","approach_avoid_sv1","""event"",""trial"",""time""
""focus"",""0"",""1""
""fullscreenenter"",""1"",""5082""
""blur"",""7"",""24386""
""focus"",""7"",""33799""
","""event"",""trial"",""time""
""blur"",""7"",""24386""
","""event"",""trial"",""time""
""focus"",""0"",""1""
""focus"",""7"",""33799""
","""event"",""trial"",""time""
""fullscreenenter"",""1"",""5082""
","
","","","","","","null","<div style=""font-size:60px;"">+</div>","null","","fixation","","",""
"memory-trial","46","232085","0.0-18.0-1.1","6207","approach_avoid_sv1","""event"",""trial"",""time""
""focus"",""0"",""1""
""fullscreenenter"",""1"",""5082""
""blur"",""7"",""24386""
""focus"",""7"",""33799""
","""event"",""trial"",""time""
""blur"",""7"",""24386""
","""event"",""trial"",""time""
""focus"",""0"",""1""
""focus"",""7"",""33799""
","""event"",""trial"",""time""
""fullscreenenter"",""1"",""5082""
","
","","","","","","1673","images/sheep6.png","","","memory_trial","1","definitely_old",""
"html-keyboard-response","47","232600","0.0-18.0-0.2","6207","approach_avoid_sv1","""event"",""trial"",""time""
""focus"",""0"",""1""
""fullscreenenter"",""1"",""5082""
""blur"",""7"",""24386""
""focus"",""7"",""33799""
","""event"",""trial"",""time""
""blur"",""7"",""24386""
","""event"",""trial"",""time""
""focus"",""0"",""1""
""focus"",""7"",""33799""
","""event"",""trial"",""time""
""fullscreenenter"",""1"",""5082""
","
","","","","","","null","<div style=""font-size:60px;"">+</div>","null","","fixation","","",""
"memory-trial","48","236095","0.0-18.0-1.2","6207","approach_avoid_sv1","""event"",""trial"",""time""
""focus"",""0"",""1""
""fullscreenenter"",""1"",""5082""
""blur"",""7"",""24386""
""focus"",""7"",""33799""
","""event"",""trial"",""time""
""blur"",""7"",""24386""
","""event"",""trial"",""time""
""focus"",""0"",""1""
""focus"",""7"",""33799""
","""event"",""trial"",""time""
""fullscreenenter"",""1"",""5082""
","
","","","","","","2480","images/cactus8.png","","","memory_trial","4","definitely_new",""
"html-keyboard-response","49","236615","0.0-18.0-0.3","6207","approach_avoid_sv1","""event"",""trial"",""time""
""focus"",""0"",""1""
""fullscreenenter"",""1"",""5082""
""blur"",""7"",""24386""
""focus"",""7"",""33799""
","""event"",""trial"",""time""
""blur"",""7"",""24386""
","""event"",""trial"",""time""
""focus"",""0"",""1""
""focus"",""7"",""33799""
","""event"",""trial"",""time""
""fullscreenenter"",""1"",""5082""
","
","","","","","","null","<div style=""font-size:60px;"">+</div>","null","","fixation","","",""
"memory-trial","50","239950","0.0-18.0-1.3","6207","approach_avoid_sv1","""event"",""trial"",""time""
""focus"",""0"",""1""
""fullscreenenter"",""1"",""5082""
""blur"",""7"",""24386""
""focus"",""7"",""33799""
","""event"",""trial"",""time""
""blur"",""7"",""24386""
","""event"",""trial"",""time""
""focus"",""0"",""1""
""focus"",""7"",""33799""
","""event"",""trial"",""time""
""fullscreenenter"",""1"",""5082""
","
","","","","","","2321","images/boat6.png","","","memory_trial","3","maybe_new",""
"html-keyboard-response","51","240465","0.0-18.0-0.4","6207","approach_avoid_sv1","""event"",""trial"",""time""
""focus"",""0"",""1""
""fullscreenenter"",""1"",""5082""
""blur"",""7"",""24386""
""focus"",""7"",""33799""
","""event"",""trial"",""time""
""blur"",""7"",""24386""
","""event"",""trial"",""time""
""focus"",""0"",""1""
""focus"",""7"",""33799""
","""event"",""trial"",""time""
""fullscreenenter"",""1"",""5082""
","
","","","","","","null","<div style=""font-size:60px;"">+</div>","null","","fixation","","",""
"memory-trial","52","243160","0.0-18.0-1.4","6207","approach_avoid_sv1","""event"",""trial"",""time""
""focus"",""0"",""1""
""fullscreenenter"",""1"",""5082""
""blur"",""7"",""24386""
""focus"",""7"",""33799""
","""event"",""trial"",""time""
""blur"",""7"",""24386""
","""event"",""trial"",""time""
""focus"",""0"",""1""
""focus"",""7"",""33799""
","""event"",""trial"",""time""
""fullscreenenter"",""1"",""5082""
","
","","","","","","1679","images/bed3.png","","","memory_trial","1","definitely_old",""
"html-keyboard-response","53","243672","0.0-18.0-0.5","6207","approach_avoid_sv1","""event"",""trial"",""time""
""focus"",""0"",""1""
""fullscreenenter"",""1"",""5082""
""blur"",""7"",""24386""
""focus"",""7"",""33799""
","""event"",""trial"",""time""
""blur"",""7"",""24386""
","""event"",""trial"",""time""
""focus"",""0"",""1""
""focus"",""7"",""33799""
","""event"",""trial"",""time""
""fullscreenenter"",""1"",""5082""
","
","","","","","","null","<div style=""font-size:60px;"">+</div>","null","","fixation","","",""
"memory-trial","54","246716","0.0-18.0-1.5","6207","approach_avoid_sv1","""event"",""trial"",""time""
""focus"",""0"",""1""
""fullscreenenter"",""1"",""5082""
""blur"",""7"",""24386""
""focus"",""7"",""33799""
","""event"",""trial"",""time""
""blur"",""7"",""24386""
","""event"",""trial"",""time""
""focus"",""0"",""1""
""focus"",""7"",""33799""
","""event"",""trial"",""time""
""fullscreenenter"",""1"",""5082""
","
","","","","","","2024","images/apple2.png","","","memory_trial","3","maybe_new",""
"html-keyboard-response","55","247230","0.0-18.0-0.6","6207","approach_avoid_sv1","""event"",""trial"",""time""
""focus"",""0"",""1""
""fullscreenenter"",""1"",""5082""
""blur"",""7"",""24386""
""focus"",""7"",""33799""
","""event"",""trial"",""time""
""blur"",""7"",""24386""
","""event"",""trial"",""time""
""focus"",""0"",""1""
""focus"",""7"",""33799""
","""event"",""trial"",""time""
""fullscreenenter"",""1"",""5082""
","
","","","","","","null","<div style=""font-size:60px;"">+</div>","null","","fixation","","",""
"memory-trial","56","250130","0.0-18.0-1.6","6207","approach_avoid_sv1","""event"",""trial"",""time""
""focus"",""0"",""1""
""fullscreenenter"",""1"",""5082""
""blur"",""7"",""24386""
""focus"",""7"",""33799""
","""event"",""trial"",""time""
""blur"",""7"",""24386""
","""event"",""trial"",""time""
""focus"",""0"",""1""
""focus"",""7"",""33799""
","""event"",""trial"",""time""
""fullscreenenter"",""1"",""5082""
","
","","","","","","1883","images/orange8.png","","","memory_trial","4","definitely_new",""
"html-keyboard-response","57","250645","0.0-18.0-0.7","6207","approach_avoid_sv1","""event"",""trial"",""time""
""focus"",""0"",""1""
""fullscreenenter"",""1"",""5082""
""blur"",""7"",""24386""
""focus"",""7"",""33799""
","""event"",""trial"",""time""
""blur"",""7"",""24386""
","""event"",""trial"",""time""
""focus"",""0"",""1""
""focus"",""7"",""33799""
","""event"",""trial"",""time""
""fullscreenenter"",""1"",""5082""
","
","","","","","","null","<div style=""font-size:60px;"">+</div>","null","","fixation","","",""
"memory-trial","58","253720","0.0-18.0-1.7","6207","approach_avoid_sv1","""event"",""trial"",""time""
""focus"",""0"",""1""
""fullscreenenter"",""1"",""5082""
""blur"",""7"",""24386""
""focus"",""7"",""33799""
","""event"",""trial"",""time""
""blur"",""7"",""24386""
","""event"",""trial"",""time""
""focus"",""0"",""1""
""focus"",""7"",""33799""
","""event"",""trial"",""time""
""fullscreenenter"",""1"",""5082""
","
","","","","","","2070","images/cat8.png","","","memory_trial","1","definitely_old",""
"html-keyboard-response","59","254240","0.0-18.0-0.8","6207","approach_avoid_sv1","""event"",""trial"",""time""
""focus"",""0"",""1""
""fullscreenenter"",""1"",""5082""
""blur"",""7"",""24386""
""focus"",""7"",""33799""
","""event"",""trial"",""time""
""blur"",""7"",""24386""
","""event"",""trial"",""time""
""focus"",""0"",""1""
""focus"",""7"",""33799""
","""event"",""trial"",""time""
""fullscreenenter"",""1"",""5082""
","
","","","","","","null","<div style=""font-size:60px;"">+</div>","null","","fixation","","",""
"memory-trial","60","257070","0.0-18.0-1.8","6207","approach_avoid_sv1","""event"",""trial"",""time""
""focus"",""0"",""1""
""fullscreenenter"",""1"",""5082""
""blur"",""7"",""24386""
""focus"",""7"",""33799""
","""event"",""trial"",""time""
""blur"",""7"",""24386""
","""event"",""trial"",""time""
""focus"",""0"",""1""
""focus"",""7"",""33799""
","""event"",""trial"",""time""
""fullscreenenter"",""1"",""5082""
","
","","","","","","1815","images/tree7.png","","","memory_trial","1","definitely_old",""
"html-keyboard-response","61","257589","0.0-18.0-0.9","6207","approach_avoid_sv1","""event"",""trial"",""time""
""focus"",""0"",""1""
""fullscreenenter"",""1"",""5082""
""blur"",""7"",""24386""
""focus"",""7"",""33799""
","""event"",""trial"",""time""
""blur"",""7"",""24386""
","""event"",""trial"",""time""
""focus"",""0"",""1""
""focus"",""7"",""33799""
","""event"",""trial"",""time""
""fullscreenenter"",""1"",""5082""
","
","","","","","","null","<div style=""font-size:60px;"">+</div>","null","","fixation","","",""
"memory-trial","62","259940","0.0-18.0-1.9","6207","approach_avoid_sv1","""event"",""trial"",""time""
""focus"",""0"",""1""
""fullscreenenter"",""1"",""5082""
""blur"",""7"",""24386""
""focus"",""7"",""33799""
","""event"",""trial"",""time""
""blur"",""7"",""24386""
","""event"",""trial"",""time""
""focus"",""0"",""1""
""focus"",""7"",""33799""
","""event"",""trial"",""time""
""fullscreenenter"",""1"",""5082""
","
","","","","","","1347","images/truck6.png","","","memory_trial","4","definitely_new",""
"html-keyboard-response","63","260450","0.0-18.0-0.10","6207","approach_avoid_sv1","""event"",""trial"",""time""
""focus"",""0"",""1""
""fullscreenenter"",""1"",""5082""
""blur"",""7"",""24386""
""focus"",""7"",""33799""
","""event"",""trial"",""time""
""blur"",""7"",""24386""
","""event"",""trial"",""time""
""focus"",""0"",""1""
""focus"",""7"",""33799""
","""event"",""trial"",""time""
""fullscreenenter"",""1"",""5082""
","
","","","","","","null","<div style=""font-size:60px;"">+</div>","null","","fixation","","",""
"memory-trial","64","263280","0.0-18.0-1.10","6207","approach_avoid_sv1","""event"",""trial"",""time""
""focus"",""0"",""1""
""fullscreenenter"",""1"",""5082""
""blur"",""7"",""24386""
""focus"",""7"",""33799""
","""event"",""trial"",""time""
""blur"",""7"",""24386""
","""event"",""trial"",""time""
""focus"",""0"",""1""
""focus"",""7"",""33799""
","""event"",""trial"",""time""
""fullscreenenter"",""1"",""5082""
","
","","","","","","1815","images/goat4.png","","","memory_trial","1","definitely_old",""
"html-keyboard-response","65","263793","0.0-18.0-0.11","6207","approach_avoid_sv1","""event"",""trial"",""time""
""focus"",""0"",""1""
""fullscreenenter"",""1"",""5082""
""blur"",""7"",""24386""
""focus"",""7"",""33799""
","""event"",""trial"",""time""
""blur"",""7"",""24386""
","""event"",""trial"",""time""
""focus"",""0"",""1""
""focus"",""7"",""33799""
","""event"",""trial"",""time""
""fullscreenenter"",""1"",""5082""
","
","","","","","","null","<div style=""font-size:60px;"">+</div>","null","","fixation","","",""
"memory-trial","66","266525","0.0-18.0-1.11","6207","approach_avoid_sv1","""event"",""trial"",""time""
""focus"",""0"",""1""
""fullscreenenter"",""1"",""5082""
""blur"",""7"",""24386""
""focus"",""7"",""33799""
","""event"",""trial"",""time""
""blur"",""7"",""24386""
","""event"",""trial"",""time""
""focus"",""0"",""1""
""focus"",""7"",""33799""
","""event"",""trial"",""time""
""fullscreenenter"",""1"",""5082""
","
","","","","","","1711","images/sheep4.png","","","memory_trial","3","maybe_new",""
"html-keyboard-response","67","267035","0.0-18.0-0.12","6207","approach_avoid_sv1","""event"",""trial"",""time""
""focus"",""0"",""1""
""fullscreenenter"",""1"",""5082""
""blur"",""7"",""24386""
""focus"",""7"",""33799""
","""event"",""trial"",""time""
""blur"",""7"",""24386""
","""event"",""trial"",""time""
""focus"",""0"",""1""
""focus"",""7"",""33799""
","""event"",""trial"",""time""
""fullscreenenter"",""1"",""5082""
","
","","","","","","null","<div style=""font-size:60px;"">+</div>","null","","fixation","","",""
"memory-trial","68","269459","0.0-18.0-1.12","6207","approach_avoid_sv1","""event"",""trial"",""time""
""focus"",""0"",""1""
""fullscreenenter"",""1"",""5082""
""blur"",""7"",""24386""
""focus"",""7"",""33799""
","""event"",""trial"",""time""
""blur"",""7"",""24386""
","""event"",""trial"",""time""
""focus"",""0"",""1""
""focus"",""7"",""33799""
","""event"",""trial"",""time""
""fullscreenenter"",""1"",""5082""
","
","","","","","","1413","images/tree1.png","","","memory_trial","1","definitely_old",""
"html-keyboard-response","69","269979","0.0-18.0-0.13","6207","approach_avoid_sv1","""event"",""trial"",""time""
""focus"",""0"",""1""
""fullscreenenter"",""1"",""5082""
""blur"",""7"",""24386""
""focus"",""7"",""33799""
","""event"",""trial"",""time""
""blur"",""7"",""24386""
","""event"",""trial"",""time""
""focus"",""0"",""1""
""focus"",""7"",""33799""
","""event"",""trial"",""time""
""fullscreenenter"",""1"",""5082""
","
","","","","","","null","<div style=""font-size:60px;"">+</div>","null","","fixation","","",""
"memory-trial","70","272545","0.0-18.0-1.13","6207","approach_avoid_sv1","""event"",""trial"",""time""
""focus"",""0"",""1""
""fullscreenenter"",""1"",""5082""
""blur"",""7"",""24386""
""focus"",""7"",""33799""
","""event"",""trial"",""time""
""blur"",""7"",""24386""
","""event"",""trial"",""time""
""focus"",""0"",""1""
""focus"",""7"",""33799""
","""event"",""trial"",""time""
""fullscreenenter"",""1"",""5082""
","
","","","","","","1557","images/chair2.png","","","memory_trial","1","definitely_old",""
"html-keyboard-response","71","273050","0.0-18.0-0.14","6207","approach_avoid_sv1","""event"",""trial"",""time""
""focus"",""0"",""1""
""fullscreenenter"",""1"",""5082""
""blur"",""7"",""24386""
""focus"",""7"",""33799""
","""event"",""trial"",""time""
""blur"",""7"",""24386""
","""event"",""trial"",""time""
""focus"",""0"",""1""
""focus"",""7"",""33799""
","""event"",""trial"",""time""
""fullscreenenter"",""1"",""5082""
","
","","","","","","null","<div style=""font-size:60px;"">+</div>","null","","fixation","","",""
"memory-trial","72","275935","0.0-18.0-1.14","6207","approach_avoid_sv1","""event"",""trial"",""time""
""focus"",""0"",""1""
""fullscreenenter"",""1"",""5082""
""blur"",""7"",""24386""
""focus"",""7"",""33799""
","""event"",""trial"",""time""
""blur"",""7"",""24386""
","""event"",""trial"",""time""
""focus"",""0"",""1""
""focus"",""7"",""33799""
","""event"",""trial"",""time""
""fullscreenenter"",""1"",""5082""
","
","","","","","","1870","images/straw7.png","","","memory_trial","3","maybe_new",""
"html-keyboard-response","73","276455","0.0-18.0-0.15","6207","approach_avoid_sv1","""event"",""trial"",""time""
""focus"",""0"",""1""
""fullscreenenter"",""1"",""5082""
""blur"",""7"",""24386""
""focus"",""7"",""33799""
","""event"",""trial"",""time""
""blur"",""7"",""24386""
","""event"",""trial"",""time""
""focus"",""0"",""1""
""focus"",""7"",""33799""
","""event"",""trial"",""time""
""fullscreenenter"",""1"",""5082""
","
","","","","","","null","<div style=""font-size:60px;"">+</div>","null","","fixation","","",""
"memory-trial","74","279350","0.0-18.0-1.15","6207","approach_avoid_sv1","""event"",""trial"",""time""
""focus"",""0"",""1""
""fullscreenenter"",""1"",""5082""
""blur"",""7"",""24386""
""focus"",""7"",""33799""
","""event"",""trial"",""time""
""blur"",""7"",""24386""
","""event"",""trial"",""time""
""focus"",""0"",""1""
""focus"",""7"",""33799""
","""event"",""trial"",""time""
""fullscreenenter"",""1"",""5082""
","
","","","","","","1881","images/bush5.png","","","memory_trial","4","definitely_new",""
"html-keyboard-response","75","279864","0.0-18.0-0.16","6207","approach_avoid_sv1","""event"",""trial"",""time""
""focus"",""0"",""1""
""fullscreenenter"",""1"",""5082""
""blur"",""7"",""24386""
""focus"",""7"",""33799""
","""event"",""trial"",""time""
""blur"",""7"",""24386""
","""event"",""trial"",""time""
""focus"",""0"",""1""
""focus"",""7"",""33799""
","""event"",""trial"",""time""
""fullscreenenter"",""1"",""5082""
","
","","","","","","null","<div style=""font-size:60px;"">+</div>","null","","fixation","","",""
"memory-trial","76","282714","0.0-18.0-1.16","6207","approach_avoid_sv1","""event"",""trial"",""time""
""focus"",""0"",""1""
""fullscreenenter"",""1"",""5082""
""blur"",""7"",""24386""
""focus"",""7"",""33799""
","""event"",""trial"",""time""
""blur"",""7"",""24386""
","""event"",""trial"",""time""
""focus"",""0"",""1""
""focus"",""7"",""33799""
","""event"",""trial"",""time""
""fullscreenenter"",""1"",""5082""
","
","","","","","","1839","images/plane2.png","","","memory_trial","1","definitely_old",""
"html-keyboard-response","77","283230","0.0-18.0-0.17","6207","approach_avoid_sv1","""event"",""trial"",""time""
""focus"",""0"",""1""
""fullscreenenter"",""1"",""5082""
""blur"",""7"",""24386""
""focus"",""7"",""33799""
","""event"",""trial"",""time""
""blur"",""7"",""24386""
","""event"",""trial"",""time""
""focus"",""0"",""1""
""focus"",""7"",""33799""
","""event"",""trial"",""time""
""fullscreenenter"",""1"",""5082""
","
","","","","","","null","<div style=""font-size:60px;"">+</div>","null","","fixation","","",""
"memory-trial","78","285545","0.0-18.0-1.17","6207","approach_avoid_sv1","""event"",""trial"",""time""
""focus"",""0"",""1""
""fullscreenenter"",""1"",""5082""
""blur"",""7"",""24386""
""focus"",""7"",""33799""
","""event"",""trial"",""time""
""blur"",""7"",""24386""
","""event"",""trial"",""time""
""focus"",""0"",""1""
""focus"",""7"",""33799""
","""event"",""trial"",""time""
""fullscreenenter"",""1"",""5082""
","
","","","","","","1308","images/rabbit6.png","","","memory_trial","1","definitely_old",""
"html-keyboard-response","79","286050","0.0-18.0-0.18","6207","approach_avoid_sv1","""event"",""trial"",""time""
""focus"",""0"",""1""
""fullscreenenter"",""1"",""5082""
""blur"",""7"",""24386""
""focus"",""7"",""33799""
","""event"",""trial"",""time""
""blur"",""7"",""24386""
","""event"",""trial"",""time""
""focus"",""0"",""1""
""focus"",""7"",""33799""
","""event"",""trial"",""time""
""fullscreenenter"",""1"",""5082""
","
","","","","","","null","<div style=""font-size:60px;"">+</div>","null","","fixation","","",""
"memory-trial","80","289100","0.0-18.0-1.18","6207","approach_avoid_sv1","""event"",""trial"",""time""
""focus"",""0"",""1""
""fullscreenenter"",""1"",""5082""
""blur"",""7"",""24386""
""focus"",""7"",""33799""
","""event"",""trial"",""time""
""blur"",""7"",""24386""
","""event"",""trial"",""time""
""focus"",""0"",""1""
""focus"",""7"",""33799""
","""event"",""trial"",""time""
""fullscreenenter"",""1"",""5082""
","
","","","","","","2038","images/flower5.png","","","memory_trial","2","maybe_old",""
"html-keyboard-response","81","289605","0.0-18.0-0.19","6207","approach_avoid_sv1","""event"",""trial"",""time""
""focus"",""0"",""1""
""fullscreenenter"",""1"",""5082""
""blur"",""7"",""24386""
""focus"",""7"",""33799""
","""event"",""trial"",""time""
""blur"",""7"",""24386""
","""event"",""trial"",""time""
""focus"",""0"",""1""
""focus"",""7"",""33799""
","""event"",""trial"",""time""
""fullscreenenter"",""1"",""5082""
","
","","","","","","null","<div style=""font-size:60px;"">+</div>","null","","fixation","","",""
"memory-trial","82","291741","0.0-18.0-1.19","6207","approach_avoid_sv1","""event"",""trial"",""time""
""focus"",""0"",""1""
""fullscreenenter"",""1"",""5082""
""blur"",""7"",""24386""
""focus"",""7"",""33799""
","""event"",""trial"",""time""
""blur"",""7"",""24386""
","""event"",""trial"",""time""
""focus"",""0"",""1""
""focus"",""7"",""33799""
","""event"",""trial"",""time""
""fullscreenenter"",""1"",""5082""
","
","","","","","","1125","images/tree5.png","","","memory_trial","4","definitely_new",""
"html-keyboard-response","83","292245","0.0-18.0-0.20","6207","approach_avoid_sv1","""event"",""trial"",""time""
""focus"",""0"",""1""
""fullscreenenter"",""1"",""5082""
""blur"",""7"",""24386""
""focus"",""7"",""33799""
","""event"",""trial"",""time""
""blur"",""7"",""24386""
","""event"",""trial"",""time""
""focus"",""0"",""1""
""focus"",""7"",""33799""
","""event"",""trial"",""time""
""fullscreenenter"",""1"",""5082""
","
","","","","","","null","<div style=""font-size:60px;"">+</div>","null","","fixation","","",""
"memory-trial","84","294290","0.0-18.0-1.20","6207","approach_avoid_sv1","""event"",""trial"",""time""
""focus"",""0"",""1""
""fullscreenenter"",""1"",""5082""
""blur"",""7"",""24386""
""focus"",""7"",""33799""
","""event"",""trial"",""time""
""blur"",""7"",""24386""
","""event"",""trial"",""time""
""focus"",""0"",""1""
""focus"",""7"",""33799""
","""event"",""trial"",""time""
""fullscreenenter"",""1"",""5082""
","
","","","","","","1035","images/truck8.png","","","memory_trial","4","definitely_new",""
"html-keyboard-response","85","294795","0.0-18.0-0.21","6207","approach_avoid_sv1","""event"",""trial"",""time""
""focus"",""0"",""1""
""fullscreenenter"",""1"",""5082""
""blur"",""7"",""24386""
""focus"",""7"",""33799""
","""event"",""trial"",""time""
""blur"",""7"",""24386""
","""event"",""trial"",""time""
""focus"",""0"",""1""
""focus"",""7"",""33799""
","""event"",""trial"",""time""
""fullscreenenter"",""1"",""5082""
","
","","","","","","null","<div style=""font-size:60px;"">+</div>","null","","fixation","","",""
"memory-trial","86","297245","0.0-18.0-1.21","6207","approach_avoid_sv1","""event"",""trial"",""time""
""focus"",""0"",""1""
""fullscreenenter"",""1"",""5082""
""blur"",""7"",""24386""
""focus"",""7"",""33799""
","""event"",""trial"",""time""
""blur"",""7"",""24386""
","""event"",""trial"",""time""
""focus"",""0"",""1""
""focus"",""7"",""33799""
","""event"",""trial"",""time""
""fullscreenenter"",""1"",""5082""
","
","","","","","","1445","images/plane8.png","","","memory_trial","1","definitely_old",""
"html-keyboard-response","87","297765","0.0-18.0-0.22","6207","approach_avoid_sv1","""event"",""trial"",""time""
""focus"",""0"",""1""
""fullscreenenter"",""1"",""5082""
""blur"",""7"",""24386""
""focus"",""7"",""33799""
","""event"",""trial"",""time""
""blur"",""7"",""24386""
","""event"",""trial"",""time""
""focus"",""0"",""1""
""focus"",""7"",""33799""
","""event"",""trial"",""time""
""fullscreenenter"",""1"",""5082""
","
","","","","","","null","<div style=""font-size:60px;"">+</div>","null","","fixation","","",""
"memory-trial","88","300420","0.0-18.0-1.22","6207","approach_avoid_sv1","""event"",""trial"",""time""
""focus"",""0"",""1""
""fullscreenenter"",""1"",""5082""
""blur"",""7"",""24386""
""focus"",""7"",""33799""
","""event"",""trial"",""time""
""blur"",""7"",""24386""
","""event"",""trial"",""time""
""focus"",""0"",""1""
""focus"",""7"",""33799""
","""event"",""trial"",""time""
""fullscreenenter"",""1"",""5082""
","
","","","","","","1643","images/cactus3.png","","","memory_trial","3","maybe_new",""
"html-keyboard-response","89","300929","0.0-18.0-0.23","6207","approach_avoid_sv1","""event"",""trial"",""time""
""focus"",""0"",""1""
""fullscreenenter"",""1"",""5082""
""blur"",""7"",""24386""
""focus"",""7"",""33799""
","""event"",""trial"",""time""
""blur"",""7"",""24386""
","""event"",""trial"",""time""
""focus"",""0"",""1""
""focus"",""7"",""33799""
","""event"",""trial"",""time""
""fullscreenenter"",""1"",""5082""
","
","","","","","","null","<div style=""font-size:60px;"">+</div>","null","","fixation","","",""
"memory-trial","90","304244","0.0-18.0-1.23","6207","approach_avoid_sv1","""event"",""trial"",""time""
""focus"",""0"",""1""
""fullscreenenter"",""1"",""5082""
""blur"",""7"",""24386""
""focus"",""7"",""33799""
","""event"",""trial"",""time""
""blur"",""7"",""24386""
","""event"",""trial"",""time""
""focus"",""0"",""1""
""focus"",""7"",""33799""
","""event"",""trial"",""time""
""fullscreenenter"",""1"",""5082""
","
","","","","","","2293","images/straw8.png","","","memory_trial","3","maybe_new",""
"html-keyboard-response","91","304760","0.0-18.0-0.24","6207","approach_avoid_sv1","""event"",""trial"",""time""
""focus"",""0"",""1""
""fullscreenenter"",""1"",""5082""
""blur"",""7"",""24386""
""focus"",""7"",""33799""
","""event"",""trial"",""time""
""blur"",""7"",""24386""
","""event"",""trial"",""time""
""focus"",""0"",""1""
""focus"",""7"",""33799""
","""event"",""trial"",""time""
""fullscreenenter"",""1"",""5082""
","
","","","","","","null","<div style=""font-size:60px;"">+</div>","null","","fixation","","",""
"memory-trial","92","308385","0.0-18.0-1.24","6207","approach_avoid_sv1","""event"",""trial"",""time""
""focus"",""0"",""1""
""fullscreenenter"",""1"",""5082""
""blur"",""7"",""24386""
""focus"",""7"",""33799""
","""event"",""trial"",""time""
""blur"",""7"",""24386""
","""event"",""trial"",""time""
""focus"",""0"",""1""
""focus"",""7"",""33799""
","""event"",""trial"",""time""
""fullscreenenter"",""1"",""5082""
","
","","","","","","2609","images/apple7.png","","","memory_trial","4","definitely_new",""
"html-keyboard-response","93","308895","0.0-18.0-0.25","6207","approach_avoid_sv1","""event"",""trial"",""time""
""focus"",""0"",""1""
""fullscreenenter"",""1"",""5082""
""blur"",""7"",""24386""
""focus"",""7"",""33799""
","""event"",""trial"",""time""
""blur"",""7"",""24386""
","""event"",""trial"",""time""
""focus"",""0"",""1""
""focus"",""7"",""33799""
","""event"",""trial"",""time""
""fullscreenenter"",""1"",""5082""
","
","","","","","","null","<div style=""font-size:60px;"">+</div>","null","","fixation","","",""
"memory-trial","94","311955","0.0-18.0-1.25","6207","approach_avoid_sv1","""event"",""trial"",""time""
""focus"",""0"",""1""
""fullscreenenter"",""1"",""5082""
""blur"",""7"",""24386""
""focus"",""7"",""33799""
","""event"",""trial"",""time""
""blur"",""7"",""24386""
","""event"",""trial"",""time""
""focus"",""0"",""1""
""focus"",""7"",""33799""
","""event"",""trial"",""time""
""fullscreenenter"",""1"",""5082""
","
","","","","","","2050","images/train2.png","","","memory_trial","4","definitely_new",""
"html-keyboard-response","95","312460","0.0-18.0-0.26","6207","approach_avoid_sv1","""event"",""trial"",""time""
""focus"",""0"",""1""
""fullscreenenter"",""1"",""5082""
""blur"",""7"",""24386""
""focus"",""7"",""33799""
","""event"",""trial"",""time""
""blur"",""7"",""24386""
","""event"",""trial"",""time""
""focus"",""0"",""1""
""focus"",""7"",""33799""
","""event"",""trial"",""time""
""fullscreenenter"",""1"",""5082""
","
","","","","","","null","<div style=""font-size:60px;"">+</div>","null","","fixation","","",""
"memory-trial","96","316540","0.0-18.0-1.26","6207","approach_avoid_sv1","""event"",""trial"",""time""
""focus"",""0"",""1""
""fullscreenenter"",""1"",""5082""
""blur"",""7"",""24386""
""focus"",""7"",""33799""
","""event"",""trial"",""time""
""blur"",""7"",""24386""
","""event"",""trial"",""time""
""focus"",""0"",""1""
""focus"",""7"",""33799""
","""event"",""trial"",""time""
""fullscreenenter"",""1"",""5082""
","
","","","","","","3069","images/rodent1.png","","","memory_trial","2","maybe_old",""
"html-keyboard-response","97","317044","0.0-18.0-0.27","6207","approach_avoid_sv1","""event"",""trial"",""time""
""focus"",""0"",""1""
""fullscreenenter"",""1"",""5082""
""blur"",""7"",""24386""
""focus"",""7"",""33799""
","""event"",""trial"",""time""
""blur"",""7"",""24386""
","""event"",""trial"",""time""
""focus"",""0"",""1""
""focus"",""7"",""33799""
","""event"",""trial"",""time""
""fullscreenenter"",""1"",""5082""
","
","","","","","","null","<div style=""font-size:60px;"">+</div>","null","","fixation","","",""
"memory-trial","98","319234","0.0-18.0-1.27","6207","approach_avoid_sv1","""event"",""trial"",""time""
""focus"",""0"",""1""
""fullscreenenter"",""1"",""5082""
""blur"",""7"",""24386""
""focus"",""7"",""33799""
","""event"",""trial"",""time""
""blur"",""7"",""24386""
","""event"",""trial"",""time""
""focus"",""0"",""1""
""focus"",""7"",""33799""
","""event"",""trial"",""time""
""fullscreenenter"",""1"",""5082""
","
","","","","","","1179","images/bush2.png","","","memory_trial","4","definitely_new",""
"html-keyboard-response","99","319750","0.0-18.0-0.28","6207","approach_avoid_sv1","""event"",""trial"",""time""
""focus"",""0"",""1""
""fullscreenenter"",""1"",""5082""
""blur"",""7"",""24386""
""focus"",""7"",""33799""
","""event"",""trial"",""time""
""blur"",""7"",""24386""
","""event"",""trial"",""time""
""focus"",""0"",""1""
""focus"",""7"",""33799""
","""event"",""trial"",""time""
""fullscreenenter"",""1"",""5082""
","
","","","","","","null","<div style=""font-size:60px;"">+</div>","null","","fixation","","",""
"memory-trial","100","324229","0.0-18.0-1.28","6207","approach_avoid_sv1","""event"",""trial"",""time""
""focus"",""0"",""1""
""fullscreenenter"",""1"",""5082""
""blur"",""7"",""24386""
""focus"",""7"",""33799""
","""event"",""trial"",""time""
""blur"",""7"",""24386""
","""event"",""trial"",""time""
""focus"",""0"",""1""
""focus"",""7"",""33799""
","""event"",""trial"",""time""
""fullscreenenter"",""1"",""5082""
","
","","","","","","3459","images/plane7.png","","","memory_trial","1","definitely_old",""
"html-keyboard-response","101","324749","0.0-18.0-0.29","6207","approach_avoid_sv1","""event"",""trial"",""time""
""focus"",""0"",""1""
""fullscreenenter"",""1"",""5082""
""blur"",""7"",""24386""
""focus"",""7"",""33799""
","""event"",""trial"",""time""
""blur"",""7"",""24386""
","""event"",""trial"",""time""
""focus"",""0"",""1""
""focus"",""7"",""33799""
","""event"",""trial"",""time""
""fullscreenenter"",""1"",""5082""
","
","","","","","","null","<div style=""font-size:60px;"">+</div>","null","","fixation","","",""
"memory-trial","102","327500","0.0-18.0-1.29","6207","approach_avoid_sv1","""event"",""trial"",""time""
""focus"",""0"",""1""
""fullscreenenter"",""1"",""5082""
""blur"",""7"",""24386""
""focus"",""7"",""33799""
","""event"",""trial"",""time""
""blur"",""7"",""24386""
","""event"",""trial"",""time""
""focus"",""0"",""1""
""focus"",""7"",""33799""
","""event"",""trial"",""time""
""fullscreenenter"",""1"",""5082""
","
","","","","","","1747","images/dog4.png","","","memory_trial","4","definitely_new",""
"html-keyboard-response","103","328004","0.0-18.0-0.30","6207","approach_avoid_sv1","""event"",""trial"",""time""
""focus"",""0"",""1""
""fullscreenenter"",""1"",""5082""
""blur"",""7"",""24386""
""focus"",""7"",""33799""
","""event"",""trial"",""time""
""blur"",""7"",""24386""
","""event"",""trial"",""time""
""focus"",""0"",""1""
""focus"",""7"",""33799""
","""event"",""trial"",""time""
""fullscreenenter"",""1"",""5082""
","
","","","","","","null","<div style=""font-size:60px;"">+</div>","null","","fixation","","",""
"memory-trial","104","330020","0.0-18.0-1.30","6207","approach_avoid_sv1","""event"",""trial"",""time""
""focus"",""0"",""1""
""fullscreenenter"",""1"",""5082""
""blur"",""7"",""24386""
""focus"",""7"",""33799""
","""event"",""trial"",""time""
""blur"",""7"",""24386""
","""event"",""trial"",""time""
""focus"",""0"",""1""
""focus"",""7"",""33799""
","""event"",""trial"",""time""
""fullscreenenter"",""1"",""5082""
","
","","","","","","1013","images/horse3.png","","","memory_trial","4","definitely_new",""
"html-keyboard-response","105","330525","0.0-18.0-0.31","6207","approach_avoid_sv1","""event"",""trial"",""time""
""focus"",""0"",""1""
""fullscreenenter"",""1"",""5082""
""blur"",""7"",""24386""
""focus"",""7"",""33799""
","""event"",""trial"",""time""
""blur"",""7"",""24386""
","""event"",""trial"",""time""
""focus"",""0"",""1""
""focus"",""7"",""33799""
","""event"",""trial"",""time""
""fullscreenenter"",""1"",""5082""
","
","","","","","","null","<div style=""font-size:60px;"">+</div>","null","","fixation","","",""
"memory-trial","106","334995","0.0-18.0-1.31","6207","approach_avoid_sv1","""event"",""trial"",""time""
""focus"",""0"",""1""
""fullscreenenter"",""1"",""5082""
""blur"",""7"",""24386""
""focus"",""7"",""33799""
","""event"",""trial"",""time""
""blur"",""7"",""24386""
","""event"",""trial"",""time""
""focus"",""0"",""1""
""focus"",""7"",""33799""
","""event"",""trial"",""time""
""fullscreenenter"",""1"",""5082""
","
","","","","","","3457","images/rodent6.png","","","memory_trial","2","maybe_old",""
"html-keyboard-response","107","335499","0.0-18.0-0.32","6207","approach_avoid_sv1","""event"",""trial"",""time""
""focus"",""0"",""1""
""fullscreenenter"",""1"",""5082""
""blur"",""7"",""24386""
""focus"",""7"",""33799""
","""event"",""trial"",""time""
""blur"",""7"",""24386""
","""event"",""trial"",""time""
""focus"",""0"",""1""
""focus"",""7"",""33799""
","""event"",""trial"",""time""
""fullscreenenter"",""1"",""5082""
","
","","","","","","null","<div style=""font-size:60px;"">+</div>","null","","fixation","","",""
"memory-trial","108","337854","0.0-18.0-1.32","6207","approach_avoid_sv1","""event"",""trial"",""time""
""focus"",""0"",""1""
""fullscreenenter"",""1"",""5082""
""blur"",""7"",""24386""
""focus"",""7"",""33799""
","""event"",""trial"",""time""
""blur"",""7"",""24386""
","""event"",""trial"",""time""
""focus"",""0"",""1""
""focus"",""7"",""33799""
","""event"",""trial"",""time""
""fullscreenenter"",""1"",""5082""
","
","","","","","","1341","images/orange7.png","","","memory_trial","4","definitely_new",""
"html-keyboard-response","109","338377","0.0-18.0-0.33","6207","approach_avoid_sv1","""event"",""trial"",""time""
""focus"",""0"",""1""
""fullscreenenter"",""1"",""5082""
""blur"",""7"",""24386""
""focus"",""7"",""33799""
","""event"",""trial"",""time""
""blur"",""7"",""24386""
","""event"",""trial"",""time""
""focus"",""0"",""1""
""focus"",""7"",""33799""
","""event"",""trial"",""time""
""fullscreenenter"",""1"",""5082""
","
","","","","","","null","<div style=""font-size:60px;"">+</div>","null","","fixation","","",""
"memory-trial","110","341805","0.0-18.0-1.33","6207","approach_avoid_sv1","""event"",""trial"",""time""
""focus"",""0"",""1""
""fullscreenenter"",""1"",""5082""
""blur"",""7"",""24386""
""focus"",""7"",""33799""
","""event"",""trial"",""time""
""blur"",""7"",""24386""
","""event"",""trial"",""time""
""focus"",""0"",""1""
""focus"",""7"",""33799""
","""event"",""trial"",""time""
""fullscreenenter"",""1"",""5082""
","
","","","","","","2423","images/rabbit4.png","","","memory_trial","1","definitely_old",""
"html-keyboard-response","111","342320","0.0-18.0-0.34","6207","approach_avoid_sv1","""event"",""trial"",""time""
""focus"",""0"",""1""
""fullscreenenter"",""1"",""5082""
""blur"",""7"",""24386""
""focus"",""7"",""33799""
","""event"",""trial"",""time""
""blur"",""7"",""24386""
","""event"",""trial"",""time""
""focus"",""0"",""1""
""focus"",""7"",""33799""
","""event"",""trial"",""time""
""fullscreenenter"",""1"",""5082""
","
","","","","","","null","<div style=""font-size:60px;"">+</div>","null","","fixation","","",""
"memory-trial","112","346485","0.0-18.0-1.34","6207","approach_avoid_sv1","""event"",""trial"",""time""
""focus"",""0"",""1""
""fullscreenenter"",""1"",""5082""
""blur"",""7"",""24386""
""focus"",""7"",""33799""
","""event"",""trial"",""time""
""blur"",""7"",""24386""
","""event"",""trial"",""time""
""focus"",""0"",""1""
""focus"",""7"",""33799""
","""event"",""trial"",""time""
""fullscreenenter"",""1"",""5082""
","
","","","","","","3160","images/cow8.png","","","memory_trial","2","maybe_old",""
"html-keyboard-response","113","346994","0.0-18.0-0.35","6207","approach_avoid_sv1","""event"",""trial"",""time""
""focus"",""0"",""1""
""fullscreenenter"",""1"",""5082""
""blur"",""7"",""24386""
""focus"",""7"",""33799""
","""event"",""trial"",""time""
""blur"",""7"",""24386""
","""event"",""trial"",""time""
""focus"",""0"",""1""
""focus"",""7"",""33799""
","""event"",""trial"",""time""
""fullscreenenter"",""1"",""5082""
","
","","","","","","null","<div style=""font-size:60px;"">+</div>","null","","fixation","","",""
"memory-trial","114","349595","0.0-18.0-1.35","6207","approach_avoid_sv1","""event"",""trial"",""time""
""focus"",""0"",""1""
""fullscreenenter"",""1"",""5082""
""blur"",""7"",""24386""
""focus"",""7"",""33799""
","""event"",""trial"",""time""
""blur"",""7"",""24386""
","""event"",""trial"",""time""
""focus"",""0"",""1""
""focus"",""7"",""33799""
","""event"",""trial"",""time""
""fullscreenenter"",""1"",""5082""
","
","","","","","","1588","images/cow2.png","","","memory_trial","1","definitely_old",""
"html-keyboard-response","115","350109","0.0-18.0-0.36","6207","approach_avoid_sv1","""event"",""trial"",""time""
""focus"",""0"",""1""
""fullscreenenter"",""1"",""5082""
""blur"",""7"",""24386""
""focus"",""7"",""33799""
","""event"",""trial"",""time""
""blur"",""7"",""24386""
","""event"",""trial"",""time""
""focus"",""0"",""1""
""focus"",""7"",""33799""
","""event"",""trial"",""time""
""fullscreenenter"",""1"",""5082""
","
","","","","","","null","<div style=""font-size:60px;"">+</div>","null","","fixation","","",""
"memory-trial","116","352460","0.0-18.0-1.36","6207","approach_avoid_sv1","""event"",""trial"",""time""
""focus"",""0"",""1""
""fullscreenenter"",""1"",""5082""
""blur"",""7"",""24386""
""focus"",""7"",""33799""
","""event"",""trial"",""time""
""blur"",""7"",""24386""
","""event"",""trial"",""time""
""focus"",""0"",""1""
""focus"",""7"",""33799""
","""event"",""trial"",""time""
""fullscreenenter"",""1"",""5082""
","
","","","","","","1333","images/cactus7.png","","","memory_trial","3","maybe_new",""
"html-keyboard-response","117","352979","0.0-18.0-0.37","6207","approach_avoid_sv1","""event"",""trial"",""time""
""focus"",""0"",""1""
""fullscreenenter"",""1"",""5082""
""blur"",""7"",""24386""
""focus"",""7"",""33799""
","""event"",""trial"",""time""
""blur"",""7"",""24386""
","""event"",""trial"",""time""
""focus"",""0"",""1""
""focus"",""7"",""33799""
","""event"",""trial"",""time""
""fullscreenenter"",""1"",""5082""
","
","","","","","","null","<div style=""font-size:60px;"">+</div>","null","","fixation","","",""
"memory-trial","118","355479","0.0-18.0-1.37","6207","approach_avoid_sv1","""event"",""trial"",""time""
""focus"",""0"",""1""
""fullscreenenter"",""1"",""5082""
""blur"",""7"",""24386""
""focus"",""7"",""33799""
","""event"",""trial"",""time""
""blur"",""7"",""24386""
","""event"",""trial"",""time""
""focus"",""0"",""1""
""focus"",""7"",""33799""
","""event"",""trial"",""time""
""fullscreenenter"",""1"",""5082""
","
","","","","","","1485","images/horse1.png","","","memory_trial","4","definitely_new",""
"html-keyboard-response","119","355995","0.0-18.0-0.38","6207","approach_avoid_sv1","""event"",""trial"",""time""
""focus"",""0"",""1""
""fullscreenenter"",""1"",""5082""
""blur"",""7"",""24386""
""focus"",""7"",""33799""
","""event"",""trial"",""time""
""blur"",""7"",""24386""
","""event"",""trial"",""time""
""focus"",""0"",""1""
""focus"",""7"",""33799""
","""event"",""trial"",""time""
""fullscreenenter"",""1"",""5082""
","
","","","","","","null","<div style=""font-size:60px;"">+</div>","null","","fixation","","",""
"memory-trial","120","358835","0.0-18.0-1.38","6207","approach_avoid_sv1","""event"",""trial"",""time""
""focus"",""0"",""1""
""fullscreenenter"",""1"",""5082""
""blur"",""7"",""24386""
""focus"",""7"",""33799""
","""event"",""trial"",""time""
""blur"",""7"",""24386""
","""event"",""trial"",""time""
""focus"",""0"",""1""
""focus"",""7"",""33799""
","""event"",""trial"",""time""
""fullscreenenter"",""1"",""5082""
","
","","","","","","1837","images/rabbit5.png","","","memory_trial","3","maybe_new",""
"html-keyboard-response","121","359345","0.0-18.0-0.39","6207","approach_avoid_sv1","""event"",""trial"",""time""
""focus"",""0"",""1""
""fullscreenenter"",""1"",""5082""
""blur"",""7"",""24386""
""focus"",""7"",""33799""
","""event"",""trial"",""time""
""blur"",""7"",""24386""
","""event"",""trial"",""time""
""focus"",""0"",""1""
""focus"",""7"",""33799""
","""event"",""trial"",""time""
""fullscreenenter"",""1"",""5082""
","
","","","","","","null","<div style=""font-size:60px;"">+</div>","null","","fixation","","",""
"memory-trial","122","362335","0.0-18.0-1.39","6207","approach_avoid_sv1","""event"",""trial"",""time""
""focus"",""0"",""1""
""fullscreenenter"",""1"",""5082""
""blur"",""7"",""24386""
""focus"",""7"",""33799""
","""event"",""trial"",""time""
""blur"",""7"",""24386""
","""event"",""trial"",""time""
""focus"",""0"",""1""
""focus"",""7"",""33799""
","""event"",""trial"",""time""
""fullscreenenter"",""1"",""5082""
","
","","","","","","1984","images/goat3.png","","","memory_trial","2","maybe_old",""
"html-keyboard-response","123","362854","0.0-18.0-0.40","6207","approach_avoid_sv1","""event"",""trial"",""time""
""focus"",""0"",""1""
""fullscreenenter"",""1"",""5082""
""blur"",""7"",""24386""
""focus"",""7"",""33799""
","""event"",""trial"",""time""
""blur"",""7"",""24386""
","""event"",""trial"",""time""
""focus"",""0"",""1""
""focus"",""7"",""33799""
","""event"",""trial"",""time""
""fullscreenenter"",""1"",""5082""
","
","","","","","","null","<div style=""font-size:60px;"">+</div>","null","","fixation","","",""
"memory-trial","124","365429","0.0-18.0-1.40","6207","approach_avoid_sv1","""event"",""trial"",""time""
""focus"",""0"",""1""
""fullscreenenter"",""1"",""5082""
""blur"",""7"",""24386""
""focus"",""7"",""33799""
","""event"",""trial"",""time""
""blur"",""7"",""24386""
","""event"",""trial"",""time""
""focus"",""0"",""1""
""focus"",""7"",""33799""
","""event"",""trial"",""time""
""fullscreenenter"",""1"",""5082""
","
","","","","","","1570","images/tree2.png","","","memory_trial","4","definitely_new",""
"html-keyboard-response","125","365940","0.0-18.0-0.41","6207","approach_avoid_sv1","""event"",""trial"",""time""
""focus"",""0"",""1""
""fullscreenenter"",""1"",""5082""
""blur"",""7"",""24386""
""focus"",""7"",""33799""
","""event"",""trial"",""time""
""blur"",""7"",""24386""
","""event"",""trial"",""time""
""focus"",""0"",""1""
""focus"",""7"",""33799""
","""event"",""trial"",""time""
""fullscreenenter"",""1"",""5082""
","
","","","","","","null","<div style=""font-size:60px;"">+</div>","null","","fixation","","",""
"memory-trial","126","368120","0.0-18.0-1.41","6207","approach_avoid_sv1","""event"",""trial"",""time""
""focus"",""0"",""1""
""fullscreenenter"",""1"",""5082""
""blur"",""7"",""24386""
""focus"",""7"",""33799""
","""event"",""trial"",""time""
""blur"",""7"",""24386""
","""event"",""trial"",""time""
""focus"",""0"",""1""
""focus"",""7"",""33799""
","""event"",""trial"",""time""
""fullscreenenter"",""1"",""5082""
","
","","","","","","1173","images/plane1.png","","","memory_trial","4","definitely_new",""
"html-button-response","127","371347","0.0-18.0-2.41-0.41","6207","approach_avoid_sv1","""event"",""trial"",""time""
""focus"",""0"",""1""
""fullscreenenter"",""1"",""5082""
""blur"",""7"",""24386""
""focus"",""7"",""33799""
","""event"",""trial"",""time""
""blur"",""7"",""24386""
","""event"",""trial"",""time""
""focus"",""0"",""1""
""focus"",""7"",""33799""
","""event"",""trial"",""time""
""fullscreenenter"",""1"",""5082""
","
","","","","","","3228","<p> Take a break! </p><p> Click the button to continue. </p>","0","","break","","",""
"html-keyboard-response","128","371855","0.0-18.0-0.42","6207","approach_avoid_sv1","""event"",""trial"",""time""
""focus"",""0"",""1""
""fullscreenenter"",""1"",""5082""
""blur"",""7"",""24386""
""focus"",""7"",""33799""
","""event"",""trial"",""time""
""blur"",""7"",""24386""
","""event"",""trial"",""time""
""focus"",""0"",""1""
""focus"",""7"",""33799""
","""event"",""trial"",""time""
""fullscreenenter"",""1"",""5082""
","
","","","","","","null","<div style=""font-size:60px;"">+</div>","null","","fixation","","",""
"memory-trial","129","374014","0.0-18.0-1.42","6207","approach_avoid_sv1","""event"",""trial"",""time""
""focus"",""0"",""1""
""fullscreenenter"",""1"",""5082""
""blur"",""7"",""24386""
""focus"",""7"",""33799""
","""event"",""trial"",""time""
""blur"",""7"",""24386""
","""event"",""trial"",""time""
""focus"",""0"",""1""
""focus"",""7"",""33799""
","""event"",""trial"",""time""
""fullscreenenter"",""1"",""5082""
","
","","","","","","1153","images/dog3.png","","","memory_trial","4","definitely_new",""
"html-keyboard-response","130","374519","0.0-18.0-0.43","6207","approach_avoid_sv1","""event"",""trial"",""time""
""focus"",""0"",""1""
""fullscreenenter"",""1"",""5082""
""blur"",""7"",""24386""
""focus"",""7"",""33799""
","""event"",""trial"",""time""
""blur"",""7"",""24386""
","""event"",""trial"",""time""
""focus"",""0"",""1""
""focus"",""7"",""33799""
","""event"",""trial"",""time""
""fullscreenenter"",""1"",""5082""
","
","","","","","","null","<div style=""font-size:60px;"">+</div>","null","","fixation","","",""
"memory-trial","131","376355","0.0-18.0-1.43","6207","approach_avoid_sv1","""event"",""trial"",""time""
""focus"",""0"",""1""
""fullscreenenter"",""1"",""5082""
""blur"",""7"",""24386""
""focus"",""7"",""33799""
","""event"",""trial"",""time""
""blur"",""7"",""24386""
","""event"",""trial"",""time""
""focus"",""0"",""1""
""focus"",""7"",""33799""
","""event"",""trial"",""time""
""fullscreenenter"",""1"",""5082""
","
","","","","","","826","images/horse7.png","","","memory_trial","4","definitely_new",""
"html-keyboard-response","132","376864","0.0-18.0-0.44","6207","approach_avoid_sv1","""event"",""trial"",""time""
""focus"",""0"",""1""
""fullscreenenter"",""1"",""5082""
""blur"",""7"",""24386""
""focus"",""7"",""33799""
","""event"",""trial"",""time""
""blur"",""7"",""24386""
","""event"",""trial"",""time""
""focus"",""0"",""1""
""focus"",""7"",""33799""
","""event"",""trial"",""time""
""fullscreenenter"",""1"",""5082""
","
","","","","","","null","<div style=""font-size:60px;"">+</div>","null","","fixation","","",""
"memory-trial","133","378939","0.0-18.0-1.44","6207","approach_avoid_sv1","""event"",""trial"",""time""
""focus"",""0"",""1""
""fullscreenenter"",""1"",""5082""
""blur"",""7"",""24386""
""focus"",""7"",""33799""
","""event"",""trial"",""time""
""blur"",""7"",""24386""
","""event"",""trial"",""time""
""focus"",""0"",""1""
""focus"",""7"",""33799""
","""event"",""trial"",""time""
""fullscreenenter"",""1"",""5082""
","
","","","","","","1072","images/plane4.png","","","memory_trial","4","definitely_new",""
"html-keyboard-response","134","379456","0.0-18.0-0.45","6207","approach_avoid_sv1","""event"",""trial"",""time""
""focus"",""0"",""1""
""fullscreenenter"",""1"",""5082""
""blur"",""7"",""24386""
""focus"",""7"",""33799""
","""event"",""trial"",""time""
""blur"",""7"",""24386""
","""event"",""trial"",""time""
""focus"",""0"",""1""
""focus"",""7"",""33799""
","""event"",""trial"",""time""
""fullscreenenter"",""1"",""5082""
","
","","","","","","null","<div style=""font-size:60px;"">+</div>","null","","fixation","","",""
"memory-trial","135","381229","0.0-18.0-1.45","6207","approach_avoid_sv1","""event"",""trial"",""time""
""focus"",""0"",""1""
""fullscreenenter"",""1"",""5082""
""blur"",""7"",""24386""
""focus"",""7"",""33799""
","""event"",""trial"",""time""
""blur"",""7"",""24386""
","""event"",""trial"",""time""
""focus"",""0"",""1""
""focus"",""7"",""33799""
","""event"",""trial"",""time""
""fullscreenenter"",""1"",""5082""
","
","","","","","","760","images/horse4.png","","","memory_trial","4","definitely_new",""
"html-keyboard-response","136","381735","0.0-18.0-0.46","6207","approach_avoid_sv1","""event"",""trial"",""time""
""focus"",""0"",""1""
""fullscreenenter"",""1"",""5082""
""blur"",""7"",""24386""
""focus"",""7"",""33799""
","""event"",""trial"",""time""
""blur"",""7"",""24386""
","""event"",""trial"",""time""
""focus"",""0"",""1""
""focus"",""7"",""33799""
","""event"",""trial"",""time""
""fullscreenenter"",""1"",""5082""
","
","","","","","","null","<div style=""font-size:60px;"">+</div>","null","","fixation","","",""
"memory-trial","137","383595","0.0-18.0-1.46","6207","approach_avoid_sv1","""event"",""trial"",""time""
""focus"",""0"",""1""
""fullscreenenter"",""1"",""5082""
""blur"",""7"",""24386""
""focus"",""7"",""33799""
","""event"",""trial"",""time""
""blur"",""7"",""24386""
","""event"",""trial"",""time""
""focus"",""0"",""1""
""focus"",""7"",""33799""
","""event"",""trial"",""time""
""fullscreenenter"",""1"",""5082""
","
","","","","","","840","images/sofa8.png","","","memory_trial","4","definitely_new",""
"html-keyboard-response","138","384114","0.0-18.0-0.47","6207","approach_avoid_sv1","""event"",""trial"",""time""
""focus"",""0"",""1""
""fullscreenenter"",""1"",""5082""
""blur"",""7"",""24386""
""focus"",""7"",""33799""
","""event"",""trial"",""time""
""blur"",""7"",""24386""
","""event"",""trial"",""time""
""focus"",""0"",""1""
""focus"",""7"",""33799""
","""event"",""trial"",""time""
""fullscreenenter"",""1"",""5082""
","
","","","","","","null","<div style=""font-size:60px;"">+</div>","null","","fixation","","",""
"memory-trial","139","387669","0.0-18.0-1.47","6207","approach_avoid_sv1","""event"",""trial"",""time""
""focus"",""0"",""1""
""fullscreenenter"",""1"",""5082""
""blur"",""7"",""24386""
""focus"",""7"",""33799""
","""event"",""trial"",""time""
""blur"",""7"",""24386""
","""event"",""trial"",""time""
""focus"",""0"",""1""
""focus"",""7"",""33799""
","""event"",""trial"",""time""
""fullscreenenter"",""1"",""5082""
","
","","","","","","2542","images/cat7.png","","","memory_trial","2","maybe_old",""
"html-keyboard-response","140","388184","0.0-18.0-0.48","6207","approach_avoid_sv1","""event"",""trial"",""time""
""focus"",""0"",""1""
""fullscreenenter"",""1"",""5082""
""blur"",""7"",""24386""
""focus"",""7"",""33799""
","""event"",""trial"",""time""
""blur"",""7"",""24386""
","""event"",""trial"",""time""
""focus"",""0"",""1""
""focus"",""7"",""33799""
","""event"",""trial"",""time""
""fullscreenenter"",""1"",""5082""
","
","","","","","","null","<div style=""font-size:60px;"">+</div>","null","","fixation","","",""
"memory-trial","141","391415","0.0-18.0-1.48","6207","approach_avoid_sv1","""event"",""trial"",""time""
""focus"",""0"",""1""
""fullscreenenter"",""1"",""5082""
""blur"",""7"",""24386""
""focus"",""7"",""33799""
","""event"",""trial"",""time""
""blur"",""7"",""24386""
","""event"",""trial"",""time""
""focus"",""0"",""1""
""focus"",""7"",""33799""
","""event"",""trial"",""time""
""fullscreenenter"",""1"",""5082""
","
","","","","","","2223","images/train4.png","","","memory_trial","1","definitely_old",""
"html-keyboard-response","142","391929","0.0-18.0-0.49","6207","approach_avoid_sv1","""event"",""trial"",""time""
""focus"",""0"",""1""
""fullscreenenter"",""1"",""5082""
""blur"",""7"",""24386""
""focus"",""7"",""33799""
","""event"",""trial"",""time""
""blur"",""7"",""24386""
","""event"",""trial"",""time""
""focus"",""0"",""1""
""focus"",""7"",""33799""
","""event"",""trial"",""time""
""fullscreenenter"",""1"",""5082""
","
","","","","","","null","<div style=""font-size:60px;"">+</div>","null","","fixation","","",""
"memory-trial","143","395100","0.0-18.0-1.49","6207","approach_avoid_sv1","""event"",""trial"",""time""
""focus"",""0"",""1""
""fullscreenenter"",""1"",""5082""
""blur"",""7"",""24386""
""focus"",""7"",""33799""
","""event"",""trial"",""time""
""blur"",""7"",""24386""
","""event"",""trial"",""time""
""focus"",""0"",""1""
""focus"",""7"",""33799""
","""event"",""trial"",""time""
""fullscreenenter"",""1"",""5082""
","
","","","","","","2167","images/flower4.png","","","memory_trial","3","maybe_new",""
"html-keyboard-response","144","395604","0.0-18.0-0.50","6207","approach_avoid_sv1","""event"",""trial"",""time""
""focus"",""0"",""1""
""fullscreenenter"",""1"",""5082""
""blur"",""7"",""24386""
""focus"",""7"",""33799""
","""event"",""trial"",""time""
""blur"",""7"",""24386""
","""event"",""trial"",""time""
""focus"",""0"",""1""
""focus"",""7"",""33799""
","""event"",""trial"",""time""
""fullscreenenter"",""1"",""5082""
","
","","","","","","null","<div style=""font-size:60px;"">+</div>","null","","fixation","","",""
"memory-trial","145","397989","0.0-18.0-1.50","6207","approach_avoid_sv1","""event"",""trial"",""time""
""focus"",""0"",""1""
""fullscreenenter"",""1"",""5082""
""blur"",""7"",""24386""
""focus"",""7"",""33799""
","""event"",""trial"",""time""
""blur"",""7"",""24386""
","""event"",""trial"",""time""
""focus"",""0"",""1""
""focus"",""7"",""33799""
","""event"",""trial"",""time""
""fullscreenenter"",""1"",""5082""
","
","","","","","","1378","images/orange4.png","","","memory_trial","4","definitely_new",""
"html-keyboard-response","146","398504","0.0-18.0-0.51","6207","approach_avoid_sv1","""event"",""trial"",""time""
""focus"",""0"",""1""
""fullscreenenter"",""1"",""5082""
""blur"",""7"",""24386""
""focus"",""7"",""33799""
","""event"",""trial"",""time""
""blur"",""7"",""24386""
","""event"",""trial"",""time""
""focus"",""0"",""1""
""focus"",""7"",""33799""
","""event"",""trial"",""time""
""fullscreenenter"",""1"",""5082""
","
","","","","","","null","<div style=""font-size:60px;"">+</div>","null","","fixation","","",""
"memory-trial","147","401043","0.0-18.0-1.51","6207","approach_avoid_sv1","""event"",""trial"",""time""
""focus"",""0"",""1""
""fullscreenenter"",""1"",""5082""
""blur"",""7"",""24386""
""focus"",""7"",""33799""
","""event"",""trial"",""time""
""blur"",""7"",""24386""
","""event"",""trial"",""time""
""focus"",""0"",""1""
""focus"",""7"",""33799""
","""event"",""trial"",""time""
""fullscreenenter"",""1"",""5082""
","
","","","","","","1535","images/flower6.png","","","memory_trial","2","maybe_old",""
"html-keyboard-response","148","401554","0.0-18.0-0.52","6207","approach_avoid_sv1","""event"",""trial"",""time""
""focus"",""0"",""1""
""fullscreenenter"",""1"",""5082""
""blur"",""7"",""24386""
""focus"",""7"",""33799""
","""event"",""trial"",""time""
""blur"",""7"",""24386""
","""event"",""trial"",""time""
""focus"",""0"",""1""
""focus"",""7"",""33799""
","""event"",""trial"",""time""
""fullscreenenter"",""1"",""5082""
","
","","","","","","null","<div style=""font-size:60px;"">+</div>","null","","fixation","","",""
"memory-trial","149","403924","0.0-18.0-1.52","6207","approach_avoid_sv1","""event"",""trial"",""time""
""focus"",""0"",""1""
""fullscreenenter"",""1"",""5082""
""blur"",""7"",""24386""
""focus"",""7"",""33799""
","""event"",""trial"",""time""
""blur"",""7"",""24386""
","""event"",""trial"",""time""
""focus"",""0"",""1""
""focus"",""7"",""33799""
","""event"",""trial"",""time""
""fullscreenenter"",""1"",""5082""
","
","","","","","","1366","images/sofa7.png","","","memory_trial","4","definitely_new",""
"html-keyboard-response","150","404439","0.0-18.0-0.53","6207","approach_avoid_sv1","""event"",""trial"",""time""
""focus"",""0"",""1""
""fullscreenenter"",""1"",""5082""
""blur"",""7"",""24386""
""focus"",""7"",""33799""
","""event"",""trial"",""time""
""blur"",""7"",""24386""
","""event"",""trial"",""time""
""focus"",""0"",""1""
""focus"",""7"",""33799""
","""event"",""trial"",""time""
""fullscreenenter"",""1"",""5082""
","
","","","","","","null","<div style=""font-size:60px;"">+</div>","null","","fixation","","",""
"memory-trial","151","407859","0.0-18.0-1.53","6207","approach_avoid_sv1","""event"",""trial"",""time""
""focus"",""0"",""1""
""fullscreenenter"",""1"",""5082""
""blur"",""7"",""24386""
""focus"",""7"",""33799""
","""event"",""trial"",""time""
""blur"",""7"",""24386""
","""event"",""trial"",""time""
""focus"",""0"",""1""
""focus"",""7"",""33799""
","""event"",""trial"",""time""
""fullscreenenter"",""1"",""5082""
","
","","","","","","2416","images/rabbit8.png","","","memory_trial","1","definitely_old",""
"html-keyboard-response","152","408379","0.0-18.0-0.54","6207","approach_avoid_sv1","""event"",""trial"",""time""
""focus"",""0"",""1""
""fullscreenenter"",""1"",""5082""
""blur"",""7"",""24386""
""focus"",""7"",""33799""
","""event"",""trial"",""time""
""blur"",""7"",""24386""
","""event"",""trial"",""time""
""focus"",""0"",""1""
""focus"",""7"",""33799""
","""event"",""trial"",""time""
""fullscreenenter"",""1"",""5082""
","
","","","","","","null","<div style=""font-size:60px;"">+</div>","null","","fixation","","",""
"memory-trial","153","410584","0.0-18.0-1.54","6207","approach_avoid_sv1","""event"",""trial"",""time""
""focus"",""0"",""1""
""fullscreenenter"",""1"",""5082""
""blur"",""7"",""24386""
""focus"",""7"",""33799""
","""event"",""trial"",""time""
""blur"",""7"",""24386""
","""event"",""trial"",""time""
""focus"",""0"",""1""
""focus"",""7"",""33799""
","""event"",""trial"",""time""
""fullscreenenter"",""1"",""5082""
","
","","","","","","1188","images/bush7.png","","","memory_trial","4","definitely_new",""
"html-keyboard-response","154","411099","0.0-18.0-0.55","6207","approach_avoid_sv1","""event"",""trial"",""time""
""focus"",""0"",""1""
""fullscreenenter"",""1"",""5082""
""blur"",""7"",""24386""
""focus"",""7"",""33799""
","""event"",""trial"",""time""
""blur"",""7"",""24386""
","""event"",""trial"",""time""
""focus"",""0"",""1""
""focus"",""7"",""33799""
","""event"",""trial"",""time""
""fullscreenenter"",""1"",""5082""
","
","","","","","","null","<div style=""font-size:60px;"">+</div>","null","","fixation","","",""
"memory-trial","155","413409","0.0-18.0-1.55","6207","approach_avoid_sv1","""event"",""trial"",""time""
""focus"",""0"",""1""
""fullscreenenter"",""1"",""5082""
""blur"",""7"",""24386""
""focus"",""7"",""33799""
","""event"",""trial"",""time""
""blur"",""7"",""24386""
","""event"",""trial"",""time""
""focus"",""0"",""1""
""focus"",""7"",""33799""
","""event"",""trial"",""time""
""fullscreenenter"",""1"",""5082""
","
","","","","","","1301","images/boat2.png","","","memory_trial","2","maybe_old",""
"html-keyboard-response","156","413919","0.0-18.0-0.56","6207","approach_avoid_sv1","""event"",""trial"",""time""
""focus"",""0"",""1""
""fullscreenenter"",""1"",""5082""
""blur"",""7"",""24386""
""focus"",""7"",""33799""
","""event"",""trial"",""time""
""blur"",""7"",""24386""
","""event"",""trial"",""time""
""focus"",""0"",""1""
""focus"",""7"",""33799""
","""event"",""trial"",""time""
""fullscreenenter"",""1"",""5082""
","
","","","","","","null","<div style=""font-size:60px;"">+</div>","null","","fixation","","",""
"memory-trial","157","416644","0.0-18.0-1.56","6207","approach_avoid_sv1","""event"",""trial"",""time""
""focus"",""0"",""1""
""fullscreenenter"",""1"",""5082""
""blur"",""7"",""24386""
""focus"",""7"",""33799""
","""event"",""trial"",""time""
""blur"",""7"",""24386""
","""event"",""trial"",""time""
""focus"",""0"",""1""
""focus"",""7"",""33799""
","""event"",""trial"",""time""
""fullscreenenter"",""1"",""5082""
","
","","","","","","1713","images/sofa2.png","","","memory_trial","4","definitely_new",""
"html-keyboard-response","158","417154","0.0-18.0-0.57","6207","approach_avoid_sv1","""event"",""trial"",""time""
""focus"",""0"",""1""
""fullscreenenter"",""1"",""5082""
""blur"",""7"",""24386""
""focus"",""7"",""33799""
","""event"",""trial"",""time""
""blur"",""7"",""24386""
","""event"",""trial"",""time""
""focus"",""0"",""1""
""focus"",""7"",""33799""
","""event"",""trial"",""time""
""fullscreenenter"",""1"",""5082""
","
","","","","","","null","<div style=""font-size:60px;"">+</div>","null","","fixation","","",""
"memory-trial","159","419429","0.0-18.0-1.57","6207","approach_avoid_sv1","""event"",""trial"",""time""
""focus"",""0"",""1""
""fullscreenenter"",""1"",""5082""
""blur"",""7"",""24386""
""focus"",""7"",""33799""
","""event"",""trial"",""time""
""blur"",""7"",""24386""
","""event"",""trial"",""time""
""focus"",""0"",""1""
""focus"",""7"",""33799""
","""event"",""trial"",""time""
""fullscreenenter"",""1"",""5082""
","
","","","","","","1253","images/orange5.png","","","memory_trial","4","definitely_new",""
"html-keyboard-response","160","419939","0.0-18.0-0.58","6207","approach_avoid_sv1","""event"",""trial"",""time""
""focus"",""0"",""1""
""fullscreenenter"",""1"",""5082""
""blur"",""7"",""24386""
""focus"",""7"",""33799""
","""event"",""trial"",""time""
""blur"",""7"",""24386""
","""event"",""trial"",""time""
""focus"",""0"",""1""
""focus"",""7"",""33799""
","""event"",""trial"",""time""
""fullscreenenter"",""1"",""5082""
","
","","","","","","null","<div style=""font-size:60px;"">+</div>","null","","fixation","","",""
"memory-trial","161","422744","0.0-18.0-1.58","6207","approach_avoid_sv1","""event"",""trial"",""time""
""focus"",""0"",""1""
""fullscreenenter"",""1"",""5082""
""blur"",""7"",""24386""
""focus"",""7"",""33799""
","""event"",""trial"",""time""
""blur"",""7"",""24386""
","""event"",""trial"",""time""
""focus"",""0"",""1""
""focus"",""7"",""33799""
","""event"",""trial"",""time""
""fullscreenenter"",""1"",""5082""
","
","","","","","","1795","images/straw3.png","","","memory_trial","3","maybe_new",""
"html-keyboard-response","162","423254","0.0-18.0-0.59","6207","approach_avoid_sv1","""event"",""trial"",""time""
""focus"",""0"",""1""
""fullscreenenter"",""1"",""5082""
""blur"",""7"",""24386""
""focus"",""7"",""33799""
","""event"",""trial"",""time""
""blur"",""7"",""24386""
","""event"",""trial"",""time""
""focus"",""0"",""1""
""focus"",""7"",""33799""
","""event"",""trial"",""time""
""fullscreenenter"",""1"",""5082""
","
","","","","","","null","<div style=""font-size:60px;"">+</div>","null","","fixation","","",""
"memory-trial","163","427329","0.0-18.0-1.59","6207","approach_avoid_sv1","""event"",""trial"",""time""
""focus"",""0"",""1""
""fullscreenenter"",""1"",""5082""
""blur"",""7"",""24386""
""focus"",""7"",""33799""
","""event"",""trial"",""time""
""blur"",""7"",""24386""
","""event"",""trial"",""time""
""focus"",""0"",""1""
""focus"",""7"",""33799""
","""event"",""trial"",""time""
""fullscreenenter"",""1"",""5082""
","
","","","","","","3058","images/train3.png","","","memory_trial","1","definitely_old",""
"html-keyboard-response","164","427833","0.0-18.0-0.60","6207","approach_avoid_sv1","""event"",""trial"",""time""
""focus"",""0"",""1""
""fullscreenenter"",""1"",""5082""
""blur"",""7"",""24386""
""focus"",""7"",""33799""
","""event"",""trial"",""time""
""blur"",""7"",""24386""
","""event"",""trial"",""time""
""focus"",""0"",""1""
""focus"",""7"",""33799""
","""event"",""trial"",""time""
""fullscreenenter"",""1"",""5082""
","
","","","","","","null","<div style=""font-size:60px;"">+</div>","null","","fixation","","",""
"memory-trial","165","430019","0.0-18.0-1.60","6207","approach_avoid_sv1","""event"",""trial"",""time""
""focus"",""0"",""1""
""fullscreenenter"",""1"",""5082""
""blur"",""7"",""24386""
""focus"",""7"",""33799""
","""event"",""trial"",""time""
""blur"",""7"",""24386""
","""event"",""trial"",""time""
""focus"",""0"",""1""
""focus"",""7"",""33799""
","""event"",""trial"",""time""
""fullscreenenter"",""1"",""5082""
","
","","","","","","1181","images/dog1.png","","","memory_trial","4","definitely_new",""
"html-keyboard-response","166","430529","0.0-18.0-0.61","6207","approach_avoid_sv1","""event"",""trial"",""time""
""focus"",""0"",""1""
""fullscreenenter"",""1"",""5082""
""blur"",""7"",""24386""
""focus"",""7"",""33799""
","""event"",""trial"",""time""
""blur"",""7"",""24386""
","""event"",""trial"",""time""
""focus"",""0"",""1""
""focus"",""7"",""33799""
","""event"",""trial"",""time""
""fullscreenenter"",""1"",""5082""
","
","","","","","","null","<div style=""font-size:60px;"">+</div>","null","","fixation","","",""
"memory-trial","167","432389","0.0-18.0-1.61","6207","approach_avoid_sv1","""event"",""trial"",""time""
""focus"",""0"",""1""
""fullscreenenter"",""1"",""5082""
""blur"",""7"",""24386""
""focus"",""7"",""33799""
","""event"",""trial"",""time""
""blur"",""7"",""24386""
","""event"",""trial"",""time""
""focus"",""0"",""1""
""focus"",""7"",""33799""
","""event"",""trial"",""time""
""fullscreenenter"",""1"",""5082""
","
","","","","","","847","images/table3.png","","","memory_trial","4","definitely_new",""
"html-keyboard-response","168","432904","0.0-18.0-0.62","6207","approach_avoid_sv1","""event"",""trial"",""time""
""focus"",""0"",""1""
""fullscreenenter"",""1"",""5082""
""blur"",""7"",""24386""
""focus"",""7"",""33799""
","""event"",""trial"",""time""
""blur"",""7"",""24386""
","""event"",""trial"",""time""
""focus"",""0"",""1""
""focus"",""7"",""33799""
","""event"",""trial"",""time""
""fullscreenenter"",""1"",""5082""
","
","","","","","","null","<div style=""font-size:60px;"">+</div>","null","","fixation","","",""
"memory-trial","169","436525","0.0-18.0-1.62","6207","approach_avoid_sv1","""event"",""trial"",""time""
""focus"",""0"",""1""
""fullscreenenter"",""1"",""5082""
""blur"",""7"",""24386""
""focus"",""7"",""33799""
","""event"",""trial"",""time""
""blur"",""7"",""24386""
","""event"",""trial"",""time""
""focus"",""0"",""1""
""focus"",""7"",""33799""
","""event"",""trial"",""time""
""fullscreenenter"",""1"",""5082""
","
","","","","","","2608","images/cat2.png","","","memory_trial","2","maybe_old",""
"html-keyboard-response","170","437039","0.0-18.0-0.63","6207","approach_avoid_sv1","""event"",""trial"",""time""
""focus"",""0"",""1""
""fullscreenenter"",""1"",""5082""
""blur"",""7"",""24386""
""focus"",""7"",""33799""
","""event"",""trial"",""time""
""blur"",""7"",""24386""
","""event"",""trial"",""time""
""focus"",""0"",""1""
""focus"",""7"",""33799""
","""event"",""trial"",""time""
""fullscreenenter"",""1"",""5082""
","
","","","","","","null","<div style=""font-size:60px;"">+</div>","null","","fixation","","",""
"memory-trial","171","440034","0.0-18.0-1.63","6207","approach_avoid_sv1","""event"",""trial"",""time""
""focus"",""0"",""1""
""fullscreenenter"",""1"",""5082""
""blur"",""7"",""24386""
""focus"",""7"",""33799""
","""event"",""trial"",""time""
""blur"",""7"",""24386""
","""event"",""trial"",""time""
""focus"",""0"",""1""
""focus"",""7"",""33799""
","""event"",""trial"",""time""
""fullscreenenter"",""1"",""5082""
","
","","","","","","1993","images/boat4.png","","","memory_trial","4","definitely_new",""
"html-keyboard-response","172","440549","0.0-18.0-0.64","6207","approach_avoid_sv1","""event"",""trial"",""time""
""focus"",""0"",""1""
""fullscreenenter"",""1"",""5082""
""blur"",""7"",""24386""
""focus"",""7"",""33799""
","""event"",""trial"",""time""
""blur"",""7"",""24386""
","""event"",""trial"",""time""
""focus"",""0"",""1""
""focus"",""7"",""33799""
","""event"",""trial"",""time""
""fullscreenenter"",""1"",""5082""
","
","","","","","","null","<div style=""font-size:60px;"">+</div>","null","","fixation","","",""
"memory-trial","173","442594","0.0-18.0-1.64","6207","approach_avoid_sv1","""event"",""trial"",""time""
""focus"",""0"",""1""
""fullscreenenter"",""1"",""5082""
""blur"",""7"",""24386""
""focus"",""7"",""33799""
","""event"",""trial"",""time""
""blur"",""7"",""24386""
","""event"",""trial"",""time""
""focus"",""0"",""1""
""focus"",""7"",""33799""
","""event"",""trial"",""time""
""fullscreenenter"",""1"",""5082""
","
","","","","","","1034","images/table5.png","","","memory_trial","4","definitely_new",""
"html-keyboard-response","174","443109","0.0-18.0-0.65","6207","approach_avoid_sv1","""event"",""trial"",""time""
""focus"",""0"",""1""
""fullscreenenter"",""1"",""5082""
""blur"",""7"",""24386""
""focus"",""7"",""33799""
","""event"",""trial"",""time""
""blur"",""7"",""24386""
","""event"",""trial"",""time""
""focus"",""0"",""1""
""focus"",""7"",""33799""
","""event"",""trial"",""time""
""fullscreenenter"",""1"",""5082""
","
","","","","","","null","<div style=""font-size:60px;"">+</div>","null","","fixation","","",""
"memory-trial","175","445729","0.0-18.0-1.65","6207","approach_avoid_sv1","""event"",""trial"",""time""
""focus"",""0"",""1""
""fullscreenenter"",""1"",""5082""
""blur"",""7"",""24386""
""focus"",""7"",""33799""
","""event"",""trial"",""time""
""blur"",""7"",""24386""
","""event"",""trial"",""time""
""focus"",""0"",""1""
""focus"",""7"",""33799""
","""event"",""trial"",""time""
""fullscreenenter"",""1"",""5082""
","
","","","","","","1602","images/chair5.png","","","memory_trial","1","definitely_old",""
"html-keyboard-response","176","446234","0.0-18.0-0.66","6207","approach_avoid_sv1","""event"",""trial"",""time""
""focus"",""0"",""1""
""fullscreenenter"",""1"",""5082""
""blur"",""7"",""24386""
""focus"",""7"",""33799""
","""event"",""trial"",""time""
""blur"",""7"",""24386""
","""event"",""trial"",""time""
""focus"",""0"",""1""
""focus"",""7"",""33799""
","""event"",""trial"",""time""
""fullscreenenter"",""1"",""5082""
","
","","","","","","null","<div style=""font-size:60px;"">+</div>","null","","fixation","","",""
"memory-trial","177","448454","0.0-18.0-1.66","6207","approach_avoid_sv1","""event"",""trial"",""time""
""focus"",""0"",""1""
""fullscreenenter"",""1"",""5082""
""blur"",""7"",""24386""
""focus"",""7"",""33799""
","""event"",""trial"",""time""
""blur"",""7"",""24386""
","""event"",""trial"",""time""
""focus"",""0"",""1""
""focus"",""7"",""33799""
","""event"",""trial"",""time""
""fullscreenenter"",""1"",""5082""
","
","","","","","","1213","images/cow1.png","","","memory_trial","4","definitely_new",""
"html-keyboard-response","178","448971","0.0-18.0-0.67","6207","approach_avoid_sv1","""event"",""trial"",""time""
""focus"",""0"",""1""
""fullscreenenter"",""1"",""5082""
""blur"",""7"",""24386""
""focus"",""7"",""33799""
","""event"",""trial"",""time""
""blur"",""7"",""24386""
","""event"",""trial"",""time""
""focus"",""0"",""1""
""focus"",""7"",""33799""
","""event"",""trial"",""time""
""fullscreenenter"",""1"",""5082""
","
","","","","","","null","<div style=""font-size:60px;"">+</div>","null","","fixation","","",""
"memory-trial","179","451394","0.0-18.0-1.67","6207","approach_avoid_sv1","""event"",""trial"",""time""
""focus"",""0"",""1""
""fullscreenenter"",""1"",""5082""
""blur"",""7"",""24386""
""focus"",""7"",""33799""
","""event"",""trial"",""time""
""blur"",""7"",""24386""
","""event"",""trial"",""time""
""focus"",""0"",""1""
""focus"",""7"",""33799""
","""event"",""trial"",""time""
""fullscreenenter"",""1"",""5082""
","
","","","","","","1405","images/bed4.png","","","memory_trial","4","definitely_new",""
"html-keyboard-response","180","451908","0.0-18.0-0.68","6207","approach_avoid_sv1","""event"",""trial"",""time""
""focus"",""0"",""1""
""fullscreenenter"",""1"",""5082""
""blur"",""7"",""24386""
""focus"",""7"",""33799""
","""event"",""trial"",""time""
""blur"",""7"",""24386""
","""event"",""trial"",""time""
""focus"",""0"",""1""
""focus"",""7"",""33799""
","""event"",""trial"",""time""
""fullscreenenter"",""1"",""5082""
","
","","","","","","null","<div style=""font-size:60px;"">+</div>","null","","fixation","","",""
"memory-trial","181","455794","0.0-18.0-1.68","6207","approach_avoid_sv1","""event"",""trial"",""time""
""focus"",""0"",""1""
""fullscreenenter"",""1"",""5082""
""blur"",""7"",""24386""
""focus"",""7"",""33799""
","""event"",""trial"",""time""
""blur"",""7"",""24386""
","""event"",""trial"",""time""
""focus"",""0"",""1""
""focus"",""7"",""33799""
","""event"",""trial"",""time""
""fullscreenenter"",""1"",""5082""
","
","","","","","","2868","images/straw2.png","","","memory_trial","1","definitely_old",""
"html-keyboard-response","182","456298","0.0-18.0-0.69","6207","approach_avoid_sv1","""event"",""trial"",""time""
""focus"",""0"",""1""
""fullscreenenter"",""1"",""5082""
""blur"",""7"",""24386""
""focus"",""7"",""33799""
","""event"",""trial"",""time""
""blur"",""7"",""24386""
","""event"",""trial"",""time""
""focus"",""0"",""1""
""focus"",""7"",""33799""
","""event"",""trial"",""time""
""fullscreenenter"",""1"",""5082""
","
","","","","","","null","<div style=""font-size:60px;"">+</div>","null","","fixation","","",""
"memory-trial","183","458454","0.0-18.0-1.69","6207","approach_avoid_sv1","""event"",""trial"",""time""
""focus"",""0"",""1""
""fullscreenenter"",""1"",""5082""
""blur"",""7"",""24386""
""focus"",""7"",""33799""
","""event"",""trial"",""time""
""blur"",""7"",""24386""
","""event"",""trial"",""time""
""focus"",""0"",""1""
""focus"",""7"",""33799""
","""event"",""trial"",""time""
""fullscreenenter"",""1"",""5082""
","
","","","","","","1150","images/table7.png","","","memory_trial","4","definitely_new",""
"html-keyboard-response","184","458969","0.0-18.0-0.70","6207","approach_avoid_sv1","""event"",""trial"",""time""
""focus"",""0"",""1""
""fullscreenenter"",""1"",""5082""
""blur"",""7"",""24386""
""focus"",""7"",""33799""
","""event"",""trial"",""time""
""blur"",""7"",""24386""
","""event"",""trial"",""time""
""focus"",""0"",""1""
""focus"",""7"",""33799""
","""event"",""trial"",""time""
""fullscreenenter"",""1"",""5082""
","
","","","","","","null","<div style=""font-size:60px;"">+</div>","null","","fixation","","",""
"memory-trial","185","461469","0.0-18.0-1.70","6207","approach_avoid_sv1","""event"",""trial"",""time""
""focus"",""0"",""1""
""fullscreenenter"",""1"",""5082""
""blur"",""7"",""24386""
""focus"",""7"",""33799""
","""event"",""trial"",""time""
""blur"",""7"",""24386""
","""event"",""trial"",""time""
""focus"",""0"",""1""