"trial_type","trial_index","time_elapsed","internal_node_id","subject_id","task_version","interactions","blur_events","focus_events","fullscreenenter_events","fullscreenexit_events","success","timeout","failed_images","failed_audio","failed_video","rt","stimulus","response","button_pressed","task_part","key_press","answer","correct"
"pavlovia","0","10","0.0-0.0","4126","approach_avoid_sv1","""event"",""trial"",""time""
""fullscreenenter"",""1"",""3125""
","
","
","""event"",""trial"",""time""
""fullscreenenter"",""1"",""3125""
","
","","","","","","","","","","","","",""
"fullscreen","1","4113","0.0-1.0","4126","approach_avoid_sv1","""event"",""trial"",""time""
""fullscreenenter"",""1"",""3125""
","
","
","""event"",""trial"",""time""
""fullscreenenter"",""1"",""3125""
","
","true","","","","","","","","","","","",""
"preload","2","8415","0.0-2.0","4126","approach_avoid_sv1","""event"",""trial"",""time""
""fullscreenenter"",""1"",""3125""
","
","
","""event"",""trial"",""time""
""fullscreenenter"",""1"",""3125""
","
","true","false","[]","[]","[]","","","","","","","",""
"preload","3","9195","0.0-3.0","4126","approach_avoid_sv1","""event"",""trial"",""time""
""fullscreenenter"",""1"",""3125""
","
","
","""event"",""trial"",""time""
""fullscreenenter"",""1"",""3125""
","
","true","false","[]","[]","[]","","","","","","","",""
"preload","4","9443","0.0-4.0","4126","approach_avoid_sv1","""event"",""trial"",""time""
""fullscreenenter"",""1"",""3125""
","
","
","""event"",""trial"",""time""
""fullscreenenter"",""1"",""3125""
","
","true","false","[]","[]","[]","","","","","","","",""
"audio-keyboard-response","5","12133","0.0-5.0","4126","approach_avoid_sv1","""event"",""trial"",""time""
""fullscreenenter"",""1"",""3125""
","
","
","""event"",""trial"",""time""
""fullscreenenter"",""1"",""3125""
","
","","","","","","2687.709750566894","audio/beep_loop.wav"," ","","","","",""
"audio-button-response","6","13815","0.0-6.0","4126","approach_avoid_sv1","""event"",""trial"",""time""
""fullscreenenter"",""1"",""3125""
","
","
","""event"",""trial"",""time""
""fullscreenenter"",""1"",""3125""
","
","","","","","","1683","audio/turtle.wav","3","","","","",""
"audio-button-response","7","15981","0.0-7.0","4126","approach_avoid_sv1","""event"",""trial"",""time""
""fullscreenenter"",""1"",""3125""
","
","
","""event"",""trial"",""time""
""fullscreenenter"",""1"",""3125""
","
","","","","","","1161","audio/shark.wav","2","","","","",""
"preload","8","18831","0.0-8.0","4126","approach_avoid_sv1","""event"",""trial"",""time""
""fullscreenenter"",""1"",""3125""
","
","
","""event"",""trial"",""time""
""fullscreenenter"",""1"",""3125""
","
","true","false","[]","[]","[]","","","","","","","",""
"learning-instructions","9","25683","0.0-9.0-0.0","4126","approach_avoid_sv1","""event"",""trial"",""time""
""fullscreenenter"",""1"",""3125""
","
","
","""event"",""trial"",""time""
""fullscreenenter"",""1"",""3125""
","
","","","","","","2376.100000023842","<p> Welcome back! </p><p> Last week, you had to make choices about lots of different items.  </p>","","0","instructions","","",""
"learning-instructions","10","30636","0.0-9.0-0.1","4126","approach_avoid_sv1","""event"",""trial"",""time""
""fullscreenenter"",""1"",""3125""
","
","
","""event"",""trial"",""time""
""fullscreenenter"",""1"",""3125""
","
","","","","","","839.8000000119209","<p> Today, we are going to ask you to try to remember all the items. </p>","","0","instructions","","",""
"learning-instructions","11","154932","0.0-9.0-0.2","4126","approach_avoid_sv1","""event"",""trial"",""time""
""fullscreenenter"",""1"",""3125""
","
","
","""event"",""trial"",""time""
""fullscreenenter"",""1"",""3125""
","
","","","","","","114160.5","<p> On every trial, you will see an image. </p><p> The image may be an OLD image you saw during the games last week or it may be a NEW image that was not presented. </p>","","0","instructions","","",""
"learning-instructions","12","166244","0.0-9.0-0.3","4126","approach_avoid_sv1","""event"",""trial"",""time""
""fullscreenenter"",""1"",""3125""
","
","
","""event"",""trial"",""time""
""fullscreenenter"",""1"",""3125""
","
","","","","","","2700.400000035763","<p> You need to select whether the image is:  </p><p>  'Definitely old', 'Maybe old', 'Maybe new', or 'Definitely new.'  </p><div class=""mem-choice-instructions-grid""><div class=""choice-option"" id=""choice-option-1"" ><img src=""images/definitely_old_1.png"" id=""choice-option-img-1"" class=""choice-option-img"" stage=""1""></div><div class=""choice-option"" id=""choice-option-2"" ><img src=""images/maybe_old_1.png"" id=""choice-option-img-2"" class=""choice-option-img"" stage=""1""></div><div class=""choice-option"" id=""choice-option-3"" ><img src=""images/maybe_new_1.png"" id=""choice-option-img-3"" class=""choice-option-img"" stage=""1""></div><div class=""choice-option"" id=""choice-option-4"" > <img src=""images/definitely_new_1.png"" id=""choice-option-img-4"" class=""choice-option-img"" stage=""1""></div></div>","","0","instructions","","",""
"learning-instructions","13","174096","0.0-9.0-0.4","4126","approach_avoid_sv1","""event"",""trial"",""time""
""fullscreenenter"",""1"",""3125""
","
","
","""event"",""trial"",""time""
""fullscreenenter"",""1"",""3125""
","
","","","","","","1339.5","<p> You should use the 1, 2, 3, and 4 keys to make your responses.  </p><div class=""mem-choice-instructions-grid""><div class=""choice-option"" id=""choice-option-1"" ><img src=""images/definitely_old.png"" id=""choice-option-img-1"" class=""choice-option-img"" stage=""1""></div><div class=""choice-option"" id=""choice-option-2"" ><img src=""images/maybe_old.png"" id=""choice-option-img-2"" class=""choice-option-img"" stage=""1""></div><div class=""choice-option"" id=""choice-option-3"" ><img src=""images/maybe_new.png"" id=""choice-option-img-3"" class=""choice-option-img"" stage=""1""></div><div class=""choice-option"" id=""choice-option-4"" > <img src=""images/definitely_new.png"" id=""choice-option-img-4"" class=""choice-option-img"" stage=""1""></div></div>","","0","instructions","","",""
"learning-instructions","14","181169","0.0-9.0-0.5","4126","approach_avoid_sv1","""event"",""trial"",""time""
""fullscreenenter"",""1"",""3125""
","
","
","""event"",""trial"",""time""
""fullscreenenter"",""1"",""3125""
","
","","","","","","750.5999999642372","<p> You will have 10 seconds to make each response.  </p><p>  Make sure to respond before time runs out! </p>","","0","instructions","","",""
"learning-instructions","15","188732","0.0-9.0-0.6","4126","approach_avoid_sv1","""event"",""trial"",""time""
""fullscreenenter"",""1"",""3125""
","
","
","""event"",""trial"",""time""
""fullscreenenter"",""1"",""3125""
","
","","","","","","488.5","<p> Today, you will see each image ONCE only.  </p><p>  That means none of the images will repeat. </p>","","0","instructions","","",""
"learning-instructions","16","202156","0.0-9.0-0.7","4126","approach_avoid_sv1","""event"",""trial"",""time""
""fullscreenenter"",""1"",""3125""
","
","
","""event"",""trial"",""time""
""fullscreenenter"",""1"",""3125""
","
","","","","","","757.8000000119209","<p> Before you play the real game, it is time to practice. </p><p>  Just like in the real game, some of the images in the practice will be ones you have seen before. </p><p>  Others will be entirely new. </p>","","0","instructions","","",""
"html-button-response","17","205866","0.0-10.0","4126","approach_avoid_sv1","""event"",""trial"",""time""
""fullscreenenter"",""1"",""3125""
","
","
","""event"",""trial"",""time""
""fullscreenenter"",""1"",""3125""
","
","","","","","","3607.599999964237","<p> Ready to practice? </p><p> Remember, use the 1, 2, 3, and 4 keys to make your responses. </p>","0","","instructions","","",""
"html-keyboard-response","18","206472","0.0-11.0-0.0","4126","approach_avoid_sv1","""event"",""trial"",""time""
""fullscreenenter"",""1"",""3125""
","
","
","""event"",""trial"",""time""
""fullscreenenter"",""1"",""3125""
","
","","","","","","null","<div style=""font-size:60px;"">+</div>","null","","fixation","","",""
"memory-trial","19","209548","0.0-11.0-1.0","4126","approach_avoid_sv1","""event"",""trial"",""time""
""fullscreenenter"",""1"",""3125""
","
","
","""event"",""trial"",""time""
""fullscreenenter"",""1"",""3125""
","
","","","","","","2073.900000035763","images/ball1.png","","","practice","1","definitely_old",""
"html-keyboard-response","20","210053","0.0-11.0-0.1","4126","approach_avoid_sv1","""event"",""trial"",""time""
""fullscreenenter"",""1"",""3125""
","
","
","""event"",""trial"",""time""
""fullscreenenter"",""1"",""3125""
","
","","","","","","null","<div style=""font-size:60px;"">+</div>","null","","fixation","","",""
"memory-trial","21","212062","0.0-11.0-1.1","4126","approach_avoid_sv1","""event"",""trial"",""time""
""fullscreenenter"",""1"",""3125""
","
","
","""event"",""trial"",""time""
""fullscreenenter"",""1"",""3125""
","
","","","","","","1005.6999999880791","images/racket3.png","","","practice","1","definitely_old",""
"html-keyboard-response","22","212567","0.0-11.0-0.2","4126","approach_avoid_sv1","""event"",""trial"",""time""
""fullscreenenter"",""1"",""3125""
","
","
","""event"",""trial"",""time""
""fullscreenenter"",""1"",""3125""
","
","","","","","","null","<div style=""font-size:60px;"">+</div>","null","","fixation","","",""
"memory-trial","23","214677","0.0-11.0-1.2","4126","approach_avoid_sv1","""event"",""trial"",""time""
""fullscreenenter"",""1"",""3125""
","
","
","""event"",""trial"",""time""
""fullscreenenter"",""1"",""3125""
","
","","","","","","1107.6000000238419","images/racket5.png","","","practice","1","definitely_old",""
"html-keyboard-response","24","215183","0.0-11.0-0.3","4126","approach_avoid_sv1","""event"",""trial"",""time""
""fullscreenenter"",""1"",""3125""
","
","
","""event"",""trial"",""time""
""fullscreenenter"",""1"",""3125""
","
","","","","","","null","<div style=""font-size:60px;"">+</div>","null","","fixation","","",""
"memory-trial","25","217228","0.0-11.0-1.3","4126","approach_avoid_sv1","""event"",""trial"",""time""
""fullscreenenter"",""1"",""3125""
","
","
","""event"",""trial"",""time""
""fullscreenenter"",""1"",""3125""
","
","","","","","","1042.5","images/racket1.png","","","practice","1","definitely_old",""
"html-keyboard-response","26","217733","0.0-11.0-0.4","4126","approach_avoid_sv1","""event"",""trial"",""time""
""fullscreenenter"",""1"",""3125""
","
","
","""event"",""trial"",""time""
""fullscreenenter"",""1"",""3125""
","
","","","","","","null","<div style=""font-size:60px;"">+</div>","null","","fixation","","",""
"memory-trial","27","219852","0.0-11.0-1.4","4126","approach_avoid_sv1","""event"",""trial"",""time""
""fullscreenenter"",""1"",""3125""
","
","
","""event"",""trial"",""time""
""fullscreenenter"",""1"",""3125""
","
","","","","","","1113.7000000476837","images/racket2.png","","","practice","1","definitely_old",""
"html-keyboard-response","28","220355","0.0-11.0-0.5","4126","approach_avoid_sv1","""event"",""trial"",""time""
""fullscreenenter"",""1"",""3125""
","
","
","""event"",""trial"",""time""
""fullscreenenter"",""1"",""3125""
","
","","","","","","null","<div style=""font-size:60px;"">+</div>","null","","fixation","","",""
"memory-trial","29","222080","0.0-11.0-1.5","4126","approach_avoid_sv1","""event"",""trial"",""time""
""fullscreenenter"",""1"",""3125""
","
","
","""event"",""trial"",""time""
""fullscreenenter"",""1"",""3125""
","
","","","","","","719.3000000119209","images/ball3.png","","","practice","1","definitely_old",""
"html-keyboard-response","30","222585","0.0-11.0-0.6","4126","approach_avoid_sv1","""event"",""trial"",""time""
""fullscreenenter"",""1"",""3125""
","
","
","""event"",""trial"",""time""
""fullscreenenter"",""1"",""3125""
","
","","","","","","null","<div style=""font-size:60px;"">+</div>","null","","fixation","","",""
"memory-trial","31","224665","0.0-11.0-1.6","4126","approach_avoid_sv1","""event"",""trial"",""time""
""fullscreenenter"",""1"",""3125""
","
","
","""event"",""trial"",""time""
""fullscreenenter"",""1"",""3125""
","
","","","","","","1073","images/ball2.png","","","practice","1","definitely_old",""
"html-keyboard-response","32","225170","0.0-11.0-0.7","4126","approach_avoid_sv1","""event"",""trial"",""time""
""fullscreenenter"",""1"",""3125""
","
","
","""event"",""trial"",""time""
""fullscreenenter"",""1"",""3125""
","
","","","","","","null","<div style=""font-size:60px;"">+</div>","null","","fixation","","",""
"memory-trial","33","228479","0.0-11.0-1.7","4126","approach_avoid_sv1","""event"",""trial"",""time""
""fullscreenenter"",""1"",""3125""
","
","
","""event"",""trial"",""time""
""fullscreenenter"",""1"",""3125""
","
","","","","","","2305","images/ball5.png","","","practice","4","definitely_new",""
"learning-instructions","34","236704","0.0-12.0-0.0","4126","approach_avoid_sv1","""event"",""trial"",""time""
""fullscreenenter"",""1"",""3125""
","
","
","""event"",""trial"",""time""
""fullscreenenter"",""1"",""3125""
","
","","","","","","915.5999999642372","<p> Great! You have completed the practice. </p><p> Before you start, we're going to ask you a few questions about how the game works.  </p>","","0","instructions","","",""
"preload","35","239704","0.0-13.0","4126","approach_avoid_sv1","""event"",""trial"",""time""
""fullscreenenter"",""1"",""3125""
","
","
","""event"",""trial"",""time""
""fullscreenenter"",""1"",""3125""
","
","true","false","[]","[]","[]","","","","","","","",""
"comp-q","36","246539","0.0-14.0-0.0","4126","approach_avoid_sv1","""event"",""trial"",""time""
""fullscreenenter"",""1"",""3125""
","
","
","""event"",""trial"",""time""
""fullscreenenter"",""1"",""3125""
","
","","","","","","997.5","<p> <b> True or False? </b> </p><p> In this game, you will only see each image once. </p>","","0","comp_question","","","true"
"comp-q","37","256191","0.0-14.0-1.0","4126","approach_avoid_sv1","""event"",""trial"",""time""
""fullscreenenter"",""1"",""3125""
","
","
","""event"",""trial"",""time""
""fullscreenenter"",""1"",""3125""
","
","","","","","","3317.900000035763","<p> <b> That's right! </b> You will see many different images <i> one time each </i> in this game. </p>","","0","comp_answer","","",""
"comp-q","38","261845","0.0-15.0-0.0","4126","approach_avoid_sv1","""event"",""trial"",""time""
""fullscreenenter"",""1"",""3125""
","
","
","""event"",""trial"",""time""
""fullscreenenter"",""1"",""3125""
","
","","","","","","648.0999999642372","<p> <b> True or False? </b> </p><p> You should use the mouse and click to make your response. </p>","","1","comp_question","","","true"
"comp-q","39","269535","0.0-15.0-1.0","4126","approach_avoid_sv1","""event"",""trial"",""time""
""fullscreenenter"",""1"",""3125""
","
","
","""event"",""trial"",""time""
""fullscreenenter"",""1"",""3125""
","
","","","","","","1191.5","<p><b> That's right! </b> You should use the '1', '2', '3', and '4' keys to make your response. </p>","","0","comp_answer","","",""
"comp-q","40","275788","0.0-16.0-0.0","4126","approach_avoid_sv1","""event"",""trial"",""time""
""fullscreenenter"",""1"",""3125""
","
","
","""event"",""trial"",""time""
""fullscreenenter"",""1"",""3125""
","
","","","","","","577.2999999523163","<p> <b> True or False? </b> </p><p> You will have as much time as you want to make each choice. </p>","","1","comp_question","","","true"
"comp-q","41","281883","0.0-16.0-1.0","4126","approach_avoid_sv1","""event"",""trial"",""time""
""fullscreenenter"",""1"",""3125""
","
","
","""event"",""trial"",""time""
""fullscreenenter"",""1"",""3125""
","
","","","","","","1401.6000000238419","<p> <b> That's right! </b> You will only have 10 seconds to make each choice. </p>","","0","comp_answer","","",""
"learning-instructions","42","291666","0.0-17.0","4126","approach_avoid_sv1","""event"",""trial"",""time""
""fullscreenenter"",""1"",""3125""
","
","
","""event"",""trial"",""time""
""fullscreenenter"",""1"",""3125""
","
","","","","","","1112","<p> Great! You are now ready to begin the game. </p><p> Remember, use the 1, 2, 3, and 4 keys to make your responses. </p>","","0","instructions","","",""
"html-keyboard-response","43","292272","0.0-18.0-0.0","4126","approach_avoid_sv1","""event"",""trial"",""time""
""fullscreenenter"",""1"",""3125""
","
","
","""event"",""trial"",""time""
""fullscreenenter"",""1"",""3125""
","
","","","","","","null","<div style=""font-size:60px;"">+</div>","null","","fixation","","",""
"memory-trial","44","295187","0.0-18.0-1.0","4126","approach_avoid_sv1","""event"",""trial"",""time""
""fullscreenenter"",""1"",""3125""
","
","
","""event"",""trial"",""time""
""fullscreenenter"",""1"",""3125""
","
","","","","","","1912","images/orange2.png","","","memory_trial","4","definitely_new",""
"html-keyboard-response","45","295693","0.0-18.0-0.1","4126","approach_avoid_sv1","""event"",""trial"",""time""
""fullscreenenter"",""1"",""3125""
","
","
","""event"",""trial"",""time""
""fullscreenenter"",""1"",""3125""
","
","","","","","","null","<div style=""font-size:60px;"">+</div>","null","","fixation","","",""
"memory-trial","46","297962","0.0-18.0-1.1","4126","approach_avoid_sv1","""event"",""trial"",""time""
""fullscreenenter"",""1"",""3125""
","
","
","""event"",""trial"",""time""
""fullscreenenter"",""1"",""3125""
","
","","","","","","1264.4000000357628","images/banana4.png","","","memory_trial","4","definitely_new",""
"html-keyboard-response","47","298466","0.0-18.0-0.2","4126","approach_avoid_sv1","""event"",""trial"",""time""
""fullscreenenter"",""1"",""3125""
","
","
","""event"",""trial"",""time""
""fullscreenenter"",""1"",""3125""
","
","","","","","","null","<div style=""font-size:60px;"">+</div>","null","","fixation","","",""
"memory-trial","48","300213","0.0-18.0-1.2","4126","approach_avoid_sv1","""event"",""trial"",""time""
""fullscreenenter"",""1"",""3125""
","
","
","""event"",""trial"",""time""
""fullscreenenter"",""1"",""3125""
","
","","","","","","741.6999999880791","images/bush5.png","","","memory_trial","4","definitely_new",""
"html-keyboard-response","49","300718","0.0-18.0-0.3","4126","approach_avoid_sv1","""event"",""trial"",""time""
""fullscreenenter"",""1"",""3125""
","
","
","""event"",""trial"",""time""
""fullscreenenter"",""1"",""3125""
","
","","","","","","null","<div style=""font-size:60px;"">+</div>","null","","fixation","","",""
"memory-trial","50","302512","0.0-18.0-1.3","4126","approach_avoid_sv1","""event"",""trial"",""time""
""fullscreenenter"",""1"",""3125""
","
","
","""event"",""trial"",""time""
""fullscreenenter"",""1"",""3125""
","
","","","","","","788.9000000357628","images/train5.png","","","memory_trial","4","definitely_new",""
"html-keyboard-response","51","303017","0.0-18.0-0.4","4126","approach_avoid_sv1","""event"",""trial"",""time""
""fullscreenenter"",""1"",""3125""
","
","
","""event"",""trial"",""time""
""fullscreenenter"",""1"",""3125""
","
","","","","","","null","<div style=""font-size:60px;"">+</div>","null","","fixation","","",""
"memory-trial","52","305281","0.0-18.0-1.4","4126","approach_avoid_sv1","""event"",""trial"",""time""
""fullscreenenter"",""1"",""3125""
","
","
","""event"",""trial"",""time""
""fullscreenenter"",""1"",""3125""
","
","","","","","","1260.0999999642372","images/straw2.png","","","memory_trial","1","definitely_old",""
"html-keyboard-response","53","305786","0.0-18.0-0.5","4126","approach_avoid_sv1","""event"",""trial"",""time""
""fullscreenenter"",""1"",""3125""
","
","
","""event"",""trial"",""time""
""fullscreenenter"",""1"",""3125""
","
","","","","","","null","<div style=""font-size:60px;"">+</div>","null","","fixation","","",""
"memory-trial","54","307839","0.0-18.0-1.5","4126","approach_avoid_sv1","""event"",""trial"",""time""
""fullscreenenter"",""1"",""3125""
","
","
","""event"",""trial"",""time""
""fullscreenenter"",""1"",""3125""
","
","","","","","","1047","images/boat8.png","","","memory_trial","4","definitely_new",""
"html-keyboard-response","55","308340","0.0-18.0-0.6","4126","approach_avoid_sv1","""event"",""trial"",""time""
""fullscreenenter"",""1"",""3125""
","
","
","""event"",""trial"",""time""
""fullscreenenter"",""1"",""3125""
","
","","","","","","null","<div style=""font-size:60px;"">+</div>","null","","fixation","","",""
"memory-trial","56","310256","0.0-18.0-1.6","4126","approach_avoid_sv1","""event"",""trial"",""time""
""fullscreenenter"",""1"",""3125""
","
","
","""event"",""trial"",""time""
""fullscreenenter"",""1"",""3125""
","
","","","","","","909.4000000357628","images/horse4.png","","","memory_trial","1","definitely_old",""
"html-keyboard-response","57","310761","0.0-18.0-0.7","4126","approach_avoid_sv1","""event"",""trial"",""time""
""fullscreenenter"",""1"",""3125""
","
","
","""event"",""trial"",""time""
""fullscreenenter"",""1"",""3125""
","
","","","","","","null","<div style=""font-size:60px;"">+</div>","null","","fixation","","",""
"memory-trial","58","313008","0.0-18.0-1.7","4126","approach_avoid_sv1","""event"",""trial"",""time""
""fullscreenenter"",""1"",""3125""
","
","
","""event"",""trial"",""time""
""fullscreenenter"",""1"",""3125""
","
","","","","","","1240","images/flower5.png","","","memory_trial","1","definitely_old",""
"html-keyboard-response","59","313513","0.0-18.0-0.8","4126","approach_avoid_sv1","""event"",""trial"",""time""
""fullscreenenter"",""1"",""3125""
","
","
","""event"",""trial"",""time""
""fullscreenenter"",""1"",""3125""
","
","","","","","","null","<div style=""font-size:60px;"">+</div>","null","","fixation","","",""
"memory-trial","60","315283","0.0-18.0-1.8","4126","approach_avoid_sv1","""event"",""trial"",""time""
""fullscreenenter"",""1"",""3125""
","
","
","""event"",""trial"",""time""
""fullscreenenter"",""1"",""3125""
","
","","","","","","767.1000000238419","images/train7.png","","","memory_trial","1","definitely_old",""
"html-keyboard-response","61","315788","0.0-18.0-0.9","4126","approach_avoid_sv1","""event"",""trial"",""time""
""fullscreenenter"",""1"",""3125""
","
","
","""event"",""trial"",""time""
""fullscreenenter"",""1"",""3125""
","
","","","","","","null","<div style=""font-size:60px;"">+</div>","null","","fixation","","",""
"memory-trial","62","317820","0.0-18.0-1.9","4126","approach_avoid_sv1","""event"",""trial"",""time""
""fullscreenenter"",""1"",""3125""
","
","
","""event"",""trial"",""time""
""fullscreenenter"",""1"",""3125""
","
","","","","","","1027.800000011921","images/truck1.png","","","memory_trial","1","definitely_old",""
"html-keyboard-response","63","318322","0.0-18.0-0.10","4126","approach_avoid_sv1","""event"",""trial"",""time""
""fullscreenenter"",""1"",""3125""
","
","
","""event"",""trial"",""time""
""fullscreenenter"",""1"",""3125""
","
","","","","","","null","<div style=""font-size:60px;"">+</div>","null","","fixation","","",""
"memory-trial","64","320409","0.0-18.0-1.10","4126","approach_avoid_sv1","""event"",""trial"",""time""
""fullscreenenter"",""1"",""3125""
","
","
","""event"",""trial"",""time""
""fullscreenenter"",""1"",""3125""
","
","","","","","","1083.300000011921","images/banana3.png","","","memory_trial","4","definitely_new",""
"html-keyboard-response","65","320912","0.0-18.0-0.11","4126","approach_avoid_sv1","""event"",""trial"",""time""
""fullscreenenter"",""1"",""3125""
","
","
","""event"",""trial"",""time""
""fullscreenenter"",""1"",""3125""
","
","","","","","","null","<div style=""font-size:60px;"">+</div>","null","","fixation","","",""
"memory-trial","66","324306","0.0-18.0-1.11","4126","approach_avoid_sv1","""event"",""trial"",""time""
""fullscreenenter"",""1"",""3125""
","
","
","""event"",""trial"",""time""
""fullscreenenter"",""1"",""3125""
","
","","","","","","2389","images/tree6.png","","","memory_trial","1","definitely_old",""
"html-keyboard-response","67","324811","0.0-18.0-0.12","4126","approach_avoid_sv1","""event"",""trial"",""time""
""fullscreenenter"",""1"",""3125""
","
","
","""event"",""trial"",""time""
""fullscreenenter"",""1"",""3125""
","
","","","","","","null","<div style=""font-size:60px;"">+</div>","null","","fixation","","",""
"memory-trial","68","326726","0.0-18.0-1.12","4126","approach_avoid_sv1","""event"",""trial"",""time""
""fullscreenenter"",""1"",""3125""
","
","
","""event"",""trial"",""time""
""fullscreenenter"",""1"",""3125""
","
","","","","","","909.1999999880791","images/banana6.png","","","memory_trial","4","definitely_new",""
"html-keyboard-response","69","327227","0.0-18.0-0.13","4126","approach_avoid_sv1","""event"",""trial"",""time""
""fullscreenenter"",""1"",""3125""
","
","
","""event"",""trial"",""time""
""fullscreenenter"",""1"",""3125""
","
","","","","","","null","<div style=""font-size:60px;"">+</div>","null","","fixation","","",""
"memory-trial","70","329159","0.0-18.0-1.13","4126","approach_avoid_sv1","""event"",""trial"",""time""
""fullscreenenter"",""1"",""3125""
","
","
","""event"",""trial"",""time""
""fullscreenenter"",""1"",""3125""
","
","","","","","","927.8999999761581","images/goat4.png","","","memory_trial","4","definitely_new",""
"html-keyboard-response","71","329664","0.0-18.0-0.14","4126","approach_avoid_sv1","""event"",""trial"",""time""
""fullscreenenter"",""1"",""3125""
","
","
","""event"",""trial"",""time""
""fullscreenenter"",""1"",""3125""
","
","","","","","","null","<div style=""font-size:60px;"">+</div>","null","","fixation","","",""
"memory-trial","72","331429","0.0-18.0-1.14","4126","approach_avoid_sv1","""event"",""trial"",""time""
""fullscreenenter"",""1"",""3125""
","
","
","""event"",""trial"",""time""
""fullscreenenter"",""1"",""3125""
","
","","","","","","759.4000000357628","images/bush7.png","","","memory_trial","4","definitely_new",""
"html-keyboard-response","73","331934","0.0-18.0-0.15","4126","approach_avoid_sv1","""event"",""trial"",""time""
""fullscreenenter"",""1"",""3125""
","
","
","""event"",""trial"",""time""
""fullscreenenter"",""1"",""3125""
","
","","","","","","null","<div style=""font-size:60px;"">+</div>","null","","fixation","","",""
"memory-trial","74","334221","0.0-18.0-1.15","4126","approach_avoid_sv1","""event"",""trial"",""time""
""fullscreenenter"",""1"",""3125""
","
","
","""event"",""trial"",""time""
""fullscreenenter"",""1"",""3125""
","
","","","","","","1282.6000000238419","images/bed2.png","","","memory_trial","4","definitely_new",""
"html-keyboard-response","75","334726","0.0-18.0-0.16","4126","approach_avoid_sv1","""event"",""trial"",""time""
""fullscreenenter"",""1"",""3125""
","
","
","""event"",""trial"",""time""
""fullscreenenter"",""1"",""3125""
","
","","","","","","null","<div style=""font-size:60px;"">+</div>","null","","fixation","","",""
"memory-trial","76","336682","0.0-18.0-1.16","4126","approach_avoid_sv1","""event"",""trial"",""time""
""fullscreenenter"",""1"",""3125""
","
","
","""event"",""trial"",""time""
""fullscreenenter"",""1"",""3125""
","
","","","","","","951.5","images/goat8.png","","","memory_trial","4","definitely_new",""
"html-keyboard-response","77","337187","0.0-18.0-0.17","4126","approach_avoid_sv1","""event"",""trial"",""time""
""fullscreenenter"",""1"",""3125""
","
","
","""event"",""trial"",""time""
""fullscreenenter"",""1"",""3125""
","
","","","","","","null","<div style=""font-size:60px;"">+</div>","null","","fixation","","",""
"memory-trial","78","339085","0.0-18.0-1.17","4126","approach_avoid_sv1","""event"",""trial"",""time""
""fullscreenenter"",""1"",""3125""
","
","
","""event"",""trial"",""time""
""fullscreenenter"",""1"",""3125""
","
","","","","","","894.3999999761581","images/sheep7.png","","","memory_trial","1","definitely_old",""
"html-keyboard-response","79","339590","0.0-18.0-0.18","4126","approach_avoid_sv1","""event"",""trial"",""time""
""fullscreenenter"",""1"",""3125""
","
","
","""event"",""trial"",""time""
""fullscreenenter"",""1"",""3125""
","
","","","","","","null","<div style=""font-size:60px;"">+</div>","null","","fixation","","",""
"memory-trial","80","341535","0.0-18.0-1.18","4126","approach_avoid_sv1","""event"",""trial"",""time""
""fullscreenenter"",""1"",""3125""
","
","
","""event"",""trial"",""time""
""fullscreenenter"",""1"",""3125""
","
","","","","","","944","images/plane5.png","","","memory_trial","1","definitely_old",""
"html-keyboard-response","81","342040","0.0-18.0-0.19","4126","approach_avoid_sv1","""event"",""trial"",""time""
""fullscreenenter"",""1"",""3125""
","
","
","""event"",""trial"",""time""
""fullscreenenter"",""1"",""3125""
","
","","","","","","null","<div style=""font-size:60px;"">+</div>","null","","fixation","","",""
"memory-trial","82","344386","0.0-18.0-1.19","4126","approach_avoid_sv1","""event"",""trial"",""time""
""fullscreenenter"",""1"",""3125""
","
","
","""event"",""trial"",""time""
""fullscreenenter"",""1"",""3125""
","
","","","","","","1340.0999999642372","images/flower3.png","","","memory_trial","1","definitely_old",""
"html-keyboard-response","83","344891","0.0-18.0-0.20","4126","approach_avoid_sv1","""event"",""trial"",""time""
""fullscreenenter"",""1"",""3125""
","
","
","""event"",""trial"",""time""
""fullscreenenter"",""1"",""3125""
","
","","","","","","null","<div style=""font-size:60px;"">+</div>","null","","fixation","","",""
"memory-trial","84","346670","0.0-18.0-1.20","4126","approach_avoid_sv1","""event"",""trial"",""time""
""fullscreenenter"",""1"",""3125""
","
","
","""event"",""trial"",""time""
""fullscreenenter"",""1"",""3125""
","
","","","","","","773.5999999642372","images/orange5.png","","","memory_trial","1","definitely_old",""
"html-keyboard-response","85","347175","0.0-18.0-0.21","4126","approach_avoid_sv1","""event"",""trial"",""time""
""fullscreenenter"",""1"",""3125""
","
","
","""event"",""trial"",""time""
""fullscreenenter"",""1"",""3125""
","
","","","","","","null","<div style=""font-size:60px;"">+</div>","null","","fixation","","",""
"memory-trial","86","348843","0.0-18.0-1.21","4126","approach_avoid_sv1","""event"",""trial"",""time""
""fullscreenenter"",""1"",""3125""
","
","
","""event"",""trial"",""time""
""fullscreenenter"",""1"",""3125""
","
","","","","","","666","images/rodent1.png","","","memory_trial","1","definitely_old",""
"html-keyboard-response","87","349349","0.0-18.0-0.22","4126","approach_avoid_sv1","""event"",""trial"",""time""
""fullscreenenter"",""1"",""3125""
","
","
","""event"",""trial"",""time""
""fullscreenenter"",""1"",""3125""
","
","","","","","","null","<div style=""font-size:60px;"">+</div>","null","","fixation","","",""
"memory-trial","88","351114","0.0-18.0-1.22","4126","approach_avoid_sv1","""event"",""trial"",""time""
""fullscreenenter"",""1"",""3125""
","
","
","""event"",""trial"",""time""
""fullscreenenter"",""1"",""3125""
","
","","","","","","760.5","images/banana8.png","","","memory_trial","4","definitely_new",""
"html-keyboard-response","89","351619","0.0-18.0-0.23","4126","approach_avoid_sv1","""event"",""trial"",""time""
""fullscreenenter"",""1"",""3125""
","
","
","""event"",""trial"",""time""
""fullscreenenter"",""1"",""3125""
","
","","","","","","null","<div style=""font-size:60px;"">+</div>","null","","fixation","","",""
"memory-trial","90","353355","0.0-18.0-1.23","4126","approach_avoid_sv1","""event"",""trial"",""time""
""fullscreenenter"",""1"",""3125""
","
","
","""event"",""trial"",""time""
""fullscreenenter"",""1"",""3125""
","
","","","","","","732.8999999761581","images/orange6.png","","","memory_trial","1","definitely_old",""
"html-keyboard-response","91","353860","0.0-18.0-0.24","4126","approach_avoid_sv1","""event"",""trial"",""time""
""fullscreenenter"",""1"",""3125""
","
","
","""event"",""trial"",""time""
""fullscreenenter"",""1"",""3125""
","
","","","","","","null","<div style=""font-size:60px;"">+</div>","null","","fixation","","",""
"memory-trial","92","356135","0.0-18.0-1.24","4126","approach_avoid_sv1","""event"",""trial"",""time""
""fullscreenenter"",""1"",""3125""
","
","
","""event"",""trial"",""time""
""fullscreenenter"",""1"",""3125""
","
","","","","","","1271","images/truck7.png","","","memory_trial","1","definitely_old",""
"html-keyboard-response","93","356640","0.0-18.0-0.25","4126","approach_avoid_sv1","""event"",""trial"",""time""
""fullscreenenter"",""1"",""3125""
","
","
","""event"",""trial"",""time""
""fullscreenenter"",""1"",""3125""
","
","","","","","","null","<div style=""font-size:60px;"">+</div>","null","","fixation","","",""
"memory-trial","94","358388","0.0-18.0-1.25","4126","approach_avoid_sv1","""event"",""trial"",""time""
""fullscreenenter"",""1"",""3125""
","
","
","""event"",""trial"",""time""
""fullscreenenter"",""1"",""3125""
","
","","","","","","744","images/horse7.png","","","memory_trial","1","definitely_old",""
"html-keyboard-response","95","358892","0.0-18.0-0.26","4126","approach_avoid_sv1","""event"",""trial"",""time""
""fullscreenenter"",""1"",""3125""
","
","
","""event"",""trial"",""time""
""fullscreenenter"",""1"",""3125""
","
","","","","","","null","<div style=""font-size:60px;"">+</div>","null","","fixation","","",""
"memory-trial","96","360617","0.0-18.0-1.26","4126","approach_avoid_sv1","""event"",""trial"",""time""
""fullscreenenter"",""1"",""3125""
","
","
","""event"",""trial"",""time""
""fullscreenenter"",""1"",""3125""
","
","","","","","","722.5","images/bush1.png","","","memory_trial","4","definitely_new",""
"html-keyboard-response","97","361122","0.0-18.0-0.27","4126","approach_avoid_sv1","""event"",""trial"",""time""
""fullscreenenter"",""1"",""3125""
","
","
","""event"",""trial"",""time""
""fullscreenenter"",""1"",""3125""
","
","","","","","","null","<div style=""font-size:60px;"">+</div>","null","","fixation","","",""
"memory-trial","98","363090","0.0-18.0-1.27","4126","approach_avoid_sv1","""event"",""trial"",""time""
""fullscreenenter"",""1"",""3125""
","
","
","""event"",""trial"",""time""
""fullscreenenter"",""1"",""3125""
","
","","","","","","961.3999999761581","images/cow1.png","","","memory_trial","4","definitely_new",""
"html-keyboard-response","99","363595","0.0-18.0-0.28","4126","approach_avoid_sv1","""event"",""trial"",""time""
""fullscreenenter"",""1"",""3125""
","
","
","""event"",""trial"",""time""
""fullscreenenter"",""1"",""3125""
","
","","","","","","null","<div style=""font-size:60px;"">+</div>","null","","fixation","","",""
"memory-trial","100","365594","0.0-18.0-1.28","4126","approach_avoid_sv1","""event"",""trial"",""time""
""fullscreenenter"",""1"",""3125""
","
","
","""event"",""trial"",""time""
""fullscreenenter"",""1"",""3125""
","
","","","","","","996.1000000238419","images/plane1.png","","","memory_trial","4","definitely_new",""
"html-keyboard-response","101","366097","0.0-18.0-0.29","4126","approach_avoid_sv1","""event"",""trial"",""time""
""fullscreenenter"",""1"",""3125""
","
","
","""event"",""trial"",""time""
""fullscreenenter"",""1"",""3125""
","
","","","","","","null","<div style=""font-size:60px;"">+</div>","null","","fixation","","",""
"memory-trial","102","367844","0.0-18.0-1.29","4126","approach_avoid_sv1","""event"",""trial"",""time""
""fullscreenenter"",""1"",""3125""
","
","
","""event"",""trial"",""time""
""fullscreenenter"",""1"",""3125""
","
","","","","","","743.1000000238419","images/horse6.png","","","memory_trial","1","definitely_old",""
"html-keyboard-response","103","368349","0.0-18.0-0.30","4126","approach_avoid_sv1","""event"",""trial"",""time""
""fullscreenenter"",""1"",""3125""
","
","
","""event"",""trial"",""time""
""fullscreenenter"",""1"",""3125""
","
","","","","","","null","<div style=""font-size:60px;"">+</div>","null","","fixation","","",""
"memory-trial","104","370172","0.0-18.0-1.30","4126","approach_avoid_sv1","""event"",""trial"",""time""
""fullscreenenter"",""1"",""3125""
","
","
","""event"",""trial"",""time""
""fullscreenenter"",""1"",""3125""
","
","","","","","","818.6999999880791","images/boat1.png","","","memory_trial","4","definitely_new",""
"html-keyboard-response","105","370677","0.0-18.0-0.31","4126","approach_avoid_sv1","""event"",""trial"",""time""
""fullscreenenter"",""1"",""3125""
","
","
","""event"",""trial"",""time""
""fullscreenenter"",""1"",""3125""
","
","","","","","","null","<div style=""font-size:60px;"">+</div>","null","","fixation","","",""
"memory-trial","106","372918","0.0-18.0-1.31","4126","approach_avoid_sv1","""event"",""trial"",""time""
""fullscreenenter"",""1"",""3125""
","
","
","""event"",""trial"",""time""
""fullscreenenter"",""1"",""3125""
","
","","","","","","1235.5","images/rodent6.png","","","memory_trial","4","definitely_new",""
"html-keyboard-response","107","373423","0.0-18.0-0.32","4126","approach_avoid_sv1","""event"",""trial"",""time""
""fullscreenenter"",""1"",""3125""
","
","
","""event"",""trial"",""time""
""fullscreenenter"",""1"",""3125""
","
","","","","","","null","<div style=""font-size:60px;"">+</div>","null","","fixation","","",""
"memory-trial","108","375681","0.0-18.0-1.32","4126","approach_avoid_sv1","""event"",""trial"",""time""
""fullscreenenter"",""1"",""3125""
","
","
","""event"",""trial"",""time""
""fullscreenenter"",""1"",""3125""
","
","","","","","","1254.6000000238419","images/orange7.png","","","memory_trial","4","definitely_new",""
"html-keyboard-response","109","376186","0.0-18.0-0.33","4126","approach_avoid_sv1","""event"",""trial"",""time""
""fullscreenenter"",""1"",""3125""
","
","
","""event"",""trial"",""time""
""fullscreenenter"",""1"",""3125""
","
","","","","","","null","<div style=""font-size:60px;"">+</div>","null","","fixation","","",""
"memory-trial","110","377777","0.0-18.0-1.33","4126","approach_avoid_sv1","""event"",""trial"",""time""
""fullscreenenter"",""1"",""3125""
","
","
","""event"",""trial"",""time""
""fullscreenenter"",""1"",""3125""
","
","","","","","","587.6999999880791","images/bush6.png","","","memory_trial","4","definitely_new",""
"html-keyboard-response","111","378282","0.0-18.0-0.34","4126","approach_avoid_sv1","""event"",""trial"",""time""
""fullscreenenter"",""1"",""3125""
","
","
","""event"",""trial"",""time""
""fullscreenenter"",""1"",""3125""
","
","","","","","","null","<div style=""font-size:60px;"">+</div>","null","","fixation","","",""
"memory-trial","112","380405","0.0-18.0-1.34","4126","approach_avoid_sv1","""event"",""trial"",""time""
""fullscreenenter"",""1"",""3125""
","
","
","""event"",""trial"",""time""
""fullscreenenter"",""1"",""3125""
","
","","","","","","1120.300000011921","images/dog8.png","","","memory_trial","1","definitely_old",""
"html-keyboard-response","113","380906","0.0-18.0-0.35","4126","approach_avoid_sv1","""event"",""trial"",""time""
""fullscreenenter"",""1"",""3125""
","
","
","""event"",""trial"",""time""
""fullscreenenter"",""1"",""3125""
","
","","","","","","null","<div style=""font-size:60px;"">+</div>","null","","fixation","","",""
"memory-trial","114","382620","0.0-18.0-1.35","4126","approach_avoid_sv1","""event"",""trial"",""time""
""fullscreenenter"",""1"",""3125""
","
","
","""event"",""trial"",""time""
""fullscreenenter"",""1"",""3125""
","
","","","","","","711","images/chair6.png","","","memory_trial","4","definitely_new",""
"html-keyboard-response","115","383124","0.0-18.0-0.36","4126","approach_avoid_sv1","""event"",""trial"",""time""
""fullscreenenter"",""1"",""3125""
","
","
","""event"",""trial"",""time""
""fullscreenenter"",""1"",""3125""
","
","","","","","","null","<div style=""font-size:60px;"">+</div>","null","","fixation","","",""
"memory-trial","116","384975","0.0-18.0-1.36","4126","approach_avoid_sv1","""event"",""trial"",""time""
""fullscreenenter"",""1"",""3125""
","
","
","""event"",""trial"",""time""
""fullscreenenter"",""1"",""3125""
","
","","","","","","850","images/sofa8.png","","","memory_trial","1","definitely_old",""
"html-keyboard-response","117","385480","0.0-18.0-0.37","4126","approach_avoid_sv1","""event"",""trial"",""time""
""fullscreenenter"",""1"",""3125""
","
","
","""event"",""trial"",""time""
""fullscreenenter"",""1"",""3125""
","
","","","","","","null","<div style=""font-size:60px;"">+</div>","null","","fixation","","",""
"memory-trial","118","387314","0.0-18.0-1.37","4126","approach_avoid_sv1","""event"",""trial"",""time""
""fullscreenenter"",""1"",""3125""
","
","
","""event"",""trial"",""time""
""fullscreenenter"",""1"",""3125""
","
","","","","","","831.3000000119209","images/train2.png","","","memory_trial","1","definitely_old",""
"html-keyboard-response","119","387819","0.0-18.0-0.38","4126","approach_avoid_sv1","""event"",""trial"",""time""
""fullscreenenter"",""1"",""3125""
","
","
","""event"",""trial"",""time""
""fullscreenenter"",""1"",""3125""
","
","","","","","","null","<div style=""font-size:60px;"">+</div>","null","","fixation","","",""
"memory-trial","120","389662","0.0-18.0-1.38","4126","approach_avoid_sv1","""event"",""trial"",""time""
""fullscreenenter"",""1"",""3125""
","
","
","""event"",""trial"",""time""
""fullscreenenter"",""1"",""3125""
","
","","","","","","839.8000000119209","images/rabbit2.png","","","memory_trial","4","definitely_new",""
"html-keyboard-response","121","390165","0.0-18.0-0.39","4126","approach_avoid_sv1","""event"",""trial"",""time""
""fullscreenenter"",""1"",""3125""
","
","
","""event"",""trial"",""time""
""fullscreenenter"",""1"",""3125""
","
","","","","","","null","<div style=""font-size:60px;"">+</div>","null","","fixation","","",""
"memory-trial","122","392038","0.0-18.0-1.39","4126","approach_avoid_sv1","""event"",""trial"",""time""
""fullscreenenter"",""1"",""3125""
","
","
","""event"",""trial"",""time""
""fullscreenenter"",""1"",""3125""
","
","","","","","","866.7000000476837","images/sheep6.png","","","memory_trial","1","definitely_old",""
"html-keyboard-response","123","392540","0.0-18.0-0.40","4126","approach_avoid_sv1","""event"",""trial"",""time""
""fullscreenenter"",""1"",""3125""
","
","
","""event"",""trial"",""time""
""fullscreenenter"",""1"",""3125""
","
","","","","","","null","<div style=""font-size:60px;"">+</div>","null","","fixation","","",""
"memory-trial","124","394321","0.0-18.0-1.40","4126","approach_avoid_sv1","""event"",""trial"",""time""
""fullscreenenter"",""1"",""3125""
","
","
","""event"",""trial"",""time""
""fullscreenenter"",""1"",""3125""
","
","","","","","","775.6999999880791","images/table2.png","","","memory_trial","4","definitely_new",""
"html-keyboard-response","125","394827","0.0-18.0-0.41","4126","approach_avoid_sv1","""event"",""trial"",""time""
""fullscreenenter"",""1"",""3125""
","
","
","""event"",""trial"",""time""
""fullscreenenter"",""1"",""3125""
","
","","","","","","null","<div style=""font-size:60px;"">+</div>","null","","fixation","","",""
"memory-trial","126","396477","0.0-18.0-1.41","4126","approach_avoid_sv1","""event"",""trial"",""time""
""fullscreenenter"",""1"",""3125""
","
","
","""event"",""trial"",""time""
""fullscreenenter"",""1"",""3125""
","
","","","","","","647.6999999880791","images/table1.png","","","memory_trial","4","definitely_new",""
"html-button-response","127","401139","0.0-18.0-2.41-0.41","4126","approach_avoid_sv1","""event"",""trial"",""time""
""fullscreenenter"",""1"",""3125""
","
","
","""event"",""trial"",""time""
""fullscreenenter"",""1"",""3125""
","
","","","","","","4659.699999988079","<p> Take a break! </p><p> Click the button to continue. </p>","0","","break","","",""
"html-keyboard-response","128","401642","0.0-18.0-0.42","4126","approach_avoid_sv1","""event"",""trial"",""time""
""fullscreenenter"",""1"",""3125""
","
","
","""event"",""trial"",""time""
""fullscreenenter"",""1"",""3125""
","
","","","","","","null","<div style=""font-size:60px;"">+</div>","null","","fixation","","",""
"memory-trial","129","403662","0.0-18.0-1.42","4126","approach_avoid_sv1","""event"",""trial"",""time""
""fullscreenenter"",""1"",""3125""
","
","
","""event"",""trial"",""time""
""fullscreenenter"",""1"",""3125""
","
","","","","","","1015.9000000357628","images/cow3.png","","","memory_trial","1","definitely_old",""
"html-keyboard-response","130","404167","0.0-18.0-0.43","4126","approach_avoid_sv1","""event"",""trial"",""time""
""fullscreenenter"",""1"",""3125""
","
","
","""event"",""trial"",""time""
""fullscreenenter"",""1"",""3125""
","
","","","","","","null","<div style=""font-size:60px;"">+</div>","null","","fixation","","",""
"memory-trial","131","406112","0.0-18.0-1.43","4126","approach_avoid_sv1","""event"",""trial"",""time""
""fullscreenenter"",""1"",""3125""
","
","
","""event"",""trial"",""time""
""fullscreenenter"",""1"",""3125""
","
","","","","","","941.6999999880791","images/apple3.png","","","memory_trial","4","definitely_new",""
"html-keyboard-response","132","406617","0.0-18.0-0.44","4126","approach_avoid_sv1","""event"",""trial"",""time""
""fullscreenenter"",""1"",""3125""
","
","
","""event"",""trial"",""time""
""fullscreenenter"",""1"",""3125""
","
","","","","","","null","<div style=""font-size:60px;"">+</div>","null","","fixation","","",""
"memory-trial","133","408335","0.0-18.0-1.44","4126","approach_avoid_sv1","""event"",""trial"",""time""
""fullscreenenter"",""1"",""3125""
","
","
","""event"",""trial"",""time""
""fullscreenenter"",""1"",""3125""
","
","","","","","","711.9000000357628","images/orange3.png","","","memory_trial","1","definitely_old",""
"html-keyboard-response","134","408840","0.0-18.0-0.45","4126","approach_avoid_sv1","""event"",""trial"",""time""
""fullscreenenter"",""1"",""3125""
","
","
","""event"",""trial"",""time""
""fullscreenenter"",""1"",""3125""
","
","","","","","","null","<div style=""font-size:60px;"">+</div>","null","","fixation","","",""
"memory-trial","135","410802","0.0-18.0-1.45","4126","approach_avoid_sv1","""event"",""trial"",""time""
""fullscreenenter"",""1"",""3125""
","
","
","""event"",""trial"",""time""
""fullscreenenter"",""1"",""3125""
","
","","","","","","958.4000000357628","images/cow4.png","","","memory_trial","4","definitely_new",""
"html-keyboard-response","136","411307","0.0-18.0-0.46","4126","approach_avoid_sv1","""event"",""trial"",""time""
""fullscreenenter"",""1"",""3125""
","
","
","""event"",""trial"",""time""
""fullscreenenter"",""1"",""3125""
","
","","","","","","null","<div style=""font-size:60px;"">+</div>","null","","fixation","","",""
"memory-trial","137","413218","0.0-18.0-1.46","4126","approach_avoid_sv1","""event"",""trial"",""time""
""fullscreenenter"",""1"",""3125""
","
","
","""event"",""trial"",""time""
""fullscreenenter"",""1"",""3125""
","
","","","","","","905.8000000119209","images/plane2.png","","","memory_trial","4","definitely_new",""
"html-keyboard-response","138","413722","0.0-18.0-0.47","4126","approach_avoid_sv1","""event"",""trial"",""time""
""fullscreenenter"",""1"",""3125""
","
","
","""event"",""trial"",""time""
""fullscreenenter"",""1"",""3125""
","
","","","","","","null","<div style=""font-size:60px;"">+</div>","null","","fixation","","",""
"memory-trial","139","415661","0.0-18.0-1.47","4126","approach_avoid_sv1","""event"",""trial"",""time""
""fullscreenenter"",""1"",""3125""
","
","
","""event"",""trial"",""time""
""fullscreenenter"",""1"",""3125""
","
","","","","","","935.5","images/cat5.png","","","memory_trial","1","definitely_old",""
"html-keyboard-response","140","416167","0.0-18.0-0.48","4126","approach_avoid_sv1","""event"",""trial"",""time""
""fullscreenenter"",""1"",""3125""
","
","
","""event"",""trial"",""time""
""fullscreenenter"",""1"",""3125""
","
","","","","","","null","<div style=""font-size:60px;"">+</div>","null","","fixation","","",""
"memory-trial","141","418227","0.0-18.0-1.48","4126","approach_avoid_sv1","""event"",""trial"",""time""
""fullscreenenter"",""1"",""3125""
","
","
","""event"",""trial"",""time""
""fullscreenenter"",""1"",""3125""
","
","","","","","","1054.9000000357628","images/cactus5.png","","","memory_trial","4","definitely_new",""
"html-keyboard-response","142","418732","0.0-18.0-0.49","4126","approach_avoid_sv1","""event"",""trial"",""time""
""fullscreenenter"",""1"",""3125""
","
","
","""event"",""trial"",""time""
""fullscreenenter"",""1"",""3125""
","
","","","","","","null","<div style=""font-size:60px;"">+</div>","null","","fixation","","",""
"memory-trial","143","420736","0.0-18.0-1.49","4126","approach_avoid_sv1","""event"",""trial"",""time""
""fullscreenenter"",""1"",""3125""
","
","
","""event"",""trial"",""time""
""fullscreenenter"",""1"",""3125""
","
","","","","","","925.3000000119209","images/dog1.png","","","memory_trial","4","definitely_new",""
"html-keyboard-response","144","421238","0.0-18.0-0.50","4126","approach_avoid_sv1","""event"",""trial"",""time""
""fullscreenenter"",""1"",""3125""
","
","
","""event"",""trial"",""time""
""fullscreenenter"",""1"",""3125""
","
","","","","","","null","<div style=""font-size:60px;"">+</div>","null","","fixation","","",""
"memory-trial","145","422950","0.0-18.0-1.50","4126","approach_avoid_sv1","""event"",""trial"",""time""
""fullscreenenter"",""1"",""3125""
","
","
","""event"",""trial"",""time""
""fullscreenenter"",""1"",""3125""
","
","","","","","","706.9000000357628","images/rodent4.png","","","memory_trial","4","definitely_new",""
"html-keyboard-response","146","423455","0.0-18.0-0.51","4126","approach_avoid_sv1","""event"",""trial"",""time""
""fullscreenenter"",""1"",""3125""
","
","
","""event"",""trial"",""time""
""fullscreenenter"",""1"",""3125""
","
","","","","","","null","<div style=""font-size:60px;"">+</div>","null","","fixation","","",""
"memory-trial","147","425336","0.0-18.0-1.51","4126","approach_avoid_sv1","""event"",""trial"",""time""
""fullscreenenter"",""1"",""3125""
","
","
","""event"",""trial"",""time""
""fullscreenenter"",""1"",""3125""
","
","","","","","","876.4000000357628","images/cat7.png","","","memory_trial","1","definitely_old",""
"html-keyboard-response","148","425841","0.0-18.0-0.52","4126","approach_avoid_sv1","""event"",""trial"",""time""
""fullscreenenter"",""1"",""3125""
","
","
","""event"",""trial"",""time""
""fullscreenenter"",""1"",""3125""
","
","","","","","","null","<div style=""font-size:60px;"">+</div>","null","","fixation","","",""
"memory-trial","149","429256","0.0-18.0-1.52","4126","approach_avoid_sv1","""event"",""trial"",""time""
""fullscreenenter"",""1"",""3125""
","
","
","""event"",""trial"",""time""
""fullscreenenter"",""1"",""3125""
","
","","","","","","2412","images/plane3.png","","","memory_trial","2","maybe_old",""
"html-keyboard-response","150","429760","0.0-18.0-0.53","4126","approach_avoid_sv1","""event"",""trial"",""time""
""fullscreenenter"",""1"",""3125""
","
","
","""event"",""trial"",""time""
""fullscreenenter"",""1"",""3125""
","
","","","","","","null","<div style=""font-size:60px;"">+</div>","null","","fixation","","",""
"memory-trial","151","432030","0.0-18.0-1.53","4126","approach_avoid_sv1","""event"",""trial"",""time""
""fullscreenenter"",""1"",""3125""
","
","
","""event"",""trial"",""time""
""fullscreenenter"",""1"",""3125""
","
","","","","","","1265.1000000238419","images/sofa6.png","","","memory_trial","4","definitely_new",""
"html-keyboard-response","152","432535","0.0-18.0-0.54","4126","approach_avoid_sv1","""event"",""trial"",""time""
""fullscreenenter"",""1"",""3125""
","
","
","""event"",""trial"",""time""
""fullscreenenter"",""1"",""3125""
","
","","","","","","null","<div style=""font-size:60px;"">+</div>","null","","fixation","","",""
"memory-trial","153","434543","0.0-18.0-1.54","4126","approach_avoid_sv1","""event"",""trial"",""time""
""fullscreenenter"",""1"",""3125""
","
","
","""event"",""trial"",""time""
""fullscreenenter"",""1"",""3125""
","
","","","","","","1005.3000000119209","images/apple5.png","","","memory_trial","4","definitely_new",""
"html-keyboard-response","154","435048","0.0-18.0-0.55","4126","approach_avoid_sv1","""event"",""trial"",""time""
""fullscreenenter"",""1"",""3125""
","
","
","""event"",""trial"",""time""
""fullscreenenter"",""1"",""3125""
","
","","","","","","null","<div style=""font-size:60px;"">+</div>","null","","fixation","","",""
"memory-trial","155","437005","0.0-18.0-1.55","4126","approach_avoid_sv1","""event"",""trial"",""time""
""fullscreenenter"",""1"",""3125""
","
","
","""event"",""trial"",""time""
""fullscreenenter"",""1"",""3125""
","
","","","","","","953.3999999761581","images/straw4.png","","","memory_trial","1","definitely_old",""
"html-keyboard-response","156","437509","0.0-18.0-0.56","4126","approach_avoid_sv1","""event"",""trial"",""time""
""fullscreenenter"",""1"",""3125""
","
","
","""event"",""trial"",""time""
""fullscreenenter"",""1"",""3125""
","
","","","","","","null","<div style=""font-size:60px;"">+</div>","null","","fixation","","",""
"memory-trial","157","439304","0.0-18.0-1.56","4126","approach_avoid_sv1","""event"",""trial"",""time""
""fullscreenenter"",""1"",""3125""
","
","
","""event"",""trial"",""time""
""fullscreenenter"",""1"",""3125""
","
","","","","","","788.0999999642372","images/flower8.png","","","memory_trial","1","definitely_old",""
"html-keyboard-response","158","439809","0.0-18.0-0.57","4126","approach_avoid_sv1","""event"",""trial"",""time""
""fullscreenenter"",""1"",""3125""
","
","
","""event"",""trial"",""time""
""fullscreenenter"",""1"",""3125""
","
","","","","","","null","<div style=""font-size:60px;"">+</div>","null","","fixation","","",""
"memory-trial","159","442205","0.0-18.0-1.57","4126","approach_avoid_sv1","""event"",""trial"",""time""
""fullscreenenter"",""1"",""3125""
","
","
","""event"",""trial"",""time""
""fullscreenenter"",""1"",""3125""
","
","","","","","","1394.199999988079","images/banana7.png","","","memory_trial","1","definitely_old",""
"html-keyboard-response","160","442711","0.0-18.0-0.58","4126","approach_avoid_sv1","""event"",""trial"",""time""
""fullscreenenter"",""1"",""3125""
","
","
","""event"",""trial"",""time""
""fullscreenenter"",""1"",""3125""
","
","","","","","","null","<div style=""font-size:60px;"">+</div>","null","","fixation","","",""
"memory-trial","161","444847","0.0-18.0-1.58","4126","approach_avoid_sv1","""event"",""trial"",""time""
""fullscreenenter"",""1"",""3125""
","
","
","""event"",""trial"",""time""
""fullscreenenter"",""1"",""3125""
","
","","","","","","1132.7999999523163","images/goat6.png","","","memory_trial","4","definitely_new",""
"html-keyboard-response","162","445353","0.0-18.0-0.59","4126","approach_avoid_sv1","""event"",""trial"",""time""
""fullscreenenter"",""1"",""3125""
","
","
","""event"",""trial"",""time""
""fullscreenenter"",""1"",""3125""
","
","","","","","","null","<div style=""font-size:60px;"">+</div>","null","","fixation","","",""
"memory-trial","163","447250","0.0-18.0-1.59","4126","approach_avoid_sv1","""event"",""trial"",""time""
""fullscreenenter"",""1"",""3125""
","
","
","""event"",""trial"",""time""
""fullscreenenter"",""1"",""3125""
","
","","","","","","893.3999999761581","images/horse8.png","","","memory_trial","1","definitely_old",""
"html-keyboard-response","164","447756","0.0-18.0-0.60","4126","approach_avoid_sv1","""event"",""trial"",""time""
""fullscreenenter"",""1"",""3125""
","
","
","""event"",""trial"",""time""
""fullscreenenter"",""1"",""3125""
","
","","","","","","null","<div style=""font-size:60px;"">+</div>","null","","fixation","","",""
"memory-trial","165","449435","0.0-18.0-1.60","4126","approach_avoid_sv1","""event"",""trial"",""time""
""fullscreenenter"",""1"",""3125""
","
","
","""event"",""trial"",""time""
""fullscreenenter"",""1"",""3125""
","
","","","","","","676.3999999761581","images/table4.png","","","memory_trial","4","definitely_new",""
"html-keyboard-response","166","449939","0.0-18.0-0.61","4126","approach_avoid_sv1","""event"",""trial"",""time""
""fullscreenenter"",""1"",""3125""
","
","
","""event"",""trial"",""time""
""fullscreenenter"",""1"",""3125""
","
","","","","","","null","<div style=""font-size:60px;"">+</div>","null","","fixation","","",""
"memory-trial","167","452663","0.0-18.0-1.61","4126","approach_avoid_sv1","""event"",""trial"",""time""
""fullscreenenter"",""1"",""3125""
","
","
","""event"",""trial"",""time""
""fullscreenenter"",""1"",""3125""
","
","","","","","","1720.5","images/flower7.png","","","memory_trial","4","definitely_new",""
"html-keyboard-response","168","453166","0.0-18.0-0.62","4126","approach_avoid_sv1","""event"",""trial"",""time""
""fullscreenenter"",""1"",""3125""
","
","
","""event"",""trial"",""time""
""fullscreenenter"",""1"",""3125""
","
","","","","","","null","<div style=""font-size:60px;"">+</div>","null","","fixation","","",""
"memory-trial","169","455384","0.0-18.0-1.62","4126","approach_avoid_sv1","""event"",""trial"",""time""
""fullscreenenter"",""1"",""3125""
","
","
","""event"",""trial"",""time""
""fullscreenenter"",""1"",""3125""
","
","","","","","","1213.5","images/cat6.png","","","memory_trial","4","definitely_new",""
"html-keyboard-response","170","455889","0.0-18.0-0.63","4126","approach_avoid_sv1","""event"",""trial"",""time""
""fullscreenenter"",""1"",""3125""
","
","
","""event"",""trial"",""time""
""fullscreenenter"",""1"",""3125""
","
","","","","","","null","<div style=""font-size:60px;"">+</div>","null","","fixation","","",""
"memory-trial","171","458159","0.0-18.0-1.63","4126","approach_avoid_sv1","""event"",""trial"",""time""
""fullscreenenter"",""1"",""3125""
","
","
","""event"",""trial"",""time""
""fullscreenenter"",""1"",""3125""
","
","","","","","","1264.800000011921","images/train1.png","","","memory_trial","1","definitely_old",""
"html-keyboard-response","172","458664","0.0-18.0-0.64","4126","approach_avoid_sv1","""event"",""trial"",""time""
""fullscreenenter"",""1"",""3125""
","
","
","""event"",""trial"",""time""
""fullscreenenter"",""1"",""3125""
","
","","","","","","null","<div style=""font-size:60px;"">+</div>","null","","fixation","","",""
"memory-trial","173","461067","0.0-18.0-1.64","4126","approach_avoid_sv1","""event"",""trial"",""time""
""fullscreenenter"",""1"",""3125""
","
","
","""event"",""trial"",""time""
""fullscreenenter"",""1"",""3125""
","
","","","","","","1400","images/straw5.png","","","memory_trial","4","definitely_new",""
"html-keyboard-response","174","461572","0.0-18.0-0.65","4126","approach_avoid_sv1","""event"",""trial"",""time""
""fullscreenenter"",""1"",""3125""
","
","
","""event"",""trial"",""time""
""fullscreenenter"",""1"",""3125""
","
","","","","","","null","<div style=""font-size:60px;"">+</div>","null","","fixation","","",""
"memory-trial","175","463627","0.0-18.0-1.65","4126","approach_avoid_sv1","""event"",""trial"",""time""
""fullscreenenter"",""1"",""3125""
","
","
","""event"",""trial"",""time""
""fullscreenenter"",""1"",""3125""
","
","","","","","","1048.5","images/bed3.png","","","memory_trial","4","definitely_new",""
"html-keyboard-response","176","464132","0.0-18.0-0.66","4126","approach_avoid_sv1","""event"",""trial"",""time""
""fullscreenenter"",""1"",""3125""
","
","
","""event"",""trial"",""time""
""fullscreenenter"",""1"",""3125""
","
","","","","","","null","<div style=""font-size:60px;"">+</div>","null","","fixation","","",""
"memory-trial","177","466897","0.0-18.0-1.66","4126","approach_avoid_sv1","""event"",""trial"",""time""
""fullscreenenter"",""1"",""3125""
","
","
","""event"",""trial"",""time""
""fullscreenenter"",""1"",""3125""
","
","","","","","","1762.1000000238419","images/rodent8.png","","","memory_trial","2","maybe_old",""
"html-keyboard-response","178","467400","0.0-18.0-0.67","4126","approach_avoid_sv1","""event"",""trial"",""time""
""fullscreenenter"",""1"",""3125""
","
","
","""event"",""trial"",""time""
""fullscreenenter"",""1"",""3125""
","
","","","","","","null","<div style=""font-size:60px;"">+</div>","null","","fixation","","",""
"memory-trial","179","469734","0.0-18.0-1.67","4126","approach_avoid_sv1","""event"",""trial"",""time""
""fullscreenenter"",""1"",""3125""
","
","
","""event"",""trial"",""time""
""fullscreenenter"",""1"",""3125""
","
","","","","","","1326.699999988079","images/sheep5.png","","","memory_trial","4","definitely_new",""
"html-keyboard-response","180","470239","0.0-18.0-0.68","4126","approach_avoid_sv1","""event"",""trial"",""time""
""fullscreenenter"",""1"",""3125""
","
","
","""event"",""trial"",""time""
""fullscreenenter"",""1"",""3125""
","
","","","","","","null","<div style=""font-size:60px;"">+</div>","null","","fixation","","",""
"memory-trial","181","472857","0.0-18.0-1.68","4126","approach_avoid_sv1","""event"",""trial"",""time""
""fullscreenenter"",""1"",""3125""
","
","
","""event"",""trial"",""time""
""fullscreenenter"",""1"",""3125""
","
","","","","","","1615.1000000238419","images/bed8.png","","","memory_trial","1","definitely_old",""
"html-keyboard-response","182","473362","0.0-18.0-0.69","4126","approach_avoid_sv1","""event"",""trial"",""time""
""fullscreenenter"",""1"",""3125""
","
","
","""event"",""trial"",""time""
""fullscreenenter"",""1"",""3125""
","
","","","","","","null","<div style=""font-size:60px;"">+</div>","null","","fixation","","",""
"memory-trial","183","475168","0.0-18.0-1.69","4126","approach_avoid_sv1","""event"",""trial"",""time""
""fullscreenenter"",""1"",""3125""
","
","
","""event"",""trial"",""time""
""fullscreenenter"",""1"",""3125""
","
","","","","","","802.0999999642372","images/rodent7.png","","","memory_trial","4","definitely_new",""
"html-keyboard-response","184","475673","0.0-18.0-0.70","4126","approach_avoid_sv1","""event"",""trial"",""time""
""fullscreenenter"",""1"",""3125""
","
","
","""event"",""trial"",""time""
""fullscreenenter"",""1"",""3125""
","
","","","","","","null","<div style=""font-size:60px;"">+</div>","null","","fixation","","",""
"memory-trial","185","478041","0.0-18.0-1.70","4126","approach_avoid_sv1","""event"",""trial"",""time""
""fullscreenenter"",""1"",""3125""
","
","
","""event"",""trial"",""time""
""fullscreenenter"",""1"",""3125""
","
","","","","","","1366.4000000357628","images/sofa5.png","","","memory_trial","4","definitely_new",""
"html-keyboard-response","186","478546","0.0-18.0-0.71","4126","approach_avoid_sv1","""event"",""trial"",""time""
""fullscreenenter"",""1"",""3125""
","
","
","""event"",""trial"",""time""
""fullscreenenter"",""1"",""3125""
","
","","","","","","null","<div style=""font-size:60px;"">+</div>","null","","fixation","","",""
"memory-trial","187","480468","0.0-18.0-1.71","4126","approach_avoid_sv1","""event"",""trial"",""time""
""fullscreenenter"",""1"",""3125""
","
","
","""event"",""trial"",""time""
""fullscreenenter"",""1"",""3125""
","
","","","","","","916.3000000119209","images/cow5.png","","","memory_trial","4","definitely_new",""
"html-keyboard-response","188","480973","0.0-18.0-0.72","4126","approach_avoid_sv1","""event"",""trial"",""time""
""fullscreenenter"",""1"",""3125""
","
","
","""event"",""trial"",""time""
""fullscreenenter"",""1"",""3125""
","
","","","","","","null","<div style=""font-size:60px;"">+</div>","null","","fixation","","",""
"memory-trial","189","482668","0.0-18.0-1.72","4126","approach_avoid_sv1","""event"",""trial"",""time""
""fullscreenenter"",""1"",""3125""
","
","
","""event"",""trial"",""time""
""fullscreenenter"",""1"",""3125""
","
","","","","","","690.5","images/rabbit7.png","","","memory_trial","4","definitely_new",""
"html-keyboard-response","190","483173","0.0-18.0-0.73","4126","approach_avoid_sv1","""event"",""trial"",""time""
""fullscreenenter"",""1"",""3125""
","
","
","""event"",""trial"",""time""
""fullscreenenter"",""1"",""3125""
","
","","","","","","null","<div style=""font-size:60px;"">+</div>","null","","fixation","","",""
"memory-trial","191","485008","0.0-18.0-1.73","4126","approach_avoid_sv1","""event"",""trial"",""time""
""fullscreenenter"",""1"",""3125""
","
","
","""event"",""trial"",""time""
""fullscreenenter"",""1"",""3125""
","
","","","","","","829.8999999761581","images/cat8.png","","","memory_trial","4","definitely_new",""
"html-keyboard-response","192","485513","0.0-18.0-0.74","4126","approach_avoid_sv1","""event"",""trial"",""time""
""fullscreenenter"",""1"",""3125""
","
","
","""event"",""trial"",""time""
""fullscreenenter"",""1"",""3125""
","
","","","","","","null","<div style=""font-size:60px;"">+</div>","null","","fixation","","",""
"memory-trial","193","487214","0.0-18.0-1.74","4126","approach_avoid_sv1","""event"",""trial"",""time""
""fullscreenenter"",""1"",""3125""
","
","
","""event"",""trial"",""time""
""fullscreenenter"",""1"",""3125""
","
","","","","","","695.0999999642372","images/dog3.png","","","memory_trial","4","definitely_new",""
"html-keyboard-response","194","487719","0.0-18.0-0.75","4126","approach_avoid_sv1","""event"",""trial"",""time""
""fullscreenenter"",""1"",""3125""
","
","
","""event"",""trial"",""time""
""fullscreenenter"",""1"",""3125""
","
","","","","","","null","<div style=""font-size:60px;"">+</div>","null","","fixation","","",""
"memory-trial","195","490581","0.0-18.0-1.75","4126","approach_avoid_sv1","""event"",""trial"",""time""
""fullscreenenter"",""1"",""3125""
","
","
","""event"",""trial"",""time""
""fullscreenenter"",""1"",""3125""
","
","","","","","","1860.1000000238419","images/tree2.png","","","memory_trial","1","definitely_old",""
"html-keyboard-response","196","491086","0.0-18.0-0.76","4126","approach_avoid_sv1","""event"",""trial"",""time""
""fullscreenenter"",""1"",""3125""
","
","
","""event"",""trial"",""time""
""fullscreenenter"",""1"",""3125""
","
","","","","","","null","<div style=""font-size:60px;"">+</div>","null","","fixation","","",""
"memory-trial","197","493170","0.0-18.0-1.76","4126","approach_avoid_sv1","""event"",""trial"",""time""
""fullscreenenter"",""1"",""3125""
","
","
","""event"",""trial"",""time""
""fullscreenenter"",""1"",""3125""
","
","","","","","","1079.699999988079","images/rodent2.png","","","memory_trial","1","definitely_old",""
"html-keyboard-response","198","493675","0.0-18.0-0.77","4126","approach_avoid_sv1","""event"",""trial"",""time""
""fullscreenenter"",""1"",""3125""
","
","
","""event"",""trial"",""time""
""fullscreenenter"",""1"",""3125""
","
","","","","","","null","<div style=""font-size:60px;"">+</div>","null","","fixation","","",""
"memory-trial","199","495439","0.0-18.0-1.77","4126","approach_avoid_sv1","""event"",""trial"",""time""
""fullscreenenter"",""1"",""3125""
","
","
","""event"",""trial"",""time""
""fullscreenenter"",""1"",""3125""
","
","","","","","","760.1999999880791","images/train6.png","","","memory_trial","1","definitely_old",""
"html-keyboard-response","200","495945","0.0-18.0-0.78","4126","approach_avoid_sv1","""event"",""trial"",""time""
""fullscreenenter"",""1"",""3125""
","
","
","""event"",""trial"",""time""
""fullscreenenter"",""1"",""3125""
","
","","","","","","null","<div style=""font-size:60px;"">+</div>","null","","fixation","","",""
"memory-trial","201","497855","0.0-18.0-1.78","4126","approach_avoid_sv1","""event"",""trial"",""time""
""fullscreenenter"",""1"",""3125""
","
","
","""event"",""trial"",""time""
""fullscreenenter"",""1"",""3125""
","
","","","","","","908.4000000357628","images/chair1.png","","","memory_trial","1","definitely_old",""
"html-keyboard-response","202","498359","0.0-18.0-0.79","4126","approach_avoid_sv1","""event"",""trial"",""time""
""fullscreenenter"",""1"",""3125""
","
","
","""event"",""trial"",""time""
""fullscreenenter"",""1"",""3125""
","
","","","","","","null","<div style=""font-size:60px;"">+</div>","null","","fixation","","",""
"memory-trial","203","500590","0.0-18.0-1.79","4126","approach_avoid_sv1","""event"",""trial"",""time""
""fullscreenenter"",""1"",""3125""
","
","
","""event"",""trial"",""time""
""fullscreenenter"",""1"",""3125""
","
","","","","","","1228.2000000476837","images/chair3.png","","","memory_trial","1","definitely_old",""
"html-keyboard-response","204","501094","0.0-18.0-0.80","4126","approach_avoid_sv1","""event"",""trial"",""time""
""fullscreenenter"",""1"",""3125""
","
","
","""event"",""trial"",""time""
""fullscreenenter"",""1"",""3125""
","
","","","","","","null","<div style=""font-size:60px;"">+</div>","null","","fixation","","",""
"memory-trial","205","503038","0.0-18.0-1.80","4126","approach_avoid_sv1","""event"",""trial"",""time""
""fullscreenenter"",""1"",""3125""
","
","
","""event"",""trial"",""time""
""fullscreenenter"",""1"",""3125""
","
","","","","","","939.6000000238419","images/table6.png","","","memory_trial","4","definitely_new",""
"html-keyboard-response","206","503543","0.0-18.0-0.81","4126","approach_avoid_sv1","""event"",""trial"",""time""
""fullscreenenter"",""1"",""3125""
","
","
","""event"",""trial"",""time""
""fullscreenenter"",""1"",""3125""
","
","","","","","","null","<div style=""font-size:60px;"">+</div>","null","","fixation","","",""
"memory-trial","207","506150","0.0-18.0-1.81","4126","approach_avoid_sv1","""event"",""trial"",""time""
""fullscreenenter"",""1"",""3125""
","
","
","""event"",""trial"",""time""
""fullscreenenter"",""1"",""3125""
","
","","","","","","1600.1000000238419","images/bed6.png","","","memory_trial","4","definitely_new",""
"html-keyboard-response","208","506653","0.0-18.0-0.82","4126","approach_avoid_sv1","""event"",""trial"",""time""
""fullscreenenter"",""1"",""3125""
","
","
","""event"",""trial"",""time""
""fullscreenenter"",""1"",""3125""
","
","","","","","","null","<div style=""font-size:60px;"">+</div>","null","","fixation","","",""
"memory-trial","209","508391","0.0-18.0-1.82","4126","approach_avoid_sv1","""event"",""trial"",""time""
""fullscreenenter"",""1"",""3125""
","
","
","""event"",""trial"",""time""
""fullscreenenter"",""1"",""3125""
","
","","","","","","732.1000000238419","images/straw8.png","","","memory_trial","1","definitely_old",""
"html-keyboard-response","210","508896","0.0-18.0-0.83","4126","approach_avoid_sv1","""event"",""trial"",""time""
""fullscreenenter"",""1"",""3125""
","
","
","""event"",""trial"",""time""
""fullscreenenter"",""1"",""3125""
","
","","","","","","null","<div style=""font-size:60px;"">+</div>","null","","fixation","","",""
"memory-trial","211","510626","0.0-18.0-1.83","4126","approach_avoid_sv1","""event"",""trial"",""time""
""fullscreenenter"",""1"",""3125""
","
","
","""event"",""trial"",""time""
""fullscreenenter"",""1"",""3125""
","
","","","","","","724.9000000357628","images/tree8.png","","","memory_trial","1","definitely_old",""
"html-keyboard-response","212","511131","0.0-18.0-0.84","4126","approach_avoid_sv1","""event"",""trial"",""time""
""fullscreenenter"",""1"",""3125""
","
","
","""event"",""trial"",""time""
""fullscreenenter"",""1"",""3125""
","
","","","","","","null","<div style=""font-size:60px;"">+</div>","null","","fixation","","",""
"memory-trial","213","513981","0.0-18.0-1.84","4126","approach_avoid_sv1","""event"",""trial"",""time""
""fullscreenenter"",""1"",""3125""
","
","
","""event"",""trial"",""time""
""fullscreenenter"",""1"",""3125""
","
","","","","","","1845.7000000476837","images/flower2.png","","","memory_trial","2","maybe_old",""
"html-keyboard-response","214","514486","0.0-18.0-0.85","4126","approach_avoid_sv1","""event"",""trial"",""time""
""fullscreenenter"",""1"",""3125""
","
","
","""event"",""trial"",""time""
""fullscreenenter"",""1"",""3125""
","
","","","","","","null","<div style=""font-size:60px;"">+</div>","null","","fixation","","",""
"memory-trial","215","516802","0.0-18.0-1.85","4126","approach_avoid_sv1","""event"",""trial"",""time""
""fullscreenenter"",""1"",""3125""
","
","
","""event"",""trial"",""time""
""fullscreenenter"",""1"",""3125""
","
","","","","","","1310.1000000238419","images/cow6.png","","","memory_trial","1","definitely_old",""
"html-keyboard-response","216","517307","0.0-18.0-0.86","4126","approach_avoid_sv1","""event"",""trial"",""time""
""fullscreenenter"",""1"",""3125""
","
","
","""event"",""trial"",""time""
""fullscreenenter"",""1"",""3125""
","
","","","","","","null","<div style=""font-size:60px;"">+</div>","null","","fixation","","",""
"memory-trial","217","519235","0.0-18.0-1.86","4126","approach_avoid_sv1","""event"",""trial"",""time""
""fullscreenenter"",""1"",""3125""
","
","
","""event"",""trial"",""time""
""fullscreenenter"",""1"",""3125""
","
","","","","","","924","images/cactus6.png","","","memory_trial","4","definitely_new",""
"html-keyboard-response","218","519740","0.0-18.0-0.87","4126","approach_avoid_sv1","""event"",""trial"",""time""
""fullscreenenter"",""1"",""3125""
","
","
","""event"",""trial"",""time""
""fullscreenenter"",""1"",""3125""
","
","","","","","","null","<div style=""font-size:60px;"">+</div>","null","","fixation","","",""
"memory-trial","219","522074","0.0-18.0-1.87","4126","approach_avoid_sv1","""event"",""trial"",""time""
""fullscreenenter"",""1"",""3125""
","
","
","""event"",""trial"",""time""
""fullscreenenter"",""1"",""3125""
","
","","","","","","1328.199999988079","images/straw6.png","","","memory_trial","4","definitely_new",""
"html-keyboard-response","220","522578","0.0-18.0-0.88","4126","approach_avoid_sv1","""event"",""trial"",""time""
""fullscreenenter"",""1"",""3125""
","
","
","""event"",""trial"",""time""
""fullscreenenter"",""1"",""3125""
","
","","","","","","null","<div style=""font-size:60px;"">+</div>","null","","fixation","","",""
"memory-trial","221","525324","0.0-18.0-1.88","4126","approach_avoid_sv1","""event"",""trial"",""time""
""fullscreenenter"",""1"",""3125""
","
","
","""event"",""trial"",""time""
""fullscreenenter"",""1"",""3125""
","
","","","","","","1740.7999999523163","images/orange8.png","","","memory_trial","2","maybe_old",""
"html-keyboard-response","222","525829","0.0-18.0-0.89","4126","approach_avoid_sv1","""event"",""trial"",""time""
""fullscreenenter"",""1"",""3125""
","
","
","""event"",""trial"",""time""
""fullscreenenter"",""1"",""3125""
","
","","","","","","null","<div style=""font-size:60px;"">+</div>","null","","fixation","","",""
"memory-trial","223","528390","0.0-18.0-1.89","4126","approach_avoid_sv1","""event"",""trial"",""time""
""fullscreenenter"",""1"",""3125""
","
","
","""event"",""trial"",""time""
""fullscreenenter"",""1"",""3125""
","
","","","","","","1554.6000000238419","images/sheep3.png","","","memory_trial","4","definitely_new",""
"html-keyboard-response","224","528895","0.0-18.0-0.90","4126","approach_avoid_sv1","""event"",""trial"",""time""
""fullscreenenter"",""1"",""3125""
","
","
","""event"",""trial"",""time""
""fullscreenenter"",""1"",""3125""
","
","","","","","","null","<div style=""font-size:60px;"">+</div>","null","","fixation","","",""
"memory-trial","225","531636","0.0-18.0-1.90","4126","approach_avoid_sv1","""event"",""trial"",""time""
""fullscreenenter"",""1"",""3125""
","
","
","""event"",""trial"",""time""
""fullscreenenter"",""1"",""3125""
","
","","","","","","1737.5","images/cow7.png","","","memory_trial","2","maybe_old",""
"html-keyboard-response","226","532140","0.0-18.0-0.91","4126","approach_avoid_sv1","""event"",""trial"",""time""
""fullscreenenter"",""1"",""3125""
","
","
","""event"",""trial"",""time""
""fullscreenenter"",""1"",""3125""
","
","","","","","","null","<div style=""font-size:60px;"">+</div>","null","","fixation","","",""
"memory-trial","227","534364","0.0-18.0-1.91","4126","approach_avoid_sv1","""event"",""trial"",""time""
""fullscreenenter"",""1"",""3125""
","
","
","""event"",""trial"",""time""
""fullscreenenter"",""1"",""3125""
","
","","","","","","1222.300000011921","images/cow8.png","","","memory_trial","4","definitely_new",""
"html-button-response","228","541957","0.0-18.0-2.91-0.91","4126","approach_avoid_sv1","""event"",""trial"",""time""
""fullscreenenter"",""1"",""3125""
","
","
","""event"",""trial"",""time""
""fullscreenenter"",""1"",""3125""
","
","","","","","","7592.399999976158","<p> Take a break! </p><p> Click the button to continue. </p>","0","","break","","",""
"html-keyboard-response","229","542461","0.0-18.0-0.92","4126","approach_avoid_sv1","""event"",""trial"",""time""
""fullscreenenter"",""1"",""3125""
","
","
","""event"",""trial"",""time""
""fullscreenenter"",""1"",""3125""
","
","","","","","","null","<div style=""font-size:60px;"">+</div>","null","","fixation","","",""
"memory-trial","230","544749","0.0-18.0-1.92","4126","approach_avoid_sv1","""event"",""trial"",""time""
""fullscreenenter"",""1"",""3125""
","
","
","""event"",""trial"",""time""
""fullscreenenter"",""1"",""3125""
","
","","","","","","1280.8999999761581","images/tree5.png","","","memory_trial","4","definitely_new",""
"html-keyboard-response","231","545254","0.0-18.0-0.93","4126","approach_avoid_sv1","""event"",""trial"",""time""
""fullscreenenter"",""1"",""3125""
","
","
","""event"",""trial"",""time""
""fullscreenenter"",""1"",""3125""
","
","","","","","","null","<div style=""font-size:60px;"">+</div>","null","","fixation","","",""
"memory-trial","232","547120","0.0-18.0-1.93","4126","approach_avoid_sv1","""event"",""trial"",""time""
""fullscreenenter"",""1"",""3125""
","
","
","""event"",""trial"",""time""
""fullscreenenter"",""1"",""3125""
","
","","","","","","862.3999999761581","images/tree3.png","","","memory_trial","4","definitely_new",""
"html-keyboard-response","233","547622","0.0-18.0-0.94","4126","approach_avoid_sv1","""event"",""trial"",""time""
""fullscreenenter"",""1"",""3125""
","
","
","""event"",""trial"",""time""
""fullscreenenter"",""1"",""3125""
","
","","","","","","null","<div style=""font-size:60px;"">+</div>","null","","fixation","","",""
"memory-trial","234","549317","0.0-18.0-1.94","4126","approach_avoid_sv1","""event"",""trial"",""time""
""fullscreenenter"",""1"",""3125""
","
","
","""event"",""trial"",""time""
""fullscreenenter"",""1"",""3125""
","
","","","","","","688.5999999642372","images/truck3.png","","","memory_trial","4","definitely_new",""
"html-keyboard-response","235","549822","0.0-18.0-0.95","4126","approach_avoid_sv1","""event"",""trial"",""time""
""fullscreenenter"",""1"",""3125""
","
","
","""event"",""trial"",""time""
""fullscreenenter"",""1"",""3125""
","
","","","","","","null","<div style=""font-size:60px;"">+</div>","null","","fixation","","",""
"memory-trial","236","552291","0.0-18.0-1.95","4126","approach_avoid_sv1","""event"",""trial"",""time""
""fullscreenenter"",""1"",""3125""
","
","
","""event"",""trial"",""time""
""fullscreenenter"",""1"",""3125""
","
","","","","","","1466","images/dog7.png","","","memory_trial","4","definitely_new",""
"html-keyboard-response","237","552794","0.0-18.0-0.96","4126","approach_avoid_sv1","""event"",""trial"",""time""
""fullscreenenter"",""1"",""3125""
","
","
","""event"",""trial"",""time""
""fullscreenenter"",""1"",""3125""
","
","","","","","","null","<div style=""font-size:60px;"">+</div>","null","","fixation","","",""
"memory-trial","238","554555","0.0-18.0-1.96","4126","approach_avoid_sv1","""event"",""trial"",""time""
""fullscreenenter"",""1"",""3125""
","
","
","""event"",""trial"",""time""
""fullscreenenter"",""1"",""3125""
","
","","","","","","757.3999999761581","images/straw1.png","","","memory_trial","1","definitely_old",""
"html-keyboard-response","239","555058","0.0-18.0-0.97","4126","approach_avoid_sv1","""event"",""trial"",""time""
""fullscreenenter"",""1"",""3125""
","
","
","""event"",""trial"",""time""
""fullscreenenter"",""1"",""3125""
","
","","","","","","null","<div style=""font-size:60px;"">+</div>","null","","fixation","","",""
"memory-trial","240","556721","0.0-18.0-1.97","4126","approach_avoid_sv1","""event"",""trial"",""time""
""fullscreenenter"",""1"",""3125""
","
","
","""event"",""trial"",""time""
""fullscreenenter"",""1"",""3125""
","
","","","","","","658.4000000357628","images/bush4.png","","","memory_trial","4","definitely_new",""
"html-keyboard-response","241","557227","0.0-18.0-0.98","4126","approach_avoid_sv1","""event"",""trial"",""time""
""fullscreenenter"",""1"",""3125""
","
","
","""event"",""trial"",""time""
""fullscreenenter"",""1"",""3125""
","
","","","","","","null","<div style=""font-size:60px;"">+</div>","null","","fixation","","",""
"memory-trial","242","559592","0.0-18.0-1.98","4126","approach_avoid_sv1","""event"",""trial"",""time""
""fullscreenenter"",""1"",""3125""
","
","
","""event"",""trial"",""time""
""fullscreenenter"",""1"",""3125""
","
","","","","","","1363.4000000357628","images/straw7.png","","","memory_trial","1","definitely_old",""
"html-keyboard-response","243","560097","0.0-18.0-0.99","4126","approach_avoid_sv1","""event"",""trial"",""time""
""fullscreenenter"",""1"",""3125""
","
","
","""event"",""trial"",""time""
""fullscreenenter"",""1"",""3125""
","
","","","","","","null","<div style=""font-size:60px;"">+</div>","null","","fixation","","",""
"memory-trial","244","561975","0.0-18.0-1.99","4126","approach_avoid_sv1","""event"",""trial"",""time""
""fullscreenenter"",""1"",""3125""
","
","
","""event"",""trial"",""time""
""fullscreenenter"",""1"",""3125""
","
","","","","","","869.9000000357628","images/cow2.png","","","memory_trial","1","definitely_old",""
"html-keyboard-response","245","562477","0.0-18.0-0.100","4126","approach_avoid_sv1","""event"",""trial"",""time""
""fullscreenenter"",""1"",""3125""
","
","
","""event"",""trial"",""time""
""fullscreenenter"",""1"",""3125""
","
","","","","","","null","<div style=""font-size:60px;"">+</div>","null","","fixation","","",""
"memory-trial","246","564382","0.0-18.0-1.100","4126","approach_avoid_sv1","""event"",""trial"",""time""
""fullscreenenter"",""1"",""3125""
","
","
","""event"",""trial"",""time""
""fullscreenenter"",""1"",""3125""
","
","","","","","","898.2000000476837","images/apple7.png","","","memory_trial","4","definitely_new",""
"html-keyboard-response","247","564887","0.0-18.0-0.101","4126","approach_avoid_sv1","""event"",""trial"",""time""
""fullscreenenter"",""1"",""3125""
","
","
","""event"",""trial"",""time""
""fullscreenenter"",""1"",""3125""
","
","","","","","","null","<div style=""font-size:60px;"">+</div>","null","","fixation","","",""
"memory-trial","248","566896","0.0-18.0-1.101","4126","approach_avoid_sv1","""event"",""trial"",""time""
""fullscreenenter"",""1"",""3125""
","
","
","""event"",""trial"",""time""
""fullscreenenter"",""1"",""3125""
","
","","","","","","1002.1999999880791","images/rabbit1.png","","","memory_trial","4","definitely_new",""
"html-keyboard-response","249","567400","0.0-18.0-0.102","4126","approach_avoid_sv1","""event"",""trial"",""time""
""fullscreenenter"",""1"",""3125""
","
","
","""event"",""trial"",""time""
""fullscreenenter"",""1"",""3125""
","
","","","","","","null","<div style=""font-size:60px;"">+</div>","null","","fixation","","",""
"memory-trial","250","569508","0.0-18.0-1.102","4126","approach_avoid_sv1","""event"",""trial"",""time""
""fullscreenenter"",""1"",""3125""
","
","
","""event"",""trial"",""time""
""fullscreenenter"",""1"",""3125""
","
","","","","","","1102.699999988079","images/plane4.png","","","memory_trial","1","definitely_old",""
"html-keyboard-response","251","570013","0.0-18.0-0.103","4126","approach_avoid_sv1","""event"",""trial"",""time""
""fullscreenenter"",""1"",""3125""
","
","
","""event"",""trial"",""time""
""fullscreenenter"",""1"",""3125""
","
","","","","","","null","<div style=""font-size:60px;"">+</div>","null","","fixation","","",""
"memory-trial","252","572073","0.0-18.0-1.103","4126","approach_avoid_sv1","""event"",""trial"",""time""
""fullscreenenter"",""1"",""3125""
","
","
","""event"",""trial"",""time""
""fullscreenenter"",""1"",""3125""
","
","","","","","","1056.199999988079","images/sofa1.png","","","memory_trial","4","definitely_new",""
"html-keyboard-response","253","572578","0.0-18.0-0.104","4126","approach_avoid_sv1","""event"",""trial"",""time""
""fullscreenenter"",""1"",""3125""
","
","
","""event"",""trial"",""time""
""fullscreenenter"",""1"",""3125""
","
","","","","","","null","<div style=""font-size:60px;"">+</div>","null","","fixation","","",""
"memory-trial","254","574425","0.0-18.0-1.104","4126","approach_avoid_sv1","""event"",""trial"",""time""
""fullscreenenter"",""1"",""3125""
","
","
","""event"",""trial"",""time""
""fullscreenenter"",""1"",""3125""
","
","","","","","","841.5","images/plane7.png","","","memory_trial","4","definitely_new",""
"html-keyboard-response","255","574930","0.0-18.0-0.105","4126","approach_avoid_sv1","""event"",""trial"",""time""
""fullscreenenter"",""1"",""3125""
","
","
","""event"",""trial"",""time""
""fullscreenenter"",""1"",""3125""
","
","","","","","","null","<div style=""font-size:60px;"">+</div>","null","","fixation","","",""
"memory-trial","256","576642","0.0-18.0-1.105","4126","approach_avoid_sv1","""event"",""trial"",""time""
""fullscreenenter"",""1"",""3125""
","
","
","""event"",""trial"",""time""
""fullscreenenter"",""1"",""3125""
","
","","","","","","708","images/bush8.png","","","memory_trial","4","definitely_new",""
"html-keyboard-response","257","577147","0.0-18.0-0.106","4126","approach_avoid_sv1","""event"",""trial"",""time""
""fullscreenenter"",""1"",""3125""
","
","
","""event"",""trial"",""time""
""fullscreenenter"",""1"",""3125""
","
","","","","","","null","<div style=""font-size:60px;"">+</div>","null","","fixation","","",""
"memory-trial","258","579713","0.0-18.0-1.106","4126","approach_avoid_sv1","""event"",""trial"",""time""
""fullscreenenter"",""1"",""3125""
","
","
","""event"",""trial"",""time""
""fullscreenenter"",""1"",""3125""
","
","","","","","","1560.6000000238419","images/chair2.png","","","memory_trial","4","definitely_new",""
"html-keyboard-response","259","580218","0.0-18.0-0.107","4126","approach_avoid_sv1","""event"",""trial"",""time""
""fullscreenenter"",""1"",""3125""
","
","
","""event"",""trial"",""time""
""fullscreenenter"",""1"",""3125""
","
","","","","","","null","<div style=""font-size:60px;"">+</div>","null","","fixation","","",""
"memory-trial","260","581907","0.0-18.0-1.107","4126","approach_avoid_sv1","""event"",""trial"",""time""
""fullscreenenter"",""1"",""3125""
","
","
","""event"",""trial"",""time""
""fullscreenenter"",""1"",""3125""
","
","","","","","","685.8999999761581","images/sofa4.png","","","memory_trial","4","definitely_new",""
"html-keyboard-response","261","582412","0.0-18.0-0.108","4126","approach_avoid_sv1","""event"",""trial"",""time""
""fullscreenenter"",""1"",""3125""
","
","
","""event"",""trial"",""time""
""fullscreenenter"",""1"",""3125""
","
","","","","","","null","<div style=""font-size:60px;"">+</div>","null","","fixation","","",""
"memory-trial","262","584062","0.0-18.0-1.108","4126","approach_avoid_sv1","""event"",""trial"",""time""
""fullscreenenter"",""1"",""3125""
","
","
","""event"",""trial"",""time""
""fullscreenenter"",""1"",""3125""
","
","","","","","","647.5","images/table3.png","","","memory_trial","4","definitely_new",""
"html-keyboard-response","263","584566","0.0-18.0-0.109","4126","approach_avoid_sv1","""event"",""trial"",""time""
""fullscreenenter"",""1"",""3125""
","
","
","""event"",""trial"",""time""
""fullscreenenter"",""1"",""3125""
","
","","","","","","null","<div style=""font-size:60px;"">+</div>","null","","fixation","","",""
"memory-trial","264","586534","0.0-18.0-1.109","4126","approach_avoid_sv1","""event"",""trial"",""time""
""fullscreenenter"",""1"",""3125""
","
","
","""event"",""trial"",""time""
""fullscreenenter"",""1"",""3125""
","
","","","","","","964.1000000238419","images/tree1.png","","","memory_trial","1","definitely_old",""
"html-keyboard-response","265","587039","0.0-18.0-0.110","4126","approach_avoid_sv1","""event"",""trial"",""time""
""fullscreenenter"",""1"",""3125""
","
","
","""event"",""trial"",""time""
""fullscreenenter"",""1"",""3125""
","
","","","","","","null","<div style=""font-size:60px;"">+</div>","null","","fixation","","",""
"memory-trial","266","589001","0.0-18.0-1.110","4126","approach_avoid_sv1","""event"",""trial"",""time""
""fullscreenenter"",""1"",""3125""
","
","
","""event"",""trial"",""time""
""fullscreenenter"",""1"",""3125""
","
","","","","","","959.6999999880791","images/tree4.png","","","memory_trial","4","definitely_new",""
"html-keyboard-response","267","589506","0.0-18.0-0.111","4126","approach_avoid_sv1","""event"",""trial"",""time""
""fullscreenenter"",""1"",""3125""
","
","
","""event"",""trial"",""time""
""fullscreenenter"",""1"",""3125""
","
","","","","","","null","<div style=""font-size:60px;"">+</div>","null","","fixation","","",""
"memory-trial","268","591468","0.0-18.0-1.111","4126","approach_avoid_sv1","""event"",""trial"",""time""
""fullscreenenter"",""1"",""3125""
","
","
","""event"",""trial"",""time""
""fullscreenenter"",""1"",""3125""
","
","","","","","","959.6000000238419","images/apple2.png","","","memory_trial","4","definitely_new",""
"html-keyboard-response","269","591973","0.0-18.0-0.112","4126","approach_avoid_sv1","""event"",""trial"",""time""
""fullscreenenter"",""1"",""3125""
","
","
","""event"",""trial"",""time""
""fullscreenenter"",""1"",""3125""
","
","","","","","","null","<div style=""font-size:60px;"">+</div>","null","","fixation","","",""
"memory-trial","270","593611","0.0-18.0-1.112","4126","approach_avoid_sv1","""event"",""trial"",""time""
""fullscreenenter"",""1"",""3125""
","
","
","""event"",""trial"",""time""
""fullscreenenter"",""1"",""3125""
","
","","","","","","631.3999999761581","images/apple8.png","","","memory_trial","4","definitely_new",""
"html-keyboard-response","271","594116","0.0-18.0-0.113","4126","approach_avoid_sv1","""event"",""trial"",""time""
""fullscreenenter"",""1"",""3125""
","
","
","""event"",""trial"",""time""
""fullscreenenter"",""1"",""3125""
","
","","","","","","null","<div style=""font-size:60px;"">+</div>","null","","fixation","","",""
"memory-trial","272","595817","0.0-18.0-1.113","4126","approach_avoid_sv1","""event"",""trial"",""time""
""fullscreenenter"",""1"",""3125""
","
","
","""event"",""trial"",""time""
""fullscreenenter"",""1"",""3125""
","
","","","","","","695.8000000119209","images/boat5.png","","","memory_trial","4","definitely_new",""
"html-keyboard-response","273","596322","0.0-18.0-0.114","4126","approach_avoid_sv1","""event"",""trial"",""time""
""fullscreenenter"",""1"",""3125""
","
","
","""event"",""trial"",""time""
""fullscreenenter"",""1"",""3125""
","
","","","","","","null","<div style=""font-size:60px;"">+</div>","null","","fixation","","",""
"memory-trial","274","598270","0.0-18.0-1.114","4126","approach_avoid_sv1","""event"",""trial"",""time""
""fullscreenenter"",""1"",""3125""
","
","
","""event"",""trial"",""time""
""fullscreenenter"",""1"",""3125""
","
","","","","","","943.1999999880791","images/rabbit5.png","","","memory_trial","4","definitely_new",""
"html-keyboard-response","275","598771","0.0-18.0-0.115","4126","approach_avoid_sv1","""event"",""trial"",""time""
""fullscreenenter"",""1"",""3125""
","
","
","""event"",""trial"",""time""
""fullscreenenter"",""1"",""3125""
","
","","","","","","null","<div style=""font-size:60px;"">+</div>","null","","fixation","","",""
"memory-trial","276","600600","0.0-18.0-1.115","4126","approach_avoid_sv1","""event"",""trial"",""time""
""fullscreenenter"",""1"",""3125""
","
","
","""event"",""trial"",""time""
""fullscreenenter"",""1"",""3125""
","
","","","","","","822.8999999761581","images/cat3.png","","","memory_trial","4","definitely_new",""
"html-keyboard-response","277","601105","0.0-18.0-0.116","4126","approach_avoid_sv1","""event"",""trial"",""time""
""fullscreenenter"",""1"",""3125""
","
","
","""event"",""trial"",""time""
""fullscreenenter"",""1"",""3125""
","
","","","","","","null","<div style=""font-size:60px;"">+</div>","null","","fixation","","",""
"memory-trial","278","602771","0.0-18.0-1.116","4126","approach_avoid_sv1","""event"",""trial"",""time""
""fullscreenenter"",""1"",""3125""
","
","
","""event"",""trial"",""time""
""fullscreenenter"",""1"",""3125""
","
","","","","","","662.0999999642372","images/train8.png","","","memory_trial","4","definitely_new",""
"html-keyboard-response","279","603276","0.0-18.0-0.117","4126","approach_avoid_sv1","""event"",""trial"",""time""
""fullscreenenter"",""1"",""3125""
","
","
","""event"",""trial"",""time""
""fullscreenenter"",""1"",""3125""
","
","","","","","","null","<div style=""font-size:60px;"">+</div>","null","","fixation","","",""
"memory-trial","280","605087","0.0-18.0-1.117","4126","approach_avoid_sv1","""event"",""trial"",""time""
""fullscreenenter"",""1"",""3125""
","
","
","""event"",""trial"",""time""
""fullscreenenter"",""1"",""3125""
","
","","","","","","809.5","images/tree7.png","","","memory_trial","4","definitely_new",""
"html-keyboard-response","281","605592","0.0-18.0-0.118","4126","approach_avoid_sv1","""event"",""trial"",""time""
""fullscreenenter"",""1"",""3125""
","
","
","""event"",""trial"",""time""
""fullscreenenter"",""1"",""3125""
","
","","","","","","null","<div style=""font-size:60px;"">+</div>","null","","fixation","","",""
"memory-trial","282","607288","0.0-18.0-1.118","4126","approach_avoid_sv1","""event"",""trial"",""time""
""fullscreenenter"",""1"",""3125""
","
","
","""event"",""trial"",""time""
""fullscreenenter"",""1"",""3125""
","
","","","","","","689.1000000238419","images/goat2.png","","","memory_trial","4","definitely_new",""
"html-keyboard-response","283","607793","0.0-18.0-0.119","4126","approach_avoid_sv1","""event"",""trial"",""time""
""fullscreenenter"",""1"",""3125""
","
","
","""event"",""trial"",""time""
""fullscreenenter"",""1"",""3125""
","
","","","","","","null","<div style=""font-size:60px;"">+</div>","null","","fixation","","",""
"memory-trial","284","610805","0.0-18.0-1.119","4126","approach_avoid_sv1","""event"",""trial"",""time""
""fullscreenenter"",""1"",""3125""
","
","
","""event"",""trial"",""time""
""fullscreenenter"",""1"",""3125""
","
","","","","","","2009.6000000238419","images/flower6.png","","","memory_trial","4","definitely_new",""
"html-keyboard-response","285","611310","0.0-18.0-0.120","4126","approach_avoid_sv1","""event"",""trial"",""time""
""fullscreenenter"",""1"",""3125""
","
","
","""event"",""trial"",""time""
""fullscreenenter"",""1"",""3125""
","
","","","","","","null","<div style=""font-size:60px;"">+</div>","null","","fixation","","",""
"memory-trial","286","613226","0.0-18.0-1.120","4126","approach_avoid_sv1","""event"",""trial"",""time""
""fullscreenenter"",""1"",""3125""
","
","
","""event"",""trial"",""time""
""fullscreenenter"",""1"",""3125""
","
","","","","","","912","images/boat6.png","","","memory_trial","4","definitely_new",""
"html-keyboard-response","287","613731","0.0-18.0-0.121","4126","approach_avoid_sv1","""event"",""trial"",""time""
""fullscreenenter"",""1"",""3125""
","
","
","""event"",""trial"",""time""
""fullscreenenter"",""1"",""3125""
","
","","","","","","null","<div style=""font-size:60px;"">+</div>","null","","fixation","","",""
"memory-trial","288","615753","0.0-18.0-1.121","4126","approach_avoid_sv1","""event"",""trial"",""time""
""fullscreenenter"",""1"",""3125""
","
","
","""event"",""trial"",""time""
""fullscreenenter"",""1"",""3125""
","
","","","","","","1019","images/banana5.png","","","memory_trial","4","definitely_new",""
"html-keyboard-response","289","616256","0.0-18.0-0.122","4126","approach_avoid_sv1","""event"",""trial"",""time""
""fullscreenenter"",""1"",""3125""
","
","
","""event"",""trial"",""time""
""fullscreenenter"",""1"",""3125""
","
","","","","","","null","<div style=""font-size:60px;"">+</div>","null","","fixation","","",""
"memory-trial","290","618399","0.0-18.0-1.122","4126","approach_avoid_sv1","""event"",""trial"",""time""
""fullscreenenter"",""1"",""3125""
","
","
","""event"",""trial"",""time""
""fullscreenenter"",""1"",""3125""
","
","","","","","","1140.8999999761581","images/rodent5.png","","","memory_trial","1","definitely_old",""
"html-keyboard-response","291","618904","0.0-18.0-0.123","4126","approach_avoid_sv1","""event"",""trial"",""time""
""fullscreenenter"",""1"",""3125""
","
","
","""event"",""trial"",""time""
""fullscreenenter"",""1"",""3125""
","
","","","","","","null","<div style=""font-size:60px;"">+</div>","null","","fixation","","",""
"memory-trial","292","621588","0.0-18.0-1.123","4126","approach_avoid_sv1","""event"",""trial"",""time""
""fullscreenenter"",""1"",""3125""
","
","
","""event"",""trial"",""time""
""fullscreenenter"",""1"",""3125""
","
","","","","","","1680.2000000476837","images/sofa2.png","","","memory_trial","1","definitely_old",""
"html-keyboard-response","293","622091","0.0-18.0-0.124","4126","approach_avoid_sv1","""event"",""trial"",""time""
""fullscreenenter"",""1"",""3125""
","
","
","""event"",""trial"",""time""
""fullscreenenter"",""1"",""3125""
","
","","","","","","null","<div style=""font-size:60px;"">+</div>","null","","fixation","","",""
"memory-trial","294","623797","0.0-18.0-1.124","4126","approach_avoid_sv1","""event"",""trial"",""time""
""fullscreenenter"",""1"",""3125""
","
","
","""event"",""trial"",""time""
""fullscreenenter"",""1"",""3125""
","
","","","","","","699.6999999880791","images/chair4.png","","","memory_trial","4","definitely_new",""
"html-keyboard-response","295","624302","0.0-18.0-0.125","4126","approach_avoid_sv1","""event"",""trial"",""time""
""fullscreenenter"",""1"",""3125""
","
","
","""event"",""trial"",""time""
""fullscreenenter"",""1"",""3125""
","
","","","","","","null","<div style=""font-size:60px;"">+</div>","null","","fixation","","",""
"memory-trial","296","625962","0.0-18.0-1.125","4126","approach_avoid_sv1","""event"",""trial"",""time""
""fullscreenenter"",""1"",""3125""
","
","
","""event"",""trial"",""time""
""fullscreenenter"",""1"",""3125""
","
","","","","","","657.8999999761581","images/chair7.png","","","memory_trial","4","definitely_new",""
"html-keyboard-response","297","626468","0.0-18.0-0.126","4126","approach_avoid_sv1","""event"",""trial"",""time""
