"trial_type","trial_index","time_elapsed","internal_node_id","subject_id","task_version","interactions","blur_events","focus_events","fullscreenenter_events","fullscreenexit_events","success","timeout","failed_images","failed_audio","failed_video","rt","stimulus","response","button_pressed","task_part","key_press","answer","correct"
"pavlovia","0","2","0.0-0.0","5934","approach_avoid_sv1","""event"",""trial"",""time""
""fullscreenenter"",""1"",""10472""
","
","
","""event"",""trial"",""time""
""fullscreenenter"",""1"",""10472""
","
","","","","","","","","","","","","",""
"fullscreen","1","11463","0.0-1.0","5934","approach_avoid_sv1","""event"",""trial"",""time""
""fullscreenenter"",""1"",""10472""
""fullscreenexit"",""2"",""12821""
","
","
","""event"",""trial"",""time""
""fullscreenenter"",""1"",""10472""
","""event"",""trial"",""time""
""fullscreenexit"",""2"",""12821""
","true","","","","","","","","","","","",""
"preload","2","17891","0.0-2.0","5934","approach_avoid_sv1","""event"",""trial"",""time""
""fullscreenenter"",""1"",""10472""
""fullscreenexit"",""2"",""12821""
","
","
","""event"",""trial"",""time""
""fullscreenenter"",""1"",""10472""
","""event"",""trial"",""time""
""fullscreenexit"",""2"",""12821""
","true","false","[]","[]","[]","","","","","","","",""
"preload","3","23370","0.0-3.0","5934","approach_avoid_sv1","""event"",""trial"",""time""
""fullscreenenter"",""1"",""10472""
""fullscreenexit"",""2"",""12821""
","
","
","""event"",""trial"",""time""
""fullscreenenter"",""1"",""10472""
","""event"",""trial"",""time""
""fullscreenexit"",""2"",""12821""
","true","false","[]","[]","[]","","","","","","","",""
"preload","4","23941","0.0-4.0","5934","approach_avoid_sv1","""event"",""trial"",""time""
""fullscreenenter"",""1"",""10472""
""fullscreenexit"",""2"",""12821""
","
","
","""event"",""trial"",""time""
""fullscreenenter"",""1"",""10472""
","""event"",""trial"",""time""
""fullscreenexit"",""2"",""12821""
","true","false","[]","[]","[]","","","","","","","",""
"audio-keyboard-response","5","42875","0.0-5.0","5934","approach_avoid_sv1","""event"",""trial"",""time""
""fullscreenenter"",""1"",""10472""
""fullscreenexit"",""2"",""12821""
","
","
","""event"",""trial"",""time""
""fullscreenenter"",""1"",""10472""
","""event"",""trial"",""time""
""fullscreenexit"",""2"",""12821""
","","","","","","18938.666666666668","audio/beep_loop.wav"," ","","","","",""
"audio-button-response","6","45669","0.0-6.0","5934","approach_avoid_sv1","""event"",""trial"",""time""
""fullscreenenter"",""1"",""10472""
""fullscreenexit"",""2"",""12821""
","
","
","""event"",""trial"",""time""
""fullscreenenter"",""1"",""10472""
","""event"",""trial"",""time""
""fullscreenexit"",""2"",""12821""
","","","","","","2789","audio/turtle.wav","3","","","","",""
"audio-button-response","7","49573","0.0-7.0","5934","approach_avoid_sv1","""event"",""trial"",""time""
""fullscreenenter"",""1"",""10472""
""fullscreenexit"",""2"",""12821""
","
","
","""event"",""trial"",""time""
""fullscreenenter"",""1"",""10472""
","""event"",""trial"",""time""
""fullscreenexit"",""2"",""12821""
","","","","","","2880","audio/shark.wav","2","","","","",""
"preload","8","56501","0.0-8.0","5934","approach_avoid_sv1","""event"",""trial"",""time""
""fullscreenenter"",""1"",""10472""
""fullscreenexit"",""2"",""12821""
","
","
","""event"",""trial"",""time""
""fullscreenenter"",""1"",""10472""
","""event"",""trial"",""time""
""fullscreenexit"",""2"",""12821""
","true","false","[]","[]","[]","","","","","","","",""
"learning-instructions","9","67549","0.0-9.0-0.0","5934","approach_avoid_sv1","""event"",""trial"",""time""
""fullscreenenter"",""1"",""10472""
""fullscreenexit"",""2"",""12821""
","
","
","""event"",""trial"",""time""
""fullscreenenter"",""1"",""10472""
","""event"",""trial"",""time""
""fullscreenexit"",""2"",""12821""
","","","","","","6575.100000023842","<p> Welcome back! </p><p> Last week, you had to make choices about lots of different items.  </p>","","0","instructions","","",""
"learning-instructions","10","73301","0.0-9.0-0.1","5934","approach_avoid_sv1","""event"",""trial"",""time""
""fullscreenenter"",""1"",""10472""
""fullscreenexit"",""2"",""12821""
","
","
","""event"",""trial"",""time""
""fullscreenenter"",""1"",""10472""
","""event"",""trial"",""time""
""fullscreenexit"",""2"",""12821""
","","","","","","1627.3999999761581","<p> Today, we are going to ask you to try to remember all the items. </p>","","0","instructions","","",""
"learning-instructions","11","85246","0.0-9.0-0.2","5934","approach_avoid_sv1","""event"",""trial"",""time""
""fullscreenenter"",""1"",""10472""
""fullscreenexit"",""2"",""12821""
","
","
","""event"",""trial"",""time""
""fullscreenenter"",""1"",""10472""
","""event"",""trial"",""time""
""fullscreenexit"",""2"",""12821""
","","","","","","1801.1000000238419","<p> On every trial, you will see an image. </p><p> The image may be an OLD image you saw during the games last week or it may be a NEW image that was not presented. </p>","","0","instructions","","",""
"learning-instructions","12","94670","0.0-9.0-0.3","5934","approach_avoid_sv1","""event"",""trial"",""time""
""fullscreenenter"",""1"",""10472""
""fullscreenexit"",""2"",""12821""
","
","
","""event"",""trial"",""time""
""fullscreenenter"",""1"",""10472""
","""event"",""trial"",""time""
""fullscreenexit"",""2"",""12821""
","","","","","","904","<p> You need to select whether the image is:  </p><p>  'Definitely old', 'Maybe old', 'Maybe new', or 'Definitely new.'  </p><div class=""mem-choice-instructions-grid""><div class=""choice-option"" id=""choice-option-1"" ><img src=""images/definitely_old_1.png"" id=""choice-option-img-1"" class=""choice-option-img"" stage=""1""></div><div class=""choice-option"" id=""choice-option-2"" ><img src=""images/maybe_old_1.png"" id=""choice-option-img-2"" class=""choice-option-img"" stage=""1""></div><div class=""choice-option"" id=""choice-option-3"" ><img src=""images/maybe_new_1.png"" id=""choice-option-img-3"" class=""choice-option-img"" stage=""1""></div><div class=""choice-option"" id=""choice-option-4"" > <img src=""images/definitely_new_1.png"" id=""choice-option-img-4"" class=""choice-option-img"" stage=""1""></div></div>","","0","instructions","","",""
"learning-instructions","13","103254","0.0-9.0-0.4","5934","approach_avoid_sv1","""event"",""trial"",""time""
""fullscreenenter"",""1"",""10472""
""fullscreenexit"",""2"",""12821""
","
","
","""event"",""trial"",""time""
""fullscreenenter"",""1"",""10472""
","""event"",""trial"",""time""
""fullscreenexit"",""2"",""12821""
","","","","","","2068.100000023842","<p> You should use the 1, 2, 3, and 4 keys to make your responses.  </p><div class=""mem-choice-instructions-grid""><div class=""choice-option"" id=""choice-option-1"" ><img src=""images/definitely_old.png"" id=""choice-option-img-1"" class=""choice-option-img"" stage=""1""></div><div class=""choice-option"" id=""choice-option-2"" ><img src=""images/maybe_old.png"" id=""choice-option-img-2"" class=""choice-option-img"" stage=""1""></div><div class=""choice-option"" id=""choice-option-3"" ><img src=""images/maybe_new.png"" id=""choice-option-img-3"" class=""choice-option-img"" stage=""1""></div><div class=""choice-option"" id=""choice-option-4"" > <img src=""images/definitely_new.png"" id=""choice-option-img-4"" class=""choice-option-img"" stage=""1""></div></div>","","0","instructions","","",""
"learning-instructions","14","110654","0.0-9.0-0.5","5934","approach_avoid_sv1","""event"",""trial"",""time""
""fullscreenenter"",""1"",""10472""
""fullscreenexit"",""2"",""12821""
","
","
","""event"",""trial"",""time""
""fullscreenenter"",""1"",""10472""
","""event"",""trial"",""time""
""fullscreenexit"",""2"",""12821""
","","","","","","1069","<p> You will have 10 seconds to make each response.  </p><p>  Make sure to respond before time runs out! </p>","","0","instructions","","",""
"learning-instructions","15","118231","0.0-9.0-0.6","5934","approach_avoid_sv1","""event"",""trial"",""time""
""fullscreenenter"",""1"",""10472""
""fullscreenexit"",""2"",""12821""
","
","
","""event"",""trial"",""time""
""fullscreenenter"",""1"",""10472""
","""event"",""trial"",""time""
""fullscreenexit"",""2"",""12821""
","","","","","","475.10000002384186","<p> Today, you will see each image ONCE only.  </p><p>  That means none of the images will repeat. </p>","","0","instructions","","",""
"learning-instructions","16","131383","0.0-9.0-0.7","5934","approach_avoid_sv1","""event"",""trial"",""time""
""fullscreenenter"",""1"",""10472""
""fullscreenexit"",""2"",""12821""
","
","
","""event"",""trial"",""time""
""fullscreenenter"",""1"",""10472""
","""event"",""trial"",""time""
""fullscreenexit"",""2"",""12821""
","","","","","","477","<p> Before you play the real game, it is time to practice. </p><p>  Just like in the real game, some of the images in the practice will be ones you have seen before. </p><p>  Others will be entirely new. </p>","","0","instructions","","",""
"html-button-response","17","145775","0.0-10.0","5934","approach_avoid_sv1","""event"",""trial"",""time""
""fullscreenenter"",""1"",""10472""
""fullscreenexit"",""2"",""12821""
","
","
","""event"",""trial"",""time""
""fullscreenenter"",""1"",""10472""
","""event"",""trial"",""time""
""fullscreenexit"",""2"",""12821""
","","","","","","14274","<p> Ready to practice? </p><p> Remember, use the 1, 2, 3, and 4 keys to make your responses. </p>","0","","instructions","","",""
"html-keyboard-response","18","146410","0.0-11.0-0.0","5934","approach_avoid_sv1","""event"",""trial"",""time""
""fullscreenenter"",""1"",""10472""
""fullscreenexit"",""2"",""12821""
","
","
","""event"",""trial"",""time""
""fullscreenenter"",""1"",""10472""
","""event"",""trial"",""time""
""fullscreenexit"",""2"",""12821""
","","","","","","null","<div style=""font-size:60px;"">+</div>","null","","fixation","","",""
"memory-trial","19","148960","0.0-11.0-1.0","5934","approach_avoid_sv1","""event"",""trial"",""time""
""fullscreenenter"",""1"",""10472""
""fullscreenexit"",""2"",""12821""
","
","
","""event"",""trial"",""time""
""fullscreenenter"",""1"",""10472""
","""event"",""trial"",""time""
""fullscreenexit"",""2"",""12821""
","","","","","","1528.2999999523163","images/ball1.png","","","practice","3","maybe_new",""
"html-keyboard-response","20","149480","0.0-11.0-0.1","5934","approach_avoid_sv1","""event"",""trial"",""time""
""fullscreenenter"",""1"",""10472""
""fullscreenexit"",""2"",""12821""
","
","
","""event"",""trial"",""time""
""fullscreenenter"",""1"",""10472""
","""event"",""trial"",""time""
""fullscreenexit"",""2"",""12821""
","","","","","","null","<div style=""font-size:60px;"">+</div>","null","","fixation","","",""
"memory-trial","21","152100","0.0-11.0-1.1","5934","approach_avoid_sv1","""event"",""trial"",""time""
""fullscreenenter"",""1"",""10472""
""fullscreenexit"",""2"",""12821""
","
","
","""event"",""trial"",""time""
""fullscreenenter"",""1"",""10472""
","""event"",""trial"",""time""
""fullscreenexit"",""2"",""12821""
","","","","","","1598.1000000238419","images/ball3.png","","","practice","3","maybe_new",""
"html-keyboard-response","22","152620","0.0-11.0-0.2","5934","approach_avoid_sv1","""event"",""trial"",""time""
""fullscreenenter"",""1"",""10472""
""fullscreenexit"",""2"",""12821""
","
","
","""event"",""trial"",""time""
""fullscreenenter"",""1"",""10472""
","""event"",""trial"",""time""
""fullscreenexit"",""2"",""12821""
","","","","","","null","<div style=""font-size:60px;"">+</div>","null","","fixation","","",""
"memory-trial","23","154740","0.0-11.0-1.2","5934","approach_avoid_sv1","""event"",""trial"",""time""
""fullscreenenter"",""1"",""10472""
""fullscreenexit"",""2"",""12821""
","
","
","""event"",""trial"",""time""
""fullscreenenter"",""1"",""10472""
","""event"",""trial"",""time""
""fullscreenexit"",""2"",""12821""
","","","","","","1095.7000000476837","images/ball5.png","","","practice","3","maybe_new",""
"html-keyboard-response","24","155260","0.0-11.0-0.3","5934","approach_avoid_sv1","""event"",""trial"",""time""
""fullscreenenter"",""1"",""10472""
""fullscreenexit"",""2"",""12821""
","
","
","""event"",""trial"",""time""
""fullscreenenter"",""1"",""10472""
","""event"",""trial"",""time""
""fullscreenexit"",""2"",""12821""
","","","","","","null","<div style=""font-size:60px;"">+</div>","null","","fixation","","",""
"memory-trial","25","157586","0.0-11.0-1.3","5934","approach_avoid_sv1","""event"",""trial"",""time""
""fullscreenenter"",""1"",""10472""
""fullscreenexit"",""2"",""12821""
","
","
","""event"",""trial"",""time""
""fullscreenenter"",""1"",""10472""
","""event"",""trial"",""time""
""fullscreenexit"",""2"",""12821""
","","","","","","1305.0999999046326","images/ball2.png","","","practice","1","definitely_old",""
"html-keyboard-response","26","158100","0.0-11.0-0.4","5934","approach_avoid_sv1","""event"",""trial"",""time""
""fullscreenenter"",""1"",""10472""
""fullscreenexit"",""2"",""12821""
","
","
","""event"",""trial"",""time""
""fullscreenenter"",""1"",""10472""
","""event"",""trial"",""time""
""fullscreenexit"",""2"",""12821""
","","","","","","null","<div style=""font-size:60px;"">+</div>","null","","fixation","","",""
"memory-trial","27","160401","0.0-11.0-1.4","5934","approach_avoid_sv1","""event"",""trial"",""time""
""fullscreenenter"",""1"",""10472""
""fullscreenexit"",""2"",""12821""
","
","
","""event"",""trial"",""time""
""fullscreenenter"",""1"",""10472""
","""event"",""trial"",""time""
""fullscreenexit"",""2"",""12821""
","","","","","","1280.8000000715256","images/racket2.png","","","practice","1","definitely_old",""
"html-keyboard-response","28","160918","0.0-11.0-0.5","5934","approach_avoid_sv1","""event"",""trial"",""time""
""fullscreenenter"",""1"",""10472""
""fullscreenexit"",""2"",""12821""
","
","
","""event"",""trial"",""time""
""fullscreenenter"",""1"",""10472""
","""event"",""trial"",""time""
""fullscreenexit"",""2"",""12821""
","","","","","","null","<div style=""font-size:60px;"">+</div>","null","","fixation","","",""
"memory-trial","29","165134","0.0-11.0-1.5","5934","approach_avoid_sv1","""event"",""trial"",""time""
""fullscreenenter"",""1"",""10472""
""fullscreenexit"",""2"",""12821""
","
","
","""event"",""trial"",""time""
""fullscreenenter"",""1"",""10472""
","""event"",""trial"",""time""
""fullscreenexit"",""2"",""12821""
","","","","","","3206.2999999523163","images/racket5.png","","","practice","3","maybe_new",""
"html-keyboard-response","30","165637","0.0-11.0-0.6","5934","approach_avoid_sv1","""event"",""trial"",""time""
""fullscreenenter"",""1"",""10472""
""fullscreenexit"",""2"",""12821""
","
","
","""event"",""trial"",""time""
""fullscreenenter"",""1"",""10472""
","""event"",""trial"",""time""
""fullscreenexit"",""2"",""12821""
","","","","","","null","<div style=""font-size:60px;"">+</div>","null","","fixation","","",""
"memory-trial","31","168894","0.0-11.0-1.6","5934","approach_avoid_sv1","""event"",""trial"",""time""
""fullscreenenter"",""1"",""10472""
""fullscreenexit"",""2"",""12821""
","
","
","""event"",""trial"",""time""
""fullscreenenter"",""1"",""10472""
","""event"",""trial"",""time""
""fullscreenexit"",""2"",""12821""
","","","","","","2246.100000023842","images/racket1.png","","","practice","3","maybe_new",""
"html-keyboard-response","32","169397","0.0-11.0-0.7","5934","approach_avoid_sv1","""event"",""trial"",""time""
""fullscreenenter"",""1"",""10472""
""fullscreenexit"",""2"",""12821""
","
","
","""event"",""trial"",""time""
""fullscreenenter"",""1"",""10472""
","""event"",""trial"",""time""
""fullscreenexit"",""2"",""12821""
","","","","","","null","<div style=""font-size:60px;"">+</div>","null","","fixation","","",""
"memory-trial","33","172629","0.0-11.0-1.7","5934","approach_avoid_sv1","""event"",""trial"",""time""
""fullscreenenter"",""1"",""10472""
""fullscreenexit"",""2"",""12821""
","
","
","""event"",""trial"",""time""
""fullscreenenter"",""1"",""10472""
","""event"",""trial"",""time""
""fullscreenexit"",""2"",""12821""
","","","","","","2222.5","images/racket3.png","","","practice","2","maybe_old",""
"learning-instructions","34","183096","0.0-12.0-0.0","5934","approach_avoid_sv1","""event"",""trial"",""time""
""fullscreenenter"",""1"",""10472""
""fullscreenexit"",""2"",""12821""
","
","
","""event"",""trial"",""time""
""fullscreenenter"",""1"",""10472""
","""event"",""trial"",""time""
""fullscreenexit"",""2"",""12821""
","","","","","","3067","<p> Great! You have completed the practice. </p><p> Before you start, we're going to ask you a few questions about how the game works.  </p>","","0","instructions","","",""
"preload","35","187131","0.0-13.0","5934","approach_avoid_sv1","""event"",""trial"",""time""
""fullscreenenter"",""1"",""10472""
""fullscreenexit"",""2"",""12821""
","
","
","""event"",""trial"",""time""
""fullscreenenter"",""1"",""10472""
","""event"",""trial"",""time""
""fullscreenexit"",""2"",""12821""
","true","false","[]","[]","[]","","","","","","","",""
"comp-q","36","196990","0.0-14.0-0.0","5934","approach_avoid_sv1","""event"",""trial"",""time""
""fullscreenenter"",""1"",""10472""
""fullscreenexit"",""2"",""12821""
","
","
","""event"",""trial"",""time""
""fullscreenenter"",""1"",""10472""
","""event"",""trial"",""time""
""fullscreenexit"",""2"",""12821""
","","","","","","4032.899999976158","<p> <b> True or False? </b> </p><p> In this game, you will only see each image once. </p>","","0","comp_question","","","true"
"comp-q","37","207902","0.0-14.0-1.0","5934","approach_avoid_sv1","""event"",""trial"",""time""
""fullscreenenter"",""1"",""10472""
""fullscreenexit"",""2"",""12821""
","
","
","""event"",""trial"",""time""
""fullscreenenter"",""1"",""10472""
","""event"",""trial"",""time""
""fullscreenexit"",""2"",""12821""
","","","","","","4545.200000047684","<p> <b> That's right! </b> You will see many different images <i> one time each </i> in this game. </p>","","0","comp_answer","","",""
"comp-q","38","214599","0.0-15.0-0.0","5934","approach_avoid_sv1","""event"",""trial"",""time""
""fullscreenenter"",""1"",""10472""
""fullscreenexit"",""2"",""12821""
","
","
","""event"",""trial"",""time""
""fullscreenenter"",""1"",""10472""
","""event"",""trial"",""time""
""fullscreenexit"",""2"",""12821""
","","","","","","1671.1000000238419","<p> <b> True or False? </b> </p><p> You should use the mouse and click to make your response. </p>","","1","comp_question","","","true"
"comp-q","39","223607","0.0-15.0-1.0","5934","approach_avoid_sv1","""event"",""trial"",""time""
""fullscreenenter"",""1"",""10472""
""fullscreenexit"",""2"",""12821""
","
","
","""event"",""trial"",""time""
""fullscreenenter"",""1"",""10472""
","""event"",""trial"",""time""
""fullscreenexit"",""2"",""12821""
","","","","","","2488.899999976158","<p><b> That's right! </b> You should use the '1', '2', '3', and '4' keys to make your response. </p>","","0","comp_answer","","",""
"comp-q","40","231727","0.0-16.0-0.0","5934","approach_avoid_sv1","""event"",""trial"",""time""
""fullscreenenter"",""1"",""10472""
""fullscreenexit"",""2"",""12821""
","
","
","""event"",""trial"",""time""
""fullscreenenter"",""1"",""10472""
","""event"",""trial"",""time""
""fullscreenexit"",""2"",""12821""
","","","","","","2429","<p> <b> True or False? </b> </p><p> You will have as much time as you want to make each choice. </p>","","1","comp_question","","","true"
"comp-q","41","239391","0.0-16.0-1.0","5934","approach_avoid_sv1","""event"",""trial"",""time""
""fullscreenenter"",""1"",""10472""
""fullscreenexit"",""2"",""12821""
","
","
","""event"",""trial"",""time""
""fullscreenenter"",""1"",""10472""
","""event"",""trial"",""time""
""fullscreenexit"",""2"",""12821""
","","","","","","2953","<p> <b> That's right! </b> You will only have 10 seconds to make each choice. </p>","","0","comp_answer","","",""
"learning-instructions","42","254340","0.0-17.0","5934","approach_avoid_sv1","""event"",""trial"",""time""
""fullscreenenter"",""1"",""10472""
""fullscreenexit"",""2"",""12821""
","
","
","""event"",""trial"",""time""
""fullscreenenter"",""1"",""10472""
","""event"",""trial"",""time""
""fullscreenexit"",""2"",""12821""
","","","","","","6257.100000023842","<p> Great! You are now ready to begin the game. </p><p> Remember, use the 1, 2, 3, and 4 keys to make your responses. </p>","","0","instructions","","",""
"html-keyboard-response","43","254966","0.0-18.0-0.0","5934","approach_avoid_sv1","""event"",""trial"",""time""
""fullscreenenter"",""1"",""10472""
""fullscreenexit"",""2"",""12821""
","
","
","""event"",""trial"",""time""
""fullscreenenter"",""1"",""10472""
","""event"",""trial"",""time""
""fullscreenexit"",""2"",""12821""
","","","","","","null","<div style=""font-size:60px;"">+</div>","null","","fixation","","",""
"memory-trial","44","258287","0.0-18.0-1.0","5934","approach_avoid_sv1","""event"",""trial"",""time""
""fullscreenenter"",""1"",""10472""
""fullscreenexit"",""2"",""12821""
","
","
","""event"",""trial"",""time""
""fullscreenenter"",""1"",""10472""
","""event"",""trial"",""time""
""fullscreenexit"",""2"",""12821""
","","","","","","2315.2000000476837","images/cactus4.png","","","memory_trial","2","maybe_old",""
"html-keyboard-response","45","258806","0.0-18.0-0.1","5934","approach_avoid_sv1","""event"",""trial"",""time""
""fullscreenenter"",""1"",""10472""
""fullscreenexit"",""2"",""12821""
","
","
","""event"",""trial"",""time""
""fullscreenenter"",""1"",""10472""
","""event"",""trial"",""time""
""fullscreenexit"",""2"",""12821""
","","","","","","null","<div style=""font-size:60px;"">+</div>","null","","fixation","","",""
"memory-trial","46","261417","0.0-18.0-1.1","5934","approach_avoid_sv1","""event"",""trial"",""time""
""fullscreenenter"",""1"",""10472""
""fullscreenexit"",""2"",""12821""
","
","
","""event"",""trial"",""time""
""fullscreenenter"",""1"",""10472""
","""event"",""trial"",""time""
""fullscreenexit"",""2"",""12821""
","","","","","","1587.2000000476837","images/orange5.png","","","memory_trial","1","definitely_old",""
"html-keyboard-response","47","261937","0.0-18.0-0.2","5934","approach_avoid_sv1","""event"",""trial"",""time""
""fullscreenenter"",""1"",""10472""
""fullscreenexit"",""2"",""12821""
","
","
","""event"",""trial"",""time""
""fullscreenenter"",""1"",""10472""
","""event"",""trial"",""time""
""fullscreenexit"",""2"",""12821""
","","","","","","null","<div style=""font-size:60px;"">+</div>","null","","fixation","","",""
"memory-trial","48","264487","0.0-18.0-1.2","5934","approach_avoid_sv1","""event"",""trial"",""time""
""fullscreenenter"",""1"",""10472""
""fullscreenexit"",""2"",""12821""
","
","
","""event"",""trial"",""time""
""fullscreenenter"",""1"",""10472""
","""event"",""trial"",""time""
""fullscreenexit"",""2"",""12821""
","","","","","","1542.8000000715256","images/flower4.png","","","memory_trial","1","definitely_old",""
"html-keyboard-response","49","265007","0.0-18.0-0.3","5934","approach_avoid_sv1","""event"",""trial"",""time""
""fullscreenenter"",""1"",""10472""
""fullscreenexit"",""2"",""12821""
","
","
","""event"",""trial"",""time""
""fullscreenenter"",""1"",""10472""
","""event"",""trial"",""time""
""fullscreenexit"",""2"",""12821""
","","","","","","null","<div style=""font-size:60px;"">+</div>","null","","fixation","","",""
"memory-trial","50","267367","0.0-18.0-1.3","5934","approach_avoid_sv1","""event"",""trial"",""time""
""fullscreenenter"",""1"",""10472""
""fullscreenexit"",""2"",""12821""
","
","
","""event"",""trial"",""time""
""fullscreenenter"",""1"",""10472""
","""event"",""trial"",""time""
""fullscreenexit"",""2"",""12821""
","","","","","","1354.6000000238419","images/dog7.png","","","memory_trial","4","definitely_new",""
"html-keyboard-response","51","267887","0.0-18.0-0.4","5934","approach_avoid_sv1","""event"",""trial"",""time""
""fullscreenenter"",""1"",""10472""
""fullscreenexit"",""2"",""12821""
","
","
","""event"",""trial"",""time""
""fullscreenenter"",""1"",""10472""
","""event"",""trial"",""time""
""fullscreenexit"",""2"",""12821""
","","","","","","null","<div style=""font-size:60px;"">+</div>","null","","fixation","","",""
"memory-trial","52","270717","0.0-18.0-1.4","5934","approach_avoid_sv1","""event"",""trial"",""time""
""fullscreenenter"",""1"",""10472""
""fullscreenexit"",""2"",""12821""
","
","
","""event"",""trial"",""time""
""fullscreenenter"",""1"",""10472""
","""event"",""trial"",""time""
""fullscreenexit"",""2"",""12821""
","","","","","","1808.5999999046326","images/rodent7.png","","","memory_trial","2","maybe_old",""
"html-keyboard-response","53","271237","0.0-18.0-0.5","5934","approach_avoid_sv1","""event"",""trial"",""time""
""fullscreenenter"",""1"",""10472""
""fullscreenexit"",""2"",""12821""
","
","
","""event"",""trial"",""time""
""fullscreenenter"",""1"",""10472""
","""event"",""trial"",""time""
""fullscreenexit"",""2"",""12821""
","","","","","","null","<div style=""font-size:60px;"">+</div>","null","","fixation","","",""
"memory-trial","54","273317","0.0-18.0-1.5","5934","approach_avoid_sv1","""event"",""trial"",""time""
""fullscreenenter"",""1"",""10472""
""fullscreenexit"",""2"",""12821""
","
","
","""event"",""trial"",""time""
""fullscreenenter"",""1"",""10472""
","""event"",""trial"",""time""
""fullscreenexit"",""2"",""12821""
","","","","","","1058.2999999523163","images/goat1.png","","","memory_trial","3","maybe_new",""
"html-keyboard-response","55","273837","0.0-18.0-0.6","5934","approach_avoid_sv1","""event"",""trial"",""time""
""fullscreenenter"",""1"",""10472""
""fullscreenexit"",""2"",""12821""
","
","
","""event"",""trial"",""time""
""fullscreenenter"",""1"",""10472""
","""event"",""trial"",""time""
""fullscreenexit"",""2"",""12821""
","","","","","","null","<div style=""font-size:60px;"">+</div>","null","","fixation","","",""
"memory-trial","56","277047","0.0-18.0-1.6","5934","approach_avoid_sv1","""event"",""trial"",""time""
""fullscreenenter"",""1"",""10472""
""fullscreenexit"",""2"",""12821""
","
","
","""event"",""trial"",""time""
""fullscreenenter"",""1"",""10472""
","""event"",""trial"",""time""
""fullscreenexit"",""2"",""12821""
","","","","","","2206","images/tree1.png","","","memory_trial","2","maybe_old",""
"html-keyboard-response","57","277567","0.0-18.0-0.7","5934","approach_avoid_sv1","""event"",""trial"",""time""
""fullscreenenter"",""1"",""10472""
""fullscreenexit"",""2"",""12821""
","
","
","""event"",""trial"",""time""
""fullscreenenter"",""1"",""10472""
","""event"",""trial"",""time""
""fullscreenexit"",""2"",""12821""
","","","","","","null","<div style=""font-size:60px;"">+</div>","null","","fixation","","",""
"memory-trial","58","280743","0.0-18.0-1.7","5934","approach_avoid_sv1","""event"",""trial"",""time""
""fullscreenenter"",""1"",""10472""
""fullscreenexit"",""2"",""12821""
","
","
","""event"",""trial"",""time""
""fullscreenenter"",""1"",""10472""
","""event"",""trial"",""time""
""fullscreenexit"",""2"",""12821""
","","","","","","2169.7000000476837","images/sheep5.png","","","memory_trial","1","definitely_old",""
"html-keyboard-response","59","281246","0.0-18.0-0.8","5934","approach_avoid_sv1","""event"",""trial"",""time""
""fullscreenenter"",""1"",""10472""
""fullscreenexit"",""2"",""12821""
","
","
","""event"",""trial"",""time""
""fullscreenenter"",""1"",""10472""
","""event"",""trial"",""time""
""fullscreenexit"",""2"",""12821""
","","","","","","null","<div style=""font-size:60px;"">+</div>","null","","fixation","","",""
"memory-trial","60","285000","0.0-18.0-1.8","5934","approach_avoid_sv1","""event"",""trial"",""time""
""fullscreenenter"",""1"",""10472""
""fullscreenexit"",""2"",""12821""
","
","
","""event"",""trial"",""time""
""fullscreenenter"",""1"",""10472""
","""event"",""trial"",""time""
""fullscreenexit"",""2"",""12821""
","","","","","","2736.7999999523163","images/cactus2.png","","","memory_trial","2","maybe_old",""
"html-keyboard-response","61","285502","0.0-18.0-0.9","5934","approach_avoid_sv1","""event"",""trial"",""time""
""fullscreenenter"",""1"",""10472""
""fullscreenexit"",""2"",""12821""
","
","
","""event"",""trial"",""time""
""fullscreenenter"",""1"",""10472""
","""event"",""trial"",""time""
""fullscreenexit"",""2"",""12821""
","","","","","","null","<div style=""font-size:60px;"">+</div>","null","","fixation","","",""
"memory-trial","62","287712","0.0-18.0-1.9","5934","approach_avoid_sv1","""event"",""trial"",""time""
""fullscreenenter"",""1"",""10472""
""fullscreenexit"",""2"",""12821""
","
","
","""event"",""trial"",""time""
""fullscreenenter"",""1"",""10472""
","""event"",""trial"",""time""
""fullscreenexit"",""2"",""12821""
","","","","","","1202.7999999523163","images/sofa1.png","","","memory_trial","4","definitely_new",""
"html-keyboard-response","63","288214","0.0-18.0-0.10","5934","approach_avoid_sv1","""event"",""trial"",""time""
""fullscreenenter"",""1"",""10472""
""fullscreenexit"",""2"",""12821""
","
","
","""event"",""trial"",""time""
""fullscreenenter"",""1"",""10472""
","""event"",""trial"",""time""
""fullscreenexit"",""2"",""12821""
","","","","","","null","<div style=""font-size:60px;"">+</div>","null","","fixation","","",""
"memory-trial","64","290270","0.0-18.0-1.10","5934","approach_avoid_sv1","""event"",""trial"",""time""
""fullscreenenter"",""1"",""10472""
""fullscreenexit"",""2"",""12821""
","
","
","""event"",""trial"",""time""
""fullscreenenter"",""1"",""10472""
","""event"",""trial"",""time""
""fullscreenexit"",""2"",""12821""
","","","","","","1051.5","images/dog5.png","","","memory_trial","4","definitely_new",""
"html-keyboard-response","65","290781","0.0-18.0-0.11","5934","approach_avoid_sv1","""event"",""trial"",""time""
""fullscreenenter"",""1"",""10472""
""fullscreenexit"",""2"",""12821""
","
","
","""event"",""trial"",""time""
""fullscreenenter"",""1"",""10472""
","""event"",""trial"",""time""
""fullscreenexit"",""2"",""12821""
","","","","","","null","<div style=""font-size:60px;"">+</div>","null","","fixation","","",""
"memory-trial","66","292903","0.0-18.0-1.11","5934","approach_avoid_sv1","""event"",""trial"",""time""
""fullscreenenter"",""1"",""10472""
""fullscreenexit"",""2"",""12821""
","
","
","""event"",""trial"",""time""
""fullscreenenter"",""1"",""10472""
","""event"",""trial"",""time""
""fullscreenexit"",""2"",""12821""
","","","","","","1117.3999999761581","images/bed1.png","","","memory_trial","4","definitely_new",""
"html-keyboard-response","67","293406","0.0-18.0-0.12","5934","approach_avoid_sv1","""event"",""trial"",""time""
""fullscreenenter"",""1"",""10472""
""fullscreenexit"",""2"",""12821""
","
","
","""event"",""trial"",""time""
""fullscreenenter"",""1"",""10472""
","""event"",""trial"",""time""
""fullscreenexit"",""2"",""12821""
","","","","","","null","<div style=""font-size:60px;"">+</div>","null","","fixation","","",""
"memory-trial","68","296558","0.0-18.0-1.12","5934","approach_avoid_sv1","""event"",""trial"",""time""
""fullscreenenter"",""1"",""10472""
""fullscreenexit"",""2"",""12821""
","
","
","""event"",""trial"",""time""
""fullscreenenter"",""1"",""10472""
","""event"",""trial"",""time""
""fullscreenexit"",""2"",""12821""
","","","","","","2146.7999999523163","images/bush7.png","","","memory_trial","2","maybe_old",""
"html-keyboard-response","69","297062","0.0-18.0-0.13","5934","approach_avoid_sv1","""event"",""trial"",""time""
""fullscreenenter"",""1"",""10472""
""fullscreenexit"",""2"",""12821""
","
","
","""event"",""trial"",""time""
""fullscreenenter"",""1"",""10472""
","""event"",""trial"",""time""
""fullscreenexit"",""2"",""12821""
","","","","","","null","<div style=""font-size:60px;"">+</div>","null","","fixation","","",""
"memory-trial","70","299237","0.0-18.0-1.13","5934","approach_avoid_sv1","""event"",""trial"",""time""
""fullscreenenter"",""1"",""10472""
""fullscreenexit"",""2"",""12821""
","
","
","""event"",""trial"",""time""
""fullscreenenter"",""1"",""10472""
","""event"",""trial"",""time""
""fullscreenexit"",""2"",""12821""
","","","","","","1165.5","images/chair4.png","","","memory_trial","4","definitely_new",""
"html-keyboard-response","71","299743","0.0-18.0-0.14","5934","approach_avoid_sv1","""event"",""trial"",""time""
""fullscreenenter"",""1"",""10472""
""fullscreenexit"",""2"",""12821""
","
","
","""event"",""trial"",""time""
""fullscreenenter"",""1"",""10472""
","""event"",""trial"",""time""
""fullscreenexit"",""2"",""12821""
","","","","","","null","<div style=""font-size:60px;"">+</div>","null","","fixation","","",""
"memory-trial","72","303590","0.0-18.0-1.14","5934","approach_avoid_sv1","""event"",""trial"",""time""
""fullscreenenter"",""1"",""10472""
""fullscreenexit"",""2"",""12821""
","
","
","""event"",""trial"",""time""
""fullscreenenter"",""1"",""10472""
","""event"",""trial"",""time""
""fullscreenexit"",""2"",""12821""
","","","","","","2845","images/sheep7.png","","","memory_trial","4","definitely_new",""
"html-keyboard-response","73","304094","0.0-18.0-0.15","5934","approach_avoid_sv1","""event"",""trial"",""time""
""fullscreenenter"",""1"",""10472""
""fullscreenexit"",""2"",""12821""
","
","
","""event"",""trial"",""time""
""fullscreenenter"",""1"",""10472""
","""event"",""trial"",""time""
""fullscreenexit"",""2"",""12821""
","","","","","","null","<div style=""font-size:60px;"">+</div>","null","","fixation","","",""
"memory-trial","74","306702","0.0-18.0-1.15","5934","approach_avoid_sv1","""event"",""trial"",""time""
""fullscreenenter"",""1"",""10472""
""fullscreenexit"",""2"",""12821""
","
","
","""event"",""trial"",""time""
""fullscreenenter"",""1"",""10472""
","""event"",""trial"",""time""
""fullscreenexit"",""2"",""12821""
","","","","","","1605.3999999761581","images/tree6.png","","","memory_trial","2","maybe_old",""
"html-keyboard-response","75","307206","0.0-18.0-0.16","5934","approach_avoid_sv1","""event"",""trial"",""time""
""fullscreenenter"",""1"",""10472""
""fullscreenexit"",""2"",""12821""
","
","
","""event"",""trial"",""time""
""fullscreenenter"",""1"",""10472""
","""event"",""trial"",""time""
""fullscreenexit"",""2"",""12821""
","","","","","","null","<div style=""font-size:60px;"">+</div>","null","","fixation","","",""
"memory-trial","76","309838","0.0-18.0-1.16","5934","approach_avoid_sv1","""event"",""trial"",""time""
""fullscreenenter"",""1"",""10472""
""fullscreenexit"",""2"",""12821""
","
","
","""event"",""trial"",""time""
""fullscreenenter"",""1"",""10472""
","""event"",""trial"",""time""
""fullscreenexit"",""2"",""12821""
","","","","","","1627","images/flower5.png","","","memory_trial","4","definitely_new",""
"html-keyboard-response","77","310342","0.0-18.0-0.17","5934","approach_avoid_sv1","""event"",""trial"",""time""
""fullscreenenter"",""1"",""10472""
""fullscreenexit"",""2"",""12821""
","
","
","""event"",""trial"",""time""
""fullscreenenter"",""1"",""10472""
","""event"",""trial"",""time""
""fullscreenexit"",""2"",""12821""
","","","","","","null","<div style=""font-size:60px;"">+</div>","null","","fixation","","",""
"memory-trial","78","313023","0.0-18.0-1.17","5934","approach_avoid_sv1","""event"",""trial"",""time""
""fullscreenenter"",""1"",""10472""
""fullscreenexit"",""2"",""12821""
","
","
","""event"",""trial"",""time""
""fullscreenenter"",""1"",""10472""
","""event"",""trial"",""time""
""fullscreenexit"",""2"",""12821""
","","","","","","1675.7999999523163","images/flower1.png","","","memory_trial","2","maybe_old",""
"html-keyboard-response","79","313527","0.0-18.0-0.18","5934","approach_avoid_sv1","""event"",""trial"",""time""
""fullscreenenter"",""1"",""10472""
""fullscreenexit"",""2"",""12821""
","
","
","""event"",""trial"",""time""
""fullscreenenter"",""1"",""10472""
","""event"",""trial"",""time""
""fullscreenexit"",""2"",""12821""
","","","","","","null","<div style=""font-size:60px;"">+</div>","null","","fixation","","",""
"memory-trial","80","315924","0.0-18.0-1.18","5934","approach_avoid_sv1","""event"",""trial"",""time""
""fullscreenenter"",""1"",""10472""
""fullscreenexit"",""2"",""12821""
","
","
","""event"",""trial"",""time""
""fullscreenenter"",""1"",""10472""
","""event"",""trial"",""time""
""fullscreenexit"",""2"",""12821""
","","","","","","1379.5","images/chair6.png","","","memory_trial","1","definitely_old",""
"html-keyboard-response","81","316430","0.0-18.0-0.19","5934","approach_avoid_sv1","""event"",""trial"",""time""
""fullscreenenter"",""1"",""10472""
""fullscreenexit"",""2"",""12821""
","
","
","""event"",""trial"",""time""
""fullscreenenter"",""1"",""10472""
","""event"",""trial"",""time""
""fullscreenexit"",""2"",""12821""
","","","","","","null","<div style=""font-size:60px;"">+</div>","null","","fixation","","",""
"memory-trial","82","319223","0.0-18.0-1.19","5934","approach_avoid_sv1","""event"",""trial"",""time""
""fullscreenenter"",""1"",""10472""
""fullscreenexit"",""2"",""12821""
","
","
","""event"",""trial"",""time""
""fullscreenenter"",""1"",""10472""
","""event"",""trial"",""time""
""fullscreenexit"",""2"",""12821""
","","","","","","1788","images/straw3.png","","","memory_trial","2","maybe_old",""
"html-keyboard-response","83","319726","0.0-18.0-0.20","5934","approach_avoid_sv1","""event"",""trial"",""time""
""fullscreenenter"",""1"",""10472""
""fullscreenexit"",""2"",""12821""
","
","
","""event"",""trial"",""time""
""fullscreenenter"",""1"",""10472""
","""event"",""trial"",""time""
""fullscreenexit"",""2"",""12821""
","","","","","","null","<div style=""font-size:60px;"">+</div>","null","","fixation","","",""
"memory-trial","84","321774","0.0-18.0-1.20","5934","approach_avoid_sv1","""event"",""trial"",""time""
""fullscreenenter"",""1"",""10472""
""fullscreenexit"",""2"",""12821""
","
","
","""event"",""trial"",""time""
""fullscreenenter"",""1"",""10472""
","""event"",""trial"",""time""
""fullscreenexit"",""2"",""12821""
","","","","","","1046.4000000953674","images/bed3.png","","","memory_trial","1","definitely_old",""
"html-keyboard-response","85","322279","0.0-18.0-0.21","5934","approach_avoid_sv1","""event"",""trial"",""time""
""fullscreenenter"",""1"",""10472""
""fullscreenexit"",""2"",""12821""
","
","
","""event"",""trial"",""time""
""fullscreenenter"",""1"",""10472""
","""event"",""trial"",""time""
""fullscreenexit"",""2"",""12821""
","","","","","","null","<div style=""font-size:60px;"">+</div>","null","","fixation","","",""
"memory-trial","86","324534","0.0-18.0-1.21","5934","approach_avoid_sv1","""event"",""trial"",""time""
""fullscreenenter"",""1"",""10472""
""fullscreenexit"",""2"",""12821""
","
","
","""event"",""trial"",""time""
""fullscreenenter"",""1"",""10472""
","""event"",""trial"",""time""
""fullscreenexit"",""2"",""12821""
","","","","","","1252.2000000476837","images/rodent6.png","","","memory_trial","1","definitely_old",""
"html-keyboard-response","87","325038","0.0-18.0-0.22","5934","approach_avoid_sv1","""event"",""trial"",""time""
""fullscreenenter"",""1"",""10472""
""fullscreenexit"",""2"",""12821""
","
","
","""event"",""trial"",""time""
""fullscreenenter"",""1"",""10472""
","""event"",""trial"",""time""
""fullscreenexit"",""2"",""12821""
","","","","","","null","<div style=""font-size:60px;"">+</div>","null","","fixation","","",""
"memory-trial","88","328071","0.0-18.0-1.22","5934","approach_avoid_sv1","""event"",""trial"",""time""
""fullscreenenter"",""1"",""10472""
""fullscreenexit"",""2"",""12821""
","
","
","""event"",""trial"",""time""
""fullscreenenter"",""1"",""10472""
","""event"",""trial"",""time""
""fullscreenexit"",""2"",""12821""
","","","","","","2029.1000000238419","images/sofa4.png","","","memory_trial","4","definitely_new",""
"html-keyboard-response","89","328574","0.0-18.0-0.23","5934","approach_avoid_sv1","""event"",""trial"",""time""
""fullscreenenter"",""1"",""10472""
""fullscreenexit"",""2"",""12821""
","
","
","""event"",""trial"",""time""
""fullscreenenter"",""1"",""10472""
","""event"",""trial"",""time""
""fullscreenexit"",""2"",""12821""
","","","","","","null","<div style=""font-size:60px;"">+</div>","null","","fixation","","",""
"memory-trial","90","331244","0.0-18.0-1.23","5934","approach_avoid_sv1","""event"",""trial"",""time""
""fullscreenenter"",""1"",""10472""
""fullscreenexit"",""2"",""12821""
","
","
","""event"",""trial"",""time""
""fullscreenenter"",""1"",""10472""
","""event"",""trial"",""time""
""fullscreenexit"",""2"",""12821""
","","","","","","1652.5","images/train1.png","","","memory_trial","2","maybe_old",""
"html-keyboard-response","91","331751","0.0-18.0-0.24","5934","approach_avoid_sv1","""event"",""trial"",""time""
""fullscreenenter"",""1"",""10472""
""fullscreenexit"",""2"",""12821""
","
","
","""event"",""trial"",""time""
""fullscreenenter"",""1"",""10472""
","""event"",""trial"",""time""
""fullscreenexit"",""2"",""12821""
","","","","","","null","<div style=""font-size:60px;"">+</div>","null","","fixation","","",""
"memory-trial","92","334951","0.0-18.0-1.24","5934","approach_avoid_sv1","""event"",""trial"",""time""
""fullscreenenter"",""1"",""10472""
""fullscreenexit"",""2"",""12821""
","
","
","""event"",""trial"",""time""
""fullscreenenter"",""1"",""10472""
","""event"",""trial"",""time""
""fullscreenexit"",""2"",""12821""
","","","","","","2189.100000023842","images/cow3.png","","","memory_trial","4","definitely_new",""
"html-keyboard-response","93","335454","0.0-18.0-0.25","5934","approach_avoid_sv1","""event"",""trial"",""time""
""fullscreenenter"",""1"",""10472""
""fullscreenexit"",""2"",""12821""
","
","
","""event"",""trial"",""time""
""fullscreenenter"",""1"",""10472""
","""event"",""trial"",""time""
""fullscreenexit"",""2"",""12821""
","","","","","","null","<div style=""font-size:60px;"">+</div>","null","","fixation","","",""
"memory-trial","94","339191","0.0-18.0-1.25","5934","approach_avoid_sv1","""event"",""trial"",""time""
""fullscreenenter"",""1"",""10472""
""fullscreenexit"",""2"",""12821""
","
","
","""event"",""trial"",""time""
""fullscreenenter"",""1"",""10472""
","""event"",""trial"",""time""
""fullscreenexit"",""2"",""12821""
","","","","","","2724.899999976158","images/boat3.png","","","memory_trial","3","maybe_new",""
"html-keyboard-response","95","339694","0.0-18.0-0.26","5934","approach_avoid_sv1","""event"",""trial"",""time""
""fullscreenenter"",""1"",""10472""
""fullscreenexit"",""2"",""12821""
","
","
","""event"",""trial"",""time""
""fullscreenenter"",""1"",""10472""
","""event"",""trial"",""time""
""fullscreenexit"",""2"",""12821""
","","","","","","null","<div style=""font-size:60px;"">+</div>","null","","fixation","","",""
"memory-trial","96","342122","0.0-18.0-1.26","5934","approach_avoid_sv1","""event"",""trial"",""time""
""fullscreenenter"",""1"",""10472""
""fullscreenexit"",""2"",""12821""
","
","
","""event"",""trial"",""time""
""fullscreenenter"",""1"",""10472""
","""event"",""trial"",""time""
""fullscreenexit"",""2"",""12821""
","","","","","","1411.2999999523163","images/orange6.png","","","memory_trial","2","maybe_old",""
"html-keyboard-response","97","342630","0.0-18.0-0.27","5934","approach_avoid_sv1","""event"",""trial"",""time""
""fullscreenenter"",""1"",""10472""
""fullscreenexit"",""2"",""12821""
","
","
","""event"",""trial"",""time""
""fullscreenenter"",""1"",""10472""
","""event"",""trial"",""time""
""fullscreenexit"",""2"",""12821""
","","","","","","null","<div style=""font-size:60px;"">+</div>","null","","fixation","","",""
"memory-trial","98","345407","0.0-18.0-1.27","5934","approach_avoid_sv1","""event"",""trial"",""time""
""fullscreenenter"",""1"",""10472""
""fullscreenexit"",""2"",""12821""
","
","
","""event"",""trial"",""time""
""fullscreenenter"",""1"",""10472""
","""event"",""trial"",""time""
""fullscreenexit"",""2"",""12821""
","","","","","","1765.3999999761581","images/cat6.png","","","memory_trial","4","definitely_new",""
"html-keyboard-response","99","345910","0.0-18.0-0.28","5934","approach_avoid_sv1","""event"",""trial"",""time""
""fullscreenenter"",""1"",""10472""
""fullscreenexit"",""2"",""12821""
","
","
","""event"",""trial"",""time""
""fullscreenenter"",""1"",""10472""
","""event"",""trial"",""time""
""fullscreenexit"",""2"",""12821""
","","","","","","null","<div style=""font-size:60px;"">+</div>","null","","fixation","","",""
"memory-trial","100","348382","0.0-18.0-1.28","5934","approach_avoid_sv1","""event"",""trial"",""time""
""fullscreenenter"",""1"",""10472""
""fullscreenexit"",""2"",""12821""
","
","
","""event"",""trial"",""time""
""fullscreenenter"",""1"",""10472""
","""event"",""trial"",""time""
""fullscreenexit"",""2"",""12821""
","","","","","","1462.2000000476837","images/sheep4.png","","","memory_trial","3","maybe_new",""
"html-keyboard-response","101","348886","0.0-18.0-0.29","5934","approach_avoid_sv1","""event"",""trial"",""time""
""fullscreenenter"",""1"",""10472""
""fullscreenexit"",""2"",""12821""
","
","
","""event"",""trial"",""time""
""fullscreenenter"",""1"",""10472""
","""event"",""trial"",""time""
""fullscreenexit"",""2"",""12821""
","","","","","","null","<div style=""font-size:60px;"">+</div>","null","","fixation","","",""
"memory-trial","102","351607","0.0-18.0-1.29","5934","approach_avoid_sv1","""event"",""trial"",""time""
""fullscreenenter"",""1"",""10472""
""fullscreenexit"",""2"",""12821""
","
","
","""event"",""trial"",""time""
""fullscreenenter"",""1"",""10472""
","""event"",""trial"",""time""
""fullscreenexit"",""2"",""12821""
","","","","","","1711.2999999523163","images/orange3.png","","","memory_trial","4","definitely_new",""
"html-keyboard-response","103","352111","0.0-18.0-0.30","5934","approach_avoid_sv1","""event"",""trial"",""time""
""fullscreenenter"",""1"",""10472""
""fullscreenexit"",""2"",""12821""
","
","
","""event"",""trial"",""time""
""fullscreenenter"",""1"",""10472""
","""event"",""trial"",""time""
""fullscreenexit"",""2"",""12821""
","","","","","","null","<div style=""font-size:60px;"">+</div>","null","","fixation","","",""
"memory-trial","104","354767","0.0-18.0-1.30","5934","approach_avoid_sv1","""event"",""trial"",""time""
""fullscreenenter"",""1"",""10472""
""fullscreenexit"",""2"",""12821""
","
","
","""event"",""trial"",""time""
""fullscreenenter"",""1"",""10472""
","""event"",""trial"",""time""
""fullscreenexit"",""2"",""12821""
","","","","","","1646.7000000476837","images/tree5.png","","","memory_trial","3","maybe_new",""
"html-keyboard-response","105","355270","0.0-18.0-0.31","5934","approach_avoid_sv1","""event"",""trial"",""time""
""fullscreenenter"",""1"",""10472""
""fullscreenexit"",""2"",""12821""
","
","
","""event"",""trial"",""time""
""fullscreenenter"",""1"",""10472""
","""event"",""trial"",""time""
""fullscreenexit"",""2"",""12821""
","","","","","","null","<div style=""font-size:60px;"">+</div>","null","","fixation","","",""
"memory-trial","106","357739","0.0-18.0-1.31","5934","approach_avoid_sv1","""event"",""trial"",""time""
""fullscreenenter"",""1"",""10472""
""fullscreenexit"",""2"",""12821""
","
","
","""event"",""trial"",""time""
""fullscreenenter"",""1"",""10472""
","""event"",""trial"",""time""
""fullscreenexit"",""2"",""12821""
","","","","","","1446.1999999284744","images/bush1.png","","","memory_trial","2","maybe_old",""
"html-keyboard-response","107","358247","0.0-18.0-0.32","5934","approach_avoid_sv1","""event"",""trial"",""time""
""fullscreenenter"",""1"",""10472""
""fullscreenexit"",""2"",""12821""
","
","
","""event"",""trial"",""time""
""fullscreenenter"",""1"",""10472""
","""event"",""trial"",""time""
""fullscreenexit"",""2"",""12821""
","","","","","","null","<div style=""font-size:60px;"">+</div>","null","","fixation","","",""
"memory-trial","108","361031","0.0-18.0-1.32","5934","approach_avoid_sv1","""event"",""trial"",""time""
""fullscreenenter"",""1"",""10472""
""fullscreenexit"",""2"",""12821""
","
","
","""event"",""trial"",""time""
""fullscreenenter"",""1"",""10472""
","""event"",""trial"",""time""
""fullscreenexit"",""2"",""12821""
","","","","","","1772.3999999761581","images/horse6.png","","","memory_trial","3","maybe_new",""
"html-keyboard-response","109","361534","0.0-18.0-0.33","5934","approach_avoid_sv1","""event"",""trial"",""time""
""fullscreenenter"",""1"",""10472""
""fullscreenexit"",""2"",""12821""
","
","
","""event"",""trial"",""time""
""fullscreenenter"",""1"",""10472""
","""event"",""trial"",""time""
""fullscreenexit"",""2"",""12821""
","","","","","","null","<div style=""font-size:60px;"">+</div>","null","","fixation","","",""
"memory-trial","110","365207","0.0-18.0-1.33","5934","approach_avoid_sv1","""event"",""trial"",""time""
""fullscreenenter"",""1"",""10472""
""fullscreenexit"",""2"",""12821""
","
","
","""event"",""trial"",""time""
""fullscreenenter"",""1"",""10472""
","""event"",""trial"",""time""
""fullscreenexit"",""2"",""12821""
","","","","","","2661.2999999523163","images/apple1.png","","","memory_trial","3","maybe_new",""
"html-keyboard-response","111","365711","0.0-18.0-0.34","5934","approach_avoid_sv1","""event"",""trial"",""time""
""fullscreenenter"",""1"",""10472""
""fullscreenexit"",""2"",""12821""
","
","
","""event"",""trial"",""time""
""fullscreenenter"",""1"",""10472""
","""event"",""trial"",""time""
""fullscreenexit"",""2"",""12821""
","","","","","","null","<div style=""font-size:60px;"">+</div>","null","","fixation","","",""
"memory-trial","112","367831","0.0-18.0-1.34","5934","approach_avoid_sv1","""event"",""trial"",""time""
""fullscreenenter"",""1"",""10472""
""fullscreenexit"",""2"",""12821""
","
","
","""event"",""trial"",""time""
""fullscreenenter"",""1"",""10472""
","""event"",""trial"",""time""
""fullscreenexit"",""2"",""12821""
","","","","","","1109.0999999046326","images/straw5.png","","","memory_trial","2","maybe_old",""
"html-keyboard-response","113","368334","0.0-18.0-0.35","5934","approach_avoid_sv1","""event"",""trial"",""time""
""fullscreenenter"",""1"",""10472""
""fullscreenexit"",""2"",""12821""
","
","
","""event"",""trial"",""time""
""fullscreenenter"",""1"",""10472""
","""event"",""trial"",""time""
""fullscreenexit"",""2"",""12821""
","","","","","","null","<div style=""font-size:60px;"">+</div>","null","","fixation","","",""
"memory-trial","114","370531","0.0-18.0-1.35","5934","approach_avoid_sv1","""event"",""trial"",""time""
""fullscreenenter"",""1"",""10472""
""fullscreenexit"",""2"",""12821""
","
","
","""event"",""trial"",""time""
""fullscreenenter"",""1"",""10472""
","""event"",""trial"",""time""
""fullscreenexit"",""2"",""12821""
","","","","","","1174.4000000953674","images/dog8.png","","","memory_trial","4","definitely_new",""
"html-keyboard-response","115","371038","0.0-18.0-0.36","5934","approach_avoid_sv1","""event"",""trial"",""time""
""fullscreenenter"",""1"",""10472""
""fullscreenexit"",""2"",""12821""
","
","
","""event"",""trial"",""time""
""fullscreenenter"",""1"",""10472""
","""event"",""trial"",""time""
""fullscreenexit"",""2"",""12821""
","","","","","","null","<div style=""font-size:60px;"">+</div>","null","","fixation","","",""
"memory-trial","116","373366","0.0-18.0-1.36","5934","approach_avoid_sv1","""event"",""trial"",""time""
""fullscreenenter"",""1"",""10472""
""fullscreenexit"",""2"",""12821""
","
","
","""event"",""trial"",""time""
""fullscreenenter"",""1"",""10472""
","""event"",""trial"",""time""
""fullscreenexit"",""2"",""12821""
","","","","","","1318.5","images/table1.png","","","memory_trial","1","definitely_old",""
"html-keyboard-response","117","373870","0.0-18.0-0.37","5934","approach_avoid_sv1","""event"",""trial"",""time""
""fullscreenenter"",""1"",""10472""
""fullscreenexit"",""2"",""12821""
","
","
","""event"",""trial"",""time""
""fullscreenenter"",""1"",""10472""
","""event"",""trial"",""time""
""fullscreenexit"",""2"",""12821""
","","","","","","null","<div style=""font-size:60px;"">+</div>","null","","fixation","","",""
"memory-trial","118","375981","0.0-18.0-1.37","5934","approach_avoid_sv1","""event"",""trial"",""time""
""fullscreenenter"",""1"",""10472""
""fullscreenexit"",""2"",""12821""
","
","
","""event"",""trial"",""time""
""fullscreenenter"",""1"",""10472""
","""event"",""trial"",""time""
""fullscreenexit"",""2"",""12821""
","","","","","","1101.7000000476837","images/cow1.png","","","memory_trial","1","definitely_old",""
"html-keyboard-response","119","376486","0.0-18.0-0.38","5934","approach_avoid_sv1","""event"",""trial"",""time""
""fullscreenenter"",""1"",""10472""
""fullscreenexit"",""2"",""12821""
","
","
","""event"",""trial"",""time""
""fullscreenenter"",""1"",""10472""
","""event"",""trial"",""time""
""fullscreenexit"",""2"",""12821""
","","","","","","null","<div style=""font-size:60px;"">+</div>","null","","fixation","","",""
"memory-trial","120","378973","0.0-18.0-1.38","5934","approach_avoid_sv1","""event"",""trial"",""time""
""fullscreenenter"",""1"",""10472""
""fullscreenexit"",""2"",""12821""
","
","
","""event"",""trial"",""time""
""fullscreenenter"",""1"",""10472""
","""event"",""trial"",""time""
""fullscreenexit"",""2"",""12821""
","","","","","","1462.7000000476837","images/cactus7.png","","","memory_trial","4","definitely_new",""
"html-keyboard-response","121","379478","0.0-18.0-0.39","5934","approach_avoid_sv1","""event"",""trial"",""time""
""fullscreenenter"",""1"",""10472""
""fullscreenexit"",""2"",""12821""
","
","
","""event"",""trial"",""time""
""fullscreenenter"",""1"",""10472""
","""event"",""trial"",""time""
""fullscreenexit"",""2"",""12821""
","","","","","","null","<div style=""font-size:60px;"">+</div>","null","","fixation","","",""
"memory-trial","122","383814","0.0-18.0-1.39","5934","approach_avoid_sv1","""event"",""trial"",""time""
""fullscreenenter"",""1"",""10472""
""fullscreenexit"",""2"",""12821""
","
","
","""event"",""trial"",""time""
""fullscreenenter"",""1"",""10472""
","""event"",""trial"",""time""
""fullscreenexit"",""2"",""12821""
","","","","","","3325.5","images/orange8.png","","","memory_trial","3","maybe_new",""
"html-keyboard-response","123","384318","0.0-18.0-0.40","5934","approach_avoid_sv1","""event"",""trial"",""time""
""fullscreenenter"",""1"",""10472""
""fullscreenexit"",""2"",""12821""
","
","
","""event"",""trial"",""time""
""fullscreenenter"",""1"",""10472""
","""event"",""trial"",""time""
""fullscreenexit"",""2"",""12821""
","","","","","","null","<div style=""font-size:60px;"">+</div>","null","","fixation","","",""
"memory-trial","124","387638","0.0-18.0-1.40","5934","approach_avoid_sv1","""event"",""trial"",""time""
""fullscreenenter"",""1"",""10472""
""fullscreenexit"",""2"",""12821""
","
","
","""event"",""trial"",""time""
""fullscreenenter"",""1"",""10472""
","""event"",""trial"",""time""
""fullscreenexit"",""2"",""12821""
","","","","","","2309.7000000476837","images/cat2.png","","","memory_trial","3","maybe_new",""
"html-keyboard-response","125","388143","0.0-18.0-0.41","5934","approach_avoid_sv1","""event"",""trial"",""time""
""fullscreenenter"",""1"",""10472""
""fullscreenexit"",""2"",""12821""
","
","
","""event"",""trial"",""time""
""fullscreenenter"",""1"",""10472""
","""event"",""trial"",""time""
""fullscreenexit"",""2"",""12821""
","","","","","","null","<div style=""font-size:60px;"">+</div>","null","","fixation","","",""
"memory-trial","126","391983","0.0-18.0-1.41","5934","approach_avoid_sv1","""event"",""trial"",""time""
""fullscreenenter"",""1"",""10472""
""fullscreenexit"",""2"",""12821""
","
","
","""event"",""trial"",""time""
""fullscreenenter"",""1"",""10472""
","""event"",""trial"",""time""
""fullscreenexit"",""2"",""12821""
","","","","","","2829.399999976158","images/boat4.png","","","memory_trial","4","definitely_new",""
"html-button-response","127","396464","0.0-18.0-2.41-0.41","5934","approach_avoid_sv1","""event"",""trial"",""time""
""fullscreenenter"",""1"",""10472""
""fullscreenexit"",""2"",""12821""
","
","
","""event"",""trial"",""time""
""fullscreenenter"",""1"",""10472""
","""event"",""trial"",""time""
""fullscreenexit"",""2"",""12821""
","","","","","","4480.199999928474","<p> Take a break! </p><p> Click the button to continue. </p>","0","","break","","",""
"html-keyboard-response","128","396966","0.0-18.0-0.42","5934","approach_avoid_sv1","""event"",""trial"",""time""
""fullscreenenter"",""1"",""10472""
""fullscreenexit"",""2"",""12821""
","
","
","""event"",""trial"",""time""
""fullscreenenter"",""1"",""10472""
","""event"",""trial"",""time""
""fullscreenexit"",""2"",""12821""
","","","","","","null","<div style=""font-size:60px;"">+</div>","null","","fixation","","",""
"memory-trial","129","399263","0.0-18.0-1.42","5934","approach_avoid_sv1","""event"",""trial"",""time""
""fullscreenenter"",""1"",""10472""
""fullscreenexit"",""2"",""12821""
","
","
","""event"",""trial"",""time""
""fullscreenenter"",""1"",""10472""
","""event"",""trial"",""time""
""fullscreenexit"",""2"",""12821""
","","","","","","1286.2000000476837","images/sofa5.png","","","memory_trial","4","definitely_new",""
"html-keyboard-response","130","399767","0.0-18.0-0.43","5934","approach_avoid_sv1","""event"",""trial"",""time""
""fullscreenenter"",""1"",""10472""
""fullscreenexit"",""2"",""12821""
","
","
","""event"",""trial"",""time""
""fullscreenenter"",""1"",""10472""
","""event"",""trial"",""time""
""fullscreenexit"",""2"",""12821""
","","","","","","null","<div style=""font-size:60px;"">+</div>","null","","fixation","","",""
"memory-trial","131","401878","0.0-18.0-1.43","5934","approach_avoid_sv1","""event"",""trial"",""time""
""fullscreenenter"",""1"",""10472""
""fullscreenexit"",""2"",""12821""
","
","
","""event"",""trial"",""time""
""fullscreenenter"",""1"",""10472""
","""event"",""trial"",""time""
""fullscreenexit"",""2"",""12821""
","","","","","","1100","images/sheep3.png","","","memory_trial","4","definitely_new",""
"html-keyboard-response","132","402382","0.0-18.0-0.44","5934","approach_avoid_sv1","""event"",""trial"",""time""
""fullscreenenter"",""1"",""10472""
""fullscreenexit"",""2"",""12821""
","
","
","""event"",""trial"",""time""
""fullscreenenter"",""1"",""10472""
","""event"",""trial"",""time""
""fullscreenexit"",""2"",""12821""
","","","","","","null","<div style=""font-size:60px;"">+</div>","null","","fixation","","",""
"memory-trial","133","404742","0.0-18.0-1.44","5934","approach_avoid_sv1","""event"",""trial"",""time""
""fullscreenenter"",""1"",""10472""
""fullscreenexit"",""2"",""12821""
","
","
","""event"",""trial"",""time""
""fullscreenenter"",""1"",""10472""
","""event"",""trial"",""time""
""fullscreenexit"",""2"",""12821""
","","","","","","1351.1999999284744","images/straw2.png","","","memory_trial","4","definitely_new",""
"html-keyboard-response","134","405247","0.0-18.0-0.45","5934","approach_avoid_sv1","""event"",""trial"",""time""
""fullscreenenter"",""1"",""10472""
""fullscreenexit"",""2"",""12821""
","
","
","""event"",""trial"",""time""
""fullscreenenter"",""1"",""10472""
","""event"",""trial"",""time""
""fullscreenexit"",""2"",""12821""
","","","","","","null","<div style=""font-size:60px;"">+</div>","null","","fixation","","",""
"memory-trial","135","407442","0.0-18.0-1.45","5934","approach_avoid_sv1","""event"",""trial"",""time""
""fullscreenenter"",""1"",""10472""
""fullscreenexit"",""2"",""12821""
","
","
","""event"",""trial"",""time""
""fullscreenenter"",""1"",""10472""
","""event"",""trial"",""time""
""fullscreenexit"",""2"",""12821""
","","","","","","1182.7000000476837","images/banana8.png","","","memory_trial","4","definitely_new",""
"html-keyboard-response","136","407951","0.0-18.0-0.46","5934","approach_avoid_sv1","""event"",""trial"",""time""
""fullscreenenter"",""1"",""10472""
""fullscreenexit"",""2"",""12821""
","
","
","""event"",""trial"",""time""
""fullscreenenter"",""1"",""10472""
","""event"",""trial"",""time""
""fullscreenexit"",""2"",""12821""
","","","","","","null","<div style=""font-size:60px;"">+</div>","null","","fixation","","",""
"memory-trial","137","410442","0.0-18.0-1.46","5934","approach_avoid_sv1","""event"",""trial"",""time""
""fullscreenenter"",""1"",""10472""
""fullscreenexit"",""2"",""12821""
","
","
","""event"",""trial"",""time""
""fullscreenenter"",""1"",""10472""
","""event"",""trial"",""time""
""fullscreenexit"",""2"",""12821""
","","","","","","1478.1999999284744","images/chair8.png","","","memory_trial","4","definitely_new",""
"html-keyboard-response","138","410950","0.0-18.0-0.47","5934","approach_avoid_sv1","""event"",""trial"",""time""
""fullscreenenter"",""1"",""10472""
""fullscreenexit"",""2"",""12821""
","
","
","""event"",""trial"",""time""
""fullscreenenter"",""1"",""10472""
","""event"",""trial"",""time""
""fullscreenexit"",""2"",""12821""
","","","","","","null","<div style=""font-size:60px;"">+</div>","null","","fixation","","",""
"memory-trial","139","412918","0.0-18.0-1.47","5934","approach_avoid_sv1","""event"",""trial"",""time""
""fullscreenenter"",""1"",""10472""
""fullscreenexit"",""2"",""12821""
","
","
","""event"",""trial"",""time""
""fullscreenenter"",""1"",""10472""
","""event"",""trial"",""time""
""fullscreenexit"",""2"",""12821""
","","","","","","957.8999999761581","images/cat7.png","","","memory_trial","4","definitely_new",""
"html-keyboard-response","140","413422","0.0-18.0-0.48","5934","approach_avoid_sv1","""event"",""trial"",""time""
""fullscreenenter"",""1"",""10472""
""fullscreenexit"",""2"",""12821""
","
","
","""event"",""trial"",""time""
""fullscreenenter"",""1"",""10472""
","""event"",""trial"",""time""
""fullscreenexit"",""2"",""12821""
","","","","","","null","<div style=""font-size:60px;"">+</div>","null","","fixation","","",""
"memory-trial","141","415408","0.0-18.0-1.48","5934","approach_avoid_sv1","""event"",""trial"",""time""
""fullscreenenter"",""1"",""10472""
""fullscreenexit"",""2"",""12821""
","
","
","""event"",""trial"",""time""
""fullscreenenter"",""1"",""10472""
","""event"",""trial"",""time""
""fullscreenexit"",""2"",""12821""
","","","","","","967.8000000715256","images/banana2.png","","","memory_trial","4","definitely_new",""
"html-keyboard-response","142","415910","0.0-18.0-0.49","5934","approach_avoid_sv1","""event"",""trial"",""time""
""fullscreenenter"",""1"",""10472""
""fullscreenexit"",""2"",""12821""
","
","
","""event"",""trial"",""time""
""fullscreenenter"",""1"",""10472""
","""event"",""trial"",""time""
""fullscreenexit"",""2"",""12821""
","","","","","","null","<div style=""font-size:60px;"">+</div>","null","","fixation","","",""
"memory-trial","143","418423","0.0-18.0-1.49","5934","approach_avoid_sv1","""event"",""trial"",""time""
""fullscreenenter"",""1"",""10472""
""fullscreenexit"",""2"",""12821""
","
","
","""event"",""trial"",""time""
""fullscreenenter"",""1"",""10472""
","""event"",""trial"",""time""
""fullscreenexit"",""2"",""12821""
","","","","","","1505.2000000476837","images/cow4.png","","","memory_trial","1","definitely_old",""
"html-keyboard-response","144","418926","0.0-18.0-0.50","5934","approach_avoid_sv1","""event"",""trial"",""time""
""fullscreenenter"",""1"",""10472""
""fullscreenexit"",""2"",""12821""
","
","
","""event"",""trial"",""time""
""fullscreenenter"",""1"",""10472""
","""event"",""trial"",""time""
""fullscreenexit"",""2"",""12821""
","","","","","","null","<div style=""font-size:60px;"">+</div>","null","","fixation","","",""
"memory-trial","145","421922","0.0-18.0-1.50","5934","approach_avoid_sv1","""event"",""trial"",""time""
""fullscreenenter"",""1"",""10472""
""fullscreenexit"",""2"",""12821""
","
","
","""event"",""trial"",""time""
""fullscreenenter"",""1"",""10472""
","""event"",""trial"",""time""
""fullscreenexit"",""2"",""12821""
","","","","","","1984.1000000238419","images/plane4.png","","","memory_trial","2","maybe_old",""
"html-keyboard-response","146","422430","0.0-18.0-0.51","5934","approach_avoid_sv1","""event"",""trial"",""time""
""fullscreenenter"",""1"",""10472""
""fullscreenexit"",""2"",""12821""
","
","
","""event"",""trial"",""time""
""fullscreenenter"",""1"",""10472""
","""event"",""trial"",""time""
""fullscreenexit"",""2"",""12821""
","","","","","","null","<div style=""font-size:60px;"">+</div>","null","","fixation","","",""
"memory-trial","147","425607","0.0-18.0-1.51","5934","approach_avoid_sv1","""event"",""trial"",""time""
""fullscreenenter"",""1"",""10472""
""fullscreenexit"",""2"",""12821""
","
","
","""event"",""trial"",""time""
""fullscreenenter"",""1"",""10472""
","""event"",""trial"",""time""
""fullscreenexit"",""2"",""12821""
","","","","","","2167","images/rabbit6.png","","","memory_trial","1","definitely_old",""
"html-keyboard-response","148","426110","0.0-18.0-0.52","5934","approach_avoid_sv1","""event"",""trial"",""time""
""fullscreenenter"",""1"",""10472""
""fullscreenexit"",""2"",""12821""
","
","
","""event"",""trial"",""time""
""fullscreenenter"",""1"",""10472""
","""event"",""trial"",""time""
""fullscreenexit"",""2"",""12821""
","","","","","","null","<div style=""font-size:60px;"">+</div>","null","","fixation","","",""
"memory-trial","149","428095","0.0-18.0-1.52","5934","approach_avoid_sv1","""event"",""trial"",""time""
""fullscreenenter"",""1"",""10472""
""fullscreenexit"",""2"",""12821""
","
","
","""event"",""trial"",""time""
""fullscreenenter"",""1"",""10472""
","""event"",""trial"",""time""
""fullscreenexit"",""2"",""12821""
","","","","","","975.4000000953674","images/banana7.png","","","memory_trial","4","definitely_new",""
"html-keyboard-response","150","428598","0.0-18.0-0.53","5934","approach_avoid_sv1","""event"",""trial"",""time""
""fullscreenenter"",""1"",""10472""
""fullscreenexit"",""2"",""12821""
","
","
","""event"",""trial"",""time""
""fullscreenenter"",""1"",""10472""
","""event"",""trial"",""time""
""fullscreenexit"",""2"",""12821""
","","","","","","null","<div style=""font-size:60px;"">+</div>","null","","fixation","","",""
"memory-trial","151","431285","0.0-18.0-1.53","5934","approach_avoid_sv1","""event"",""trial"",""time""
""fullscreenenter"",""1"",""10472""
""fullscreenexit"",""2"",""12821""
","
","
","""event"",""trial"",""time""
""fullscreenenter"",""1"",""10472""
","""event"",""trial"",""time""
""fullscreenexit"",""2"",""12821""
","","","","","","1673.6999999284744","images/goat2.png","","","memory_trial","2","maybe_old",""
"html-keyboard-response","152","431791","0.0-18.0-0.54","5934","approach_avoid_sv1","""event"",""trial"",""time""
""fullscreenenter"",""1"",""10472""
""fullscreenexit"",""2"",""12821""
","
","
","""event"",""trial"",""time""
""fullscreenenter"",""1"",""10472""
","""event"",""trial"",""time""
""fullscreenexit"",""2"",""12821""
","","","","","","null","<div style=""font-size:60px;"">+</div>","null","","fixation","","",""
"memory-trial","153","434350","0.0-18.0-1.54","5934","approach_avoid_sv1","""event"",""trial"",""time""
""fullscreenenter"",""1"",""10472""
""fullscreenexit"",""2"",""12821""
","
","
","""event"",""trial"",""time""
""fullscreenenter"",""1"",""10472""
","""event"",""trial"",""time""
""fullscreenexit"",""2"",""12821""
","","","","","","1550.6000000238419","images/train8.png","","","memory_trial","1","definitely_old",""
"html-keyboard-response","154","434860","0.0-18.0-0.55","5934","approach_avoid_sv1","""event"",""trial"",""time""
""fullscreenenter"",""1"",""10472""
""fullscreenexit"",""2"",""12821""
","
","
","""event"",""trial"",""time""
""fullscreenenter"",""1"",""10472""
","""event"",""trial"",""time""
""fullscreenexit"",""2"",""12821""
","","","","","","null","<div style=""font-size:60px;"">+</div>","null","","fixation","","",""
"memory-trial","155","436855","0.0-18.0-1.55","5934","approach_avoid_sv1","""event"",""trial"",""time""
""fullscreenenter"",""1"",""10472""
""fullscreenexit"",""2"",""12821""
","
","
","""event"",""trial"",""time""
""fullscreenenter"",""1"",""10472""
","""event"",""trial"",""time""
""fullscreenexit"",""2"",""12821""
","","","","","","986.3999999761581","images/banana1.png","","","memory_trial","4","definitely_new",""
"html-keyboard-response","156","437358","0.0-18.0-0.56","5934","approach_avoid_sv1","""event"",""trial"",""time""
""fullscreenenter"",""1"",""10472""
""fullscreenexit"",""2"",""12821""
","
","
","""event"",""trial"",""time""
""fullscreenenter"",""1"",""10472""
","""event"",""trial"",""time""
""fullscreenexit"",""2"",""12821""
","","","","","","null","<div style=""font-size:60px;"">+</div>","null","","fixation","","",""
"memory-trial","157","439223","0.0-18.0-1.56","5934","approach_avoid_sv1","""event"",""trial"",""time""
""fullscreenenter"",""1"",""10472""
""fullscreenexit"",""2"",""12821""
","
","
","""event"",""trial"",""time""
""fullscreenenter"",""1"",""10472""
","""event"",""trial"",""time""
""fullscreenexit"",""2"",""12821""
","","","","","","856.1000000238419","images/sheep8.png","","","memory_trial","4","definitely_new",""
"html-keyboard-response","158","439726","0.0-18.0-0.57","5934","approach_avoid_sv1","""event"",""trial"",""time""
""fullscreenenter"",""1"",""10472""
""fullscreenexit"",""2"",""12821""
","
","
","""event"",""trial"",""time""
""fullscreenenter"",""1"",""10472""
","""event"",""trial"",""time""
""fullscreenexit"",""2"",""12821""
","","","","","","null","<div style=""font-size:60px;"">+</div>","null","","fixation","","",""
"memory-trial","159","442167","0.0-18.0-1.57","5934","approach_avoid_sv1","""event"",""trial"",""time""
""fullscreenenter"",""1"",""10472""
""fullscreenexit"",""2"",""12821""
","
","
","""event"",""trial"",""time""
""fullscreenenter"",""1"",""10472""
","""event"",""trial"",""time""
""fullscreenexit"",""2"",""12821""
","","","","","","1432.0999999046326","images/table5.png","","","memory_trial","1","definitely_old",""
"html-keyboard-response","160","442671","0.0-18.0-0.58","5934","approach_avoid_sv1","""event"",""trial"",""time""
""fullscreenenter"",""1"",""10472""
""fullscreenexit"",""2"",""12821""
","
","
","""event"",""trial"",""time""
""fullscreenenter"",""1"",""10472""
","""event"",""trial"",""time""
""fullscreenexit"",""2"",""12821""
","","","","","","null","<div style=""font-size:60px;"">+</div>","null","","fixation","","",""
"memory-trial","161","445223","0.0-18.0-1.58","5934","approach_avoid_sv1","""event"",""trial"",""time""
""fullscreenenter"",""1"",""10472""
""fullscreenexit"",""2"",""12821""
","
","
","""event"",""trial"",""time""
""fullscreenenter"",""1"",""10472""
","""event"",""trial"",""time""
""fullscreenexit"",""2"",""12821""
","","","","","","1543.8000000715256","images/sofa6.png","","","memory_trial","3","maybe_new",""
"html-keyboard-response","162","445727","0.0-18.0-0.59","5934","approach_avoid_sv1","""event"",""trial"",""time""
""fullscreenenter"",""1"",""10472""
""fullscreenexit"",""2"",""12821""
","
","
","""event"",""trial"",""time""
""fullscreenenter"",""1"",""10472""
","""event"",""trial"",""time""
""fullscreenexit"",""2"",""12821""
","","","","","","null","<div style=""font-size:60px;"">+</div>","null","","fixation","","",""
"memory-trial","163","448583","0.0-18.0-1.59","5934","approach_avoid_sv1","""event"",""trial"",""time""
""fullscreenenter"",""1"",""10472""
""fullscreenexit"",""2"",""12821""
","
","
","""event"",""trial"",""time""
""fullscreenenter"",""1"",""10472""
","""event"",""trial"",""time""
""fullscreenexit"",""2"",""12821""
","","","","","","1848.5","images/apple5.png","","","memory_trial","1","definitely_old",""
"html-keyboard-response","164","449087","0.0-18.0-0.60","5934","approach_avoid_sv1","""event"",""trial"",""time""
""fullscreenenter"",""1"",""10472""
""fullscreenexit"",""2"",""12821""
","
","
","""event"",""trial"",""time""
""fullscreenenter"",""1"",""10472""
","""event"",""trial"",""time""
""fullscreenexit"",""2"",""12821""
","","","","","","null","<div style=""font-size:60px;"">+</div>","null","","fixation","","",""
"memory-trial","165","451271","0.0-18.0-1.60","5934","approach_avoid_sv1","""event"",""trial"",""time""
""fullscreenenter"",""1"",""10472""
""fullscreenexit"",""2"",""12821""
","
","
","""event"",""trial"",""time""
""fullscreenenter"",""1"",""10472""
","""event"",""trial"",""time""
""fullscreenexit"",""2"",""12821""
","","","","","","1173.7000000476837","images/boat6.png","","","memory_trial","1","definitely_old",""
"html-keyboard-response","166","451774","0.0-18.0-0.61","5934","approach_avoid_sv1","""event"",""trial"",""time""
""fullscreenenter"",""1"",""10472""
""fullscreenexit"",""2"",""12821""
","
","
","""event"",""trial"",""time""
""fullscreenenter"",""1"",""10472""
","""event"",""trial"",""time""
""fullscreenexit"",""2"",""12821""
","","","","","","null","<div style=""font-size:60px;"">+</div>","null","","fixation","","",""
"memory-trial","167","453822","0.0-18.0-1.61","5934","approach_avoid_sv1","""event"",""trial"",""time""
""fullscreenenter"",""1"",""10472""
""fullscreenexit"",""2"",""12821""
","
","
","""event"",""trial"",""time""
""fullscreenenter"",""1"",""10472""
","""event"",""trial"",""time""
""fullscreenexit"",""2"",""12821""
","","","","","","1039.8999999761581","images/horse8.png","","","memory_trial","1","definitely_old",""
"html-keyboard-response","168","454326","0.0-18.0-0.62","5934","approach_avoid_sv1","""event"",""trial"",""time""
""fullscreenenter"",""1"",""10472""
""fullscreenexit"",""2"",""12821""
","
","
","""event"",""trial"",""time""
""fullscreenenter"",""1"",""10472""
","""event"",""trial"",""time""
""fullscreenexit"",""2"",""12821""
","","","","","","null","<div style=""font-size:60px;"">+</div>","null","","fixation","","",""
"memory-trial","169","457638","0.0-18.0-1.62","5934","approach_avoid_sv1","""event"",""trial"",""time""
""fullscreenenter"",""1"",""10472""
""fullscreenexit"",""2"",""12821""
","
","
","""event"",""trial"",""time""
""fullscreenenter"",""1"",""10472""
","""event"",""trial"",""time""
""fullscreenexit"",""2"",""12821""
","","","","","","2307.399999976158","images/goat6.png","","","memory_trial","3","maybe_new",""
"html-keyboard-response","170","458142","0.0-18.0-0.63","5934","approach_avoid_sv1","""event"",""trial"",""time""
""fullscreenenter"",""1"",""10472""
""fullscreenexit"",""2"",""12821""
","
","
","""event"",""trial"",""time""
""fullscreenenter"",""1"",""10472""
","""event"",""trial"",""time""
""fullscreenexit"",""2"",""12821""
","","","","","","null","<div style=""font-size:60px;"">+</div>","null","","fixation","","",""
"memory-trial","171","460174","0.0-18.0-1.63","5934","approach_avoid_sv1","""event"",""trial"",""time""
""fullscreenenter"",""1"",""10472""
""fullscreenexit"",""2"",""12821""
","
","
","""event"",""trial"",""time""
""fullscreenenter"",""1"",""10472""
","""event"",""trial"",""time""
""fullscreenexit"",""2"",""12821""
","","","","","","1024.5","images/dog2.png","","","memory_trial","4","definitely_new",""
"html-keyboard-response","172","460678","0.0-18.0-0.64","5934","approach_avoid_sv1","""event"",""trial"",""time""
""fullscreenenter"",""1"",""10472""
""fullscreenexit"",""2"",""12821""
","
","
","""event"",""trial"",""time""
""fullscreenenter"",""1"",""10472""
","""event"",""trial"",""time""
""fullscreenexit"",""2"",""12821""
","","","","","","null","<div style=""font-size:60px;"">+</div>","null","","fixation","","",""
"memory-trial","173","463869","0.0-18.0-1.64","5934","approach_avoid_sv1","""event"",""trial"",""time""
""fullscreenenter"",""1"",""10472""
""fullscreenexit"",""2"",""12821""
","
","
","""event"",""trial"",""time""
""fullscreenenter"",""1"",""10472""
","""event"",""trial"",""time""
""fullscreenexit"",""2"",""12821""
","","","","","","2185.399999976158","images/chair3.png","","","memory_trial","2","maybe_old",""
"html-keyboard-response","174","464374","0.0-18.0-0.65","5934","approach_avoid_sv1","""event"",""trial"",""time""
""fullscreenenter"",""1"",""10472""
""fullscreenexit"",""2"",""12821""
","
","
","""event"",""trial"",""time""
""fullscreenenter"",""1"",""10472""
","""event"",""trial"",""time""
""fullscreenexit"",""2"",""12821""
","","","","","","null","<div style=""font-size:60px;"">+</div>","null","","fixation","","",""
"memory-trial","175","467175","0.0-18.0-1.65","5934","approach_avoid_sv1","""event"",""trial"",""time""
""fullscreenenter"",""1"",""10472""
""fullscreenexit"",""2"",""12821""
","
","
","""event"",""trial"",""time""
""fullscreenenter"",""1"",""10472""
","""event"",""trial"",""time""
""fullscreenexit"",""2"",""12821""
","","","","","","1792.5","images/cow5.png","","","memory_trial","3","maybe_new",""
"html-keyboard-response","176","467678","0.0-18.0-0.66","5934","approach_avoid_sv1","""event"",""trial"",""time""
""fullscreenenter"",""1"",""10472""
""fullscreenexit"",""2"",""12821""
","
","
","""event"",""trial"",""time""
""fullscreenenter"",""1"",""10472""
","""event"",""trial"",""time""
""fullscreenexit"",""2"",""12821""
","","","","","","null","<div style=""font-size:60px;"">+</div>","null","","fixation","","",""
"memory-trial","177","469663","0.0-18.0-1.66","5934","approach_avoid_sv1","""event"",""trial"",""time""
""fullscreenenter"",""1"",""10472""
""fullscreenexit"",""2"",""12821""
","
","
","""event"",""trial"",""time""
""fullscreenenter"",""1"",""10472""
","""event"",""trial"",""time""
""fullscreenexit"",""2"",""12821""
","","","","","","978.2999999523163","images/banana3.png","","","memory_trial","4","definitely_new",""
"html-keyboard-response","178","470167","0.0-18.0-0.67","5934","approach_avoid_sv1","""event"",""trial"",""time""
""fullscreenenter"",""1"",""10472""
""fullscreenexit"",""2"",""12821""
","
","
","""event"",""trial"",""time""
""fullscreenenter"",""1"",""10472""
","""event"",""trial"",""time""
""fullscreenexit"",""2"",""12821""
","","","","","","null","<div style=""font-size:60px;"">+</div>","null","","fixation","","",""
"memory-trial","179","472444","0.0-18.0-1.67","5934","approach_avoid_sv1","""event"",""trial"",""time""
""fullscreenenter"",""1"",""10472""
""fullscreenexit"",""2"",""12821""
","
","
","""event"",""trial"",""time""
""fullscreenenter"",""1"",""10472""
","""event"",""trial"",""time""
""fullscreenexit"",""2"",""12821""
","","","","","","1264.3999999761581","images/orange1.png","","","memory_trial","1","definitely_old",""
"html-keyboard-response","180","472950","0.0-18.0-0.68","5934","approach_avoid_sv1","""event"",""trial"",""time""
""fullscreenenter"",""1"",""10472""
""fullscreenexit"",""2"",""12821""
","
","
","""event"",""trial"",""time""
""fullscreenenter"",""1"",""10472""
","""event"",""trial"",""time""
""fullscreenexit"",""2"",""12821""
","","","","","","null","<div style=""font-size:60px;"">+</div>","null","","fixation","","",""
"memory-trial","181","476271","0.0-18.0-1.68","5934","approach_avoid_sv1","""event"",""trial"",""time""
""fullscreenenter"",""1"",""10472""
""fullscreenexit"",""2"",""12821""
","
","
","""event"",""trial"",""time""
""fullscreenenter"",""1"",""10472""
","""event"",""trial"",""time""
""fullscreenexit"",""2"",""12821""
","","","","","","2313.6999999284744","images/boat5.png","","","memory_trial","1","definitely_old",""
"html-keyboard-response","182","476775","0.0-18.0-0.69","5934","approach_avoid_sv1","""event"",""trial"",""time""
""fullscreenenter"",""1"",""10472""
""fullscreenexit"",""2"",""12821""
","
","
","""event"",""trial"",""time""
""fullscreenenter"",""1"",""10472""
","""event"",""trial"",""time""
""fullscreenexit"",""2"",""12821""
","","","","","","null","<div style=""font-size:60px;"">+</div>","null","","fixation","","",""
"memory-trial","183","478967","0.0-18.0-1.69","5934","approach_avoid_sv1","""event"",""trial"",""time""
""fullscreenenter"",""1"",""10472""
""fullscreenexit"",""2"",""12821""
","
","
","""event"",""trial"",""time""
""fullscreenenter"",""1"",""10472""
","""event"",""trial"",""time""
""fullscreenexit"",""2"",""12821""
","","","","","","1184.2999999523163","images/flower8.png","","","memory_trial","1","definitely_old",""
"html-keyboard-response","184","479471","0.0-18.0-0.70","5934","approach_avoid_sv1","""event"",""trial"",""time""
""fullscreenenter"",""1"",""10472""
""fullscreenexit"",""2"",""12821""
","
","
","""event"",""trial"",""time""
""fullscreenenter"",""1"",""10472""
","""event"",""trial"",""time""
""fullscreenexit"",""2"",""12821""
","","","","","","null","<div style=""font-size:60px;"">+</div>","null","","fixation","","",""
"memory-trial","185","482293","0.0-18.0-1.70","5934","approach_avoid_sv1","""event"",""trial"",""time""
""fullscreenenter"",""1"",""10472""
""fullscreenexit"",""2"",""12821""
","
","
","""event"",""trial"",""time""
""fullscreenenter"",""1"",""10472""
","""event"",""trial"",""time""
""fullscreenexit"",""2"",""12821""
","","","","","","1801.8999999761581","images/cat1.png","","","memory_trial","2","maybe_old",""
"html-keyboard-response","186","482799","0.0-18.0-0.71","5934","approach_avoid_sv1","""event"",""trial"",""time""
""fullscreenenter"",""1"",""10472""
""fullscreenexit"",""2"",""12821""
","
","
","""event"",""trial"",""time""
""fullscreenenter"",""1"",""10472""
","""event"",""trial"",""time""
""fullscreenexit"",""2"",""12821""
","","","","","","null","<div style=""font-size:60px;"">+</div>","null","","fixation","","",""
"memory-trial","187","485494","0.0-18.0-1.71","5934","approach_avoid_sv1","""event"",""trial"",""time""
""fullscreenenter"",""1"",""10472""
""fullscreenexit"",""2"",""12821""
","
","
","""event"",""trial"",""time""
""fullscreenenter"",""1"",""10472""
","""event"",""trial"",""time""
""fullscreenexit"",""2"",""12821""
","","","","","","1687.1000000238419","images/cow7.png","","","memory_trial","2","maybe_old",""
"html-keyboard-response","188","485998","0.0-18.0-0.72","5934","approach_avoid_sv1","""event"",""trial"",""time""
""fullscreenenter"",""1"",""10472""
""fullscreenexit"",""2"",""12821""
","
","
","""event"",""trial"",""time""
""fullscreenenter"",""1"",""10472""
","""event"",""trial"",""time""
""fullscreenexit"",""2"",""12821""
","","","","","","null","<div style=""font-size:60px;"">+</div>","null","","fixation","","",""
"memory-trial","189","489271","0.0-18.0-1.72","5934","approach_avoid_sv1","""event"",""trial"",""time""
""fullscreenenter"",""1"",""10472""
""fullscreenexit"",""2"",""12821""
","
","
","""event"",""trial"",""time""
""fullscreenenter"",""1"",""10472""
","""event"",""trial"",""time""
""fullscreenexit"",""2"",""12821""
","","","","","","2265.100000023842","images/cat4.png","","","memory_trial","1","definitely_old",""
"html-keyboard-response","190","489774","0.0-18.0-0.73","5934","approach_avoid_sv1","""event"",""trial"",""time""
""fullscreenenter"",""1"",""10472""
""fullscreenexit"",""2"",""12821""
","
","
","""event"",""trial"",""time""
""fullscreenenter"",""1"",""10472""
","""event"",""trial"",""time""
""fullscreenexit"",""2"",""12821""
","","","","","","null","<div style=""font-size:60px;"">+</div>","null","","fixation","","",""
"memory-trial","191","493590","0.0-18.0-1.73","5934","approach_avoid_sv1","""event"",""trial"",""time""
""fullscreenenter"",""1"",""10472""
""fullscreenexit"",""2"",""12821""
","
","
","""event"",""trial"",""time""
""fullscreenenter"",""1"",""10472""
","""event"",""trial"",""time""
""fullscreenexit"",""2"",""12821""
","","","","","","2810.8000000715256","images/truck5.png","","","memory_trial","3","maybe_new",""
"html-keyboard-response","192","494094","0.0-18.0-0.74","5934","approach_avoid_sv1","""event"",""trial"",""time""
""fullscreenenter"",""1"",""10472""
""fullscreenexit"",""2"",""12821""
","
","
","""event"",""trial"",""time""
""fullscreenenter"",""1"",""10472""
","""event"",""trial"",""time""
""fullscreenexit"",""2"",""12821""
","","","","","","null","<div style=""font-size:60px;"">+</div>","null","","fixation","","",""
"memory-trial","193","496430","0.0-18.0-1.74","5934","approach_avoid_sv1","""event"",""trial"",""time""
""fullscreenenter"",""1"",""10472""
""fullscreenexit"",""2"",""12821""
","
","
","""event"",""trial"",""time""
""fullscreenenter"",""1"",""10472""
","""event"",""trial"",""time""
""fullscreenexit"",""2"",""12821""
","","","","","","1330.8999999761581","images/chair1.png","","","memory_trial","2","maybe_old",""
"html-keyboard-response","194","496934","0.0-18.0-0.75","5934","approach_avoid_sv1","""event"",""trial"",""time""
""fullscreenenter"",""1"",""10472""
""fullscreenexit"",""2"",""12821""
","
","
","""event"",""trial"",""time""
""fullscreenenter"",""1"",""10472""
","""event"",""trial"",""time""
""fullscreenexit"",""2"",""12821""
","","","","","","null","<div style=""font-size:60px;"">+</div>","null","","fixation","","",""
"memory-trial","195","499518","0.0-18.0-1.75","5934","approach_avoid_sv1","""event"",""trial"",""time""
""fullscreenenter"",""1"",""10472""
""fullscreenexit"",""2"",""12821""
","
","
","""event"",""trial"",""time""
""fullscreenenter"",""1"",""10472""
","""event"",""trial"",""time""
""fullscreenexit"",""2"",""12821""
","","","","","","1578","images/horse7.png","","","memory_trial","4","definitely_new",""
"html-keyboard-response","196","500022","0.0-18.0-0.76","5934","approach_avoid_sv1","""event"",""trial"",""time""
""fullscreenenter"",""1"",""10472""
""fullscreenexit"",""2"",""12821""
","
","
","""event"",""trial"",""time""
""fullscreenenter"",""1"",""10472""
","""event"",""trial"",""time""
""fullscreenexit"",""2"",""12821""
","","","","","","null","<div style=""font-size:60px;"">+</div>","null","","fixation","","",""
"memory-trial","197","502298","0.0-18.0-1.76","5934","approach_avoid_sv1","""event"",""trial"",""time""
""fullscreenenter"",""1"",""10472""
""fullscreenexit"",""2"",""12821""
","
","
","""event"",""trial"",""time""
""fullscreenenter"",""1"",""10472""
","""event"",""trial"",""time""
""fullscreenexit"",""2"",""12821""
","","","","","","1258.2000000476837","images/flower6.png","","","memory_trial","4","definitely_new",""
"html-keyboard-response","198","502806","0.0-18.0-0.77","5934","approach_avoid_sv1","""event"",""trial"",""time""
""fullscreenenter"",""1"",""10472""
""fullscreenexit"",""2"",""12821""
","
","
","""event"",""trial"",""time""
""fullscreenenter"",""1"",""10472""
","""event"",""trial"",""time""
""fullscreenexit"",""2"",""12821""
","","","","","","null","<div style=""font-size:60px;"">+</div>","null","","fixation","","",""
"memory-trial","199","505558","0.0-18.0-1.77","5934","approach_avoid_sv1","""event"",""trial"",""time""
""fullscreenenter"",""1"",""10472""
""fullscreenexit"",""2"",""12821""
","
","
","""event"",""trial"",""time""
""fullscreenenter"",""1"",""10472""
","""event"",""trial"",""time""
""fullscreenexit"",""2"",""12821""
","","","","","","1746.6000000238419","images/train6.png","","","memory_trial","1","definitely_old",""
"html-keyboard-response","200","506062","0.0-18.0-0.78","5934","approach_avoid_sv1","""event"",""trial"",""time""
""fullscreenenter"",""1"",""10472""
""fullscreenexit"",""2"",""12821""
","
","
","""event"",""trial"",""time""
""fullscreenenter"",""1"",""10472""
","""event"",""trial"",""time""
""fullscreenexit"",""2"",""12821""
","","","","","","null","<div style=""font-size:60px;"">+</div>","null","","fixation","","",""
"memory-trial","201","508655","0.0-18.0-1.78","5934","approach_avoid_sv1","""event"",""trial"",""time""
""fullscreenenter"",""1"",""10472""
""fullscreenexit"",""2"",""12821""
","
","
","""event"",""trial"",""time""
""fullscreenenter"",""1"",""10472""
","""event"",""trial"",""time""
""fullscreenexit"",""2"",""12821""
","","","","","","1588.1999999284744","images/plane3.png","","","memory_trial","3","maybe_new",""
"html-keyboard-response","202","509158","0.0-18.0-0.79","5934","approach_avoid_sv1","""event"",""trial"",""time""
""fullscreenenter"",""1"",""10472""
""fullscreenexit"",""2"",""12821""
","
","
","""event"",""trial"",""time""
""fullscreenenter"",""1"",""10472""
","""event"",""trial"",""time""
""fullscreenexit"",""2"",""12821""
","","","","","","null","<div style=""font-size:60px;"">+</div>","null","","fixation","","",""
"memory-trial","203","511518","0.0-18.0-1.79","5934","approach_avoid_sv1","""event"",""trial"",""time""
""fullscreenenter"",""1"",""10472""
""fullscreenexit"",""2"",""12821""
","
","
","""event"",""trial"",""time""
""fullscreenenter"",""1"",""10472""
","""event"",""trial"",""time""
""fullscreenexit"",""2"",""12821""
","","","","","","1353.6000000238419","images/bush5.png","","","memory_trial","1","definitely_old",""
"html-keyboard-response","204","512037","0.0-18.0-0.80","5934","approach_avoid_sv1","""event"",""trial"",""time""
""fullscreenenter"",""1"",""10472""
""fullscreenexit"",""2"",""12821""
","
","
","""event"",""trial"",""time""
""fullscreenenter"",""1"",""10472""
","""event"",""trial"",""time""
""fullscreenexit"",""2"",""12821""
","","","","","","null","<div style=""font-size:60px;"">+</div>","null","","fixation","","",""
"memory-trial","205","514166","0.0-18.0-1.80","5934","approach_avoid_sv1","""event"",""trial"",""time""
""fullscreenenter"",""1"",""10472""
""fullscreenexit"",""2"",""12821""
","
","
","""event"",""trial"",""time""
""fullscreenenter"",""1"",""10472""
","""event"",""trial"",""time""
""fullscreenexit"",""2"",""12821""
","","","","","","1124.2000000476837","images/cow6.png","","","memory_trial","1","definitely_old",""
"html-keyboard-response","206","514670","0.0-18.0-0.81","5934","approach_avoid_sv1","""event"",""trial"",""time""
""fullscreenenter"",""1"",""10472""
""fullscreenexit"",""2"",""12821""
","
","
","""event"",""trial"",""time""
""fullscreenenter"",""1"",""10472""
","""event"",""trial"",""time""
""fullscreenexit"",""2"",""12821""
","","","","","","null","<div style=""font-size:60px;"">+</div>","null","","fixation","","",""
"memory-trial","207","517255","0.0-18.0-1.81","5934","approach_avoid_sv1","""event"",""trial"",""time""
""fullscreenenter"",""1"",""10472""
""fullscreenexit"",""2"",""12821""
","
","
","""event"",""trial"",""time""
""fullscreenenter"",""1"",""10472""
","""event"",""trial"",""time""
""fullscreenexit"",""2"",""12821""
","","","","","","1578.8000000715256","images/tree2.png","","","memory_trial","4","definitely_new",""
"html-keyboard-response","208","517758","0.0-18.0-0.82","5934","approach_avoid_sv1","""event"",""trial"",""time""
""fullscreenenter"",""1"",""10472""
""fullscreenexit"",""2"",""12821""
","
","
","""event"",""trial"",""time""
""fullscreenenter"",""1"",""10472""
","""event"",""trial"",""time""
""fullscreenexit"",""2"",""12821""
","","","","","","null","<div style=""font-size:60px;"">+</div>","null","","fixation","","",""
"memory-trial","209","520102","0.0-18.0-1.82","5934","approach_avoid_sv1","""event"",""trial"",""time""
""fullscreenenter"",""1"",""10472""
""fullscreenexit"",""2"",""12821""
","
","
","""event"",""trial"",""time""
""fullscreenenter"",""1"",""10472""
","""event"",""trial"",""time""
""fullscreenexit"",""2"",""12821""
","","","","","","1339.7000000476837","images/rabbit7.png","","","memory_trial","2","maybe_old",""
"html-keyboard-response","210","520606","0.0-18.0-0.83","5934","approach_avoid_sv1","""event"",""trial"",""time""
""fullscreenenter"",""1"",""10472""
""fullscreenexit"",""2"",""12821""
","
","
","""event"",""trial"",""time""
""fullscreenenter"",""1"",""10472""
","""event"",""trial"",""time""
""fullscreenexit"",""2"",""12821""
","","","","","","null","<div style=""font-size:60px;"">+</div>","null","","fixation","","",""
"memory-trial","211","523039","0.0-18.0-1.83","5934","approach_avoid_sv1","""event"",""trial"",""time""
""fullscreenenter"",""1"",""10472""
""fullscreenexit"",""2"",""12821""
","
","
","""event"",""trial"",""time""
""fullscreenenter"",""1"",""10472""
","""event"",""trial"",""time""
""fullscreenexit"",""2"",""12821""
","","","","","","1426.5","images/dog1.png","","","memory_trial","4","definitely_new",""
"html-keyboard-response","212","523542","0.0-18.0-0.84","5934","approach_avoid_sv1","""event"",""trial"",""time""
""fullscreenenter"",""1"",""10472""
""fullscreenexit"",""2"",""12821""
","
","
","""event"",""trial"",""time""
""fullscreenenter"",""1"",""10472""
","""event"",""trial"",""time""
""fullscreenexit"",""2"",""12821""
","","","","","","null","<div style=""font-size:60px;"">+</div>","null","","fixation","","",""
"memory-trial","213","526471","0.0-18.0-1.84","5934","approach_avoid_sv1","""event"",""trial"",""time""
""fullscreenenter"",""1"",""10472""
""fullscreenexit"",""2"",""12821""
","
","
","""event"",""trial"",""time""
""fullscreenenter"",""1"",""10472""
","""event"",""trial"",""time""
""fullscreenexit"",""2"",""12821""
","","","","","","1922.1000000238419","images/bush3.png","","","memory_trial","2","maybe_old",""
"html-keyboard-response","214","526974","0.0-18.0-0.85","5934","approach_avoid_sv1","""event"",""trial"",""time""
""fullscreenenter"",""1"",""10472""
""fullscreenexit"",""2"",""12821""
","
","
","""event"",""trial"",""time""
""fullscreenenter"",""1"",""10472""
","""event"",""trial"",""time""
""fullscreenexit"",""2"",""12821""
","","","","","","null","<div style=""font-size:60px;"">+</div>","null","","fixation","","",""
"memory-trial","215","530214","0.0-18.0-1.85","5934","approach_avoid_sv1","""event"",""trial"",""time""
""fullscreenenter"",""1"",""10472""
""fullscreenexit"",""2"",""12821""
","
","
","""event"",""trial"",""time""
""fullscreenenter"",""1"",""10472""
","""event"",""trial"",""time""
""fullscreenexit"",""2"",""12821""
","","","","","","2235.0999999046326","images/flower2.png","","","memory_trial","1","definitely_old",""
"html-keyboard-response","216","530718","0.0-18.0-0.86","5934","approach_avoid_sv1","""event"",""trial"",""time""
""fullscreenenter"",""1"",""10472""
""fullscreenexit"",""2"",""12821""
","
","
","""event"",""trial"",""time""
""fullscreenenter"",""1"",""10472""
","""event"",""trial"",""time""
""fullscreenexit"",""2"",""12821""
","","","","","","null","<div style=""font-size:60px;"">+</div>","null","","fixation","","",""
"memory-trial","217","533007","0.0-18.0-1.86","5934","approach_avoid_sv1","""event"",""trial"",""time""
""fullscreenenter"",""1"",""10472""
""fullscreenexit"",""2"",""12821""
","
","
","""event"",""trial"",""time""
""fullscreenenter"",""1"",""10472""
","""event"",""trial"",""time""
""fullscreenexit"",""2"",""12821""
","","","","","","1282.8999999761581","images/goat4.png","","","memory_trial","4","definitely_new",""
"html-keyboard-response","218","533511","0.0-18.0-0.87","5934","approach_avoid_sv1","""event"",""trial"",""time""
""fullscreenenter"",""1"",""10472""
""fullscreenexit"",""2"",""12821""
","
","
","""event"",""trial"",""time""
""fullscreenenter"",""1"",""10472""
","""event"",""trial"",""time""
""fullscreenexit"",""2"",""12821""
","","","","","","null","<div style=""font-size:60px;"">+</div>","null","","fixation","","",""
"memory-trial","219","536759","0.0-18.0-1.87","5934","approach_avoid_sv1","""event"",""trial"",""time""
""fullscreenenter"",""1"",""10472""
""fullscreenexit"",""2"",""12821""
","
","
","""event"",""trial"",""time""
""fullscreenenter"",""1"",""10472""
","""event"",""trial"",""time""
""fullscreenexit"",""2"",""12821""
","","","","","","2243.7000000476837","images/plane2.png","","","memory_trial","3","maybe_new",""
"html-keyboard-response","220","537263","0.0-18.0-0.88","5934","approach_avoid_sv1","""event"",""trial"",""time""
""fullscreenenter"",""1"",""10472""
""fullscreenexit"",""2"",""12821""
","
","
","""event"",""trial"",""time""
""fullscreenenter"",""1"",""10472""
","""event"",""trial"",""time""
""fullscreenexit"",""2"",""12821""
","","","","","","null","<div style=""font-size:60px;"">+</div>","null","","fixation","","",""
"memory-trial","221","539518","0.0-18.0-1.88","5934","approach_avoid_sv1","""event"",""trial"",""time""
""fullscreenenter"",""1"",""10472""
""fullscreenexit"",""2"",""12821""
","
","
","""event"",""trial"",""time""
""fullscreenenter"",""1"",""10472""
","""event"",""trial"",""time""
""fullscreenexit"",""2"",""12821""
","","","","","","1249.6999999284744","images/goat8.png","","","memory_trial","4","definitely_new",""
"html-keyboard-response","222","540023","0.0-18.0-0.89","5934","approach_avoid_sv1","""event"",""trial"",""time""
""fullscreenenter"",""1"",""10472""
""fullscreenexit"",""2"",""12821""
","
","
","""event"",""trial"",""time""
""fullscreenenter"",""1"",""10472""
","""event"",""trial"",""time""
""fullscreenexit"",""2"",""12821""
","","","","","","null","<div style=""font-size:60px;"">+</div>","null","","fixation","","",""
"memory-trial","223","542902","0.0-18.0-1.89","5934","approach_avoid_sv1","""event"",""trial"",""time""
""fullscreenenter"",""1"",""10472""
""fullscreenexit"",""2"",""12821""
","
","
","""event"",""trial"",""time""
""fullscreenenter"",""1"",""10472""
","""event"",""trial"",""time""
""fullscreenexit"",""2"",""12821""
","","","","","","1874.9000000953674","images/truck3.png","","","memory_trial","1","definitely_old",""
"html-keyboard-response","224","543407","0.0-18.0-0.90","5934","approach_avoid_sv1","""event"",""trial"",""time""
""fullscreenenter"",""1"",""10472""
""fullscreenexit"",""2"",""12821""
","
","
","""event"",""trial"",""time""
""fullscreenenter"",""1"",""10472""
","""event"",""trial"",""time""
""fullscreenexit"",""2"",""12821""
","","","","","","null","<div style=""font-size:60px;"">+</div>","null","","fixation","","",""
"memory-trial","225","545799","0.0-18.0-1.90","5934","approach_avoid_sv1","""event"",""trial"",""time""
""fullscreenenter"",""1"",""10472""
""fullscreenexit"",""2"",""12821""
","
","
","""event"",""trial"",""time""
""fullscreenenter"",""1"",""10472""
","""event"",""trial"",""time""
""fullscreenexit"",""2"",""12821""
","","","","","","1388.2000000476837","images/apple8.png","","","memory_trial","1","definitely_old",""
"html-keyboard-response","226","546302","0.0-18.0-0.91","5934","approach_avoid_sv1","""event"",""trial"",""time""
""fullscreenenter"",""1"",""10472""
""fullscreenexit"",""2"",""12821""
","
","
","""event"",""trial"",""time""
""fullscreenenter"",""1"",""10472""
","""event"",""trial"",""time""
""fullscreenexit"",""2"",""12821""
","","","","","","null","<div style=""font-size:60px;"">+</div>","null","","fixation","","",""
"memory-trial","227","548510","0.0-18.0-1.91","5934","approach_avoid_sv1","""event"",""trial"",""time""
""fullscreenenter"",""1"",""10472""
""fullscreenexit"",""2"",""12821""
","