"trial_type","trial_index","time_elapsed","internal_node_id","subject_id","task_version","interactions","blur_events","focus_events","fullscreenenter_events","fullscreenexit_events","success","timeout","failed_images","failed_audio","failed_video","rt","stimulus","response","button_pressed","task_part","key_press","answer","correct"
"pavlovia","0","57","0.0-0.0","4127","approach_avoid_sv1","""event"",""trial"",""time""
""focus"",""0"",""2""
","
","""event"",""trial"",""time""
""focus"",""0"",""2""
","
","
","","","","","","","","","","","","",""
"fullscreen","1","8204","0.0-1.0","4127","approach_avoid_sv1","""event"",""trial"",""time""
""focus"",""0"",""2""
""fullscreenenter"",""2"",""12398""
","
","""event"",""trial"",""time""
""focus"",""0"",""2""
","""event"",""trial"",""time""
""fullscreenenter"",""2"",""12398""
","
","true","","","","","","","","","","","",""
"preload","2","19459","0.0-2.0","4127","approach_avoid_sv1","""event"",""trial"",""time""
""focus"",""0"",""2""
""fullscreenenter"",""2"",""12398""
","
","""event"",""trial"",""time""
""focus"",""0"",""2""
","""event"",""trial"",""time""
""fullscreenenter"",""2"",""12398""
","
","true","false","[]","[]","[]","","","","","","","",""
"preload","3","22251","0.0-3.0","4127","approach_avoid_sv1","""event"",""trial"",""time""
""focus"",""0"",""2""
""fullscreenenter"",""2"",""12398""
","
","""event"",""trial"",""time""
""focus"",""0"",""2""
","""event"",""trial"",""time""
""fullscreenenter"",""2"",""12398""
","
","true","false","[]","[]","[]","","","","","","","",""
"preload","4","29559","0.0-4.0","4127","approach_avoid_sv1","""event"",""trial"",""time""
""focus"",""0"",""2""
""fullscreenenter"",""2"",""12398""
","
","""event"",""trial"",""time""
""focus"",""0"",""2""
","""event"",""trial"",""time""
""fullscreenenter"",""2"",""12398""
","
","true","false","[]","[]","[]","","","","","","","",""
"audio-keyboard-response","5","32801","0.0-5.0","4127","approach_avoid_sv1","""event"",""trial"",""time""
""focus"",""0"",""2""
""fullscreenenter"",""2"",""12398""
","
","""event"",""trial"",""time""
""focus"",""0"",""2""
","""event"",""trial"",""time""
""fullscreenenter"",""2"",""12398""
","
","","","","","","3202.6666666666665","audio/beep_loop.wav"," ","","","","",""
"audio-button-response","6","35048","0.0-6.0","4127","approach_avoid_sv1","""event"",""trial"",""time""
""focus"",""0"",""2""
""fullscreenenter"",""2"",""12398""
","
","""event"",""trial"",""time""
""focus"",""0"",""2""
","""event"",""trial"",""time""
""fullscreenenter"",""2"",""12398""
","
","","","","","","2251","audio/turtle.wav","3","","","","",""
"audio-button-response","7","37605","0.0-7.0","4127","approach_avoid_sv1","""event"",""trial"",""time""
""focus"",""0"",""2""
""fullscreenenter"",""2"",""12398""
","
","""event"",""trial"",""time""
""focus"",""0"",""2""
","""event"",""trial"",""time""
""fullscreenenter"",""2"",""12398""
","
","","","","","","1549","audio/shark.wav","2","","","","",""
"preload","8","42200","0.0-8.0","4127","approach_avoid_sv1","""event"",""trial"",""time""
""focus"",""0"",""2""
""fullscreenenter"",""2"",""12398""
","
","""event"",""trial"",""time""
""focus"",""0"",""2""
","""event"",""trial"",""time""
""fullscreenenter"",""2"",""12398""
","
","true","false","[]","[]","[]","","","","","","","",""
"learning-instructions","9","49341","0.0-9.0-0.0","4127","approach_avoid_sv1","""event"",""trial"",""time""
""focus"",""0"",""2""
""fullscreenenter"",""2"",""12398""
","
","""event"",""trial"",""time""
""focus"",""0"",""2""
","""event"",""trial"",""time""
""fullscreenenter"",""2"",""12398""
","
","","","","","","2653","<p> Welcome back! </p><p> Last week, you had to make choices about lots of different items.  </p>","","0","instructions","","",""
"learning-instructions","10","55278","0.0-9.0-0.1","4127","approach_avoid_sv1","""event"",""trial"",""time""
""focus"",""0"",""2""
""fullscreenenter"",""2"",""12398""
","
","""event"",""trial"",""time""
""focus"",""0"",""2""
","""event"",""trial"",""time""
""fullscreenenter"",""2"",""12398""
","
","","","","","","1810","<p> Today, we are going to ask you to try to remember all the items. </p>","","0","instructions","","",""
"learning-instructions","11","66077","0.0-9.0-0.2","4127","approach_avoid_sv1","""event"",""trial"",""time""
""focus"",""0"",""2""
""fullscreenenter"",""2"",""12398""
","
","""event"",""trial"",""time""
""focus"",""0"",""2""
","""event"",""trial"",""time""
""fullscreenenter"",""2"",""12398""
","
","","","","","","650","<p> On every trial, you will see an image. </p><p> The image may be an OLD image you saw during the games last week or it may be a NEW image that was not presented. </p>","","0","instructions","","",""
"learning-instructions","12","76128","0.0-9.0-0.3","4127","approach_avoid_sv1","""event"",""trial"",""time""
""focus"",""0"",""2""
""fullscreenenter"",""2"",""12398""
","
","""event"",""trial"",""time""
""focus"",""0"",""2""
","""event"",""trial"",""time""
""fullscreenenter"",""2"",""12398""
","
","","","","","","1530","<p> You need to select whether the image is:  </p><p>  'Definitely old', 'Maybe old', 'Maybe new', or 'Definitely new.'  </p><div class=""mem-choice-instructions-grid""><div class=""choice-option"" id=""choice-option-1"" ><img src=""images/definitely_old_1.png"" id=""choice-option-img-1"" class=""choice-option-img"" stage=""1""></div><div class=""choice-option"" id=""choice-option-2"" ><img src=""images/maybe_old_1.png"" id=""choice-option-img-2"" class=""choice-option-img"" stage=""1""></div><div class=""choice-option"" id=""choice-option-3"" ><img src=""images/maybe_new_1.png"" id=""choice-option-img-3"" class=""choice-option-img"" stage=""1""></div><div class=""choice-option"" id=""choice-option-4"" > <img src=""images/definitely_new_1.png"" id=""choice-option-img-4"" class=""choice-option-img"" stage=""1""></div></div>","","0","instructions","","",""
"learning-instructions","13","88582","0.0-9.0-0.4","4127","approach_avoid_sv1","""event"",""trial"",""time""
""focus"",""0"",""2""
""fullscreenenter"",""2"",""12398""
","
","""event"",""trial"",""time""
""focus"",""0"",""2""
","""event"",""trial"",""time""
""fullscreenenter"",""2"",""12398""
","
","","","","","","5921","<p> You should use the 1, 2, 3, and 4 keys to make your responses.  </p><div class=""mem-choice-instructions-grid""><div class=""choice-option"" id=""choice-option-1"" ><img src=""images/definitely_old.png"" id=""choice-option-img-1"" class=""choice-option-img"" stage=""1""></div><div class=""choice-option"" id=""choice-option-2"" ><img src=""images/maybe_old.png"" id=""choice-option-img-2"" class=""choice-option-img"" stage=""1""></div><div class=""choice-option"" id=""choice-option-3"" ><img src=""images/maybe_new.png"" id=""choice-option-img-3"" class=""choice-option-img"" stage=""1""></div><div class=""choice-option"" id=""choice-option-4"" > <img src=""images/definitely_new.png"" id=""choice-option-img-4"" class=""choice-option-img"" stage=""1""></div></div>","","0","instructions","","",""
"learning-instructions","14","95659","0.0-9.0-0.5","4127","approach_avoid_sv1","""event"",""trial"",""time""
""focus"",""0"",""2""
""fullscreenenter"",""2"",""12398""
","
","""event"",""trial"",""time""
""focus"",""0"",""2""
","""event"",""trial"",""time""
""fullscreenenter"",""2"",""12398""
","
","","","","","","721","<p> You will have 10 seconds to make each response.  </p><p>  Make sure to respond before time runs out! </p>","","0","instructions","","",""
"learning-instructions","15","103415","0.0-9.0-0.6","4127","approach_avoid_sv1","""event"",""trial"",""time""
""focus"",""0"",""2""
""fullscreenenter"",""2"",""12398""
","
","""event"",""trial"",""time""
""focus"",""0"",""2""
","""event"",""trial"",""time""
""fullscreenenter"",""2"",""12398""
","
","","","","","","668","<p> Today, you will see each image ONCE only.  </p><p>  That means none of the images will repeat. </p>","","0","instructions","","",""
"learning-instructions","16","117548","0.0-9.0-0.7","4127","approach_avoid_sv1","""event"",""trial"",""time""
""focus"",""0"",""2""
""fullscreenenter"",""2"",""12398""
","
","""event"",""trial"",""time""
""focus"",""0"",""2""
","""event"",""trial"",""time""
""fullscreenenter"",""2"",""12398""
","
","","","","","","1441","<p> Before you play the real game, it is time to practice. </p><p>  Just like in the real game, some of the images in the practice will be ones you have seen before. </p><p>  Others will be entirely new. </p>","","0","instructions","","",""
"html-button-response","17","120321","0.0-10.0","4127","approach_avoid_sv1","""event"",""trial"",""time""
""focus"",""0"",""2""
""fullscreenenter"",""2"",""12398""
","
","""event"",""trial"",""time""
""focus"",""0"",""2""
","""event"",""trial"",""time""
""fullscreenenter"",""2"",""12398""
","
","","","","","","2669","<p> Ready to practice? </p><p> Remember, use the 1, 2, 3, and 4 keys to make your responses. </p>","0","","instructions","","",""
"html-keyboard-response","18","120927","0.0-11.0-0.0","4127","approach_avoid_sv1","""event"",""trial"",""time""
""focus"",""0"",""2""
""fullscreenenter"",""2"",""12398""
","
","""event"",""trial"",""time""
""focus"",""0"",""2""
","""event"",""trial"",""time""
""fullscreenenter"",""2"",""12398""
","
","","","","","","null","<div style=""font-size:60px;"">+</div>","null","","fixation","","",""
"memory-trial","19","123895","0.0-11.0-1.0","4127","approach_avoid_sv1","""event"",""trial"",""time""
""focus"",""0"",""2""
""fullscreenenter"",""2"",""12398""
","
","""event"",""trial"",""time""
""focus"",""0"",""2""
","""event"",""trial"",""time""
""fullscreenenter"",""2"",""12398""
","
","","","","","","1959","images/ball1.png","","","practice","4","definitely_new",""
"html-keyboard-response","20","124425","0.0-11.0-0.1","4127","approach_avoid_sv1","""event"",""trial"",""time""
""focus"",""0"",""2""
""fullscreenenter"",""2"",""12398""
","
","""event"",""trial"",""time""
""focus"",""0"",""2""
","""event"",""trial"",""time""
""fullscreenenter"",""2"",""12398""
","
","","","","","","null","<div style=""font-size:60px;"">+</div>","null","","fixation","","",""
"memory-trial","21","126555","0.0-11.0-1.1","4127","approach_avoid_sv1","""event"",""trial"",""time""
""focus"",""0"",""2""
""fullscreenenter"",""2"",""12398""
","
","""event"",""trial"",""time""
""focus"",""0"",""2""
","""event"",""trial"",""time""
""fullscreenenter"",""2"",""12398""
","
","","","","","","1115","images/ball3.png","","","practice","4","definitely_new",""
"html-keyboard-response","22","127060","0.0-11.0-0.2","4127","approach_avoid_sv1","""event"",""trial"",""time""
""focus"",""0"",""2""
""fullscreenenter"",""2"",""12398""
","
","""event"",""trial"",""time""
""focus"",""0"",""2""
","""event"",""trial"",""time""
""fullscreenenter"",""2"",""12398""
","
","","","","","","null","<div style=""font-size:60px;"">+</div>","null","","fixation","","",""
"memory-trial","23","129712","0.0-11.0-1.2","4127","approach_avoid_sv1","""event"",""trial"",""time""
""focus"",""0"",""2""
""fullscreenenter"",""2"",""12398""
","
","""event"",""trial"",""time""
""focus"",""0"",""2""
","""event"",""trial"",""time""
""fullscreenenter"",""2"",""12398""
","
","","","","","","1636","images/racket2.png","","","practice","4","definitely_new",""
"html-keyboard-response","24","130228","0.0-11.0-0.3","4127","approach_avoid_sv1","""event"",""trial"",""time""
""focus"",""0"",""2""
""fullscreenenter"",""2"",""12398""
","
","""event"",""trial"",""time""
""focus"",""0"",""2""
","""event"",""trial"",""time""
""fullscreenenter"",""2"",""12398""
","
","","","","","","null","<div style=""font-size:60px;"">+</div>","null","","fixation","","",""
"memory-trial","25","133093","0.0-11.0-1.3","4127","approach_avoid_sv1","""event"",""trial"",""time""
""focus"",""0"",""2""
""fullscreenenter"",""2"",""12398""
","
","""event"",""trial"",""time""
""focus"",""0"",""2""
","""event"",""trial"",""time""
""fullscreenenter"",""2"",""12398""
","
","","","","","","1860","images/racket3.png","","","practice","3","maybe_new",""
"html-keyboard-response","26","133608","0.0-11.0-0.4","4127","approach_avoid_sv1","""event"",""trial"",""time""
""focus"",""0"",""2""
""fullscreenenter"",""2"",""12398""
","
","""event"",""trial"",""time""
""focus"",""0"",""2""
","""event"",""trial"",""time""
""fullscreenenter"",""2"",""12398""
","
","","","","","","null","<div style=""font-size:60px;"">+</div>","null","","fixation","","",""
"memory-trial","27","135925","0.0-11.0-1.4","4127","approach_avoid_sv1","""event"",""trial"",""time""
""focus"",""0"",""2""
""fullscreenenter"",""2"",""12398""
","
","""event"",""trial"",""time""
""focus"",""0"",""2""
","""event"",""trial"",""time""
""fullscreenenter"",""2"",""12398""
","
","","","","","","1302","images/ball5.png","","","practice","3","maybe_new",""
"html-keyboard-response","28","136439","0.0-11.0-0.5","4127","approach_avoid_sv1","""event"",""trial"",""time""
""focus"",""0"",""2""
""fullscreenenter"",""2"",""12398""
","
","""event"",""trial"",""time""
""focus"",""0"",""2""
","""event"",""trial"",""time""
""fullscreenenter"",""2"",""12398""
","
","","","","","","null","<div style=""font-size:60px;"">+</div>","null","","fixation","","",""
"memory-trial","29","138491","0.0-11.0-1.5","4127","approach_avoid_sv1","""event"",""trial"",""time""
""focus"",""0"",""2""
""fullscreenenter"",""2"",""12398""
","
","""event"",""trial"",""time""
""focus"",""0"",""2""
","""event"",""trial"",""time""
""fullscreenenter"",""2"",""12398""
","
","","","","","","1045","images/racket5.png","","","practice","3","maybe_new",""
"html-keyboard-response","30","139008","0.0-11.0-0.6","4127","approach_avoid_sv1","""event"",""trial"",""time""
""focus"",""0"",""2""
""fullscreenenter"",""2"",""12398""
","
","""event"",""trial"",""time""
""focus"",""0"",""2""
","""event"",""trial"",""time""
""fullscreenenter"",""2"",""12398""
","
","","","","","","null","<div style=""font-size:60px;"">+</div>","null","","fixation","","",""
"memory-trial","31","141187","0.0-11.0-1.6","4127","approach_avoid_sv1","""event"",""trial"",""time""
""focus"",""0"",""2""
""fullscreenenter"",""2"",""12398""
","
","""event"",""trial"",""time""
""focus"",""0"",""2""
","""event"",""trial"",""time""
""fullscreenenter"",""2"",""12398""
","
","","","","","","1157","images/racket1.png","","","practice","3","maybe_new",""
"html-keyboard-response","32","141703","0.0-11.0-0.7","4127","approach_avoid_sv1","""event"",""trial"",""time""
""focus"",""0"",""2""
""fullscreenenter"",""2"",""12398""
","
","""event"",""trial"",""time""
""focus"",""0"",""2""
","""event"",""trial"",""time""
""fullscreenenter"",""2"",""12398""
","
","","","","","","null","<div style=""font-size:60px;"">+</div>","null","","fixation","","",""
"memory-trial","33","144477","0.0-11.0-1.7","4127","approach_avoid_sv1","""event"",""trial"",""time""
""focus"",""0"",""2""
""fullscreenenter"",""2"",""12398""
","
","""event"",""trial"",""time""
""focus"",""0"",""2""
","""event"",""trial"",""time""
""fullscreenenter"",""2"",""12398""
","
","","","","","","1771","images/ball2.png","","","practice","3","maybe_new",""
"learning-instructions","34","167766","0.0-12.0-0.0","4127","approach_avoid_sv1","""event"",""trial"",""time""
""focus"",""0"",""2""
""fullscreenenter"",""2"",""12398""
","
","""event"",""trial"",""time""
""focus"",""0"",""2""
","""event"",""trial"",""time""
""fullscreenenter"",""2"",""12398""
","
","","","","","","15968","<p> Great! You have completed the practice. </p><p> Before you start, we're going to ask you a few questions about how the game works.  </p>","","0","instructions","","",""
"preload","35","171701","0.0-13.0","4127","approach_avoid_sv1","""event"",""trial"",""time""
""focus"",""0"",""2""
""fullscreenenter"",""2"",""12398""
","
","""event"",""trial"",""time""
""focus"",""0"",""2""
","""event"",""trial"",""time""
""fullscreenenter"",""2"",""12398""
","
","true","false","[]","[]","[]","","","","","","","",""
"comp-q","36","179667","0.0-14.0-0.0","4127","approach_avoid_sv1","""event"",""trial"",""time""
""focus"",""0"",""2""
""fullscreenenter"",""2"",""12398""
","
","""event"",""trial"",""time""
""focus"",""0"",""2""
","""event"",""trial"",""time""
""fullscreenenter"",""2"",""12398""
","
","","","","","","2130","<p> <b> True or False? </b> </p><p> In this game, you will only see each image once. </p>","","0","comp_question","","","true"
"comp-q","37","188541","0.0-14.0-1.0","4127","approach_avoid_sv1","""event"",""trial"",""time""
""focus"",""0"",""2""
""fullscreenenter"",""2"",""12398""
","
","""event"",""trial"",""time""
""focus"",""0"",""2""
","""event"",""trial"",""time""
""fullscreenenter"",""2"",""12398""
","
","","","","","","2534","<p> <b> That's right! </b> You will see many different images <i> one time each </i> in this game. </p>","","0","comp_answer","","",""
"comp-q","38","195148","0.0-15.0-0.0","4127","approach_avoid_sv1","""event"",""trial"",""time""
""focus"",""0"",""2""
""fullscreenenter"",""2"",""12398""
","
","""event"",""trial"",""time""
""focus"",""0"",""2""
","""event"",""trial"",""time""
""fullscreenenter"",""2"",""12398""
","
","","","","","","1592","<p> <b> True or False? </b> </p><p> You should use the mouse and click to make your response. </p>","","1","comp_question","","","true"
"comp-q","39","203653","0.0-15.0-1.0","4127","approach_avoid_sv1","""event"",""trial"",""time""
""focus"",""0"",""2""
""fullscreenenter"",""2"",""12398""
","
","""event"",""trial"",""time""
""focus"",""0"",""2""
","""event"",""trial"",""time""
""fullscreenenter"",""2"",""12398""
","
","","","","","","1995","<p><b> That's right! </b> You should use the '1', '2', '3', and '4' keys to make your response. </p>","","0","comp_answer","","",""
"comp-q","40","210576","0.0-16.0-0.0","4127","approach_avoid_sv1","""event"",""trial"",""time""
""focus"",""0"",""2""
""fullscreenenter"",""2"",""12398""
","
","""event"",""trial"",""time""
""focus"",""0"",""2""
","""event"",""trial"",""time""
""fullscreenenter"",""2"",""12398""
","
","","","","","","1228","<p> <b> True or False? </b> </p><p> You will have as much time as you want to make each choice. </p>","","1","comp_question","","","true"
"comp-q","41","225369","0.0-16.0-1.0","4127","approach_avoid_sv1","""event"",""trial"",""time""
""focus"",""0"",""2""
""fullscreenenter"",""2"",""12398""
","
","""event"",""trial"",""time""
""focus"",""0"",""2""
","""event"",""trial"",""time""
""fullscreenenter"",""2"",""12398""
","
","","","","","","10082","<p> <b> That's right! </b> You will only have 10 seconds to make each choice. </p>","","0","comp_answer","","",""
"learning-instructions","42","418900","0.0-17.0","4127","approach_avoid_sv1","""event"",""trial"",""time""
""focus"",""0"",""2""
""fullscreenenter"",""2"",""12398""
","
","""event"",""trial"",""time""
""focus"",""0"",""2""
","""event"",""trial"",""time""
""fullscreenenter"",""2"",""12398""
","
","","","","","","184842","<p> Great! You are now ready to begin the game. </p><p> Remember, use the 1, 2, 3, and 4 keys to make your responses. </p>","","0","instructions","","",""
"html-keyboard-response","43","419518","0.0-18.0-0.0","4127","approach_avoid_sv1","""event"",""trial"",""time""
""focus"",""0"",""2""
""fullscreenenter"",""2"",""12398""
","
","""event"",""trial"",""time""
""focus"",""0"",""2""
","""event"",""trial"",""time""
""fullscreenenter"",""2"",""12398""
","
","","","","","","null","<div style=""font-size:60px;"">+</div>","null","","fixation","","",""
"memory-trial","44","423242","0.0-18.0-1.0","4127","approach_avoid_sv1","""event"",""trial"",""time""
""focus"",""0"",""2""
""fullscreenenter"",""2"",""12398""
","
","""event"",""trial"",""time""
""focus"",""0"",""2""
","""event"",""trial"",""time""
""fullscreenenter"",""2"",""12398""
","
","","","","","","2708","images/bed3.png","","","memory_trial","4","definitely_new",""
"html-keyboard-response","45","423757","0.0-18.0-0.1","4127","approach_avoid_sv1","""event"",""trial"",""time""
""focus"",""0"",""2""
""fullscreenenter"",""2"",""12398""
","
","""event"",""trial"",""time""
""focus"",""0"",""2""
","""event"",""trial"",""time""
""fullscreenenter"",""2"",""12398""
","
","","","","","","null","<div style=""font-size:60px;"">+</div>","null","","fixation","","",""
"memory-trial","46","426720","0.0-18.0-1.1","4127","approach_avoid_sv1","""event"",""trial"",""time""
""focus"",""0"",""2""
""fullscreenenter"",""2"",""12398""
","
","""event"",""trial"",""time""
""focus"",""0"",""2""
","""event"",""trial"",""time""
""fullscreenenter"",""2"",""12398""
","
","","","","","","1945","images/banana2.png","","","memory_trial","3","maybe_new",""
"html-keyboard-response","47","427224","0.0-18.0-0.2","4127","approach_avoid_sv1","""event"",""trial"",""time""
""focus"",""0"",""2""
""fullscreenenter"",""2"",""12398""
","
","""event"",""trial"",""time""
""focus"",""0"",""2""
","""event"",""trial"",""time""
""fullscreenenter"",""2"",""12398""
","
","","","","","","null","<div style=""font-size:60px;"">+</div>","null","","fixation","","",""
"memory-trial","48","429955","0.0-18.0-1.2","4127","approach_avoid_sv1","""event"",""trial"",""time""
""focus"",""0"",""2""
""fullscreenenter"",""2"",""12398""
","
","""event"",""trial"",""time""
""focus"",""0"",""2""
","""event"",""trial"",""time""
""fullscreenenter"",""2"",""12398""
","
","","","","","","1716","images/sofa5.png","","","memory_trial","2","maybe_old",""
"html-keyboard-response","49","430467","0.0-18.0-0.3","4127","approach_avoid_sv1","""event"",""trial"",""time""
""focus"",""0"",""2""
""fullscreenenter"",""2"",""12398""
","
","""event"",""trial"",""time""
""focus"",""0"",""2""
","""event"",""trial"",""time""
""fullscreenenter"",""2"",""12398""
","
","","","","","","null","<div style=""font-size:60px;"">+</div>","null","","fixation","","",""
"memory-trial","50","432965","0.0-18.0-1.3","4127","approach_avoid_sv1","""event"",""trial"",""time""
""focus"",""0"",""2""
""fullscreenenter"",""2"",""12398""
","
","""event"",""trial"",""time""
""focus"",""0"",""2""
","""event"",""trial"",""time""
""fullscreenenter"",""2"",""12398""
","
","","","","","","1477","images/chair7.png","","","memory_trial","2","maybe_old",""
"html-keyboard-response","51","433478","0.0-18.0-0.4","4127","approach_avoid_sv1","""event"",""trial"",""time""
""focus"",""0"",""2""
""fullscreenenter"",""2"",""12398""
","
","""event"",""trial"",""time""
""focus"",""0"",""2""
","""event"",""trial"",""time""
""fullscreenenter"",""2"",""12398""
","
","","","","","","null","<div style=""font-size:60px;"">+</div>","null","","fixation","","",""
"memory-trial","52","436461","0.0-18.0-1.4","4127","approach_avoid_sv1","""event"",""trial"",""time""
""focus"",""0"",""2""
""fullscreenenter"",""2"",""12398""
","
","""event"",""trial"",""time""
""focus"",""0"",""2""
","""event"",""trial"",""time""
""fullscreenenter"",""2"",""12398""
","
","","","","","","1964","images/tree4.png","","","memory_trial","1","definitely_old",""
"html-keyboard-response","53","436962","0.0-18.0-0.5","4127","approach_avoid_sv1","""event"",""trial"",""time""
""focus"",""0"",""2""
""fullscreenenter"",""2"",""12398""
","
","""event"",""trial"",""time""
""focus"",""0"",""2""
","""event"",""trial"",""time""
""fullscreenenter"",""2"",""12398""
","
","","","","","","null","<div style=""font-size:60px;"">+</div>","null","","fixation","","",""
"memory-trial","54","439003","0.0-18.0-1.5","4127","approach_avoid_sv1","""event"",""trial"",""time""
""focus"",""0"",""2""
""fullscreenenter"",""2"",""12398""
","
","""event"",""trial"",""time""
""focus"",""0"",""2""
","""event"",""trial"",""time""
""fullscreenenter"",""2"",""12398""
","
","","","","","","1033","images/plane6.png","","","memory_trial","1","definitely_old",""
"html-keyboard-response","55","439506","0.0-18.0-0.6","4127","approach_avoid_sv1","""event"",""trial"",""time""
""focus"",""0"",""2""
""fullscreenenter"",""2"",""12398""
","
","""event"",""trial"",""time""
""focus"",""0"",""2""
","""event"",""trial"",""time""
""fullscreenenter"",""2"",""12398""
","
","","","","","","null","<div style=""font-size:60px;"">+</div>","null","","fixation","","",""
"memory-trial","56","441550","0.0-18.0-1.6","4127","approach_avoid_sv1","""event"",""trial"",""time""
""focus"",""0"",""2""
""fullscreenenter"",""2"",""12398""
","
","""event"",""trial"",""time""
""focus"",""0"",""2""
","""event"",""trial"",""time""
""fullscreenenter"",""2"",""12398""
","
","","","","","","1029","images/goat8.png","","","memory_trial","1","definitely_old",""
"html-keyboard-response","57","442067","0.0-18.0-0.7","4127","approach_avoid_sv1","""event"",""trial"",""time""
""focus"",""0"",""2""
""fullscreenenter"",""2"",""12398""
","
","""event"",""trial"",""time""
""focus"",""0"",""2""
","""event"",""trial"",""time""
""fullscreenenter"",""2"",""12398""
","
","","","","","","null","<div style=""font-size:60px;"">+</div>","null","","fixation","","",""
"memory-trial","58","443892","0.0-18.0-1.7","4127","approach_avoid_sv1","""event"",""trial"",""time""
""focus"",""0"",""2""
""fullscreenenter"",""2"",""12398""
","
","""event"",""trial"",""time""
""focus"",""0"",""2""
","""event"",""trial"",""time""
""fullscreenenter"",""2"",""12398""
","
","","","","","","807","images/dog2.png","","","memory_trial","1","definitely_old",""
"html-keyboard-response","59","444407","0.0-18.0-0.8","4127","approach_avoid_sv1","""event"",""trial"",""time""
""focus"",""0"",""2""
""fullscreenenter"",""2"",""12398""
","
","""event"",""trial"",""time""
""focus"",""0"",""2""
","""event"",""trial"",""time""
""fullscreenenter"",""2"",""12398""
","
","","","","","","null","<div style=""font-size:60px;"">+</div>","null","","fixation","","",""
"memory-trial","60","447486","0.0-18.0-1.8","4127","approach_avoid_sv1","""event"",""trial"",""time""
""focus"",""0"",""2""
""fullscreenenter"",""2"",""12398""
","
","""event"",""trial"",""time""
""focus"",""0"",""2""
","""event"",""trial"",""time""
""fullscreenenter"",""2"",""12398""
","
","","","","","","2072","images/bed4.png","","","memory_trial","3","maybe_new",""
"html-keyboard-response","61","448002","0.0-18.0-0.9","4127","approach_avoid_sv1","""event"",""trial"",""time""
""focus"",""0"",""2""
""fullscreenenter"",""2"",""12398""
","
","""event"",""trial"",""time""
""focus"",""0"",""2""
","""event"",""trial"",""time""
""fullscreenenter"",""2"",""12398""
","
","","","","","","null","<div style=""font-size:60px;"">+</div>","null","","fixation","","",""
"memory-trial","62","450595","0.0-18.0-1.9","4127","approach_avoid_sv1","""event"",""trial"",""time""
""focus"",""0"",""2""
""fullscreenenter"",""2"",""12398""
","
","""event"",""trial"",""time""
""focus"",""0"",""2""
","""event"",""trial"",""time""
""fullscreenenter"",""2"",""12398""
","
","","","","","","1576","images/cat8.png","","","memory_trial","2","maybe_old",""
"html-keyboard-response","63","451111","0.0-18.0-0.10","4127","approach_avoid_sv1","""event"",""trial"",""time""
""focus"",""0"",""2""
""fullscreenenter"",""2"",""12398""
","
","""event"",""trial"",""time""
""focus"",""0"",""2""
","""event"",""trial"",""time""
""fullscreenenter"",""2"",""12398""
","
","","","","","","null","<div style=""font-size:60px;"">+</div>","null","","fixation","","",""
"memory-trial","64","453666","0.0-18.0-1.10","4127","approach_avoid_sv1","""event"",""trial"",""time""
""focus"",""0"",""2""
""fullscreenenter"",""2"",""12398""
","
","""event"",""trial"",""time""
""focus"",""0"",""2""
","""event"",""trial"",""time""
""fullscreenenter"",""2"",""12398""
","
","","","","","","1547","images/cactus2.png","","","memory_trial","2","maybe_old",""
"html-keyboard-response","65","454183","0.0-18.0-0.11","4127","approach_avoid_sv1","""event"",""trial"",""time""
""focus"",""0"",""2""
""fullscreenenter"",""2"",""12398""
","
","""event"",""trial"",""time""
""focus"",""0"",""2""
","""event"",""trial"",""time""
""fullscreenenter"",""2"",""12398""
","
","","","","","","null","<div style=""font-size:60px;"">+</div>","null","","fixation","","",""
"memory-trial","66","456909","0.0-18.0-1.11","4127","approach_avoid_sv1","""event"",""trial"",""time""
""focus"",""0"",""2""
""fullscreenenter"",""2"",""12398""
","
","""event"",""trial"",""time""
""focus"",""0"",""2""
","""event"",""trial"",""time""
""fullscreenenter"",""2"",""12398""
","
","","","","","","1715","images/rodent7.png","","","memory_trial","3","maybe_new",""
"html-keyboard-response","67","457424","0.0-18.0-0.12","4127","approach_avoid_sv1","""event"",""trial"",""time""
""focus"",""0"",""2""
""fullscreenenter"",""2"",""12398""
","
","""event"",""trial"",""time""
""focus"",""0"",""2""
","""event"",""trial"",""time""
""fullscreenenter"",""2"",""12398""
","
","","","","","","null","<div style=""font-size:60px;"">+</div>","null","","fixation","","",""
"memory-trial","68","460089","0.0-18.0-1.12","4127","approach_avoid_sv1","""event"",""trial"",""time""
""focus"",""0"",""2""
""fullscreenenter"",""2"",""12398""
","
","""event"",""trial"",""time""
""focus"",""0"",""2""
","""event"",""trial"",""time""
""fullscreenenter"",""2"",""12398""
","
","","","","","","1660","images/sheep5.png","","","memory_trial","2","maybe_old",""
"html-keyboard-response","69","460593","0.0-18.0-0.13","4127","approach_avoid_sv1","""event"",""trial"",""time""
""focus"",""0"",""2""
""fullscreenenter"",""2"",""12398""
","
","""event"",""trial"",""time""
""focus"",""0"",""2""
","""event"",""trial"",""time""
""fullscreenenter"",""2"",""12398""
","
","","","","","","null","<div style=""font-size:60px;"">+</div>","null","","fixation","","",""
"memory-trial","70","463647","0.0-18.0-1.13","4127","approach_avoid_sv1","""event"",""trial"",""time""
""focus"",""0"",""2""
""fullscreenenter"",""2"",""12398""
","
","""event"",""trial"",""time""
""focus"",""0"",""2""
","""event"",""trial"",""time""
""fullscreenenter"",""2"",""12398""
","
","","","","","","2035","images/horse6.png","","","memory_trial","2","maybe_old",""
"html-keyboard-response","71","464163","0.0-18.0-0.14","4127","approach_avoid_sv1","""event"",""trial"",""time""
""focus"",""0"",""2""
""fullscreenenter"",""2"",""12398""
","
","""event"",""trial"",""time""
""focus"",""0"",""2""
","""event"",""trial"",""time""
""fullscreenenter"",""2"",""12398""
","
","","","","","","null","<div style=""font-size:60px;"">+</div>","null","","fixation","","",""
"memory-trial","72","466773","0.0-18.0-1.14","4127","approach_avoid_sv1","""event"",""trial"",""time""
""focus"",""0"",""2""
""fullscreenenter"",""2"",""12398""
","
","""event"",""trial"",""time""
""focus"",""0"",""2""
","""event"",""trial"",""time""
""fullscreenenter"",""2"",""12398""
","
","","","","","","1594","images/cow2.png","","","memory_trial","1","definitely_old",""
"html-keyboard-response","73","467277","0.0-18.0-0.15","4127","approach_avoid_sv1","""event"",""trial"",""time""
""focus"",""0"",""2""
""fullscreenenter"",""2"",""12398""
","
","""event"",""trial"",""time""
""focus"",""0"",""2""
","""event"",""trial"",""time""
""fullscreenenter"",""2"",""12398""
","
","","","","","","null","<div style=""font-size:60px;"">+</div>","null","","fixation","","",""
"memory-trial","74","469519","0.0-18.0-1.15","4127","approach_avoid_sv1","""event"",""trial"",""time""
""focus"",""0"",""2""
""fullscreenenter"",""2"",""12398""
","
","""event"",""trial"",""time""
""focus"",""0"",""2""
","""event"",""trial"",""time""
""fullscreenenter"",""2"",""12398""
","
","","","","","","1237","images/tree5.png","","","memory_trial","1","definitely_old",""
"html-keyboard-response","75","470036","0.0-18.0-0.16","4127","approach_avoid_sv1","""event"",""trial"",""time""
""focus"",""0"",""2""
""fullscreenenter"",""2"",""12398""
","
","""event"",""trial"",""time""
""focus"",""0"",""2""
","""event"",""trial"",""time""
""fullscreenenter"",""2"",""12398""
","
","","","","","","null","<div style=""font-size:60px;"">+</div>","null","","fixation","","",""
"memory-trial","76","472380","0.0-18.0-1.16","4127","approach_avoid_sv1","""event"",""trial"",""time""
""focus"",""0"",""2""
""fullscreenenter"",""2"",""12398""
","
","""event"",""trial"",""time""
""focus"",""0"",""2""
","""event"",""trial"",""time""
""fullscreenenter"",""2"",""12398""
","
","","","","","","1326","images/cow3.png","","","memory_trial","2","maybe_old",""
"html-keyboard-response","77","472882","0.0-18.0-0.17","4127","approach_avoid_sv1","""event"",""trial"",""time""
""focus"",""0"",""2""
""fullscreenenter"",""2"",""12398""
","
","""event"",""trial"",""time""
""focus"",""0"",""2""
","""event"",""trial"",""time""
""fullscreenenter"",""2"",""12398""
","
","","","","","","null","<div style=""font-size:60px;"">+</div>","null","","fixation","","",""
"memory-trial","78","475240","0.0-18.0-1.17","4127","approach_avoid_sv1","""event"",""trial"",""time""
""focus"",""0"",""2""
""fullscreenenter"",""2"",""12398""
","
","""event"",""trial"",""time""
""focus"",""0"",""2""
","""event"",""trial"",""time""
""fullscreenenter"",""2"",""12398""
","
","","","","","","1339","images/rabbit5.png","","","memory_trial","1","definitely_old",""
"html-keyboard-response","79","475742","0.0-18.0-0.18","4127","approach_avoid_sv1","""event"",""trial"",""time""
""focus"",""0"",""2""
""fullscreenenter"",""2"",""12398""
","
","""event"",""trial"",""time""
""focus"",""0"",""2""
","""event"",""trial"",""time""
""fullscreenenter"",""2"",""12398""
","
","","","","","","null","<div style=""font-size:60px;"">+</div>","null","","fixation","","",""
"memory-trial","80","478284","0.0-18.0-1.18","4127","approach_avoid_sv1","""event"",""trial"",""time""
""focus"",""0"",""2""
""fullscreenenter"",""2"",""12398""
","
","""event"",""trial"",""time""
""focus"",""0"",""2""
","""event"",""trial"",""time""
""fullscreenenter"",""2"",""12398""
","
","","","","","","1534","images/rabbit7.png","","","memory_trial","2","maybe_old",""
"html-keyboard-response","81","478789","0.0-18.0-0.19","4127","approach_avoid_sv1","""event"",""trial"",""time""
""focus"",""0"",""2""
""fullscreenenter"",""2"",""12398""
","
","""event"",""trial"",""time""
""focus"",""0"",""2""
","""event"",""trial"",""time""
""fullscreenenter"",""2"",""12398""
","
","","","","","","null","<div style=""font-size:60px;"">+</div>","null","","fixation","","",""
"memory-trial","82","481276","0.0-18.0-1.19","4127","approach_avoid_sv1","""event"",""trial"",""time""
""focus"",""0"",""2""
""fullscreenenter"",""2"",""12398""
","
","""event"",""trial"",""time""
""focus"",""0"",""2""
","""event"",""trial"",""time""
""fullscreenenter"",""2"",""12398""
","
","","","","","","1478","images/truck7.png","","","memory_trial","3","maybe_new",""
"html-keyboard-response","83","481791","0.0-18.0-0.20","4127","approach_avoid_sv1","""event"",""trial"",""time""
""focus"",""0"",""2""
""fullscreenenter"",""2"",""12398""
","
","""event"",""trial"",""time""
""focus"",""0"",""2""
","""event"",""trial"",""time""
""fullscreenenter"",""2"",""12398""
","
","","","","","","null","<div style=""font-size:60px;"">+</div>","null","","fixation","","",""
"memory-trial","84","485328","0.0-18.0-1.20","4127","approach_avoid_sv1","""event"",""trial"",""time""
""focus"",""0"",""2""
""fullscreenenter"",""2"",""12398""
","
","""event"",""trial"",""time""
""focus"",""0"",""2""
","""event"",""trial"",""time""
""fullscreenenter"",""2"",""12398""
","
","","","","","","2530","images/flower1.png","","","memory_trial","3","maybe_new",""
"html-keyboard-response","85","485845","0.0-18.0-0.21","4127","approach_avoid_sv1","""event"",""trial"",""time""
""focus"",""0"",""2""
""fullscreenenter"",""2"",""12398""
","
","""event"",""trial"",""time""
""focus"",""0"",""2""
","""event"",""trial"",""time""
""fullscreenenter"",""2"",""12398""
","
","","","","","","null","<div style=""font-size:60px;"">+</div>","null","","fixation","","",""
"memory-trial","86","488280","0.0-18.0-1.21","4127","approach_avoid_sv1","""event"",""trial"",""time""
""focus"",""0"",""2""
""fullscreenenter"",""2"",""12398""
","
","""event"",""trial"",""time""
""focus"",""0"",""2""
","""event"",""trial"",""time""
""fullscreenenter"",""2"",""12398""
","
","","","","","","1423","images/straw2.png","","","memory_trial","1","definitely_old",""
"html-keyboard-response","87","488794","0.0-18.0-0.22","4127","approach_avoid_sv1","""event"",""trial"",""time""
""focus"",""0"",""2""
""fullscreenenter"",""2"",""12398""
","
","""event"",""trial"",""time""
""focus"",""0"",""2""
","""event"",""trial"",""time""
""fullscreenenter"",""2"",""12398""
","
","","","","","","null","<div style=""font-size:60px;"">+</div>","null","","fixation","","",""
"memory-trial","88","490807","0.0-18.0-1.22","4127","approach_avoid_sv1","""event"",""trial"",""time""
""focus"",""0"",""2""
""fullscreenenter"",""2"",""12398""
","
","""event"",""trial"",""time""
""focus"",""0"",""2""
","""event"",""trial"",""time""
""fullscreenenter"",""2"",""12398""
","
","","","","","","997","images/straw7.png","","","memory_trial","1","definitely_old",""
"html-keyboard-response","89","491310","0.0-18.0-0.23","4127","approach_avoid_sv1","""event"",""trial"",""time""
""focus"",""0"",""2""
""fullscreenenter"",""2"",""12398""
","
","""event"",""trial"",""time""
""focus"",""0"",""2""
","""event"",""trial"",""time""
""fullscreenenter"",""2"",""12398""
","
","","","","","","null","<div style=""font-size:60px;"">+</div>","null","","fixation","","",""
"memory-trial","90","493883","0.0-18.0-1.23","4127","approach_avoid_sv1","""event"",""trial"",""time""
""focus"",""0"",""2""
""fullscreenenter"",""2"",""12398""
","
","""event"",""trial"",""time""
""focus"",""0"",""2""
","""event"",""trial"",""time""
""fullscreenenter"",""2"",""12398""
","
","","","","","","1557","images/train5.png","","","memory_trial","2","maybe_old",""
"html-keyboard-response","91","494399","0.0-18.0-0.24","4127","approach_avoid_sv1","""event"",""trial"",""time""
""focus"",""0"",""2""
""fullscreenenter"",""2"",""12398""
","
","""event"",""trial"",""time""
""focus"",""0"",""2""
","""event"",""trial"",""time""
""fullscreenenter"",""2"",""12398""
","
","","","","","","null","<div style=""font-size:60px;"">+</div>","null","","fixation","","",""
"memory-trial","92","497020","0.0-18.0-1.24","4127","approach_avoid_sv1","""event"",""trial"",""time""
""focus"",""0"",""2""
""fullscreenenter"",""2"",""12398""
","
","""event"",""trial"",""time""
""focus"",""0"",""2""
","""event"",""trial"",""time""
""fullscreenenter"",""2"",""12398""
","
","","","","","","1607","images/plane3.png","","","memory_trial","3","maybe_new",""
"html-keyboard-response","93","497535","0.0-18.0-0.25","4127","approach_avoid_sv1","""event"",""trial"",""time""
""focus"",""0"",""2""
""fullscreenenter"",""2"",""12398""
","
","""event"",""trial"",""time""
""focus"",""0"",""2""
","""event"",""trial"",""time""
""fullscreenenter"",""2"",""12398""
","
","","","","","","null","<div style=""font-size:60px;"">+</div>","null","","fixation","","",""
"memory-trial","94","507069","0.0-18.0-1.25","4127","approach_avoid_sv1","""event"",""trial"",""time""
""focus"",""0"",""2""
""fullscreenenter"",""2"",""12398""
","
","""event"",""trial"",""time""
""focus"",""0"",""2""
","""event"",""trial"",""time""
""fullscreenenter"",""2"",""12398""
","
","","","","","","8519","images/train8.png","","","memory_trial","2","maybe_old",""
"html-keyboard-response","95","507581","0.0-18.0-0.26","4127","approach_avoid_sv1","""event"",""trial"",""time""
""focus"",""0"",""2""
""fullscreenenter"",""2"",""12398""
""blur"",""96"",""510411""
""focus"",""96"",""513090""
","""event"",""trial"",""time""
""blur"",""96"",""510411""
","""event"",""trial"",""time""
""focus"",""0"",""2""
""focus"",""96"",""513090""
","""event"",""trial"",""time""
""fullscreenenter"",""2"",""12398""
","
","","","","","","null","<div style=""font-size:60px;"">+</div>","null","","fixation","","",""
"memory-trial","96","516331","0.0-18.0-1.26","4127","approach_avoid_sv1","""event"",""trial"",""time""
""focus"",""0"",""2""
""fullscreenenter"",""2"",""12398""
""blur"",""96"",""510411""
""focus"",""96"",""513090""
","""event"",""trial"",""time""
""blur"",""96"",""510411""
","""event"",""trial"",""time""
""focus"",""0"",""2""
""focus"",""96"",""513090""
","""event"",""trial"",""time""
""fullscreenenter"",""2"",""12398""
","
","","","","","","7735","images/chair3.png","","","memory_trial","4","definitely_new",""
"html-keyboard-response","97","516834","0.0-18.0-0.27","4127","approach_avoid_sv1","""event"",""trial"",""time""
""focus"",""0"",""2""
""fullscreenenter"",""2"",""12398""
""blur"",""96"",""510411""
""focus"",""96"",""513090""
","""event"",""trial"",""time""
""blur"",""96"",""510411""
","""event"",""trial"",""time""
""focus"",""0"",""2""
""focus"",""96"",""513090""
","""event"",""trial"",""time""
""fullscreenenter"",""2"",""12398""
","
","","","","","","null","<div style=""font-size:60px;"">+</div>","null","","fixation","","",""
"memory-trial","98","519863","0.0-18.0-1.27","4127","approach_avoid_sv1","""event"",""trial"",""time""
""focus"",""0"",""2""
""fullscreenenter"",""2"",""12398""
""blur"",""96"",""510411""
""focus"",""96"",""513090""
","""event"",""trial"",""time""
""blur"",""96"",""510411""
","""event"",""trial"",""time""
""focus"",""0"",""2""
""focus"",""96"",""513090""
","""event"",""trial"",""time""
""fullscreenenter"",""2"",""12398""
","
","","","","","","2010","images/cow4.png","","","memory_trial","3","maybe_new",""
"html-keyboard-response","99","520376","0.0-18.0-0.28","4127","approach_avoid_sv1","""event"",""trial"",""time""
""focus"",""0"",""2""
""fullscreenenter"",""2"",""12398""
""blur"",""96"",""510411""
""focus"",""96"",""513090""
","""event"",""trial"",""time""
""blur"",""96"",""510411""
","""event"",""trial"",""time""
""focus"",""0"",""2""
""focus"",""96"",""513090""
","""event"",""trial"",""time""
""fullscreenenter"",""2"",""12398""
","
","","","","","","null","<div style=""font-size:60px;"">+</div>","null","","fixation","","",""
"memory-trial","100","527376","0.0-18.0-1.28","4127","approach_avoid_sv1","""event"",""trial"",""time""
""focus"",""0"",""2""
""fullscreenenter"",""2"",""12398""
""blur"",""96"",""510411""
""focus"",""96"",""513090""
","""event"",""trial"",""time""
""blur"",""96"",""510411""
","""event"",""trial"",""time""
""focus"",""0"",""2""
""focus"",""96"",""513090""
","""event"",""trial"",""time""
""fullscreenenter"",""2"",""12398""
","
","","","","","","5988","images/boat4.png","","","memory_trial","2","maybe_old",""
"html-keyboard-response","101","527880","0.0-18.0-0.29","4127","approach_avoid_sv1","""event"",""trial"",""time""
""focus"",""0"",""2""
""fullscreenenter"",""2"",""12398""
""blur"",""96"",""510411""
""focus"",""96"",""513090""
","""event"",""trial"",""time""
""blur"",""96"",""510411""
","""event"",""trial"",""time""
""focus"",""0"",""2""
""focus"",""96"",""513090""
","""event"",""trial"",""time""
""fullscreenenter"",""2"",""12398""
","
","","","","","","null","<div style=""font-size:60px;"">+</div>","null","","fixation","","",""
"memory-trial","102","531159","0.0-18.0-1.29","4127","approach_avoid_sv1","""event"",""trial"",""time""
""focus"",""0"",""2""
""fullscreenenter"",""2"",""12398""
""blur"",""96"",""510411""
""focus"",""96"",""513090""
","""event"",""trial"",""time""
""blur"",""96"",""510411""
","""event"",""trial"",""time""
""focus"",""0"",""2""
""focus"",""96"",""513090""
","""event"",""trial"",""time""
""fullscreenenter"",""2"",""12398""
","
","","","","","","2263","images/chair2.png","","","memory_trial","2","maybe_old",""
"html-keyboard-response","103","531663","0.0-18.0-0.30","4127","approach_avoid_sv1","""event"",""trial"",""time""
""focus"",""0"",""2""
""fullscreenenter"",""2"",""12398""
""blur"",""96"",""510411""
""focus"",""96"",""513090""
","""event"",""trial"",""time""
""blur"",""96"",""510411""
","""event"",""trial"",""time""
""focus"",""0"",""2""
""focus"",""96"",""513090""
","""event"",""trial"",""time""
""fullscreenenter"",""2"",""12398""
","
","","","","","","null","<div style=""font-size:60px;"">+</div>","null","","fixation","","",""
"memory-trial","104","534945","0.0-18.0-1.30","4127","approach_avoid_sv1","""event"",""trial"",""time""
""focus"",""0"",""2""
""fullscreenenter"",""2"",""12398""
""blur"",""96"",""510411""
""focus"",""96"",""513090""
","""event"",""trial"",""time""
""blur"",""96"",""510411""
","""event"",""trial"",""time""
""focus"",""0"",""2""
""focus"",""96"",""513090""
","""event"",""trial"",""time""
""fullscreenenter"",""2"",""12398""
","
","","","","","","2271","images/cow5.png","","","memory_trial","3","maybe_new",""
"html-keyboard-response","105","535460","0.0-18.0-0.31","4127","approach_avoid_sv1","""event"",""trial"",""time""
""focus"",""0"",""2""
""fullscreenenter"",""2"",""12398""
""blur"",""96"",""510411""
""focus"",""96"",""513090""
","""event"",""trial"",""time""
""blur"",""96"",""510411""
","""event"",""trial"",""time""
""focus"",""0"",""2""
""focus"",""96"",""513090""
","""event"",""trial"",""time""
""fullscreenenter"",""2"",""12398""
","
","","","","","","null","<div style=""font-size:60px;"">+</div>","null","","fixation","","",""
"memory-trial","106","539242","0.0-18.0-1.31","4127","approach_avoid_sv1","""event"",""trial"",""time""
""focus"",""0"",""2""
""fullscreenenter"",""2"",""12398""
""blur"",""96"",""510411""
""focus"",""96"",""513090""
","""event"",""trial"",""time""
""blur"",""96"",""510411""
","""event"",""trial"",""time""
""focus"",""0"",""2""
""focus"",""96"",""513090""
","""event"",""trial"",""time""
""fullscreenenter"",""2"",""12398""
","
","","","","","","2770","images/bush1.png","","","memory_trial","2","maybe_old",""
"html-keyboard-response","107","539745","0.0-18.0-0.32","4127","approach_avoid_sv1","""event"",""trial"",""time""
""focus"",""0"",""2""
""fullscreenenter"",""2"",""12398""
""blur"",""96"",""510411""
""focus"",""96"",""513090""
","""event"",""trial"",""time""
""blur"",""96"",""510411""
","""event"",""trial"",""time""
""focus"",""0"",""2""
""focus"",""96"",""513090""
","""event"",""trial"",""time""
""fullscreenenter"",""2"",""12398""
","
","","","","","","null","<div style=""font-size:60px;"">+</div>","null","","fixation","","",""
"memory-trial","108","543804","0.0-18.0-1.32","4127","approach_avoid_sv1","""event"",""trial"",""time""
""focus"",""0"",""2""
""fullscreenenter"",""2"",""12398""
""blur"",""96"",""510411""
""focus"",""96"",""513090""
","""event"",""trial"",""time""
""blur"",""96"",""510411""
","""event"",""trial"",""time""
""focus"",""0"",""2""
""focus"",""96"",""513090""
","""event"",""trial"",""time""
""fullscreenenter"",""2"",""12398""
","
","","","","","","3055","images/cat1.png","","","memory_trial","3","maybe_new",""
"html-keyboard-response","109","544311","0.0-18.0-0.33","4127","approach_avoid_sv1","""event"",""trial"",""time""
""focus"",""0"",""2""
""fullscreenenter"",""2"",""12398""
""blur"",""96"",""510411""
""focus"",""96"",""513090""
","""event"",""trial"",""time""
""blur"",""96"",""510411""
","""event"",""trial"",""time""
""focus"",""0"",""2""
""focus"",""96"",""513090""
","""event"",""trial"",""time""
""fullscreenenter"",""2"",""12398""
","
","","","","","","null","<div style=""font-size:60px;"">+</div>","null","","fixation","","",""
"memory-trial","110","547014","0.0-18.0-1.33","4127","approach_avoid_sv1","""event"",""trial"",""time""
""focus"",""0"",""2""
""fullscreenenter"",""2"",""12398""
""blur"",""96"",""510411""
""focus"",""96"",""513090""
","""event"",""trial"",""time""
""blur"",""96"",""510411""
","""event"",""trial"",""time""
""focus"",""0"",""2""
""focus"",""96"",""513090""
","""event"",""trial"",""time""
""fullscreenenter"",""2"",""12398""
","
","","","","","","1698","images/cactus4.png","","","memory_trial","1","definitely_old",""
"html-keyboard-response","111","547530","0.0-18.0-0.34","4127","approach_avoid_sv1","""event"",""trial"",""time""
""focus"",""0"",""2""
""fullscreenenter"",""2"",""12398""
""blur"",""96"",""510411""
""focus"",""96"",""513090""
","""event"",""trial"",""time""
""blur"",""96"",""510411""
","""event"",""trial"",""time""
""focus"",""0"",""2""
""focus"",""96"",""513090""
","""event"",""trial"",""time""
""fullscreenenter"",""2"",""12398""
","
","","","","","","null","<div style=""font-size:60px;"">+</div>","null","","fixation","","",""
"memory-trial","112","552847","0.0-18.0-1.34","4127","approach_avoid_sv1","""event"",""trial"",""time""
""focus"",""0"",""2""
""fullscreenenter"",""2"",""12398""
""blur"",""96"",""510411""
""focus"",""96"",""513090""
","""event"",""trial"",""time""
""blur"",""96"",""510411""
","""event"",""trial"",""time""
""focus"",""0"",""2""
""focus"",""96"",""513090""
","""event"",""trial"",""time""
""fullscreenenter"",""2"",""12398""
","
","","","","","","4312","images/straw4.png","","","memory_trial","3","maybe_new",""
"html-keyboard-response","113","553353","0.0-18.0-0.35","4127","approach_avoid_sv1","""event"",""trial"",""time""
""focus"",""0"",""2""
""fullscreenenter"",""2"",""12398""
""blur"",""96"",""510411""
""focus"",""96"",""513090""
","""event"",""trial"",""time""
""blur"",""96"",""510411""
","""event"",""trial"",""time""
""focus"",""0"",""2""
""focus"",""96"",""513090""
","""event"",""trial"",""time""
""fullscreenenter"",""2"",""12398""
","
","","","","","","null","<div style=""font-size:60px;"">+</div>","null","","fixation","","",""
"memory-trial","114","555762","0.0-18.0-1.35","4127","approach_avoid_sv1","""event"",""trial"",""time""
""focus"",""0"",""2""
""fullscreenenter"",""2"",""12398""
""blur"",""96"",""510411""
""focus"",""96"",""513090""
","""event"",""trial"",""time""
""blur"",""96"",""510411""
","""event"",""trial"",""time""
""focus"",""0"",""2""
""focus"",""96"",""513090""
","""event"",""trial"",""time""
""fullscreenenter"",""2"",""12398""
","
","","","","","","1394","images/truck2.png","","","memory_trial","2","maybe_old",""
"html-keyboard-response","115","556264","0.0-18.0-0.36","4127","approach_avoid_sv1","""event"",""trial"",""time""
""focus"",""0"",""2""
""fullscreenenter"",""2"",""12398""
""blur"",""96"",""510411""
""focus"",""96"",""513090""
","""event"",""trial"",""time""
""blur"",""96"",""510411""
","""event"",""trial"",""time""
""focus"",""0"",""2""
""focus"",""96"",""513090""
","""event"",""trial"",""time""
""fullscreenenter"",""2"",""12398""
","
","","","","","","null","<div style=""font-size:60px;"">+</div>","null","","fixation","","",""
"memory-trial","116","558925","0.0-18.0-1.36","4127","approach_avoid_sv1","""event"",""trial"",""time""
""focus"",""0"",""2""
""fullscreenenter"",""2"",""12398""
""blur"",""96"",""510411""
""focus"",""96"",""513090""
","""event"",""trial"",""time""
""blur"",""96"",""510411""
","""event"",""trial"",""time""
""focus"",""0"",""2""
""focus"",""96"",""513090""
","""event"",""trial"",""time""
""fullscreenenter"",""2"",""12398""
","
","","","","","","1647","images/orange6.png","","","memory_trial","1","definitely_old",""
"html-keyboard-response","117","559426","0.0-18.0-0.37","4127","approach_avoid_sv1","""event"",""trial"",""time""
""focus"",""0"",""2""
""fullscreenenter"",""2"",""12398""
""blur"",""96"",""510411""
""focus"",""96"",""513090""
","""event"",""trial"",""time""
""blur"",""96"",""510411""
","""event"",""trial"",""time""
""focus"",""0"",""2""
""focus"",""96"",""513090""
","""event"",""trial"",""time""
""fullscreenenter"",""2"",""12398""
","
","","","","","","null","<div style=""font-size:60px;"">+</div>","null","","fixation","","",""
"memory-trial","118","566491","0.0-18.0-1.37","4127","approach_avoid_sv1","""event"",""trial"",""time""
""focus"",""0"",""2""
""fullscreenenter"",""2"",""12398""
""blur"",""96"",""510411""
""focus"",""96"",""513090""
","""event"",""trial"",""time""
""blur"",""96"",""510411""
","""event"",""trial"",""time""
""focus"",""0"",""2""
""focus"",""96"",""513090""
","""event"",""trial"",""time""
""fullscreenenter"",""2"",""12398""
","
","","","","","","6058","images/table5.png","","","memory_trial","3","maybe_new",""
"html-keyboard-response","119","567007","0.0-18.0-0.38","4127","approach_avoid_sv1","""event"",""trial"",""time""
""focus"",""0"",""2""
""fullscreenenter"",""2"",""12398""
""blur"",""96"",""510411""
""focus"",""96"",""513090""
","""event"",""trial"",""time""
""blur"",""96"",""510411""
","""event"",""trial"",""time""
""focus"",""0"",""2""
""focus"",""96"",""513090""
","""event"",""trial"",""time""
""fullscreenenter"",""2"",""12398""
","
","","","","","","null","<div style=""font-size:60px;"">+</div>","null","","fixation","","",""
"memory-trial","120","571791","0.0-18.0-1.38","4127","approach_avoid_sv1","""event"",""trial"",""time""
""focus"",""0"",""2""
""fullscreenenter"",""2"",""12398""
""blur"",""96"",""510411""
""focus"",""96"",""513090""
","""event"",""trial"",""time""
""blur"",""96"",""510411""
","""event"",""trial"",""time""
""focus"",""0"",""2""
""focus"",""96"",""513090""
","""event"",""trial"",""time""
""fullscreenenter"",""2"",""12398""
","
","","","","","","3776","images/dog3.png","","","memory_trial","2","maybe_old",""
"html-keyboard-response","121","572306","0.0-18.0-0.39","4127","approach_avoid_sv1","""event"",""trial"",""time""
""focus"",""0"",""2""
""fullscreenenter"",""2"",""12398""
""blur"",""96"",""510411""
""focus"",""96"",""513090""
","""event"",""trial"",""time""
""blur"",""96"",""510411""
","""event"",""trial"",""time""
""focus"",""0"",""2""
""focus"",""96"",""513090""
","""event"",""trial"",""time""
""fullscreenenter"",""2"",""12398""
","
","","","","","","null","<div style=""font-size:60px;"">+</div>","null","","fixation","","",""
"memory-trial","122","582315","0.0-18.0-1.39","4127","approach_avoid_sv1","""event"",""trial"",""time""
""focus"",""0"",""2""
""fullscreenenter"",""2"",""12398""
""blur"",""96"",""510411""
""focus"",""96"",""513090""
""blur"",""123"",""582672""
","""event"",""trial"",""time""
""blur"",""96"",""510411""
""blur"",""123"",""582672""
","""event"",""trial"",""time""
""focus"",""0"",""2""
""focus"",""96"",""513090""
","""event"",""trial"",""time""
""fullscreenenter"",""2"",""12398""
","
","","","","","","null","images/horse4.png","","","memory_trial","null","null",""
"html-keyboard-response","123","582831","0.0-18.0-0.40","4127","approach_avoid_sv1","""event"",""trial"",""time""
""focus"",""0"",""2""
""fullscreenenter"",""2"",""12398""
""blur"",""96"",""510411""
""focus"",""96"",""513090""
""blur"",""123"",""582672""
""focus"",""124"",""584766""
","""event"",""trial"",""time""
""blur"",""96"",""510411""
""blur"",""123"",""582672""
","""event"",""trial"",""time""
""focus"",""0"",""2""
""focus"",""96"",""513090""
""focus"",""124"",""584766""
","""event"",""trial"",""time""
""fullscreenenter"",""2"",""12398""
","
","","","","","","null","<div style=""font-size:60px;"">+</div>","null","","fixation","","",""
"memory-trial","124","589895","0.0-18.0-1.40","4127","approach_avoid_sv1","""event"",""trial"",""time""
""focus"",""0"",""2""
""fullscreenenter"",""2"",""12398""
""blur"",""96"",""510411""
""focus"",""96"",""513090""
""blur"",""123"",""582672""
""focus"",""124"",""584766""
","""event"",""trial"",""time""
""blur"",""96"",""510411""
""blur"",""123"",""582672""
","""event"",""trial"",""time""
""focus"",""0"",""2""
""focus"",""96"",""513090""
""focus"",""124"",""584766""
","""event"",""trial"",""time""
""fullscreenenter"",""2"",""12398""
","
","","","","","","6056","images/cactus8.png","","","memory_trial","4","definitely_new",""
"html-keyboard-response","125","590413","0.0-18.0-0.41","4127","approach_avoid_sv1","""event"",""trial"",""time""
""focus"",""0"",""2""
""fullscreenenter"",""2"",""12398""
""blur"",""96"",""510411""
""focus"",""96"",""513090""
""blur"",""123"",""582672""
""focus"",""124"",""584766""
""blur"",""126"",""592607""
""focus"",""126"",""596060""
""blur"",""126"",""597740""
""focus"",""126"",""599037""
","""event"",""trial"",""time""
""blur"",""96"",""510411""
""blur"",""123"",""582672""
""blur"",""126"",""592607""
""blur"",""126"",""597740""
","""event"",""trial"",""time""
""focus"",""0"",""2""
""focus"",""96"",""513090""
""focus"",""124"",""584766""
""focus"",""126"",""596060""
""focus"",""126"",""599037""
","""event"",""trial"",""time""
""fullscreenenter"",""2"",""12398""
","
","","","","","","null","<div style=""font-size:60px;"">+</div>","null","","fixation","","",""
"memory-trial","126","600834","0.0-18.0-1.41","4127","approach_avoid_sv1","""event"",""trial"",""time""
""focus"",""0"",""2""
""fullscreenenter"",""2"",""12398""
""blur"",""96"",""510411""
""focus"",""96"",""513090""
""blur"",""123"",""582672""
""focus"",""124"",""584766""
""blur"",""126"",""592607""
""focus"",""126"",""596060""
""blur"",""126"",""597740""
""focus"",""126"",""599037""
","""event"",""trial"",""time""
""blur"",""96"",""510411""
""blur"",""123"",""582672""
""blur"",""126"",""592607""
""blur"",""126"",""597740""
","""event"",""trial"",""time""
""focus"",""0"",""2""
""focus"",""96"",""513090""
""focus"",""124"",""584766""
""focus"",""126"",""596060""
""focus"",""126"",""599037""
","""event"",""trial"",""time""
""fullscreenenter"",""2"",""12398""
","
","","","","","","null","images/cow7.png","","","memory_trial","null","null",""
"html-button-response","127","932914","0.0-18.0-2.41-0.41","4127","approach_avoid_sv1","""event"",""trial"",""time""
""focus"",""0"",""2""
""fullscreenenter"",""2"",""12398""
""blur"",""96"",""510411""
""focus"",""96"",""513090""
""blur"",""123"",""582672""
""focus"",""124"",""584766""
""blur"",""126"",""592607""
""focus"",""126"",""596060""
""blur"",""126"",""597740""
""focus"",""126"",""599037""
","""event"",""trial"",""time""
""blur"",""96"",""510411""
""blur"",""123"",""582672""
""blur"",""126"",""592607""
""blur"",""126"",""597740""
","""event"",""trial"",""time""
""focus"",""0"",""2""
""focus"",""96"",""513090""
""focus"",""124"",""584766""
""focus"",""126"",""596060""
""focus"",""126"",""599037""
","""event"",""trial"",""time""
""fullscreenenter"",""2"",""12398""
","
","","","","","","332077","<p> Take a break! </p><p> Click the button to continue. </p>","0","","break","","",""
"html-keyboard-response","128","933427","0.0-18.0-0.42","4127","approach_avoid_sv1","""event"",""trial"",""time""
""focus"",""0"",""2""
""fullscreenenter"",""2"",""12398""
""blur"",""96"",""510411""
""focus"",""96"",""513090""
""blur"",""123"",""582672""
""focus"",""124"",""584766""
""blur"",""126"",""592607""
""focus"",""126"",""596060""
""blur"",""126"",""597740""
""focus"",""126"",""599037""
""blur"",""129"",""935400""
""focus"",""129"",""936768""
""blur"",""129"",""939385""
""focus"",""129"",""940405""
""blur"",""129"",""941503""
""focus"",""129"",""943278""
","""event"",""trial"",""time""
""blur"",""96"",""510411""
""blur"",""123"",""582672""
""blur"",""126"",""592607""
""blur"",""126"",""597740""
""blur"",""129"",""935400""
""blur"",""129"",""939385""
""blur"",""129"",""941503""
","""event"",""trial"",""time""
""focus"",""0"",""2""
""focus"",""96"",""513090""
""focus"",""124"",""584766""
""focus"",""126"",""596060""
""focus"",""126"",""599037""
""focus"",""129"",""936768""
""focus"",""129"",""940405""
""focus"",""129"",""943278""
","""event"",""trial"",""time""
""fullscreenenter"",""2"",""12398""
","
","","","","","","null","<div style=""font-size:60px;"">+</div>","null","","fixation","","",""
"memory-trial","129","943432","0.0-18.0-1.42","4127","approach_avoid_sv1","""event"",""trial"",""time""
""focus"",""0"",""2""
""fullscreenenter"",""2"",""12398""
""blur"",""96"",""510411""
""focus"",""96"",""513090""
""blur"",""123"",""582672""
""focus"",""124"",""584766""
""blur"",""126"",""592607""
""focus"",""126"",""596060""
""blur"",""126"",""597740""
""focus"",""126"",""599037""
""blur"",""129"",""935400""
""focus"",""129"",""936768""
""blur"",""129"",""939385""
""focus"",""129"",""940405""
""blur"",""129"",""941503""
""focus"",""129"",""943278""
""blur"",""130"",""943513""
","""event"",""trial"",""time""
""blur"",""96"",""510411""
""blur"",""123"",""582672""
""blur"",""126"",""592607""
""blur"",""126"",""597740""
""blur"",""129"",""935400""
""blur"",""129"",""939385""
""blur"",""129"",""941503""
""blur"",""130"",""943513""
","""event"",""trial"",""time""
""focus"",""0"",""2""
""focus"",""96"",""513090""
""focus"",""124"",""584766""
""focus"",""126"",""596060""
""focus"",""126"",""599037""
""focus"",""129"",""936768""
""focus"",""129"",""940405""
""focus"",""129"",""943278""
","""event"",""trial"",""time""
""fullscreenenter"",""2"",""12398""
","
","","","","","","null","images/plane7.png","","","memory_trial","null","null",""
"html-keyboard-response","130","943948","0.0-18.0-0.43","4127","approach_avoid_sv1","""event"",""trial"",""time""
""focus"",""0"",""2""
""fullscreenenter"",""2"",""12398""
""blur"",""96"",""510411""
""focus"",""96"",""513090""
""blur"",""123"",""582672""
""focus"",""124"",""584766""
""blur"",""126"",""592607""
""focus"",""126"",""596060""
""blur"",""126"",""597740""
""focus"",""126"",""599037""
""blur"",""129"",""935400""
""focus"",""129"",""936768""
""blur"",""129"",""939385""
""focus"",""129"",""940405""
""blur"",""129"",""941503""
""focus"",""129"",""943278""
""blur"",""130"",""943513""
""focus"",""131"",""944796""
","""event"",""trial"",""time""
""blur"",""96"",""510411""
""blur"",""123"",""582672""
""blur"",""126"",""592607""
""blur"",""126"",""597740""
""blur"",""129"",""935400""
""blur"",""129"",""939385""
""blur"",""129"",""941503""
""blur"",""130"",""943513""
","""event"",""trial"",""time""
""focus"",""0"",""2""
""focus"",""96"",""513090""
""focus"",""124"",""584766""
""focus"",""126"",""596060""
""focus"",""126"",""599037""
""focus"",""129"",""936768""
""focus"",""129"",""940405""
""focus"",""129"",""943278""
""focus"",""131"",""944796""
","""event"",""trial"",""time""
""fullscreenenter"",""2"",""12398""
","
","","","","","","null","<div style=""font-size:60px;"">+</div>","null","","fixation","","",""
"memory-trial","131","947152","0.0-18.0-1.43","4127","approach_avoid_sv1","""event"",""trial"",""time""
""focus"",""0"",""2""
""fullscreenenter"",""2"",""12398""
""blur"",""96"",""510411""
""focus"",""96"",""513090""
""blur"",""123"",""582672""
""focus"",""124"",""584766""
""blur"",""126"",""592607""
""focus"",""126"",""596060""
""blur"",""126"",""597740""
""focus"",""126"",""599037""
""blur"",""129"",""935400""
""focus"",""129"",""936768""
""blur"",""129"",""939385""
""focus"",""129"",""940405""
""blur"",""129"",""941503""
""focus"",""129"",""943278""
""blur"",""130"",""943513""
""focus"",""131"",""944796""
","""event"",""trial"",""time""
""blur"",""96"",""510411""
""blur"",""123"",""582672""
""blur"",""126"",""592607""
""blur"",""126"",""597740""
""blur"",""129"",""935400""
""blur"",""129"",""939385""
""blur"",""129"",""941503""
""blur"",""130"",""943513""
","""event"",""trial"",""time""
""focus"",""0"",""2""
""focus"",""96"",""513090""
""focus"",""124"",""584766""
""focus"",""126"",""596060""
""focus"",""126"",""599037""
""focus"",""129"",""936768""
""focus"",""129"",""940405""
""focus"",""129"",""943278""
""focus"",""131"",""944796""
","""event"",""trial"",""time""
""fullscreenenter"",""2"",""12398""
","
","","","","","","2200","images/horse2.png","","","memory_trial","1","definitely_old",""
"html-keyboard-response","132","947656","0.0-18.0-0.44","4127","approach_avoid_sv1","""event"",""trial"",""time""
""focus"",""0"",""2""
""fullscreenenter"",""2"",""12398""
""blur"",""96"",""510411""
""focus"",""96"",""513090""
""blur"",""123"",""582672""
""focus"",""124"",""584766""
""blur"",""126"",""592607""
""focus"",""126"",""596060""
""blur"",""126"",""597740""
""focus"",""126"",""599037""
""blur"",""129"",""935400""
""focus"",""129"",""936768""
""blur"",""129"",""939385""
""focus"",""129"",""940405""
""blur"",""129"",""941503""
""focus"",""129"",""943278""
""blur"",""130"",""943513""
""focus"",""131"",""944796""
","""event"",""trial"",""time""
""blur"",""96"",""510411""
""blur"",""123"",""582672""
""blur"",""126"",""592607""
""blur"",""126"",""597740""
""blur"",""129"",""935400""
""blur"",""129"",""939385""
""blur"",""129"",""941503""
""blur"",""130"",""943513""
","""event"",""trial"",""time""
""focus"",""0"",""2""
""focus"",""96"",""513090""
""focus"",""124"",""584766""
""focus"",""126"",""596060""
""focus"",""126"",""599037""
""focus"",""129"",""936768""
""focus"",""129"",""940405""
""focus"",""129"",""943278""
""focus"",""131"",""944796""
","""event"",""trial"",""time""
""fullscreenenter"",""2"",""12398""
","
","","","","","","null","<div style=""font-size:60px;"">+</div>","null","","fixation","","",""
"memory-trial","133","950453","0.0-18.0-1.44","4127","approach_avoid_sv1","""event"",""trial"",""time""
""focus"",""0"",""2""
""fullscreenenter"",""2"",""12398""
""blur"",""96"",""510411""
""focus"",""96"",""513090""
""blur"",""123"",""582672""
""focus"",""124"",""584766""
""blur"",""126"",""592607""
""focus"",""126"",""596060""
""blur"",""126"",""597740""
""focus"",""126"",""599037""
""blur"",""129"",""935400""
""focus"",""129"",""936768""
""blur"",""129"",""939385""
""focus"",""129"",""940405""
""blur"",""129"",""941503""
""focus"",""129"",""943278""
""blur"",""130"",""943513""
""focus"",""131"",""944796""
","""event"",""trial"",""time""
""blur"",""96"",""510411""
""blur"",""123"",""582672""
""blur"",""126"",""592607""
""blur"",""126"",""597740""
""blur"",""129"",""935400""
""blur"",""129"",""939385""
""blur"",""129"",""941503""
""blur"",""130"",""943513""
","""event"",""trial"",""time""
""focus"",""0"",""2""
""focus"",""96"",""513090""
""focus"",""124"",""584766""
""focus"",""126"",""596060""
""focus"",""126"",""599037""
""focus"",""129"",""936768""
""focus"",""129"",""940405""
""focus"",""129"",""943278""
""focus"",""131"",""944796""
","""event"",""trial"",""time""
""fullscreenenter"",""2"",""12398""
","
","","","","","","1784","images/dog7.png","","","memory_trial","1","definitely_old",""
"html-keyboard-response","134","950957","0.0-18.0-0.45","4127","approach_avoid_sv1","""event"",""trial"",""time""
""focus"",""0"",""2""
""fullscreenenter"",""2"",""12398""
""blur"",""96"",""510411""
""focus"",""96"",""513090""
""blur"",""123"",""582672""
""focus"",""124"",""584766""
""blur"",""126"",""592607""
""focus"",""126"",""596060""
""blur"",""126"",""597740""
""focus"",""126"",""599037""
""blur"",""129"",""935400""
""focus"",""129"",""936768""
""blur"",""129"",""939385""
""focus"",""129"",""940405""
""blur"",""129"",""941503""
""focus"",""129"",""943278""
""blur"",""130"",""943513""
""focus"",""131"",""944796""
""blur"",""135"",""953005""
""focus"",""135"",""954415""
""blur"",""135"",""955640""
""focus"",""135"",""955744""
""blur"",""135"",""956059""
""focus"",""135"",""960638""
","""event"",""trial"",""time""
""blur"",""96"",""510411""
""blur"",""123"",""582672""
""blur"",""126"",""592607""
""blur"",""126"",""597740""
""blur"",""129"",""935400""
""blur"",""129"",""939385""
""blur"",""129"",""941503""
""blur"",""130"",""943513""
""blur"",""135"",""953005""
""blur"",""135"",""955640""
""blur"",""135"",""956059""
","""event"",""trial"",""time""
""focus"",""0"",""2""
""focus"",""96"",""513090""
""focus"",""124"",""584766""
""focus"",""126"",""596060""
""focus"",""126"",""599037""
""focus"",""129"",""936768""
""focus"",""129"",""940405""
""focus"",""129"",""943278""
""focus"",""131"",""944796""
""focus"",""135"",""954415""
""focus"",""135"",""955744""
""focus"",""135"",""960638""
","""event"",""trial"",""time""
""fullscreenenter"",""2"",""12398""
","
","","","","","","null","<div style=""font-size:60px;"">+</div>","null","","fixation","","",""
"memory-trial","135","960964","0.0-18.0-1.45","4127","approach_avoid_sv1","""event"",""trial"",""time""
""focus"",""0"",""2""
""fullscreenenter"",""2"",""12398""
""blur"",""96"",""510411""
""focus"",""96"",""513090""
""blur"",""123"",""582672""
""focus"",""124"",""584766""
""blur"",""126"",""592607""
""focus"",""126"",""596060""
""blur"",""126"",""597740""
""focus"",""126"",""599037""
""blur"",""129"",""935400""
""focus"",""129"",""936768""
""blur"",""129"",""939385""
""focus"",""129"",""940405""
""blur"",""129"",""941503""
""focus"",""129"",""943278""
""blur"",""130"",""943513""
""focus"",""131"",""944796""
""blur"",""135"",""953005""
""focus"",""135"",""954415""
""blur"",""135"",""955640""
""focus"",""135"",""955744""
""blur"",""135"",""956059""
""focus"",""135"",""960638""
","""event"",""trial"",""time""
""blur"",""96"",""510411""
""blur"",""123"",""582672""
""blur"",""126"",""592607""
""blur"",""126"",""597740""
""blur"",""129"",""935400""
""blur"",""129"",""939385""
""blur"",""129"",""941503""
""blur"",""130"",""943513""
""blur"",""135"",""953005""
""blur"",""135"",""955640""
""blur"",""135"",""956059""
","""event"",""trial"",""time""
""focus"",""0"",""2""
""focus"",""96"",""513090""
""focus"",""124"",""584766""
""focus"",""126"",""596060""
""focus"",""126"",""599037""
""focus"",""129"",""936768""
""focus"",""129"",""940405""
""focus"",""129"",""943278""
""focus"",""131"",""944796""
""focus"",""135"",""954415""
""focus"",""135"",""955744""
""focus"",""135"",""960638""
","""event"",""trial"",""time""
""fullscreenenter"",""2"",""12398""
","
","","","","","","null","images/rodent6.png","","","memory_trial","null","null",""
"html-keyboard-response","136","961466","0.0-18.0-0.46","4127","approach_avoid_sv1","""event"",""trial"",""time""
""focus"",""0"",""2""
""fullscreenenter"",""2"",""12398""
""blur"",""96"",""510411""
""focus"",""96"",""513090""
""blur"",""123"",""582672""
""focus"",""124"",""584766""
""blur"",""126"",""592607""
""focus"",""126"",""596060""
""blur"",""126"",""597740""
""focus"",""126"",""599037""
""blur"",""129"",""935400""
""focus"",""129"",""936768""
""blur"",""129"",""939385""
""focus"",""129"",""940405""
""blur"",""129"",""941503""
""focus"",""129"",""943278""
""blur"",""130"",""943513""
""focus"",""131"",""944796""
""blur"",""135"",""953005""
""focus"",""135"",""954415""
""blur"",""135"",""955640""
""focus"",""135"",""955744""
""blur"",""135"",""956059""
""focus"",""135"",""960638""
","""event"",""trial"",""time""
""blur"",""96"",""510411""
""blur"",""123"",""582672""
""blur"",""126"",""592607""
""blur"",""126"",""597740""
""blur"",""129"",""935400""
""blur"",""129"",""939385""
""blur"",""129"",""941503""
""blur"",""130"",""943513""
""blur"",""135"",""953005""
""blur"",""135"",""955640""
""blur"",""135"",""956059""
","""event"",""trial"",""time""
""focus"",""0"",""2""
""focus"",""96"",""513090""
""focus"",""124"",""584766""
""focus"",""126"",""596060""
""focus"",""126"",""599037""
""focus"",""129"",""936768""
""focus"",""129"",""940405""
""focus"",""129"",""943278""
""focus"",""131"",""944796""
""focus"",""135"",""954415""
""focus"",""135"",""955744""
""focus"",""135"",""960638""
","""event"",""trial"",""time""
""fullscreenenter"",""2"",""12398""
","
","","","","","","null","<div style=""font-size:60px;"">+</div>","null","","fixation","","",""
"memory-trial","137","964583","0.0-18.0-1.46","4127","approach_avoid_sv1","""event"",""trial"",""time""
""focus"",""0"",""2""
""fullscreenenter"",""2"",""12398""
""blur"",""96"",""510411""
""focus"",""96"",""513090""
""blur"",""123"",""582672""
""focus"",""124"",""584766""
""blur"",""126"",""592607""
""focus"",""126"",""596060""
""blur"",""126"",""597740""
""focus"",""126"",""599037""
""blur"",""129"",""935400""
""focus"",""129"",""936768""
""blur"",""129"",""939385""
""focus"",""129"",""940405""
""blur"",""129"",""941503""
""focus"",""129"",""943278""
""blur"",""130"",""943513""
""focus"",""131"",""944796""
""blur"",""135"",""953005""
""focus"",""135"",""954415""
""blur"",""135"",""955640""
""focus"",""135"",""955744""
""blur"",""135"",""956059""
""focus"",""135"",""960638""
","""event"",""trial"",""time""
""blur"",""96"",""510411""
""blur"",""123"",""582672""
""blur"",""126"",""592607""
""blur"",""126"",""597740""
""blur"",""129"",""935400""
""blur"",""129"",""939385""
""blur"",""129"",""941503""
""blur"",""130"",""943513""
""blur"",""135"",""953005""
""blur"",""135"",""955640""
""blur"",""135"",""956059""
","""event"",""trial"",""time""
""focus"",""0"",""2""
""focus"",""96"",""513090""
""focus"",""124"",""584766""
""focus"",""126"",""596060""
""focus"",""126"",""599037""
""focus"",""129"",""936768""
""focus"",""129"",""940405""
""focus"",""129"",""943278""
""focus"",""131"",""944796""
""focus"",""135"",""954415""
""focus"",""135"",""955744""
""focus"",""135"",""960638""
","""event"",""trial"",""time""
""fullscreenenter"",""2"",""12398""
","
","","","","","","2099","images/goat4.png","","","memory_trial","4","definitely_new",""
"html-keyboard-response","138","965085","0.0-18.0-0.47","4127","approach_avoid_sv1","""event"",""trial"",""time""
""focus"",""0"",""2""
""fullscreenenter"",""2"",""12398""
""blur"",""96"",""510411""
""focus"",""96"",""513090""
""blur"",""123"",""582672""
""focus"",""124"",""584766""
""blur"",""126"",""592607""
""focus"",""126"",""596060""
""blur"",""126"",""597740""
""focus"",""126"",""599037""
""blur"",""129"",""935400""
""focus"",""129"",""936768""
""blur"",""129"",""939385""
""focus"",""129"",""940405""
""blur"",""129"",""941503""
""focus"",""129"",""943278""
""blur"",""130"",""943513""
""focus"",""131"",""944796""
""blur"",""135"",""953005""
""focus"",""135"",""954415""
""blur"",""135"",""955640""
""focus"",""135"",""955744""
""blur"",""135"",""956059""
""focus"",""135"",""960638""
""blur"",""139"",""967814""
""focus"",""139"",""969391""
""blur"",""139"",""971367""
""focus"",""139"",""971415""
","""event"",""trial"",""time""
""blur"",""96"",""510411""
""blur"",""123"",""582672""
""blur"",""126"",""592607""
""blur"",""126"",""597740""
""blur"",""129"",""935400""
""blur"",""129"",""939385""
""blur"",""129"",""941503""
""blur"",""130"",""943513""
""blur"",""135"",""953005""
""blur"",""135"",""955640""
""blur"",""135"",""956059""
""blur"",""139"",""967814""
""blur"",""139"",""971367""
","""event"",""trial"",""time""
""focus"",""0"",""2""
""focus"",""96"",""513090""
""focus"",""124"",""584766""
""focus"",""126"",""596060""
""focus"",""126"",""599037""
""focus"",""129"",""936768""
""focus"",""129"",""940405""
""focus"",""129"",""943278""
""focus"",""131"",""944796""
""focus"",""135"",""954415""
""focus"",""135"",""955744""
""focus"",""135"",""960638""
""focus"",""139"",""969391""
""focus"",""139"",""971415""
","""event"",""trial"",""time""
""fullscreenenter"",""2"",""12398""
","
","","","","","","null","<div style=""font-size:60px;"">+</div>","null","","fixation","","",""
"memory-trial","139","973532","0.0-18.0-1.47","4127","approach_avoid_sv1","""event"",""trial"",""time""
""focus"",""0"",""2""
""fullscreenenter"",""2"",""12398""
""blur"",""96"",""510411""
""focus"",""96"",""513090""
""blur"",""123"",""582672""
""focus"",""124"",""584766""
""blur"",""126"",""592607""
""focus"",""126"",""596060""
""blur"",""126"",""597740""
""focus"",""126"",""599037""
""blur"",""129"",""935400""
""focus"",""129"",""936768""
""blur"",""129"",""939385""
""focus"",""129"",""940405""
""blur"",""129"",""941503""
""focus"",""129"",""943278""
""blur"",""130"",""943513""
""focus"",""131"",""944796""
""blur"",""135"",""953005""
""focus"",""135"",""954415""
""blur"",""135"",""955640""
""focus"",""135"",""955744""
""blur"",""135"",""956059""
""focus"",""135"",""960638""
""blur"",""139"",""967814""
""focus"",""139"",""969391""
""blur"",""139"",""971367""
""focus"",""139"",""971415""
","""event"",""trial"",""time""
""blur"",""96"",""510411""
""blur"",""123"",""582672""
""blur"",""126"",""592607""
""blur"",""126"",""597740""
""blur"",""129"",""935400""
""blur"",""129"",""939385""
""blur"",""129"",""941503""
""blur"",""130"",""943513""
""blur"",""135"",""953005""
""blur"",""135"",""955640""
""blur"",""135"",""956059""
""blur"",""139"",""967814""
""blur"",""139"",""971367""
","""event"",""trial"",""time""
""focus"",""0"",""2""
""focus"",""96"",""513090""
""focus"",""124"",""584766""
""focus"",""126"",""596060""
""focus"",""126"",""599037""
""focus"",""129"",""936768""
""focus"",""129"",""940405""
""focus"",""129"",""943278""
""focus"",""131"",""944796""
""focus"",""135"",""954415""
""focus"",""135"",""955744""
""focus"",""135"",""960638""
""focus"",""139"",""969391""
""focus"",""139"",""971415""
","""event"",""trial"",""time""
""fullscreenenter"",""2"",""12398""
","
","","","","","","7433","images/cow1.png","","","memory_trial","2","maybe_old",""
"html-keyboard-response","140","974036","0.0-18.0-0.48","4127","approach_avoid_sv1","""event"",""trial"",""time""
""focus"",""0"",""2""
""fullscreenenter"",""2"",""12398""
""blur"",""96"",""510411""
""focus"",""96"",""513090""
""blur"",""123"",""582672""
""focus"",""124"",""584766""
""blur"",""126"",""592607""
""focus"",""126"",""596060""
""blur"",""126"",""597740""
""focus"",""126"",""599037""
""blur"",""129"",""935400""
""focus"",""129"",""936768""
""blur"",""129"",""939385""
""focus"",""129"",""940405""
""blur"",""129"",""941503""
""focus"",""129"",""943278""
""blur"",""130"",""943513""
""focus"",""131"",""944796""
""blur"",""135"",""953005""
""focus"",""135"",""954415""
""blur"",""135"",""955640""
""focus"",""135"",""955744""
""blur"",""135"",""956059""
""focus"",""135"",""960638""
""blur"",""139"",""967814""
""focus"",""139"",""969391""
""blur"",""139"",""971367""
""focus"",""139"",""971415""
","""event"",""trial"",""time""
""blur"",""96"",""510411""
""blur"",""123"",""582672""
""blur"",""126"",""592607""
""blur"",""126"",""597740""
""blur"",""129"",""935400""
""blur"",""129"",""939385""
""blur"",""129"",""941503""
""blur"",""130"",""943513""
""blur"",""135"",""953005""
""blur"",""135"",""955640""
""blur"",""135"",""956059""
""blur"",""139"",""967814""
""blur"",""139"",""971367""
","""event"",""trial"",""time""
""focus"",""0"",""2""
""focus"",""96"",""513090""
""focus"",""124"",""584766""
""focus"",""126"",""596060""
""focus"",""126"",""599037""
""focus"",""129"",""936768""
""focus"",""129"",""940405""
""focus"",""129"",""943278""
""focus"",""131"",""944796""
""focus"",""135"",""954415""
""focus"",""135"",""955744""
""focus"",""135"",""960638""
""focus"",""139"",""969391""
""focus"",""139"",""971415""
","""event"",""trial"",""time""
""fullscreenenter"",""2"",""12398""
","
","","","","","","null","<div style=""font-size:60px;"">+</div>","null","","fixation","","",""
"memory-trial","141","977456","0.0-18.0-1.48","4127","approach_avoid_sv1","""event"",""trial"",""time""
""focus"",""0"",""2""
""fullscreenenter"",""2"",""12398""
""blur"",""96"",""510411""
""focus"",""96"",""513090""
""blur"",""123"",""582672""
""focus"",""124"",""584766""
""blur"",""126"",""592607""
""focus"",""126"",""596060""
""blur"",""126"",""597740""
""focus"",""126"",""599037""
""blur"",""129"",""935400""
""focus"",""129"",""936768""
""blur"",""129"",""939385""
""focus"",""129"",""940405""
""blur"",""129"",""941503""
""focus"",""129"",""943278""
""blur"",""130"",""943513""
""focus"",""131"",""944796""
""blur"",""135"",""953005""
""focus"",""135"",""954415""
""blur"",""135"",""955640""
""focus"",""135"",""955744""
""blur"",""135"",""956059""
""focus"",""135"",""960638""
""blur"",""139"",""967814""
""focus"",""139"",""969391""
""blur"",""139"",""971367""
""focus"",""139"",""971415""
","""event"",""trial"",""time""
""blur"",""96"",""510411""
""blur"",""123"",""582672""
""blur"",""126"",""592607""
""blur"",""126"",""597740""
""blur"",""129"",""935400""
""blur"",""129"",""939385""
""blur"",""129"",""941503""
""blur"",""130"",""943513""
""blur"",""135"",""953005""
""blur"",""135"",""955640""
""blur"",""135"",""956059""
""blur"",""139"",""967814""
""blur"",""139"",""971367""
","""event"",""trial"",""time""
""focus"",""0"",""2""
""focus"",""96"",""513090""
""focus"",""124"",""584766""
""focus"",""126"",""596060""
""focus"",""126"",""599037""
""focus"",""129"",""936768""
""focus"",""129"",""940405""
""focus"",""129"",""943278""
""focus"",""131"",""944796""
""focus"",""135"",""954415""
""focus"",""135"",""955744""
""focus"",""135"",""960638""
""focus"",""139"",""969391""
""focus"",""139"",""971415""
","""event"",""trial"",""time""
""fullscreenenter"",""2"",""12398""
","
","","","","","","2405","images/boat8.png","","","memory_trial","1","definitely_old",""
"html-keyboard-response","142","977972","0.0-18.0-0.49","4127","approach_avoid_sv1","""event"",""trial"",""time""
""focus"",""0"",""2""
""fullscreenenter"",""2"",""12398""
""blur"",""96"",""510411""
""focus"",""96"",""513090""
""blur"",""123"",""582672""
""focus"",""124"",""584766""
""blur"",""126"",""592607""
""focus"",""126"",""596060""
""blur"",""126"",""597740""
""focus"",""126"",""599037""
""blur"",""129"",""935400""
""focus"",""129"",""936768""
""blur"",""129"",""939385""
""focus"",""129"",""940405""
""blur"",""129"",""941503""
""focus"",""129"",""943278""
""blur"",""130"",""943513""
""focus"",""131"",""944796""
""blur"",""135"",""953005""
""focus"",""135"",""954415""
""blur"",""135"",""955640""
""focus"",""135"",""955744""
""blur"",""135"",""956059""
""focus"",""135"",""960638""
""blur"",""139"",""967814""
""focus"",""139"",""969391""
""blur"",""139"",""971367""
""focus"",""139"",""971415""
","""event"",""trial"",""time""
""blur"",""96"",""510411""
""blur"",""123"",""582672""
""blur"",""126"",""592607""
""blur"",""126"",""597740""
""blur"",""129"",""935400""
""blur"",""129"",""939385""
""blur"",""129"",""941503""
""blur"",""130"",""943513""
""blur"",""135"",""953005""
""blur"",""135"",""955640""
""blur"",""135"",""956059""
""blur"",""139"",""967814""
""blur"",""139"",""971367""
","""event"",""trial"",""time""
""focus"",""0"",""2""
""focus"",""96"",""513090""
""focus"",""124"",""584766""
""focus"",""126"",""596060""
""focus"",""126"",""599037""
""focus"",""129"",""936768""
""focus"",""129"",""940405""
""focus"",""129"",""943278""
""focus"",""131"",""944796""
""focus"",""135"",""954415""
""focus"",""135"",""955744""
""focus"",""135"",""960638""
""focus"",""139"",""969391""
""focus"",""139"",""971415""
","""event"",""trial"",""time""
""fullscreenenter"",""2"",""12398""
","
","","","","","","null","<div style=""font-size:60px;"">+</div>","null","","fixation","","",""
"memory-trial","143","982103","0.0-18.0-1.49","4127","approach_avoid_sv1","""event"",""trial"",""time""
""focus"",""0"",""2""
""fullscreenenter"",""2"",""12398""
""blur"",""96"",""510411""
""focus"",""96"",""513090""
""blur"",""123"",""582672""
""focus"",""124"",""584766""
""blur"",""126"",""592607""
""focus"",""126"",""596060""
""blur"",""126"",""597740""
""focus"",""126"",""599037""
""blur"",""129"",""935400""
""focus"",""129"",""936768""
""blur"",""129"",""939385""
""focus"",""129"",""940405""
""blur"",""129"",""941503""
""focus"",""129"",""943278""
""blur"",""130"",""943513""
""focus"",""131"",""944796""
""blur"",""135"",""953005""
""focus"",""135"",""954415""
""blur"",""135"",""955640""
""focus"",""135"",""955744""
""blur"",""135"",""956059""
""focus"",""135"",""960638""
""blur"",""139"",""967814""
""focus"",""139"",""969391""
""blur"",""139"",""971367""
""focus"",""139"",""971415""
","""event"",""trial"",""time""
""blur"",""96"",""510411""
""blur"",""123"",""582672""
""blur"",""126"",""592607""
""blur"",""126"",""597740""
""blur"",""129"",""935400""
""blur"",""129"",""939385""
""blur"",""129"",""941503""
""blur"",""130"",""943513""
""blur"",""135"",""953005""
""blur"",""135"",""955640""
""blur"",""135"",""956059""
""blur"",""139"",""967814""
""blur"",""139"",""971367""
","""event"",""trial"",""time""
""focus"",""0"",""2""
""focus"",""96"",""513090""
""focus"",""124"",""584766""
""focus"",""126"",""596060""
""focus"",""126"",""599037""
""focus"",""129"",""936768""
""focus"",""129"",""940405""
""focus"",""129"",""943278""
""focus"",""131"",""944796""
""focus"",""135"",""954415""
""focus"",""135"",""955744""
""focus"",""135"",""960638""
""focus"",""139"",""969391""
""focus"",""139"",""971415""
","""event"",""trial"",""time""
""fullscreenenter"",""2"",""12398""
","
","","","","","","3112","images/horse7.png","","","memory_trial","2","maybe_old",""
"html-keyboard-response","144","982605","0.0-18.0-0.50","4127","approach_avoid_sv1","""event"",""trial"",""time""
""focus"",""0"",""2""
""fullscreenenter"",""2"",""12398""
""blur"",""96"",""510411""
""focus"",""96"",""513090""
""blur"",""123"",""582672""
""focus"",""124"",""584766""
""blur"",""126"",""592607""
""focus"",""126"",""596060""
""blur"",""126"",""597740""
""focus"",""126"",""599037""
""blur"",""129"",""935400""
""focus"",""129"",""936768""
""blur"",""129"",""939385""
""focus"",""129"",""940405""
""blur"",""129"",""941503""
""focus"",""129"",""943278""
""blur"",""130"",""943513""
""focus"",""131"",""944796""
""blur"",""135"",""953005""
""focus"",""135"",""954415""
""blur"",""135"",""955640""
""focus"",""135"",""955744""
""blur"",""135"",""956059""
""focus"",""135"",""960638""
""blur"",""139"",""967814""
""focus"",""139"",""969391""
""blur"",""139"",""971367""
""focus"",""139"",""971415""
","""event"",""trial"",""time""
""blur"",""96"",""510411""
""blur"",""123"",""582672""
""blur"",""126"",""592607""
""blur"",""126"",""597740""
""blur"",""129"",""935400""
""blur"",""129"",""939385""
""blur"",""129"",""941503""
""blur"",""130"",""943513""
""blur"",""135"",""953005""
""blur"",""135"",""955640""
""blur"",""135"",""956059""
""blur"",""139"",""967814""
""blur"",""139"",""971367""
","""event"",""trial"",""time""
""focus"",""0"",""2""
""focus"",""96"",""513090""
""focus"",""124"",""584766""
""focus"",""126"",""596060""
""focus"",""126"",""599037""
""focus"",""129"",""936768""
""focus"",""129"",""940405""
""focus"",""129"",""943278""
""focus"",""131"",""944796""
""focus"",""135"",""954415""
""focus"",""135"",""955744""
""focus"",""135"",""960638""
""focus"",""139"",""969391""
""focus"",""139"",""971415""
","""event"",""trial"",""time""
""fullscreenenter"",""2"",""12398""
","
","","","","","","null","<div style=""font-size:60px;"">+</div>","null","","fixation","","",""
"memory-trial","145","985914","0.0-18.0-1.50","4127","approach_avoid_sv1","""event"",""trial"",""time""
""focus"",""0"",""2""
""fullscreenenter"",""2"",""12398""
""blur"",""96"",""510411""
""focus"",""96"",""513090""
""blur"",""123"",""582672""
""focus"",""124"",""584766""
""blur"",""126"",""592607""
""focus"",""126"",""596060""
""blur"",""126"",""597740""
""focus"",""126"",""599037""
""blur"",""129"",""935400""
""focus"",""129"",""936768""
""blur"",""129"",""939385""
""focus"",""129"",""940405""
""blur"",""129"",""941503""
""focus"",""129"",""943278""
""blur"",""130"",""943513""
""focus"",""131"",""944796""
""blur"",""135"",""953005""
""focus"",""135"",""954415""
""blur"",""135"",""955640""
""focus"",""135"",""955744""
""blur"",""135"",""956059""
""focus"",""135"",""960638""
""blur"",""139"",""967814""
""focus"",""139"",""969391""
""blur"",""139"",""971367""
""focus"",""139"",""971415""
","""event"",""trial"",""time""
""blur"",""96"",""510411""
""blur"",""123"",""582672""
""blur"",""126"",""592607""
""blur"",""126"",""597740""
""blur"",""129"",""935400""
""blur"",""129"",""939385""
""blur"",""129"",""941503""
""blur"",""130"",""943513""
""blur"",""135"",""953005""
""blur"",""135"",""955640""
""blur"",""135"",""956059""
""blur"",""139"",""967814""
""blur"",""139"",""971367""
","""event"",""trial"",""time""
""focus"",""0"",""2""
""focus"",""96"",""513090""
""focus"",""124"",""584766""
""focus"",""126"",""596060""
""focus"",""126"",""599037""
""focus"",""129"",""936768""
""focus"",""129"",""940405""
""focus"",""129"",""943278""
""focus"",""131"",""944796""
""focus"",""135"",""954415""
""focus"",""135"",""955744""
""focus"",""135"",""960638""
""focus"",""139"",""969391""
""focus"",""139"",""971415""
","""event"",""trial"",""time""
""fullscreenenter"",""2"",""12398""
","
","","","","","","2299","images/cactus5.png","","","memory_trial","4","definitely_new",""
"html-keyboard-response","146","986417","0.0-18.0-0.51","4127","approach_avoid_sv1","""event"",""trial"",""time""
""focus"",""0"",""2""
""fullscreenenter"",""2"",""12398""
""blur"",""96"",""510411""
""focus"",""96"",""513090""
""blur"",""123"",""582672""
""focus"",""124"",""584766""
""blur"",""126"",""592607""
""focus"",""126"",""596060""
""blur"",""126"",""597740""
""focus"",""126"",""599037""
""blur"",""129"",""935400""
""focus"",""129"",""936768""
""blur"",""129"",""939385""
""focus"",""129"",""940405""
""blur"",""129"",""941503""
""focus"",""129"",""943278""
""blur"",""130"",""943513""
""focus"",""131"",""944796""
""blur"",""135"",""953005""
""focus"",""135"",""954415""
""blur"",""135"",""955640""
""focus"",""135"",""955744""
""blur"",""135"",""956059""
""focus"",""135"",""960638""
""blur"",""139"",""967814""
""focus"",""139"",""969391""
""blur"",""139"",""971367""
""focus"",""139"",""971415""
","""event"",""trial"",""time""
""blur"",""96"",""510411""
""blur"",""123"",""582672""
""blur"",""126"",""592607""
""blur"",""126"",""597740""
""blur"",""129"",""935400""
""blur"",""129"",""939385""
""blur"",""129"",""941503""
""blur"",""130"",""943513""
""blur"",""135"",""953005""
""blur"",""135"",""955640""
""blur"",""135"",""956059""
""blur"",""139"",""967814""
""blur"",""139"",""971367""
","""event"",""trial"",""time""
""focus"",""0"",""2""
""focus"",""96"",""513090""
""focus"",""124"",""584766""
""focus"",""126"",""596060""
""focus"",""126"",""599037""
""focus"",""129"",""936768""
""focus"",""129"",""940405""
""focus"",""129"",""943278""
""focus"",""131"",""944796""
""focus"",""135"",""954415""
""focus"",""135"",""955744""
""focus"",""135"",""960638""
""focus"",""139"",""969391""
""focus"",""139"",""971415""
","""event"",""trial"",""time""
""fullscreenenter"",""2"",""12398""
","
","","","","","","null","<div style=""font-size:60px;"">+</div>","null","","fixation","","",""
"memory-trial","147","989325","0.0-18.0-1.51","4127","approach_avoid_sv1","""event"",""trial"",""time""
""focus"",""0"",""2""
""fullscreenenter"",""2"",""12398""
""blur"",""96"",""510411""
""focus"",""96"",""513090""
""blur"",""123"",""582672""
""focus"",""124"",""584766""
""blur"",""126"",""592607""
""focus"",""126"",""596060""
""blur"",""126"",""597740""
""focus"",""126"",""599037""
""blur"",""129"",""935400""
""focus"",""129"",""936768""
""blur"",""129"",""939385""
""focus"",""129"",""940405""
""blur"",""129"",""941503""
""focus"",""129"",""943278""
""blur"",""130"",""943513""
""focus"",""131"",""944796""
""blur"",""135"",""953005""
""focus"",""135"",""954415""
""blur"",""135"",""955640""
""focus"",""135"",""955744""
""blur"",""135"",""956059""
""focus"",""135"",""960638""
""blur"",""139"",""967814""
""focus"",""139"",""969391""
""blur"",""139"",""971367""
""focus"",""139"",""971415""
","""event"",""trial"",""time""
""blur"",""96"",""510411""
""blur"",""123"",""582672""
""blur"",""126"",""592607""
""blur"",""126"",""597740""
""blur"",""129"",""935400""
""blur"",""129"",""939385""
""blur"",""129"",""941503""
""blur"",""130"",""943513""
""blur"",""135"",""953005""
""blur"",""135"",""955640""
""blur"",""135"",""956059""
""blur"",""139"",""967814""
""blur"",""139"",""971367""
","""event"",""trial"",""time""
""focus"",""0"",""2""
""focus"",""96"",""513090""
""focus"",""124"",""584766""
""focus"",""126"",""596060""
""focus"",""126"",""599037""
""focus"",""129"",""936768""
""focus"",""129"",""940405""
""focus"",""129"",""943278""
""focus"",""131"",""944796""
""focus"",""135"",""954415""
""focus"",""135"",""955744""
""focus"",""135"",""960638""
""focus"",""139"",""969391""
""focus"",""139"",""971415""
","""event"",""trial"",""time""
""fullscreenenter"",""2"",""12398""
","
","","","","","","1899","images/train3.png","","","memory_trial","1","definitely_old",""
"html-keyboard-response","148","989843","0.0-18.0-0.52","4127","approach_avoid_sv1","""event"",""trial"",""time""
""focus"",""0"",""2""
""fullscreenenter"",""2"",""12398""
""blur"",""96"",""510411""
""focus"",""96"",""513090""
""blur"",""123"",""582672""
""focus"",""124"",""584766""
""blur"",""126"",""592607""
""focus"",""126"",""596060""
""blur"",""126"",""597740""
""focus"",""126"",""599037""
""blur"",""129"",""935400""
""focus"",""129"",""936768""
""blur"",""129"",""939385""
""focus"",""129"",""940405""
""blur"",""129"",""941503""
""focus"",""129"",""943278""
""blur"",""130"",""943513""
""focus"",""131"",""944796""
""blur"",""135"",""953005""
""focus"",""135"",""954415""
""blur"",""135"",""955640""
""focus"",""135"",""955744""
""blur"",""135"",""956059""
""focus"",""135"",""960638""
""blur"",""139"",""967814""
""focus"",""139"",""969391""
""blur"",""139"",""971367""
""focus"",""139"",""971415""
","""event"",""trial"",""time""
""blur"",""96"",""510411""
""blur"",""123"",""582672""
""blur"",""126"",""592607""
""blur"",""126"",""597740""
""blur"",""129"",""935400""
""blur"",""129"",""939385""
""blur"",""129"",""941503""
""blur"",""130"",""943513""
""blur"",""135"",""953005""
""blur"",""135"",""955640""
""blur"",""135"",""956059""
""blur"",""139"",""967814""
""blur"",""139"",""971367""
","""event"",""trial"",""time""
""focus"",""0"",""2""
""focus"",""96"",""513090""
""focus"",""124"",""584766""
""focus"",""126"",""596060""
""focus"",""126"",""599037""
""focus"",""129"",""936768""
""focus"",""129"",""940405""
""focus"",""129"",""943278""
""focus"",""131"",""944796""
""focus"",""135"",""954415""
""focus"",""135"",""955744""
""focus"",""135"",""960638""
""focus"",""139"",""969391""
""focus"",""139"",""971415""
","""event"",""trial"",""time""
""fullscreenenter"",""2"",""12398""
","
","","","","","","null","<div style=""font-size:60px;"">+</div>","null","","fixation","","",""
"memory-trial","149","992931","0.0-18.0-1.52","4127","approach_avoid_sv1","""event"",""trial"",""time""
""focus"",""0"",""2""
""fullscreenenter"",""2"",""12398""
""blur"",""96"",""510411""
""focus"",""96"",""513090""
""blur"",""123"",""582672""
""focus"",""124"",""584766""
""blur"",""126"",""592607""
""focus"",""126"",""596060""
""blur"",""126"",""597740""
""focus"",""126"",""599037""
""blur"",""129"",""935400""
""focus"",""129"",""936768""
""blur"",""129"",""939385""
""focus"",""129"",""940405""
""blur"",""129"",""941503""
""focus"",""129"",""943278""
""blur"",""130"",""943513""
""focus"",""131"",""944796""
""blur"",""135"",""953005""
""focus"",""135"",""954415""
""blur"",""135"",""955640""
""focus"",""135"",""955744""
""blur"",""135"",""956059""
""focus"",""135"",""960638""
""blur"",""139"",""967814""
""focus"",""139"",""969391""
""blur"",""139"",""971367""
""focus"",""139"",""971415""
","""event"",""trial"",""time""
""blur"",""96"",""510411""
""blur"",""123"",""582672""
""blur"",""126"",""592607""
""blur"",""126"",""597740""
""blur"",""129"",""935400""
""blur"",""129"",""939385""
""blur"",""129"",""941503""
""blur"",""130"",""943513""
""blur"",""135"",""953005""
""blur"",""135"",""955640""
""blur"",""135"",""956059""
""blur"",""139"",""967814""
""blur"",""139"",""971367""
","""event"",""trial"",""time""
""focus"",""0"",""2""
""focus"",""96"",""513090""
""focus"",""124"",""584766""
""focus"",""126"",""596060""
""focus"",""126"",""599037""
""focus"",""129"",""936768""
""focus"",""129"",""940405""
""focus"",""129"",""943278""
""focus"",""131"",""944796""
""focus"",""135"",""954415""
""focus"",""135"",""955744""
""focus"",""135"",""960638""
""focus"",""139"",""969391""
""focus"",""139"",""971415""
","""event"",""trial"",""time""
""fullscreenenter"",""2"",""12398""
","
","","","","","","2074","images/plane2.png","","","memory_trial","3","maybe_new",""
"html-keyboard-response","150","993434","0.0-18.0-0.53","4127","approach_avoid_sv1","""event"",""trial"",""time""
""focus"",""0"",""2""
""fullscreenenter"",""2"",""12398""
""blur"",""96"",""510411""
""focus"",""96"",""513090""
""blur"",""123"",""582672""
""focus"",""124"",""584766""
""blur"",""126"",""592607""
""focus"",""126"",""596060""
""blur"",""126"",""597740""
""focus"",""126"",""599037""
""blur"",""129"",""935400""
""focus"",""129"",""936768""
""blur"",""129"",""939385""
""focus"",""129"",""940405""
""blur"",""129"",""941503""
""focus"",""129"",""943278""
""blur"",""130"",""943513""
""focus"",""131"",""944796""
""blur"",""135"",""953005""
""focus"",""135"",""954415""
""blur"",""135"",""955640""
""focus"",""135"",""955744""
""blur"",""135"",""956059""
""focus"",""135"",""960638""
""blur"",""139"",""967814""
""focus"",""139"",""969391""
""blur"",""139"",""971367""
""focus"",""139"",""971415""
","""event"",""trial"",""time""
""blur"",""96"",""510411""
""blur"",""123"",""582672""
""blur"",""126"",""592607""
""blur"",""126"",""597740""
""blur"",""129"",""935400""
""blur"",""129"",""939385""
""blur"",""129"",""941503""
""blur"",""130"",""943513""
""blur"",""135"",""953005""
""blur"",""135"",""955640""
""blur"",""135"",""956059""
""blur"",""139"",""967814""
""blur"",""139"",""971367""
","""event"",""trial"",""time""
""focus"",""0"",""2""
""focus"",""96"",""513090""
""focus"",""124"",""584766""
""focus"",""126"",""596060""
""focus"",""126"",""599037""
""focus"",""129"",""936768""
""focus"",""129"",""940405""
""focus"",""129"",""943278""
""focus"",""131"",""944796""
""focus"",""135"",""954415""
""focus"",""135"",""955744""
""focus"",""135"",""960638""
""focus"",""139"",""969391""
""focus"",""139"",""971415""
","""event"",""trial"",""time""
""fullscreenenter"",""2"",""12398""
","
","","","","","","null","<div style=""font-size:60px;"">+</div>","null","","fixation","","",""
"memory-trial","151","996214","0.0-18.0-1.53","4127","approach_avoid_sv1","""event"",""trial"",""time""
""focus"",""0"",""2""
""fullscreenenter"",""2"",""12398""
""blur"",""96"",""510411""
""focus"",""96"",""513090""
""blur"",""123"",""582672""
""focus"",""124"",""584766""
""blur"",""126"",""592607""
""focus"",""126"",""596060""
""blur"",""126"",""597740""
""focus"",""126"",""599037""
""blur"",""129"",""935400""
""focus"",""129"",""936768""
