"trial_type","trial_index","time_elapsed","internal_node_id","subject_id","task_version","interactions","blur_events","focus_events","fullscreenenter_events","fullscreenexit_events","success","timeout","failed_images","failed_audio","failed_video","rt","stimulus","response","button_pressed","task_part","key_press","answer","correct"
"pavlovia","0","11","0.0-0.0","3977","approach_avoid_sv1","""event"",""trial"",""time""
""focus"",""0"",""1""
""fullscreenenter"",""1"",""6078""
","
","""event"",""trial"",""time""
""focus"",""0"",""1""
","""event"",""trial"",""time""
""fullscreenenter"",""1"",""6078""
","
","","","","","","","","","","","","",""
"fullscreen","1","7058","0.0-1.0","3977","approach_avoid_sv1","""event"",""trial"",""time""
""focus"",""0"",""1""
""fullscreenenter"",""1"",""6078""
","
","""event"",""trial"",""time""
""focus"",""0"",""1""
","""event"",""trial"",""time""
""fullscreenenter"",""1"",""6078""
","
","true","","","","","","","","","","","",""
"preload","2","11294","0.0-2.0","3977","approach_avoid_sv1","""event"",""trial"",""time""
""focus"",""0"",""1""
""fullscreenenter"",""1"",""6078""
","
","""event"",""trial"",""time""
""focus"",""0"",""1""
","""event"",""trial"",""time""
""fullscreenenter"",""1"",""6078""
","
","true","false","[]","[]","[]","","","","","","","",""
"preload","3","15721","0.0-3.0","3977","approach_avoid_sv1","""event"",""trial"",""time""
""focus"",""0"",""1""
""fullscreenenter"",""1"",""6078""
","
","""event"",""trial"",""time""
""focus"",""0"",""1""
","""event"",""trial"",""time""
""fullscreenenter"",""1"",""6078""
","
","true","false","[]","[]","[]","","","","","","","",""
"preload","4","16602","0.0-4.0","3977","approach_avoid_sv1","""event"",""trial"",""time""
""focus"",""0"",""1""
""fullscreenenter"",""1"",""6078""
","
","""event"",""trial"",""time""
""focus"",""0"",""1""
","""event"",""trial"",""time""
""fullscreenenter"",""1"",""6078""
","
","true","false","[]","[]","[]","","","","","","","",""
"audio-keyboard-response","5","19991","0.0-5.0","3977","approach_avoid_sv1","""event"",""trial"",""time""
""focus"",""0"",""1""
""fullscreenenter"",""1"",""6078""
","
","""event"",""trial"",""time""
""focus"",""0"",""1""
","""event"",""trial"",""time""
""fullscreenenter"",""1"",""6078""
","
","","","","","","3389.333333333334","audio/beep_loop.wav"," ","","","","",""
"audio-button-response","6","21954","0.0-6.0","3977","approach_avoid_sv1","""event"",""trial"",""time""
""focus"",""0"",""1""
""fullscreenenter"",""1"",""6078""
","
","""event"",""trial"",""time""
""focus"",""0"",""1""
","""event"",""trial"",""time""
""fullscreenenter"",""1"",""6078""
","
","","","","","","1971","audio/turtle.wav","3","","","","",""
"audio-button-response","7","24098","0.0-7.0","3977","approach_avoid_sv1","""event"",""trial"",""time""
""focus"",""0"",""1""
""fullscreenenter"",""1"",""6078""
","
","""event"",""trial"",""time""
""focus"",""0"",""1""
","""event"",""trial"",""time""
""fullscreenenter"",""1"",""6078""
","
","","","","","","1139","audio/shark.wav","2","","","","",""
"preload","8","30576","0.0-8.0","3977","approach_avoid_sv1","""event"",""trial"",""time""
""focus"",""0"",""1""
""fullscreenenter"",""1"",""6078""
","
","""event"",""trial"",""time""
""focus"",""0"",""1""
","""event"",""trial"",""time""
""fullscreenenter"",""1"",""6078""
","
","true","false","[]","[]","[]","","","","","","","",""
"learning-instructions","9","36601","0.0-9.0-0.0","3977","approach_avoid_sv1","""event"",""trial"",""time""
""focus"",""0"",""1""
""fullscreenenter"",""1"",""6078""
","
","""event"",""trial"",""time""
""focus"",""0"",""1""
","""event"",""trial"",""time""
""fullscreenenter"",""1"",""6078""
","
","","","","","","1538","<p> Welcome back! </p><p> Last week, you had to make choices about lots of different items.  </p>","","0","instructions","","",""
"learning-instructions","10","41521","0.0-9.0-0.1","3977","approach_avoid_sv1","""event"",""trial"",""time""
""focus"",""0"",""1""
""fullscreenenter"",""1"",""6078""
","
","""event"",""trial"",""time""
""focus"",""0"",""1""
","""event"",""trial"",""time""
""fullscreenenter"",""1"",""6078""
","
","","","","","","787","<p> Today, we are going to ask you to try to remember all the items. </p>","","0","instructions","","",""
"learning-instructions","11","54681","0.0-9.0-0.2","3977","approach_avoid_sv1","""event"",""trial"",""time""
""focus"",""0"",""1""
""fullscreenenter"",""1"",""6078""
","
","""event"",""trial"",""time""
""focus"",""0"",""1""
","""event"",""trial"",""time""
""fullscreenenter"",""1"",""6078""
","
","","","","","","3018","<p> On every trial, you will see an image. </p><p> The image may be an OLD image you saw during the games last week or it may be a NEW image that was not presented. </p>","","0","instructions","","",""
"learning-instructions","12","64953","0.0-9.0-0.3","3977","approach_avoid_sv1","""event"",""trial"",""time""
""focus"",""0"",""1""
""fullscreenenter"",""1"",""6078""
","
","""event"",""trial"",""time""
""focus"",""0"",""1""
","""event"",""trial"",""time""
""fullscreenenter"",""1"",""6078""
","
","","","","","","1760","<p> You need to select whether the image is:  </p><p>  'Definitely old', 'Maybe old', 'Maybe new', or 'Definitely new.'  </p><div class=""mem-choice-instructions-grid""><div class=""choice-option"" id=""choice-option-1"" ><img src=""images/definitely_old_1.png"" id=""choice-option-img-1"" class=""choice-option-img"" stage=""1""></div><div class=""choice-option"" id=""choice-option-2"" ><img src=""images/maybe_old_1.png"" id=""choice-option-img-2"" class=""choice-option-img"" stage=""1""></div><div class=""choice-option"" id=""choice-option-3"" ><img src=""images/maybe_new_1.png"" id=""choice-option-img-3"" class=""choice-option-img"" stage=""1""></div><div class=""choice-option"" id=""choice-option-4"" > <img src=""images/definitely_new_1.png"" id=""choice-option-img-4"" class=""choice-option-img"" stage=""1""></div></div>","","0","instructions","","",""
"learning-instructions","13","73849","0.0-9.0-0.4","3977","approach_avoid_sv1","""event"",""trial"",""time""
""focus"",""0"",""1""
""fullscreenenter"",""1"",""6078""
","
","""event"",""trial"",""time""
""focus"",""0"",""1""
","""event"",""trial"",""time""
""fullscreenenter"",""1"",""6078""
","
","","","","","","2366","<p> You should use the 1, 2, 3, and 4 keys to make your responses.  </p><div class=""mem-choice-instructions-grid""><div class=""choice-option"" id=""choice-option-1"" ><img src=""images/definitely_old.png"" id=""choice-option-img-1"" class=""choice-option-img"" stage=""1""></div><div class=""choice-option"" id=""choice-option-2"" ><img src=""images/maybe_old.png"" id=""choice-option-img-2"" class=""choice-option-img"" stage=""1""></div><div class=""choice-option"" id=""choice-option-3"" ><img src=""images/maybe_new.png"" id=""choice-option-img-3"" class=""choice-option-img"" stage=""1""></div><div class=""choice-option"" id=""choice-option-4"" > <img src=""images/definitely_new.png"" id=""choice-option-img-4"" class=""choice-option-img"" stage=""1""></div></div>","","0","instructions","","",""
"learning-instructions","14","81304","0.0-9.0-0.5","3977","approach_avoid_sv1","""event"",""trial"",""time""
""focus"",""0"",""1""
""fullscreenenter"",""1"",""6078""
","
","""event"",""trial"",""time""
""focus"",""0"",""1""
","""event"",""trial"",""time""
""fullscreenenter"",""1"",""6078""
","
","","","","","","1112","<p> You will have 10 seconds to make each response.  </p><p>  Make sure to respond before time runs out! </p>","","0","instructions","","",""
"learning-instructions","15","91864","0.0-9.0-0.6","3977","approach_avoid_sv1","""event"",""trial"",""time""
""focus"",""0"",""1""
""fullscreenenter"",""1"",""6078""
","
","""event"",""trial"",""time""
""focus"",""0"",""1""
","""event"",""trial"",""time""
""fullscreenenter"",""1"",""6078""
","
","","","","","","3473","<p> Today, you will see each image ONCE only.  </p><p>  That means none of the images will repeat. </p>","","0","instructions","","",""
"learning-instructions","16","105136","0.0-9.0-0.7","3977","approach_avoid_sv1","""event"",""trial"",""time""
""focus"",""0"",""1""
""fullscreenenter"",""1"",""6078""
","
","""event"",""trial"",""time""
""focus"",""0"",""1""
","""event"",""trial"",""time""
""fullscreenenter"",""1"",""6078""
","
","","","","","","584","<p> Before you play the real game, it is time to practice. </p><p>  Just like in the real game, some of the images in the practice will be ones you have seen before. </p><p>  Others will be entirely new. </p>","","0","instructions","","",""
"html-button-response","17","115944","0.0-10.0","3977","approach_avoid_sv1","""event"",""trial"",""time""
""focus"",""0"",""1""
""fullscreenenter"",""1"",""6078""
","
","""event"",""trial"",""time""
""focus"",""0"",""1""
","""event"",""trial"",""time""
""fullscreenenter"",""1"",""6078""
","
","","","","","","10702","<p> Ready to practice? </p><p> Remember, use the 1, 2, 3, and 4 keys to make your responses. </p>","0","","instructions","","",""
"html-keyboard-response","18","116561","0.0-11.0-0.0","3977","approach_avoid_sv1","""event"",""trial"",""time""
""focus"",""0"",""1""
""fullscreenenter"",""1"",""6078""
","
","""event"",""trial"",""time""
""focus"",""0"",""1""
","""event"",""trial"",""time""
""fullscreenenter"",""1"",""6078""
","
","","","","","","null","<div style=""font-size:60px;"">+</div>","null","","fixation","","",""
"memory-trial","19","119320","0.0-11.0-1.0","3977","approach_avoid_sv1","""event"",""trial"",""time""
""focus"",""0"",""1""
""fullscreenenter"",""1"",""6078""
","
","""event"",""trial"",""time""
""focus"",""0"",""1""
","""event"",""trial"",""time""
""fullscreenenter"",""1"",""6078""
","
","","","","","","1754","images/ball2.png","","","practice","4","definitely_new",""
"html-keyboard-response","20","119831","0.0-11.0-0.1","3977","approach_avoid_sv1","""event"",""trial"",""time""
""focus"",""0"",""1""
""fullscreenenter"",""1"",""6078""
","
","""event"",""trial"",""time""
""focus"",""0"",""1""
","""event"",""trial"",""time""
""fullscreenenter"",""1"",""6078""
","
","","","","","","null","<div style=""font-size:60px;"">+</div>","null","","fixation","","",""
"memory-trial","21","122221","0.0-11.0-1.1","3977","approach_avoid_sv1","""event"",""trial"",""time""
""focus"",""0"",""1""
""fullscreenenter"",""1"",""6078""
","
","""event"",""trial"",""time""
""focus"",""0"",""1""
","""event"",""trial"",""time""
""fullscreenenter"",""1"",""6078""
","
","","","","","","1380","images/ball5.png","","","practice","4","definitely_new",""
"html-keyboard-response","22","122731","0.0-11.0-0.2","3977","approach_avoid_sv1","""event"",""trial"",""time""
""focus"",""0"",""1""
""fullscreenenter"",""1"",""6078""
","
","""event"",""trial"",""time""
""focus"",""0"",""1""
","""event"",""trial"",""time""
""fullscreenenter"",""1"",""6078""
","
","","","","","","null","<div style=""font-size:60px;"">+</div>","null","","fixation","","",""
"memory-trial","23","125611","0.0-11.0-1.2","3977","approach_avoid_sv1","""event"",""trial"",""time""
""focus"",""0"",""1""
""fullscreenenter"",""1"",""6078""
","
","""event"",""trial"",""time""
""focus"",""0"",""1""
","""event"",""trial"",""time""
""fullscreenenter"",""1"",""6078""
","
","","","","","","1872","images/racket1.png","","","practice","1","definitely_old",""
"html-keyboard-response","24","126120","0.0-11.0-0.3","3977","approach_avoid_sv1","""event"",""trial"",""time""
""focus"",""0"",""1""
""fullscreenenter"",""1"",""6078""
","
","""event"",""trial"",""time""
""focus"",""0"",""1""
","""event"",""trial"",""time""
""fullscreenenter"",""1"",""6078""
","
","","","","","","null","<div style=""font-size:60px;"">+</div>","null","","fixation","","",""
"memory-trial","25","128731","0.0-11.0-1.3","3977","approach_avoid_sv1","""event"",""trial"",""time""
""focus"",""0"",""1""
""fullscreenenter"",""1"",""6078""
","
","""event"",""trial"",""time""
""focus"",""0"",""1""
","""event"",""trial"",""time""
""fullscreenenter"",""1"",""6078""
","
","","","","","","1601","images/racket5.png","","","practice","1","definitely_old",""
"html-keyboard-response","26","129240","0.0-11.0-0.4","3977","approach_avoid_sv1","""event"",""trial"",""time""
""focus"",""0"",""1""
""fullscreenenter"",""1"",""6078""
","
","""event"",""trial"",""time""
""focus"",""0"",""1""
","""event"",""trial"",""time""
""fullscreenenter"",""1"",""6078""
","
","","","","","","null","<div style=""font-size:60px;"">+</div>","null","","fixation","","",""
"memory-trial","27","132360","0.0-11.0-1.4","3977","approach_avoid_sv1","""event"",""trial"",""time""
""focus"",""0"",""1""
""fullscreenenter"",""1"",""6078""
","
","""event"",""trial"",""time""
""focus"",""0"",""1""
","""event"",""trial"",""time""
""fullscreenenter"",""1"",""6078""
","
","","","","","","2114","images/racket3.png","","","practice","3","maybe_new",""
"html-keyboard-response","28","132870","0.0-11.0-0.5","3977","approach_avoid_sv1","""event"",""trial"",""time""
""focus"",""0"",""1""
""fullscreenenter"",""1"",""6078""
","
","""event"",""trial"",""time""
""focus"",""0"",""1""
","""event"",""trial"",""time""
""fullscreenenter"",""1"",""6078""
","
","","","","","","null","<div style=""font-size:60px;"">+</div>","null","","fixation","","",""
"memory-trial","29","136431","0.0-11.0-1.5","3977","approach_avoid_sv1","""event"",""trial"",""time""
""focus"",""0"",""1""
""fullscreenenter"",""1"",""6078""
","
","""event"",""trial"",""time""
""focus"",""0"",""1""
","""event"",""trial"",""time""
""fullscreenenter"",""1"",""6078""
","
","","","","","","2557","images/ball3.png","","","practice","4","definitely_new",""
"html-keyboard-response","30","136940","0.0-11.0-0.6","3977","approach_avoid_sv1","""event"",""trial"",""time""
""focus"",""0"",""1""
""fullscreenenter"",""1"",""6078""
","
","""event"",""trial"",""time""
""focus"",""0"",""1""
","""event"",""trial"",""time""
""fullscreenenter"",""1"",""6078""
","
","","","","","","null","<div style=""font-size:60px;"">+</div>","null","","fixation","","",""
"memory-trial","31","140100","0.0-11.0-1.6","3977","approach_avoid_sv1","""event"",""trial"",""time""
""focus"",""0"",""1""
""fullscreenenter"",""1"",""6078""
","
","""event"",""trial"",""time""
""focus"",""0"",""1""
","""event"",""trial"",""time""
""fullscreenenter"",""1"",""6078""
","
","","","","","","2156","images/racket2.png","","","practice","4","definitely_new",""
"html-keyboard-response","32","140610","0.0-11.0-0.7","3977","approach_avoid_sv1","""event"",""trial"",""time""
""focus"",""0"",""1""
""fullscreenenter"",""1"",""6078""
","
","""event"",""trial"",""time""
""focus"",""0"",""1""
","""event"",""trial"",""time""
""fullscreenenter"",""1"",""6078""
","
","","","","","","null","<div style=""font-size:60px;"">+</div>","null","","fixation","","",""
"memory-trial","33","143941","0.0-11.0-1.7","3977","approach_avoid_sv1","""event"",""trial"",""time""
""focus"",""0"",""1""
""fullscreenenter"",""1"",""6078""
","
","""event"",""trial"",""time""
""focus"",""0"",""1""
","""event"",""trial"",""time""
""fullscreenenter"",""1"",""6078""
","
","","","","","","2320","images/ball1.png","","","practice","4","definitely_new",""
"learning-instructions","34","152511","0.0-12.0-0.0","3977","approach_avoid_sv1","""event"",""trial"",""time""
""focus"",""0"",""1""
""fullscreenenter"",""1"",""6078""
","
","""event"",""trial"",""time""
""focus"",""0"",""1""
","""event"",""trial"",""time""
""fullscreenenter"",""1"",""6078""
","
","","","","","","1250","<p> Great! You have completed the practice. </p><p> Before you start, we're going to ask you a few questions about how the game works.  </p>","","0","instructions","","",""
"preload","35","156108","0.0-13.0","3977","approach_avoid_sv1","""event"",""trial"",""time""
""focus"",""0"",""1""
""fullscreenenter"",""1"",""6078""
","
","""event"",""trial"",""time""
""focus"",""0"",""1""
","""event"",""trial"",""time""
""fullscreenenter"",""1"",""6078""
","
","true","false","[]","[]","[]","","","","","","","",""
"comp-q","36","163718","0.0-14.0-0.0","3977","approach_avoid_sv1","""event"",""trial"",""time""
""focus"",""0"",""1""
""fullscreenenter"",""1"",""6078""
","
","""event"",""trial"",""time""
""focus"",""0"",""1""
","""event"",""trial"",""time""
""fullscreenenter"",""1"",""6078""
","
","","","","","","1778","<p> <b> True or False? </b> </p><p> In this game, you will only see each image once. </p>","","1","comp_question","","","false"
"comp-q","37","172150","0.0-14.0-1.0","3977","approach_avoid_sv1","""event"",""trial"",""time""
""focus"",""0"",""1""
""fullscreenenter"",""1"",""6078""
","
","""event"",""trial"",""time""
""focus"",""0"",""1""
","""event"",""trial"",""time""
""fullscreenenter"",""1"",""6078""
","
","","","","","","1891","<p> <b>Incorrect.</b> You will see many different images <i> one time each </i> in this game. </p>","","0","comp_answer","","",""
"comp-q","38","180838","0.0-14.1-0.1","3977","approach_avoid_sv1","""event"",""trial"",""time""
""focus"",""0"",""1""
""fullscreenenter"",""1"",""6078""
","
","""event"",""trial"",""time""
""focus"",""0"",""1""
","""event"",""trial"",""time""
""fullscreenenter"",""1"",""6078""
","
","","","","","","2748","<p> <b> True or False? </b> </p><p> In this game, you will only see each image once. </p>","","0","comp_question","","","true"
"comp-q","39","189774","0.0-14.1-1.1","3977","approach_avoid_sv1","""event"",""trial"",""time""
""focus"",""0"",""1""
""fullscreenenter"",""1"",""6078""
","
","""event"",""trial"",""time""
""focus"",""0"",""1""
","""event"",""trial"",""time""
""fullscreenenter"",""1"",""6078""
","
","","","","","","2584","<p> <b> That's right! </b> You will see many different images <i> one time each </i> in this game. </p>","","0","comp_answer","","",""
"comp-q","40","196390","0.0-15.0-0.0","3977","approach_avoid_sv1","""event"",""trial"",""time""
""focus"",""0"",""1""
""fullscreenenter"",""1"",""6078""
","
","""event"",""trial"",""time""
""focus"",""0"",""1""
","""event"",""trial"",""time""
""fullscreenenter"",""1"",""6078""
","
","","","","","","1600","<p> <b> True or False? </b> </p><p> You should use the mouse and click to make your response. </p>","","1","comp_question","","","true"
"comp-q","41","203765","0.0-15.0-1.0","3977","approach_avoid_sv1","""event"",""trial"",""time""
""focus"",""0"",""1""
""fullscreenenter"",""1"",""6078""
","
","""event"",""trial"",""time""
""focus"",""0"",""1""
","""event"",""trial"",""time""
""fullscreenenter"",""1"",""6078""
","
","","","","","","866","<p><b> That's right! </b> You should use the '1', '2', '3', and '4' keys to make your response. </p>","","0","comp_answer","","",""
"comp-q","42","210293","0.0-16.0-0.0","3977","approach_avoid_sv1","""event"",""trial"",""time""
""focus"",""0"",""1""
""fullscreenenter"",""1"",""6078""
","
","""event"",""trial"",""time""
""focus"",""0"",""1""
","""event"",""trial"",""time""
""fullscreenenter"",""1"",""6078""
","
","","","","","","845","<p> <b> True or False? </b> </p><p> You will have as much time as you want to make each choice. </p>","","1","comp_question","","","true"
"comp-q","43","216413","0.0-16.0-1.0","3977","approach_avoid_sv1","""event"",""trial"",""time""
""focus"",""0"",""1""
""fullscreenenter"",""1"",""6078""
","
","""event"",""trial"",""time""
""focus"",""0"",""1""
","""event"",""trial"",""time""
""fullscreenenter"",""1"",""6078""
","
","","","","","","1403","<p> <b> That's right! </b> You will only have 10 seconds to make each choice. </p>","","0","comp_answer","","",""
"learning-instructions","44","227644","0.0-17.0","3977","approach_avoid_sv1","""event"",""trial"",""time""
""focus"",""0"",""1""
""fullscreenenter"",""1"",""6078""
","
","""event"",""trial"",""time""
""focus"",""0"",""1""
","""event"",""trial"",""time""
""fullscreenenter"",""1"",""6078""
","
","","","","","","2546","<p> Great! You are now ready to begin the game. </p><p> Remember, use the 1, 2, 3, and 4 keys to make your responses. </p>","","0","instructions","","",""
"html-keyboard-response","45","228262","0.0-18.0-0.0","3977","approach_avoid_sv1","""event"",""trial"",""time""
""focus"",""0"",""1""
""fullscreenenter"",""1"",""6078""
","
","""event"",""trial"",""time""
""focus"",""0"",""1""
","""event"",""trial"",""time""
""fullscreenenter"",""1"",""6078""
","
","","","","","","null","<div style=""font-size:60px;"">+</div>","null","","fixation","","",""
"memory-trial","46","232525","0.0-18.0-1.0","3977","approach_avoid_sv1","""event"",""trial"",""time""
""focus"",""0"",""1""
""fullscreenenter"",""1"",""6078""
","
","""event"",""trial"",""time""
""focus"",""0"",""1""
","""event"",""trial"",""time""
""fullscreenenter"",""1"",""6078""
","
","","","","","","3258","images/banana4.png","","","memory_trial","1","definitely_old",""
"html-keyboard-response","47","233034","0.0-18.0-0.1","3977","approach_avoid_sv1","""event"",""trial"",""time""
""focus"",""0"",""1""
""fullscreenenter"",""1"",""6078""
","
","""event"",""trial"",""time""
""focus"",""0"",""1""
","""event"",""trial"",""time""
""fullscreenenter"",""1"",""6078""
","
","","","","","","null","<div style=""font-size:60px;"">+</div>","null","","fixation","","",""
"memory-trial","48","235414","0.0-18.0-1.1","3977","approach_avoid_sv1","""event"",""trial"",""time""
""focus"",""0"",""1""
""fullscreenenter"",""1"",""6078""
","
","""event"",""trial"",""time""
""focus"",""0"",""1""
","""event"",""trial"",""time""
""fullscreenenter"",""1"",""6078""
","
","","","","","","1374","images/banana3.png","","","memory_trial","4","definitely_new",""
"html-keyboard-response","49","235924","0.0-18.0-0.2","3977","approach_avoid_sv1","""event"",""trial"",""time""
""focus"",""0"",""1""
""fullscreenenter"",""1"",""6078""
","
","""event"",""trial"",""time""
""focus"",""0"",""1""
","""event"",""trial"",""time""
""fullscreenenter"",""1"",""6078""
","
","","","","","","null","<div style=""font-size:60px;"">+</div>","null","","fixation","","",""
"memory-trial","50","238194","0.0-18.0-1.2","3977","approach_avoid_sv1","""event"",""trial"",""time""
""focus"",""0"",""1""
""fullscreenenter"",""1"",""6078""
","
","""event"",""trial"",""time""
""focus"",""0"",""1""
","""event"",""trial"",""time""
""fullscreenenter"",""1"",""6078""
","
","","","","","","1268","images/truck8.png","","","memory_trial","1","definitely_old",""
"html-keyboard-response","51","238704","0.0-18.0-0.3","3977","approach_avoid_sv1","""event"",""trial"",""time""
""focus"",""0"",""1""
""fullscreenenter"",""1"",""6078""
","
","""event"",""trial"",""time""
""focus"",""0"",""1""
","""event"",""trial"",""time""
""fullscreenenter"",""1"",""6078""
","
","","","","","","null","<div style=""font-size:60px;"">+</div>","null","","fixation","","",""
"memory-trial","52","241033","0.0-18.0-1.3","3977","approach_avoid_sv1","""event"",""trial"",""time""
""focus"",""0"",""1""
""fullscreenenter"",""1"",""6078""
","
","""event"",""trial"",""time""
""focus"",""0"",""1""
","""event"",""trial"",""time""
""fullscreenenter"",""1"",""6078""
","
","","","","","","1323","images/horse4.png","","","memory_trial","1","definitely_old",""
"html-keyboard-response","53","241544","0.0-18.0-0.4","3977","approach_avoid_sv1","""event"",""trial"",""time""
""focus"",""0"",""1""
""fullscreenenter"",""1"",""6078""
","
","""event"",""trial"",""time""
""focus"",""0"",""1""
","""event"",""trial"",""time""
""fullscreenenter"",""1"",""6078""
","
","","","","","","null","<div style=""font-size:60px;"">+</div>","null","","fixation","","",""
"memory-trial","54","243544","0.0-18.0-1.4","3977","approach_avoid_sv1","""event"",""trial"",""time""
""focus"",""0"",""1""
""fullscreenenter"",""1"",""6078""
","
","""event"",""trial"",""time""
""focus"",""0"",""1""
","""event"",""trial"",""time""
""fullscreenenter"",""1"",""6078""
","
","","","","","","991","images/train6.png","","","memory_trial","1","definitely_old",""
"html-keyboard-response","55","244054","0.0-18.0-0.5","3977","approach_avoid_sv1","""event"",""trial"",""time""
""focus"",""0"",""1""
""fullscreenenter"",""1"",""6078""
","
","""event"",""trial"",""time""
""focus"",""0"",""1""
","""event"",""trial"",""time""
""fullscreenenter"",""1"",""6078""
","
","","","","","","null","<div style=""font-size:60px;"">+</div>","null","","fixation","","",""
"memory-trial","56","246174","0.0-18.0-1.5","3977","approach_avoid_sv1","""event"",""trial"",""time""
""focus"",""0"",""1""
""fullscreenenter"",""1"",""6078""
","
","""event"",""trial"",""time""
""focus"",""0"",""1""
","""event"",""trial"",""time""
""fullscreenenter"",""1"",""6078""
","
","","","","","","1113","images/truck3.png","","","memory_trial","4","definitely_new",""
"html-keyboard-response","57","246683","0.0-18.0-0.6","3977","approach_avoid_sv1","""event"",""trial"",""time""
""focus"",""0"",""1""
""fullscreenenter"",""1"",""6078""
","
","""event"",""trial"",""time""
""focus"",""0"",""1""
","""event"",""trial"",""time""
""fullscreenenter"",""1"",""6078""
","
","","","","","","null","<div style=""font-size:60px;"">+</div>","null","","fixation","","",""
"memory-trial","58","249633","0.0-18.0-1.6","3977","approach_avoid_sv1","""event"",""trial"",""time""
""focus"",""0"",""1""
""fullscreenenter"",""1"",""6078""
","
","""event"",""trial"",""time""
""focus"",""0"",""1""
","""event"",""trial"",""time""
""fullscreenenter"",""1"",""6078""
","
","","","","","","1947","images/rabbit3.png","","","memory_trial","3","maybe_new",""
"html-keyboard-response","59","250144","0.0-18.0-0.7","3977","approach_avoid_sv1","""event"",""trial"",""time""
""focus"",""0"",""1""
""fullscreenenter"",""1"",""6078""
","
","""event"",""trial"",""time""
""focus"",""0"",""1""
","""event"",""trial"",""time""
""fullscreenenter"",""1"",""6078""
","
","","","","","","null","<div style=""font-size:60px;"">+</div>","null","","fixation","","",""
"memory-trial","60","253594","0.0-18.0-1.7","3977","approach_avoid_sv1","""event"",""trial"",""time""
""focus"",""0"",""1""
""fullscreenenter"",""1"",""6078""
","
","""event"",""trial"",""time""
""focus"",""0"",""1""
","""event"",""trial"",""time""
""fullscreenenter"",""1"",""6078""
","
","","","","","","2441","images/orange5.png","","","memory_trial","1","definitely_old",""
"html-keyboard-response","61","254104","0.0-18.0-0.8","3977","approach_avoid_sv1","""event"",""trial"",""time""
""focus"",""0"",""1""
""fullscreenenter"",""1"",""6078""
","
","""event"",""trial"",""time""
""focus"",""0"",""1""
","""event"",""trial"",""time""
""fullscreenenter"",""1"",""6078""
","
","","","","","","null","<div style=""font-size:60px;"">+</div>","null","","fixation","","",""
"memory-trial","62","256014","0.0-18.0-1.8","3977","approach_avoid_sv1","""event"",""trial"",""time""
""focus"",""0"",""1""
""fullscreenenter"",""1"",""6078""
","
","""event"",""trial"",""time""
""focus"",""0"",""1""
","""event"",""trial"",""time""
""fullscreenenter"",""1"",""6078""
","
","","","","","","904","images/orange7.png","","","memory_trial","1","definitely_old",""
"html-keyboard-response","63","256523","0.0-18.0-0.9","3977","approach_avoid_sv1","""event"",""trial"",""time""
""focus"",""0"",""1""
""fullscreenenter"",""1"",""6078""
","
","""event"",""trial"",""time""
""focus"",""0"",""1""
","""event"",""trial"",""time""
""fullscreenenter"",""1"",""6078""
","
","","","","","","null","<div style=""font-size:60px;"">+</div>","null","","fixation","","",""
"memory-trial","64","258813","0.0-18.0-1.9","3977","approach_avoid_sv1","""event"",""trial"",""time""
""focus"",""0"",""1""
""fullscreenenter"",""1"",""6078""
","
","""event"",""trial"",""time""
""focus"",""0"",""1""
","""event"",""trial"",""time""
""fullscreenenter"",""1"",""6078""
","
","","","","","","1284","images/plane1.png","","","memory_trial","4","definitely_new",""
"html-keyboard-response","65","259324","0.0-18.0-0.10","3977","approach_avoid_sv1","""event"",""trial"",""time""
""focus"",""0"",""1""
""fullscreenenter"",""1"",""6078""
","
","""event"",""trial"",""time""
""focus"",""0"",""1""
","""event"",""trial"",""time""
""fullscreenenter"",""1"",""6078""
","
","","","","","","null","<div style=""font-size:60px;"">+</div>","null","","fixation","","",""
"memory-trial","66","261754","0.0-18.0-1.10","3977","approach_avoid_sv1","""event"",""trial"",""time""
""focus"",""0"",""1""
""fullscreenenter"",""1"",""6078""
","
","""event"",""trial"",""time""
""focus"",""0"",""1""
","""event"",""trial"",""time""
""fullscreenenter"",""1"",""6078""
","
","","","","","","1428","images/goat3.png","","","memory_trial","1","definitely_old",""
"html-keyboard-response","67","262263","0.0-18.0-0.11","3977","approach_avoid_sv1","""event"",""trial"",""time""
""focus"",""0"",""1""
""fullscreenenter"",""1"",""6078""
","
","""event"",""trial"",""time""
""focus"",""0"",""1""
","""event"",""trial"",""time""
""fullscreenenter"",""1"",""6078""
","
","","","","","","null","<div style=""font-size:60px;"">+</div>","null","","fixation","","",""
"memory-trial","68","265543","0.0-18.0-1.11","3977","approach_avoid_sv1","""event"",""trial"",""time""
""focus"",""0"",""1""
""fullscreenenter"",""1"",""6078""
","
","""event"",""trial"",""time""
""focus"",""0"",""1""
","""event"",""trial"",""time""
""fullscreenenter"",""1"",""6078""
","
","","","","","","2272","images/bed8.png","","","memory_trial","1","definitely_old",""
"html-keyboard-response","69","266053","0.0-18.0-0.12","3977","approach_avoid_sv1","""event"",""trial"",""time""
""focus"",""0"",""1""
""fullscreenenter"",""1"",""6078""
","
","""event"",""trial"",""time""
""focus"",""0"",""1""
","""event"",""trial"",""time""
""fullscreenenter"",""1"",""6078""
","
","","","","","","null","<div style=""font-size:60px;"">+</div>","null","","fixation","","",""
"memory-trial","70","268193","0.0-18.0-1.12","3977","approach_avoid_sv1","""event"",""trial"",""time""
""focus"",""0"",""1""
""fullscreenenter"",""1"",""6078""
","
","""event"",""trial"",""time""
""focus"",""0"",""1""
","""event"",""trial"",""time""
""fullscreenenter"",""1"",""6078""
","
","","","","","","1130","images/banana2.png","","","memory_trial","4","definitely_new",""
"html-keyboard-response","71","268703","0.0-18.0-0.13","3977","approach_avoid_sv1","""event"",""trial"",""time""
""focus"",""0"",""1""
""fullscreenenter"",""1"",""6078""
","
","""event"",""trial"",""time""
""focus"",""0"",""1""
","""event"",""trial"",""time""
""fullscreenenter"",""1"",""6078""
","
","","","","","","null","<div style=""font-size:60px;"">+</div>","null","","fixation","","",""
"memory-trial","72","271783","0.0-18.0-1.13","3977","approach_avoid_sv1","""event"",""trial"",""time""
""focus"",""0"",""1""
""fullscreenenter"",""1"",""6078""
","
","""event"",""trial"",""time""
""focus"",""0"",""1""
","""event"",""trial"",""time""
""fullscreenenter"",""1"",""6078""
","
","","","","","","2072","images/table8.png","","","memory_trial","1","definitely_old",""
"html-keyboard-response","73","272293","0.0-18.0-0.14","3977","approach_avoid_sv1","""event"",""trial"",""time""
""focus"",""0"",""1""
""fullscreenenter"",""1"",""6078""
","
","""event"",""trial"",""time""
""focus"",""0"",""1""
","""event"",""trial"",""time""
""fullscreenenter"",""1"",""6078""
","
","","","","","","null","<div style=""font-size:60px;"">+</div>","null","","fixation","","",""
"memory-trial","74","274343","0.0-18.0-1.14","3977","approach_avoid_sv1","""event"",""trial"",""time""
""focus"",""0"",""1""
""fullscreenenter"",""1"",""6078""
","
","""event"",""trial"",""time""
""focus"",""0"",""1""
","""event"",""trial"",""time""
""fullscreenenter"",""1"",""6078""
","
","","","","","","1042","images/straw3.png","","","memory_trial","1","definitely_old",""
"html-keyboard-response","75","274853","0.0-18.0-0.15","3977","approach_avoid_sv1","""event"",""trial"",""time""
""focus"",""0"",""1""
""fullscreenenter"",""1"",""6078""
","
","""event"",""trial"",""time""
""focus"",""0"",""1""
","""event"",""trial"",""time""
""fullscreenenter"",""1"",""6078""
","
","","","","","","null","<div style=""font-size:60px;"">+</div>","null","","fixation","","",""
"memory-trial","76","277403","0.0-18.0-1.15","3977","approach_avoid_sv1","""event"",""trial"",""time""
""focus"",""0"",""1""
""fullscreenenter"",""1"",""6078""
","
","""event"",""trial"",""time""
""focus"",""0"",""1""
","""event"",""trial"",""time""
""fullscreenenter"",""1"",""6078""
","
","","","","","","1547","images/train7.png","","","memory_trial","4","definitely_new",""
"html-keyboard-response","77","277913","0.0-18.0-0.16","3977","approach_avoid_sv1","""event"",""trial"",""time""
""focus"",""0"",""1""
""fullscreenenter"",""1"",""6078""
","
","""event"",""trial"",""time""
""focus"",""0"",""1""
","""event"",""trial"",""time""
""fullscreenenter"",""1"",""6078""
","
","","","","","","null","<div style=""font-size:60px;"">+</div>","null","","fixation","","",""
"memory-trial","78","280775","0.0-18.0-1.16","3977","approach_avoid_sv1","""event"",""trial"",""time""
""focus"",""0"",""1""
""fullscreenenter"",""1"",""6078""
","
","""event"",""trial"",""time""
""focus"",""0"",""1""
","""event"",""trial"",""time""
""fullscreenenter"",""1"",""6078""
","
","","","","","","1854","images/orange1.png","","","memory_trial","1","definitely_old",""
"html-keyboard-response","79","281285","0.0-18.0-0.17","3977","approach_avoid_sv1","""event"",""trial"",""time""
""focus"",""0"",""1""
""fullscreenenter"",""1"",""6078""
","
","""event"",""trial"",""time""
""focus"",""0"",""1""
","""event"",""trial"",""time""
""fullscreenenter"",""1"",""6078""
","
","","","","","","null","<div style=""font-size:60px;"">+</div>","null","","fixation","","",""
"memory-trial","80","283445","0.0-18.0-1.17","3977","approach_avoid_sv1","""event"",""trial"",""time""
""focus"",""0"",""1""
""fullscreenenter"",""1"",""6078""
","
","""event"",""trial"",""time""
""focus"",""0"",""1""
","""event"",""trial"",""time""
""fullscreenenter"",""1"",""6078""
","
","","","","","","1154","images/sofa6.png","","","memory_trial","4","definitely_new",""
"html-keyboard-response","81","283955","0.0-18.0-0.18","3977","approach_avoid_sv1","""event"",""trial"",""time""
""focus"",""0"",""1""
""fullscreenenter"",""1"",""6078""
","
","""event"",""trial"",""time""
""focus"",""0"",""1""
","""event"",""trial"",""time""
""fullscreenenter"",""1"",""6078""
","
","","","","","","null","<div style=""font-size:60px;"">+</div>","null","","fixation","","",""
"memory-trial","82","286825","0.0-18.0-1.18","3977","approach_avoid_sv1","""event"",""trial"",""time""
""focus"",""0"",""1""
""fullscreenenter"",""1"",""6078""
","
","""event"",""trial"",""time""
""focus"",""0"",""1""
","""event"",""trial"",""time""
""fullscreenenter"",""1"",""6078""
","
","","","","","","1869","images/bush4.png","","","memory_trial","4","definitely_new",""
"html-keyboard-response","83","287334","0.0-18.0-0.19","3977","approach_avoid_sv1","""event"",""trial"",""time""
""focus"",""0"",""1""
""fullscreenenter"",""1"",""6078""
","
","""event"",""trial"",""time""
""focus"",""0"",""1""
","""event"",""trial"",""time""
""fullscreenenter"",""1"",""6078""
","
","","","","","","null","<div style=""font-size:60px;"">+</div>","null","","fixation","","",""
"memory-trial","84","289555","0.0-18.0-1.19","3977","approach_avoid_sv1","""event"",""trial"",""time""
""focus"",""0"",""1""
""fullscreenenter"",""1"",""6078""
","
","""event"",""trial"",""time""
""focus"",""0"",""1""
","""event"",""trial"",""time""
""fullscreenenter"",""1"",""6078""
","
","","","","","","1216","images/dog2.png","","","memory_trial","4","definitely_new",""
"html-keyboard-response","85","290065","0.0-18.0-0.20","3977","approach_avoid_sv1","""event"",""trial"",""time""
""focus"",""0"",""1""
""fullscreenenter"",""1"",""6078""
","
","""event"",""trial"",""time""
""focus"",""0"",""1""
","""event"",""trial"",""time""
""fullscreenenter"",""1"",""6078""
","
","","","","","","null","<div style=""font-size:60px;"">+</div>","null","","fixation","","",""
"memory-trial","86","292254","0.0-18.0-1.20","3977","approach_avoid_sv1","""event"",""trial"",""time""
""focus"",""0"",""1""
""fullscreenenter"",""1"",""6078""
","
","""event"",""trial"",""time""
""focus"",""0"",""1""
","""event"",""trial"",""time""
""fullscreenenter"",""1"",""6078""
","
","","","","","","1181","images/truck6.png","","","memory_trial","4","definitely_new",""
"html-keyboard-response","87","292765","0.0-18.0-0.21","3977","approach_avoid_sv1","""event"",""trial"",""time""
""focus"",""0"",""1""
""fullscreenenter"",""1"",""6078""
","
","""event"",""trial"",""time""
""focus"",""0"",""1""
","""event"",""trial"",""time""
""fullscreenenter"",""1"",""6078""
","
","","","","","","null","<div style=""font-size:60px;"">+</div>","null","","fixation","","",""
"memory-trial","88","295585","0.0-18.0-1.21","3977","approach_avoid_sv1","""event"",""trial"",""time""
""focus"",""0"",""1""
""fullscreenenter"",""1"",""6078""
","
","""event"",""trial"",""time""
""focus"",""0"",""1""
","""event"",""trial"",""time""
""fullscreenenter"",""1"",""6078""
","
","","","","","","1818","images/rodent1.png","","","memory_trial","4","definitely_new",""
"html-keyboard-response","89","296094","0.0-18.0-0.22","3977","approach_avoid_sv1","""event"",""trial"",""time""
""focus"",""0"",""1""
""fullscreenenter"",""1"",""6078""
","
","""event"",""trial"",""time""
""focus"",""0"",""1""
","""event"",""trial"",""time""
""fullscreenenter"",""1"",""6078""
","
","","","","","","null","<div style=""font-size:60px;"">+</div>","null","","fixation","","",""
"memory-trial","90","298034","0.0-18.0-1.22","3977","approach_avoid_sv1","""event"",""trial"",""time""
""focus"",""0"",""1""
""fullscreenenter"",""1"",""6078""
","
","""event"",""trial"",""time""
""focus"",""0"",""1""
","""event"",""trial"",""time""
""fullscreenenter"",""1"",""6078""
","
","","","","","","936","images/cat2.png","","","memory_trial","1","definitely_old",""
"html-keyboard-response","91","298545","0.0-18.0-0.23","3977","approach_avoid_sv1","""event"",""trial"",""time""
""focus"",""0"",""1""
""fullscreenenter"",""1"",""6078""
","
","""event"",""trial"",""time""
""focus"",""0"",""1""
","""event"",""trial"",""time""
""fullscreenenter"",""1"",""6078""
","
","","","","","","null","<div style=""font-size:60px;"">+</div>","null","","fixation","","",""
"memory-trial","92","301145","0.0-18.0-1.23","3977","approach_avoid_sv1","""event"",""trial"",""time""
""focus"",""0"",""1""
""fullscreenenter"",""1"",""6078""
","
","""event"",""trial"",""time""
""focus"",""0"",""1""
","""event"",""trial"",""time""
""fullscreenenter"",""1"",""6078""
","
","","","","","","1598","images/sofa8.png","","","memory_trial","1","definitely_old",""
"html-keyboard-response","93","301654","0.0-18.0-0.24","3977","approach_avoid_sv1","""event"",""trial"",""time""
""focus"",""0"",""1""
""fullscreenenter"",""1"",""6078""
","
","""event"",""trial"",""time""
""focus"",""0"",""1""
","""event"",""trial"",""time""
""fullscreenenter"",""1"",""6078""
","
","","","","","","null","<div style=""font-size:60px;"">+</div>","null","","fixation","","",""
"memory-trial","94","304384","0.0-18.0-1.24","3977","approach_avoid_sv1","""event"",""trial"",""time""
""focus"",""0"",""1""
""fullscreenenter"",""1"",""6078""
","
","""event"",""trial"",""time""
""focus"",""0"",""1""
","""event"",""trial"",""time""
""fullscreenenter"",""1"",""6078""
","
","","","","","","1720","images/apple4.png","","","memory_trial","4","definitely_new",""
"html-keyboard-response","95","304894","0.0-18.0-0.25","3977","approach_avoid_sv1","""event"",""trial"",""time""
""focus"",""0"",""1""
""fullscreenenter"",""1"",""6078""
","
","""event"",""trial"",""time""
""focus"",""0"",""1""
","""event"",""trial"",""time""
""fullscreenenter"",""1"",""6078""
","
","","","","","","null","<div style=""font-size:60px;"">+</div>","null","","fixation","","",""
"memory-trial","96","307174","0.0-18.0-1.25","3977","approach_avoid_sv1","""event"",""trial"",""time""
""focus"",""0"",""1""
""fullscreenenter"",""1"",""6078""
","
","""event"",""trial"",""time""
""focus"",""0"",""1""
","""event"",""trial"",""time""
""fullscreenenter"",""1"",""6078""
","
","","","","","","1271","images/apple8.png","","","memory_trial","4","definitely_new",""
"html-keyboard-response","97","307684","0.0-18.0-0.26","3977","approach_avoid_sv1","""event"",""trial"",""time""
""focus"",""0"",""1""
""fullscreenenter"",""1"",""6078""
","
","""event"",""trial"",""time""
""focus"",""0"",""1""
","""event"",""trial"",""time""
""fullscreenenter"",""1"",""6078""
","
","","","","","","null","<div style=""font-size:60px;"">+</div>","null","","fixation","","",""
"memory-trial","98","309934","0.0-18.0-1.26","3977","approach_avoid_sv1","""event"",""trial"",""time""
""focus"",""0"",""1""
""fullscreenenter"",""1"",""6078""
","
","""event"",""trial"",""time""
""focus"",""0"",""1""
","""event"",""trial"",""time""
""fullscreenenter"",""1"",""6078""
","
","","","","","","1241","images/tree8.png","","","memory_trial","4","definitely_new",""
"html-keyboard-response","99","310444","0.0-18.0-0.27","3977","approach_avoid_sv1","""event"",""trial"",""time""
""focus"",""0"",""1""
""fullscreenenter"",""1"",""6078""
","
","""event"",""trial"",""time""
""focus"",""0"",""1""
","""event"",""trial"",""time""
""fullscreenenter"",""1"",""6078""
","
","","","","","","null","<div style=""font-size:60px;"">+</div>","null","","fixation","","",""
"memory-trial","100","312654","0.0-18.0-1.27","3977","approach_avoid_sv1","""event"",""trial"",""time""
""focus"",""0"",""1""
""fullscreenenter"",""1"",""6078""
","
","""event"",""trial"",""time""
""focus"",""0"",""1""
","""event"",""trial"",""time""
""fullscreenenter"",""1"",""6078""
","
","","","","","","1201","images/rabbit8.png","","","memory_trial","1","definitely_old",""
"html-keyboard-response","101","313164","0.0-18.0-0.28","3977","approach_avoid_sv1","""event"",""trial"",""time""
""focus"",""0"",""1""
""fullscreenenter"",""1"",""6078""
","
","""event"",""trial"",""time""
""focus"",""0"",""1""
","""event"",""trial"",""time""
""fullscreenenter"",""1"",""6078""
","
","","","","","","null","<div style=""font-size:60px;"">+</div>","null","","fixation","","",""
"memory-trial","102","315545","0.0-18.0-1.28","3977","approach_avoid_sv1","""event"",""trial"",""time""
""focus"",""0"",""1""
""fullscreenenter"",""1"",""6078""
","
","""event"",""trial"",""time""
""focus"",""0"",""1""
","""event"",""trial"",""time""
""fullscreenenter"",""1"",""6078""
","
","","","","","","1370","images/flower3.png","","","memory_trial","4","definitely_new",""
"html-keyboard-response","103","316054","0.0-18.0-0.29","3977","approach_avoid_sv1","""event"",""trial"",""time""
""focus"",""0"",""1""
""fullscreenenter"",""1"",""6078""
","
","""event"",""trial"",""time""
""focus"",""0"",""1""
","""event"",""trial"",""time""
""fullscreenenter"",""1"",""6078""
","
","","","","","","null","<div style=""font-size:60px;"">+</div>","null","","fixation","","",""
"memory-trial","104","318644","0.0-18.0-1.29","3977","approach_avoid_sv1","""event"",""trial"",""time""
""focus"",""0"",""1""
""fullscreenenter"",""1"",""6078""
","
","""event"",""trial"",""time""
""focus"",""0"",""1""
","""event"",""trial"",""time""
""fullscreenenter"",""1"",""6078""
","
","","","","","","1584","images/boat7.png","","","memory_trial","1","definitely_old",""
"html-keyboard-response","105","319154","0.0-18.0-0.30","3977","approach_avoid_sv1","""event"",""trial"",""time""
""focus"",""0"",""1""
""fullscreenenter"",""1"",""6078""
","
","""event"",""trial"",""time""
""focus"",""0"",""1""
","""event"",""trial"",""time""
""fullscreenenter"",""1"",""6078""
","
","","","","","","null","<div style=""font-size:60px;"">+</div>","null","","fixation","","",""
"memory-trial","106","321334","0.0-18.0-1.30","3977","approach_avoid_sv1","""event"",""trial"",""time""
""focus"",""0"",""1""
""fullscreenenter"",""1"",""6078""
","
","""event"",""trial"",""time""
""focus"",""0"",""1""
","""event"",""trial"",""time""
""fullscreenenter"",""1"",""6078""
","
","","","","","","1171","images/tree6.png","","","memory_trial","1","definitely_old",""
"html-keyboard-response","107","321844","0.0-18.0-0.31","3977","approach_avoid_sv1","""event"",""trial"",""time""
""focus"",""0"",""1""
""fullscreenenter"",""1"",""6078""
","
","""event"",""trial"",""time""
""focus"",""0"",""1""
","""event"",""trial"",""time""
""fullscreenenter"",""1"",""6078""
","
","","","","","","null","<div style=""font-size:60px;"">+</div>","null","","fixation","","",""
"memory-trial","108","324234","0.0-18.0-1.31","3977","approach_avoid_sv1","""event"",""trial"",""time""
""focus"",""0"",""1""
""fullscreenenter"",""1"",""6078""
","
","""event"",""trial"",""time""
""focus"",""0"",""1""
","""event"",""trial"",""time""
""fullscreenenter"",""1"",""6078""
","
","","","","","","1385","images/plane4.png","","","memory_trial","1","definitely_old",""
"html-keyboard-response","109","324744","0.0-18.0-0.32","3977","approach_avoid_sv1","""event"",""trial"",""time""
""focus"",""0"",""1""
""fullscreenenter"",""1"",""6078""
","
","""event"",""trial"",""time""
""focus"",""0"",""1""
","""event"",""trial"",""time""
""fullscreenenter"",""1"",""6078""
","
","","","","","","null","<div style=""font-size:60px;"">+</div>","null","","fixation","","",""
"memory-trial","110","327003","0.0-18.0-1.32","3977","approach_avoid_sv1","""event"",""trial"",""time""
""focus"",""0"",""1""
""fullscreenenter"",""1"",""6078""
","
","""event"",""trial"",""time""
""focus"",""0"",""1""
","""event"",""trial"",""time""
""fullscreenenter"",""1"",""6078""
","
","","","","","","1255","images/banana5.png","","","memory_trial","4","definitely_new",""
"html-keyboard-response","111","327513","0.0-18.0-0.33","3977","approach_avoid_sv1","""event"",""trial"",""time""
""focus"",""0"",""1""
""fullscreenenter"",""1"",""6078""
","
","""event"",""trial"",""time""
""focus"",""0"",""1""
","""event"",""trial"",""time""
""fullscreenenter"",""1"",""6078""
","
","","","","","","null","<div style=""font-size:60px;"">+</div>","null","","fixation","","",""
"memory-trial","112","329964","0.0-18.0-1.33","3977","approach_avoid_sv1","""event"",""trial"",""time""
""focus"",""0"",""1""
""fullscreenenter"",""1"",""6078""
","
","""event"",""trial"",""time""
""focus"",""0"",""1""
","""event"",""trial"",""time""
""fullscreenenter"",""1"",""6078""
","
","","","","","","1443","images/straw7.png","","","memory_trial","4","definitely_new",""
"html-keyboard-response","113","330474","0.0-18.0-0.34","3977","approach_avoid_sv1","""event"",""trial"",""time""
""focus"",""0"",""1""
""fullscreenenter"",""1"",""6078""
","
","""event"",""trial"",""time""
""focus"",""0"",""1""
","""event"",""trial"",""time""
""fullscreenenter"",""1"",""6078""
","
","","","","","","null","<div style=""font-size:60px;"">+</div>","null","","fixation","","",""
"memory-trial","114","332743","0.0-18.0-1.34","3977","approach_avoid_sv1","""event"",""trial"",""time""
""focus"",""0"",""1""
""fullscreenenter"",""1"",""6078""
","
","""event"",""trial"",""time""
""focus"",""0"",""1""
","""event"",""trial"",""time""
""fullscreenenter"",""1"",""6078""
","
","","","","","","1261","images/chair5.png","","","memory_trial","4","definitely_new",""
"html-keyboard-response","115","333254","0.0-18.0-0.35","3977","approach_avoid_sv1","""event"",""trial"",""time""
""focus"",""0"",""1""
""fullscreenenter"",""1"",""6078""
","
","""event"",""trial"",""time""
""focus"",""0"",""1""
","""event"",""trial"",""time""
""fullscreenenter"",""1"",""6078""
","
","","","","","","null","<div style=""font-size:60px;"">+</div>","null","","fixation","","",""
"memory-trial","116","335804","0.0-18.0-1.35","3977","approach_avoid_sv1","""event"",""trial"",""time""
""focus"",""0"",""1""
""fullscreenenter"",""1"",""6078""
","
","""event"",""trial"",""time""
""focus"",""0"",""1""
","""event"",""trial"",""time""
""fullscreenenter"",""1"",""6078""
","
","","","","","","1545","images/straw1.png","","","memory_trial","1","definitely_old",""
"html-keyboard-response","117","336313","0.0-18.0-0.36","3977","approach_avoid_sv1","""event"",""trial"",""time""
""focus"",""0"",""1""
""fullscreenenter"",""1"",""6078""
","
","""event"",""trial"",""time""
""focus"",""0"",""1""
","""event"",""trial"",""time""
""fullscreenenter"",""1"",""6078""
","
","","","","","","null","<div style=""font-size:60px;"">+</div>","null","","fixation","","",""
"memory-trial","118","338864","0.0-18.0-1.36","3977","approach_avoid_sv1","""event"",""trial"",""time""
""focus"",""0"",""1""
""fullscreenenter"",""1"",""6078""
","
","""event"",""trial"",""time""
""focus"",""0"",""1""
","""event"",""trial"",""time""
""fullscreenenter"",""1"",""6078""
","
","","","","","","1548","images/cat4.png","","","memory_trial","4","definitely_new",""
"html-keyboard-response","119","339373","0.0-18.0-0.37","3977","approach_avoid_sv1","""event"",""trial"",""time""
""focus"",""0"",""1""
""fullscreenenter"",""1"",""6078""
","
","""event"",""trial"",""time""
""focus"",""0"",""1""
","""event"",""trial"",""time""
""fullscreenenter"",""1"",""6078""
","
","","","","","","null","<div style=""font-size:60px;"">+</div>","null","","fixation","","",""
"memory-trial","120","341544","0.0-18.0-1.37","3977","approach_avoid_sv1","""event"",""trial"",""time""
""focus"",""0"",""1""
""fullscreenenter"",""1"",""6078""
","
","""event"",""trial"",""time""
""focus"",""0"",""1""
","""event"",""trial"",""time""
""fullscreenenter"",""1"",""6078""
","
","","","","","","1168","images/table5.png","","","memory_trial","1","definitely_old",""
"html-keyboard-response","121","342053","0.0-18.0-0.38","3977","approach_avoid_sv1","""event"",""trial"",""time""
""focus"",""0"",""1""
""fullscreenenter"",""1"",""6078""
","
","""event"",""trial"",""time""
""focus"",""0"",""1""
","""event"",""trial"",""time""
""fullscreenenter"",""1"",""6078""
","
","","","","","","null","<div style=""font-size:60px;"">+</div>","null","","fixation","","",""
"memory-trial","122","347933","0.0-18.0-1.38","3977","approach_avoid_sv1","""event"",""trial"",""time""
""focus"",""0"",""1""
""fullscreenenter"",""1"",""6078""
","
","""event"",""trial"",""time""
""focus"",""0"",""1""
","""event"",""trial"",""time""
""fullscreenenter"",""1"",""6078""
","
","","","","","","4872","images/train2.png","","","memory_trial","3","maybe_new",""
"html-keyboard-response","123","348443","0.0-18.0-0.39","3977","approach_avoid_sv1","""event"",""trial"",""time""
""focus"",""0"",""1""
""fullscreenenter"",""1"",""6078""
","
","""event"",""trial"",""time""
""focus"",""0"",""1""
","""event"",""trial"",""time""
""fullscreenenter"",""1"",""6078""
","
","","","","","","null","<div style=""font-size:60px;"">+</div>","null","","fixation","","",""
"memory-trial","124","351313","0.0-18.0-1.39","3977","approach_avoid_sv1","""event"",""trial"",""time""
""focus"",""0"",""1""
""fullscreenenter"",""1"",""6078""
","
","""event"",""trial"",""time""
""focus"",""0"",""1""
","""event"",""trial"",""time""
""fullscreenenter"",""1"",""6078""
","
","","","","","","1866","images/horse7.png","","","memory_trial","1","definitely_old",""
"html-keyboard-response","125","351823","0.0-18.0-0.40","3977","approach_avoid_sv1","""event"",""trial"",""time""
""focus"",""0"",""1""
""fullscreenenter"",""1"",""6078""
","
","""event"",""trial"",""time""
""focus"",""0"",""1""
","""event"",""trial"",""time""
""fullscreenenter"",""1"",""6078""
","
","","","","","","null","<div style=""font-size:60px;"">+</div>","null","","fixation","","",""
"memory-trial","126","353863","0.0-18.0-1.40","3977","approach_avoid_sv1","""event"",""trial"",""time""
""focus"",""0"",""1""
""fullscreenenter"",""1"",""6078""
","
","""event"",""trial"",""time""
""focus"",""0"",""1""
","""event"",""trial"",""time""
""fullscreenenter"",""1"",""6078""
","
","","","","","","1039","images/dog1.png","","","memory_trial","4","definitely_new",""
"html-keyboard-response","127","354373","0.0-18.0-0.41","3977","approach_avoid_sv1","""event"",""trial"",""time""
""focus"",""0"",""1""
""fullscreenenter"",""1"",""6078""
","
","""event"",""trial"",""time""
""focus"",""0"",""1""
","""event"",""trial"",""time""
""fullscreenenter"",""1"",""6078""
","
","","","","","","null","<div style=""font-size:60px;"">+</div>","null","","fixation","","",""
"memory-trial","128","356503","0.0-18.0-1.41","3977","approach_avoid_sv1","""event"",""trial"",""time""
""focus"",""0"",""1""
""fullscreenenter"",""1"",""6078""
","
","""event"",""trial"",""time""
""focus"",""0"",""1""
","""event"",""trial"",""time""
""fullscreenenter"",""1"",""6078""
","
","","","","","","1120","images/sofa4.png","","","memory_trial","4","definitely_new",""
"html-button-response","129","359281","0.0-18.0-2.41-0.41","3977","approach_avoid_sv1","""event"",""trial"",""time""
""focus"",""0"",""1""
""fullscreenenter"",""1"",""6078""
","
","""event"",""trial"",""time""
""focus"",""0"",""1""
","""event"",""trial"",""time""
""fullscreenenter"",""1"",""6078""
","
","","","","","","2777","<p> Take a break! </p><p> Click the button to continue. </p>","0","","break","","",""
"html-keyboard-response","130","359783","0.0-18.0-0.42","3977","approach_avoid_sv1","""event"",""trial"",""time""
""focus"",""0"",""1""
""fullscreenenter"",""1"",""6078""
","
","""event"",""trial"",""time""
""focus"",""0"",""1""
","""event"",""trial"",""time""
""fullscreenenter"",""1"",""6078""
","
","","","","","","null","<div style=""font-size:60px;"">+</div>","null","","fixation","","",""
"memory-trial","131","362582","0.0-18.0-1.42","3977","approach_avoid_sv1","""event"",""trial"",""time""
""focus"",""0"",""1""
""fullscreenenter"",""1"",""6078""
","
","""event"",""trial"",""time""
""focus"",""0"",""1""
","""event"",""trial"",""time""
""fullscreenenter"",""1"",""6078""
","
","","","","","","1797","images/bed1.png","","","memory_trial","1","definitely_old",""
"html-keyboard-response","132","363093","0.0-18.0-0.43","3977","approach_avoid_sv1","""event"",""trial"",""time""
""focus"",""0"",""1""
""fullscreenenter"",""1"",""6078""
","
","""event"",""trial"",""time""
""focus"",""0"",""1""
","""event"",""trial"",""time""
""fullscreenenter"",""1"",""6078""
","
","","","","","","null","<div style=""font-size:60px;"">+</div>","null","","fixation","","",""
"memory-trial","133","366513","0.0-18.0-1.43","3977","approach_avoid_sv1","""event"",""trial"",""time""
""focus"",""0"",""1""
""fullscreenenter"",""1"",""6078""
","
","""event"",""trial"",""time""
""focus"",""0"",""1""
","""event"",""trial"",""time""
""fullscreenenter"",""1"",""6078""
","
","","","","","","2417","images/cat8.png","","","memory_trial","4","definitely_new",""
"html-keyboard-response","134","367022","0.0-18.0-0.44","3977","approach_avoid_sv1","""event"",""trial"",""time""
""focus"",""0"",""1""
""fullscreenenter"",""1"",""6078""
","
","""event"",""trial"",""time""
""focus"",""0"",""1""
","""event"",""trial"",""time""
""fullscreenenter"",""1"",""6078""
","
","","","","","","null","<div style=""font-size:60px;"">+</div>","null","","fixation","","",""
"memory-trial","135","369403","0.0-18.0-1.44","3977","approach_avoid_sv1","""event"",""trial"",""time""
""focus"",""0"",""1""
""fullscreenenter"",""1"",""6078""
","
","""event"",""trial"",""time""
""focus"",""0"",""1""
","""event"",""trial"",""time""
""fullscreenenter"",""1"",""6078""
","
","","","","","","1375","images/horse3.png","","","memory_trial","1","definitely_old",""
"html-keyboard-response","136","369912","0.0-18.0-0.45","3977","approach_avoid_sv1","""event"",""trial"",""time""
""focus"",""0"",""1""
""fullscreenenter"",""1"",""6078""
","
","""event"",""trial"",""time""
""focus"",""0"",""1""
","""event"",""trial"",""time""
""fullscreenenter"",""1"",""6078""
","
","","","","","","null","<div style=""font-size:60px;"">+</div>","null","","fixation","","",""
"memory-trial","137","372183","0.0-18.0-1.45","3977","approach_avoid_sv1","""event"",""trial"",""time""
""focus"",""0"",""1""
""fullscreenenter"",""1"",""6078""
","
","""event"",""trial"",""time""
""focus"",""0"",""1""
","""event"",""trial"",""time""
""fullscreenenter"",""1"",""6078""
","
","","","","","","1268","images/flower1.png","","","memory_trial","4","definitely_new",""
"html-keyboard-response","138","372693","0.0-18.0-0.46","3977","approach_avoid_sv1","""event"",""trial"",""time""
""focus"",""0"",""1""
""fullscreenenter"",""1"",""6078""
","
","""event"",""trial"",""time""
""focus"",""0"",""1""
","""event"",""trial"",""time""
""fullscreenenter"",""1"",""6078""
","
","","","","","","null","<div style=""font-size:60px;"">+</div>","null","","fixation","","",""
"memory-trial","139","374653","0.0-18.0-1.46","3977","approach_avoid_sv1","""event"",""trial"",""time""
""focus"",""0"",""1""
""fullscreenenter"",""1"",""6078""
","
","""event"",""trial"",""time""
""focus"",""0"",""1""
","""event"",""trial"",""time""
""fullscreenenter"",""1"",""6078""
","
","","","","","","952","images/cow2.png","","","memory_trial","4","definitely_new",""
"html-keyboard-response","140","375163","0.0-18.0-0.47","3977","approach_avoid_sv1","""event"",""trial"",""time""
""focus"",""0"",""1""
""fullscreenenter"",""1"",""6078""
","
","""event"",""trial"",""time""
""focus"",""0"",""1""
","""event"",""trial"",""time""
""fullscreenenter"",""1"",""6078""
","
","","","","","","null","<div style=""font-size:60px;"">+</div>","null","","fixation","","",""
"memory-trial","141","376983","0.0-18.0-1.47","3977","approach_avoid_sv1","""event"",""trial"",""time""
""focus"",""0"",""1""
""fullscreenenter"",""1"",""6078""
","
","""event"",""trial"",""time""
""focus"",""0"",""1""
","""event"",""trial"",""time""
""fullscreenenter"",""1"",""6078""
","
","","","","","","817","images/horse1.png","","","memory_trial","1","definitely_old",""
"html-keyboard-response","142","377493","0.0-18.0-0.48","3977","approach_avoid_sv1","""event"",""trial"",""time""
""focus"",""0"",""1""
""fullscreenenter"",""1"",""6078""
","
","""event"",""trial"",""time""
""focus"",""0"",""1""
","""event"",""trial"",""time""
""fullscreenenter"",""1"",""6078""
","
","","","","","","null","<div style=""font-size:60px;"">+</div>","null","","fixation","","",""
"memory-trial","143","379423","0.0-18.0-1.48","3977","approach_avoid_sv1","""event"",""trial"",""time""
""focus"",""0"",""1""
""fullscreenenter"",""1"",""6078""
","
","""event"",""trial"",""time""
""focus"",""0"",""1""
","""event"",""trial"",""time""
""fullscreenenter"",""1"",""6078""
","
","","","","","","920","images/flower4.png","","","memory_trial","1","definitely_old",""
"html-keyboard-response","144","379933","0.0-18.0-0.49","3977","approach_avoid_sv1","""event"",""trial"",""time""
""focus"",""0"",""1""
""fullscreenenter"",""1"",""6078""
","
","""event"",""trial"",""time""
""focus"",""0"",""1""
","""event"",""trial"",""time""
""fullscreenenter"",""1"",""6078""
","
","","","","","","null","<div style=""font-size:60px;"">+</div>","null","","fixation","","",""
"memory-trial","145","384619","0.0-18.0-1.49","3977","approach_avoid_sv1","""event"",""trial"",""time""
""focus"",""0"",""1""
""fullscreenenter"",""1"",""6078""
","
","""event"",""trial"",""time""
""focus"",""0"",""1""
","""event"",""trial"",""time""
""fullscreenenter"",""1"",""6078""
","
","","","","","","3679","images/rodent2.png","","","memory_trial","4","definitely_new",""
"html-keyboard-response","146","385128","0.0-18.0-0.50","3977","approach_avoid_sv1","""event"",""trial"",""time""
""focus"",""0"",""1""
""fullscreenenter"",""1"",""6078""
","
","""event"",""trial"",""time""
""focus"",""0"",""1""
","""event"",""trial"",""time""
""fullscreenenter"",""1"",""6078""
","
","","","","","","null","<div style=""font-size:60px;"">+</div>","null","","fixation","","",""
"memory-trial","147","387468","0.0-18.0-1.50","3977","approach_avoid_sv1","""event"",""trial"",""time""
""focus"",""0"",""1""
""fullscreenenter"",""1"",""6078""
","
","""event"",""trial"",""time""
""focus"",""0"",""1""
","""event"",""trial"",""time""
""fullscreenenter"",""1"",""6078""
","
","","","","","","1332","images/boat8.png","","","memory_trial","1","definitely_old",""
"html-keyboard-response","148","387978","0.0-18.0-0.51","3977","approach_avoid_sv1","""event"",""trial"",""time""
""focus"",""0"",""1""
""fullscreenenter"",""1"",""6078""
","
","""event"",""trial"",""time""
""focus"",""0"",""1""
","""event"",""trial"",""time""
""fullscreenenter"",""1"",""6078""
","
","","","","","","null","<div style=""font-size:60px;"">+</div>","null","","fixation","","",""
"memory-trial","149","391879","0.0-18.0-1.51","3977","approach_avoid_sv1","""event"",""trial"",""time""
""focus"",""0"",""1""
""fullscreenenter"",""1"",""6078""
","
","""event"",""trial"",""time""
""focus"",""0"",""1""
","""event"",""trial"",""time""
""fullscreenenter"",""1"",""6078""
","
","","","","","","2890","images/bush6.png","","","memory_trial","4","definitely_new",""
"html-keyboard-response","150","392388","0.0-18.0-0.52","3977","approach_avoid_sv1","""event"",""trial"",""time""
""focus"",""0"",""1""
""fullscreenenter"",""1"",""6078""
","
","""event"",""trial"",""time""
""focus"",""0"",""1""
","""event"",""trial"",""time""
""fullscreenenter"",""1"",""6078""
","
","","","","","","null","<div style=""font-size:60px;"">+</div>","null","","fixation","","",""
"memory-trial","151","395449","0.0-18.0-1.52","3977","approach_avoid_sv1","""event"",""trial"",""time""
""focus"",""0"",""1""
""fullscreenenter"",""1"",""6078""
","
","""event"",""trial"",""time""
""focus"",""0"",""1""
","""event"",""trial"",""time""
""fullscreenenter"",""1"",""6078""
","
","","","","","","2056","images/bush2.png","","","memory_trial","1","definitely_old",""
"html-keyboard-response","152","395958","0.0-18.0-0.53","3977","approach_avoid_sv1","""event"",""trial"",""time""
""focus"",""0"",""1""
""fullscreenenter"",""1"",""6078""
","
","""event"",""trial"",""time""
""focus"",""0"",""1""
","""event"",""trial"",""time""
""fullscreenenter"",""1"",""6078""
","
","","","","","","null","<div style=""font-size:60px;"">+</div>","null","","fixation","","",""
"memory-trial","153","397798","0.0-18.0-1.53","3977","approach_avoid_sv1","""event"",""trial"",""time""
""focus"",""0"",""1""
""fullscreenenter"",""1"",""6078""
","
","""event"",""trial"",""time""
""focus"",""0"",""1""
","""event"",""trial"",""time""
""fullscreenenter"",""1"",""6078""
","
","","","","","","837","images/bush8.png","","","memory_trial","4","definitely_new",""
"html-keyboard-response","154","398308","0.0-18.0-0.54","3977","approach_avoid_sv1","""event"",""trial"",""time""
""focus"",""0"",""1""
""fullscreenenter"",""1"",""6078""
","
","""event"",""trial"",""time""
""focus"",""0"",""1""
","""event"",""trial"",""time""
""fullscreenenter"",""1"",""6078""
","
","","","","","","null","<div style=""font-size:60px;"">+</div>","null","","fixation","","",""
"memory-trial","155","401418","0.0-18.0-1.54","3977","approach_avoid_sv1","""event"",""trial"",""time""
""focus"",""0"",""1""
""fullscreenenter"",""1"",""6078""
","
","""event"",""trial"",""time""
""focus"",""0"",""1""
","""event"",""trial"",""time""
""fullscreenenter"",""1"",""6078""
","
","","","","","","2104","images/chair8.png","","","memory_trial","4","definitely_new",""
"html-keyboard-response","156","401928","0.0-18.0-0.55","3977","approach_avoid_sv1","""event"",""trial"",""time""
""focus"",""0"",""1""
""fullscreenenter"",""1"",""6078""
","
","""event"",""trial"",""time""
""focus"",""0"",""1""
","""event"",""trial"",""time""
""fullscreenenter"",""1"",""6078""
","
","","","","","","null","<div style=""font-size:60px;"">+</div>","null","","fixation","","",""
"memory-trial","157","405378","0.0-18.0-1.55","3977","approach_avoid_sv1","""event"",""trial"",""time""
""focus"",""0"",""1""
""fullscreenenter"",""1"",""6078""
","
","""event"",""trial"",""time""
""focus"",""0"",""1""
","""event"",""trial"",""time""
""fullscreenenter"",""1"",""6078""
","
","","","","","","2444","images/apple5.png","","","memory_trial","3","maybe_new",""
"html-keyboard-response","158","405888","0.0-18.0-0.56","3977","approach_avoid_sv1","""event"",""trial"",""time""
""focus"",""0"",""1""
""fullscreenenter"",""1"",""6078""
","
","""event"",""trial"",""time""
""focus"",""0"",""1""
","""event"",""trial"",""time""
""fullscreenenter"",""1"",""6078""
","
","","","","","","null","<div style=""font-size:60px;"">+</div>","null","","fixation","","",""
"memory-trial","159","408727","0.0-18.0-1.56","3977","approach_avoid_sv1","""event"",""trial"",""time""
""focus"",""0"",""1""
""fullscreenenter"",""1"",""6078""
","
","""event"",""trial"",""time""
""focus"",""0"",""1""
","""event"",""trial"",""time""
""fullscreenenter"",""1"",""6078""
","
","","","","","","1836","images/banana7.png","","","memory_trial","4","definitely_new",""
"html-keyboard-response","160","409238","0.0-18.0-0.57","3977","approach_avoid_sv1","""event"",""trial"",""time""
""focus"",""0"",""1""
""fullscreenenter"",""1"",""6078""
","
","""event"",""trial"",""time""
""focus"",""0"",""1""
","""event"",""trial"",""time""
""fullscreenenter"",""1"",""6078""
","
","","","","","","null","<div style=""font-size:60px;"">+</div>","null","","fixation","","",""
"memory-trial","161","411838","0.0-18.0-1.57","3977","approach_avoid_sv1","""event"",""trial"",""time""
""focus"",""0"",""1""
""fullscreenenter"",""1"",""6078""
","
","""event"",""trial"",""time""
""focus"",""0"",""1""
","""event"",""trial"",""time""
""fullscreenenter"",""1"",""6078""
","
","","","","","","1598","images/chair4.png","","","memory_trial","4","definitely_new",""
"html-keyboard-response","162","412348","0.0-18.0-0.58","3977","approach_avoid_sv1","""event"",""trial"",""time""
""focus"",""0"",""1""
""fullscreenenter"",""1"",""6078""
","
","""event"",""trial"",""time""
""focus"",""0"",""1""
","""event"",""trial"",""time""
""fullscreenenter"",""1"",""6078""
","
","","","","","","null","<div style=""font-size:60px;"">+</div>","null","","fixation","","",""
"memory-trial","163","417118","0.0-18.0-1.58","3977","approach_avoid_sv1","""event"",""trial"",""time""
""focus"",""0"",""1""
""fullscreenenter"",""1"",""6078""
","
","""event"",""trial"",""time""
""focus"",""0"",""1""
","""event"",""trial"",""time""
""fullscreenenter"",""1"",""6078""
","
","","","","","","3759","images/flower5.png","","","memory_trial","4","definitely_new",""
"html-keyboard-response","164","417628","0.0-18.0-0.59","3977","approach_avoid_sv1","""event"",""trial"",""time""
""focus"",""0"",""1""
""fullscreenenter"",""1"",""6078""
","
","""event"",""trial"",""time""
""focus"",""0"",""1""
","""event"",""trial"",""time""
""fullscreenenter"",""1"",""6078""
","
","","","","","","null","<div style=""font-size:60px;"">+</div>","null","","fixation","","",""
"memory-trial","165","420197","0.0-18.0-1.59","3977","approach_avoid_sv1","""event"",""trial"",""time""
""focus"",""0"",""1""
""fullscreenenter"",""1"",""6078""
","
","""event"",""trial"",""time""
""focus"",""0"",""1""
","""event"",""trial"",""time""
""fullscreenenter"",""1"",""6078""
","
","","","","","","1569","images/orange3.png","","","memory_trial","4","definitely_new",""
"html-keyboard-response","166","420708","0.0-18.0-0.60","3977","approach_avoid_sv1","""event"",""trial"",""time""
""focus"",""0"",""1""
""fullscreenenter"",""1"",""6078""
","
","""event"",""trial"",""time""
""focus"",""0"",""1""
","""event"",""trial"",""time""
""fullscreenenter"",""1"",""6078""
","
","","","","","","null","<div style=""font-size:60px;"">+</div>","null","","fixation","","",""
"memory-trial","167","423770","0.0-18.0-1.60","3977","approach_avoid_sv1","""event"",""trial"",""time""
""focus"",""0"",""1""
""fullscreenenter"",""1"",""6078""
","
","""event"",""trial"",""time""
""focus"",""0"",""1""
","""event"",""trial"",""time""
""fullscreenenter"",""1"",""6078""
","
","","","","","","2056","images/straw2.png","","","memory_trial","1","definitely_old",""
"html-keyboard-response","168","424279","0.0-18.0-0.61","3977","approach_avoid_sv1","""event"",""trial"",""time""
""focus"",""0"",""1""
""fullscreenenter"",""1"",""6078""
","
","""event"",""trial"",""time""
""focus"",""0"",""1""
","""event"",""trial"",""time""
""fullscreenenter"",""1"",""6078""
","
","","","","","","null","<div style=""font-size:60px;"">+</div>","null","","fixation","","",""
"memory-trial","169","427660","0.0-18.0-1.61","3977","approach_avoid_sv1","""event"",""trial"",""time""
""focus"",""0"",""1""
""fullscreenenter"",""1"",""6078""
","
","""event"",""trial"",""time""
""focus"",""0"",""1""
","""event"",""trial"",""time""
""fullscreenenter"",""1"",""6078""
","
","","","","","","2372","images/tree2.png","","","memory_trial","4","definitely_new",""
"html-keyboard-response","170","428169","0.0-18.0-0.62","3977","approach_avoid_sv1","""event"",""trial"",""time""
""focus"",""0"",""1""
""fullscreenenter"",""1"",""6078""
","
","""event"",""trial"",""time""
""focus"",""0"",""1""
","""event"",""trial"",""time""
""fullscreenenter"",""1"",""6078""
","
","","","","","","null","<div style=""font-size:60px;"">+</div>","null","","fixation","","",""
"memory-trial","171","430589","0.0-18.0-1.62","3977","approach_avoid_sv1","""event"",""trial"",""time""
""focus"",""0"",""1""
""fullscreenenter"",""1"",""6078""
","
","""event"",""trial"",""time""
""focus"",""0"",""1""
","""event"",""trial"",""time""
""fullscreenenter"",""1"",""6078""
","
","","","","","","1411","images/goat6.png","","","memory_trial","1","definitely_old",""
"html-keyboard-response","172","431099","0.0-18.0-0.63","3977","approach_avoid_sv1","""event"",""trial"",""time""
""focus"",""0"",""1""
""fullscreenenter"",""1"",""6078""
","
","""event"",""trial"",""time""
""focus"",""0"",""1""
","""event"",""trial"",""time""
""fullscreenenter"",""1"",""6078""
","
","","","","","","null","<div style=""font-size:60px;"">+</div>","null","","fixation","","",""
"memory-trial","173","433349","0.0-18.0-1.63","3977","approach_avoid_sv1","""event"",""trial"",""time""
""focus"",""0"",""1""
""fullscreenenter"",""1"",""6078""
","
","""event"",""trial"",""time""
""focus"",""0"",""1""
","""event"",""trial"",""time""
""fullscreenenter"",""1"",""6078""
","
","","","","","","1248","images/goat8.png","","","memory_trial","4","definitely_new",""
"html-keyboard-response","174","433859","0.0-18.0-0.64","3977","approach_avoid_sv1","""event"",""trial"",""time""
""focus"",""0"",""1""
""fullscreenenter"",""1"",""6078""
","
","""event"",""trial"",""time""
""focus"",""0"",""1""
","""event"",""trial"",""time""
""fullscreenenter"",""1"",""6078""
","
","","","","","","null","<div style=""font-size:60px;"">+</div>","null","","fixation","","",""
"memory-trial","175","435849","0.0-18.0-1.64","3977","approach_avoid_sv1","""event"",""trial"",""time""
""focus"",""0"",""1""
""fullscreenenter"",""1"",""6078""
","
","""event"",""trial"",""time""
""focus"",""0"",""1""
","""event"",""trial"",""time""
""fullscreenenter"",""1"",""6078""
","
","","","","","","983","images/rabbit4.png","","","memory_trial","4","definitely_new",""
"html-keyboard-response","176","436359","0.0-18.0-0.65","3977","approach_avoid_sv1","""event"",""trial"",""time""
""focus"",""0"",""1""
""fullscreenenter"",""1"",""6078""
","
","""event"",""trial"",""time""
""focus"",""0"",""1""
","""event"",""trial"",""time""
""fullscreenenter"",""1"",""6078""
","
","","","","","","null","<div style=""font-size:60px;"">+</div>","null","","fixation","","",""
"memory-trial","177","438389","0.0-18.0-1.65","3977","approach_avoid_sv1","""event"",""trial"",""time""
""focus"",""0"",""1""
""fullscreenenter"",""1"",""6078""
","
","""event"",""trial"",""time""
""focus"",""0"",""1""
","""event"",""trial"",""time""
""fullscreenenter"",""1"",""6078""
","
","","","","","","1019","images/bush1.png","","","memory_trial","4","definitely_new",""
"html-keyboard-response","178","438899","0.0-18.0-0.66","3977","approach_avoid_sv1","""event"",""trial"",""time""
""focus"",""0"",""1""
""fullscreenenter"",""1"",""6078""
","
","""event"",""trial"",""time""
""focus"",""0"",""1""
","""event"",""trial"",""time""
""fullscreenenter"",""1"",""6078""
","
","","","","","","null","<div style=""font-size:60px;"">+</div>","null","","fixation","","",""
"memory-trial","179","442039","0.0-18.0-1.66","3977","approach_avoid_sv1","""event"",""trial"",""time""
""focus"",""0"",""1""
""fullscreenenter"",""1"",""6078""
","
","""event"",""trial"",""time""
""focus"",""0"",""1""
","""event"",""trial"",""time""
""fullscreenenter"",""1"",""6078""
","
","","","","","","2136","images/bed5.png","","","memory_trial","1","definitely_old",""
"html-keyboard-response","180","442549","0.0-18.0-0.67","3977","approach_avoid_sv1","""event"",""trial"",""time""
""focus"",""0"",""1""
""fullscreenenter"",""1"",""6078""
","
","""event"",""trial"",""time""
""focus"",""0"",""1""
","""event"",""trial"",""time""
""fullscreenenter"",""1"",""6078""
","
","","","","","","null","<div style=""font-size:60px;"">+</div>","null","","fixation","","",""
"memory-trial","181","445189","0.0-18.0-1.67","3977","approach_avoid_sv1","""event"",""trial"",""time""
""focus"",""0"",""1""
""fullscreenenter"",""1"",""6078""
","
","""event"",""trial"",""time""
""focus"",""0"",""1""
","""event"",""trial"",""time""
""fullscreenenter"",""1"",""6078""
","
","","","","","","1636","images/chair2.png","","","memory_trial","4","definitely_new",""
"html-keyboard-response","182","445699","0.0-18.0-0.68","3977","approach_avoid_sv1","""event"",""trial"",""time""
""focus"",""0"",""1""
""fullscreenenter"",""1"",""6078""
","
","""event"",""trial"",""time""
""focus"",""0"",""1""
","""event"",""trial"",""time""
""fullscreenenter"",""1"",""6078""
","
","","","","","","null","<div style=""font-size:60px;"">+</div>","null","","fixation","","",""
"memory-trial","183","448059","0.0-18.0-1.68","3977","approach_avoid_sv1","""event"",""trial"",""time""
""focus"",""0"",""1""
""fullscreenenter"",""1"",""6078""
","
","""event"",""trial"",""time""
""focus"",""0"",""1""
","""event"",""trial"",""time""
""fullscreenenter"",""1"",""6078""
","
","","","","","","1352","images/orange4.png","","","memory_trial","4","definitely_new",""
"html-keyboard-response","184","448568","0.0-18.0-0.69","3977","approach_avoid_sv1","""event"",""trial"",""time""
""focus"",""0"",""1""
""fullscreenenter"",""1"",""6078""
","
","""event"",""trial"",""time""
""focus"",""0"",""1""
","""event"",""trial"",""time""
""fullscreenenter"",""1"",""6078""
","
","","","","","","null","<div style=""font-size:60px;"">+</div>","null","","fixation","","",""
"memory-trial","185","452349","0.0-18.0-1.69","3977","approach_avoid_sv1","""event"",""trial"",""time""
""focus"",""0"",""1""
""fullscreenenter"",""1"",""6078""
","
","""event"",""trial"",""time""
""focus"",""0"",""1""
","""event"",""trial"",""time""
""fullscreenenter"",""1"",""6078""
","
","","","","","","2777","images/goat7.png","","","memory_trial","1","definitely_old",""
"html-keyboard-response","186","452859","0.0-18.0-0.70","3977","approach_avoid_sv1","""event"",""trial"",""time""
""focus"",""0"",""1""
""fullscreenenter"",""1"",""6078""
","
","""event"",""trial"",""time""
""focus"",""0"",""1""
","""event"",""trial"",""time""
""fullscreenenter"",""1"",""6078""
","
","","","","","","null","<div style=""font-size:60px;"">+</div>","null","","fixation","","",""
"memory-trial","187","455659","0.0-18.0-1.70","3977","approach_avoid_sv1","""event"",""trial"",""time""
""focus"",""0"",""1""
""fullscreenenter"",""1"",""6078""
","
","""event"",""trial"",""time""
""focus"",""0"",""1""
","""event"",""trial"",""time""
""fullscreenenter"",""1"",""6078""
","
","","","","","","1792","images/cow5.png","","","memory_trial","1","definitely_old",""
"html-keyboard-response","188","456168","0.0-18.0-0.71","3977","approach_avoid_sv1","""event"",""trial"",""time""
""focus"",""0"",""1""
""fullscreenenter"",""1"",""6078""
","
","""event"",""trial"",""time""
""focus"",""0"",""1""
","""event"",""trial"",""time""
""fullscreenenter"",""1"",""6078""
","
","","","","","","null","<div style=""font-size:60px;"">+</div>","null","","fixation","","",""
"memory-trial","189","458149","0.0-18.0-1.71","3977","approach_avoid_sv1","""event"",""trial"",""time""
""focus"",""0"",""1""
""fullscreenenter"",""1"",""6078""
","
","""event"",""trial"",""time""
""focus"",""0"",""1""
","""event"",""trial"",""time""
""fullscreenenter"",""1"",""6078""
","
","","","","","","970","images/banana6.png","","","memory_trial","4","definitely_new",""
"html-keyboard-response","190","458659","0.0-18.0-0.72","3977","approach_avoid_sv1","""event"",""trial"",""time""
""focus"",""0"",""1""
""fullscreenenter"",""1"",""6078""
","
","""event"",""trial"",""time""
""focus"",""0"",""1""
","""event"",""trial"",""time""
""fullscreenenter"",""1"",""6078""
","
","","","","","","null","<div style=""font-size:60px;"">+</div>","null","","fixation","","",""
"memory-trial","191","460678","0.0-18.0-1.72","3977","approach_avoid_sv1","""event"",""trial"",""time""
""focus"",""0"",""1""
""fullscreenenter"",""1"",""6078""
","
","""event"",""trial"",""time""
""focus"",""0"",""1""
","""event"",""trial"",""time""
""fullscreenenter"",""1"",""6078""
","
","","","","","","1016","images/dog8.png","","","memory_trial","4","definitely_new",""
"html-keyboard-response","192","461189","0.0-18.0-0.73","3977","approach_avoid_sv1","""event"",""trial"",""time""
""focus"",""0"",""1""
""fullscreenenter"",""1"",""6078""
","
","""event"",""trial"",""time""
""focus"",""0"",""1""
","""event"",""trial"",""time""
""fullscreenenter"",""1"",""6078""
","
","","","","","","null","<div style=""font-size:60px;"">+</div>","null","","fixation","","",""
"memory-trial","193","463389","0.0-18.0-1.73","3977","approach_avoid_sv1","""event"",""trial"",""time""
""focus"",""0"",""1""
""fullscreenenter"",""1"",""6078""
","
","""event"",""trial"",""time""
""focus"",""0"",""1""
","""event"",""trial"",""time""
""fullscreenenter"",""1"",""6078""
","
","","","","","","1198","images/cow4.png","","","memory_trial","1","definitely_old",""
"html-keyboard-response","194","463899","0.0-18.0-0.74","3977","approach_avoid_sv1","""event"",""trial"",""time""
""focus"",""0"",""1""
""fullscreenenter"",""1"",""6078""
","
","""event"",""trial"",""time""
""focus"",""0"",""1""
","""event"",""trial"",""time""
""fullscreenenter"",""1"",""6078""
","
","","","","","","null","<div style=""font-size:60px;"">+</div>","null","","fixation","","",""
"memory-trial","195","466788","0.0-18.0-1.74","3977","approach_avoid_sv1","""event"",""trial"",""time""
""focus"",""0"",""1""
""fullscreenenter"",""1"",""6078""
","
","""event"",""trial"",""time""
""focus"",""0"",""1""
","""event"",""trial"",""time""
""fullscreenenter"",""1"",""6078""
","
","","","","","","1880","images/plane3.png","","","memory_trial","1","definitely_old",""
"html-keyboard-response","196","467299","0.0-18.0-0.75","3977","approach_avoid_sv1","""event"",""trial"",""time""
""focus"",""0"",""1""
""fullscreenenter"",""1"",""6078""
","
","""event"",""trial"",""time""
""focus"",""0"",""1""
","""event"",""trial"",""time""
""fullscreenenter"",""1"",""6078""
","
","","","","","","null","<div style=""font-size:60px;"">+</div>","null","","fixation","","",""
"memory-trial","197","469518","0.0-18.0-1.75","3977","approach_avoid_sv1","""event"",""trial"",""time""
""focus"",""0"",""1""
""fullscreenenter"",""1"",""6078""
","
","""event"",""trial"",""time""
""focus"",""0"",""1""
","""event"",""trial"",""time""
""fullscreenenter"",""1"",""6078""
","
","","","","","","1216","images/cactus2.png","","","memory_trial","1","definitely_old",""
"html-keyboard-response","198","470029","0.0-18.0-0.76","3977","approach_avoid_sv1","""event"",""trial"",""time""
""focus"",""0"",""1""
""fullscreenenter"",""1"",""6078""
","
","""event"",""trial"",""time""
""focus"",""0"",""1""
","""event"",""trial"",""time""
""fullscreenenter"",""1"",""6078""
","
","","","","","","null","<div style=""font-size:60px;"">+</div>","null","","fixation","","",""
"memory-trial","199","473028","0.0-18.0-1.76","3977","approach_avoid_sv1","""event"",""trial"",""time""
""focus"",""0"",""1""
""fullscreenenter"",""1"",""6078""
","
","""event"",""trial"",""time""
""focus"",""0"",""1""
","""event"",""trial"",""time""
""fullscreenenter"",""1"",""6078""
","
","","","","","","1997","images/orange8.png","","","memory_trial","4","definitely_new",""
"html-keyboard-response","200","473538","0.0-18.0-0.77","3977","approach_avoid_sv1","""event"",""trial"",""time""
""focus"",""0"",""1""
""fullscreenenter"",""1"",""6078""
","
","""event"",""trial"",""time""
""focus"",""0"",""1""
","""event"",""trial"",""time""
""fullscreenenter"",""1"",""6078""
","
","","","","","","null","<div style=""font-size:60px;"">+</div>","null","","fixation","","",""
"memory-trial","201","475779","0.0-18.0-1.77","3977","approach_avoid_sv1","""event"",""trial"",""time""
""focus"",""0"",""1""
""fullscreenenter"",""1"",""6078""
","
","""event"",""trial"",""time""
""focus"",""0"",""1""
","""event"",""trial"",""time""
""fullscreenenter"",""1"",""6078""
","
","","","","","","1232","images/goat2.png","","","memory_trial","4","definitely_new",""
"html-keyboard-response","202","476288","0.0-18.0-0.78","3977","approach_avoid_sv1","""event"",""trial"",""time""
""focus"",""0"",""1""
""fullscreenenter"",""1"",""6078""
","
","""event"",""trial"",""time""
""focus"",""0"",""1""
","""event"",""trial"",""time""
""fullscreenenter"",""1"",""6078""
","
","","","","","","null","<div style=""font-size:60px;"">+</div>","null","","fixation","","",""
"memory-trial","203","480038","0.0-18.0-1.78","3977","approach_avoid_sv1","""event"",""trial"",""time""
""focus"",""0"",""1""
""fullscreenenter"",""1"",""6078""
","
","""event"",""trial"",""time""
""focus"",""0"",""1""
","""event"",""trial"",""time""
""fullscreenenter"",""1"",""6078""
","
","","","","","","2746","images/cat5.png","","","memory_trial","1","definitely_old",""
"html-keyboard-response","204","480548","0.0-18.0-0.79","3977","approach_avoid_sv1","""event"",""trial"",""time""
""focus"",""0"",""1""
""fullscreenenter"",""1"",""6078""
","
","""event"",""trial"",""time""
""focus"",""0"",""1""
","""event"",""trial"",""time""
""fullscreenenter"",""1"",""6078""
","
","","","","","","null","<div style=""font-size:60px;"">+</div>","null","","fixation","","",""
"memory-trial","205","483108","0.0-18.0-1.79","3977","approach_avoid_sv1","""event"",""trial"",""time""
""focus"",""0"",""1""
""fullscreenenter"",""1"",""6078""
","
","""event"",""trial"",""time""
""focus"",""0"",""1""
","""event"",""trial"",""time""
""fullscreenenter"",""1"",""6078""
","
","","","","","","1549","images/orange6.png","","","memory_trial","4","definitely_new",""
"html-keyboard-response","206","483617","0.0-18.0-0.80","3977","approach_avoid_sv1","""event"",""trial"",""time""
""focus"",""0"",""1""
""fullscreenenter"",""1"",""6078""
","
","""event"",""trial"",""time""
""focus"",""0"",""1""
","""event"",""trial"",""time""
""fullscreenenter"",""1"",""6078""
","
","","","","","","null","<div style=""font-size:60px;"">+</div>","null","","fixation","","",""
"memory-trial","207","486188","0.0-18.0-1.80","3977","approach_avoid_sv1","""event"",""trial"",""time""
""focus"",""0"",""1""
""fullscreenenter"",""1"",""6078""
","
","""event"",""trial"",""time""
""focus"",""0"",""1""
","""event"",""trial"",""time""
""fullscreenenter"",""1"",""6078""
","
","","","","","","1567","images/rabbit1.png","","","memory_trial","4","definitely_new",""
"html-keyboard-response","208","486698","0.0-18.0-0.81","3977","approach_avoid_sv1","""event"",""trial"",""time""
""focus"",""0"",""1""
""fullscreenenter"",""1"",""6078""
","
","""event"",""trial"",""time""
""focus"",""0"",""1""
","""event"",""trial"",""time""
""fullscreenenter"",""1"",""6078""
","
","","","","","","null","<div style=""font-size:60px;"">+</div>","null","","fixation","","",""
"memory-trial","209","488788","0.0-18.0-1.81","3977","approach_avoid_sv1","""event"",""trial"",""time""
""focus"",""0"",""1""
""fullscreenenter"",""1"",""6078""
","
","""event"",""trial"",""time""
""focus"",""0"",""1""
","""event"",""trial"",""time""
""fullscreenenter"",""1"",""6078""
","
","","","","","","1080","images/cactus5.png","","","memory_trial","1","definitely_old",""
"html-keyboard-response","210","489298","0.0-18.0-0.82","3977","approach_avoid_sv1","""event"",""trial"",""time""
""focus"",""0"",""1""
""fullscreenenter"",""1"",""6078""
","
","""event"",""trial"",""time""
""focus"",""0"",""1""
","""event"",""trial"",""time""
""fullscreenenter"",""1"",""6078""
","
","","","","","","null","<div style=""font-size:60px;"">+</div>","null","","fixation","","",""
"memory-trial","211","491548","0.0-18.0-1.82","3977","approach_avoid_sv1","""event"",""trial"",""time""
""focus"",""0"",""1""
""fullscreenenter"",""1"",""6078""
","
","""event"",""trial"",""time""
""focus"",""0"",""1""
","""event"",""trial"",""time""
""fullscreenenter"",""1"",""6078""
","
","","","","","","1247","images/bush3.png","","","memory_trial","4","definitely_new",""
"html-keyboard-response","212","492058","0.0-18.0-0.83","3977","approach_avoid_sv1","""event"",""trial"",""time""
""focus"",""0"",""1""
""fullscreenenter"",""1"",""6078""
","
","""event"",""trial"",""time""
""focus"",""0"",""1""
","""event"",""trial"",""time""
""fullscreenenter"",""1"",""6078""
","
","","","","","","null","<div style=""font-size:60px;"">+</div>","null","","fixation","","",""
"memory-trial","213","495008","0.0-18.0-1.83","3977","approach_avoid_sv1","""event"",""trial"",""time""
""focus"",""0"",""1""
""fullscreenenter"",""1"",""6078""
","
","""event"",""trial"",""time""
""focus"",""0"",""1""
","""event"",""trial"",""time""
""fullscreenenter"",""1"",""6078""
","
","","","","","","1944","images/sofa1.png","","","memory_trial","1","definitely_old",""
"html-keyboard-response","214","495517","0.0-18.0-0.84","3977","approach_avoid_sv1","""event"",""trial"",""time""
""focus"",""0"",""1""
""fullscreenenter"",""1"",""6078""
","
","""event"",""trial"",""time""
""focus"",""0"",""1""
","""event"",""trial"",""time""
""fullscreenenter"",""1"",""6078""
","
","","","","","","null","<div style=""font-size:60px;"">+</div>","null","","fixation","","",""
"memory-trial","215","498897","0.0-18.0-1.84","3977","approach_avoid_sv1","""event"",""trial"",""time""
""focus"",""0"",""1""
""fullscreenenter"",""1"",""6078""
","
","""event"",""trial"",""time""
""focus"",""0"",""1""
","""event"",""trial"",""time""
""fullscreenenter"",""1"",""6078""
","
","","","","","","2372","images/bed7.png","","","memory_trial","1","definitely_old",""
"html-keyboard-response","216","499408","0.0-18.0-0.85","3977","approach_avoid_sv1","""event"",""trial"",""time""
""focus"",""0"",""1""
""fullscreenenter"",""1"",""6078""
","
","""event"",""trial"",""time""
""focus"",""0"",""1""
","""event"",""trial"",""time""
""fullscreenenter"",""1"",""6078""
","
","","","","","","null","<div style=""font-size:60px;"">+</div>","null","","fixation","","",""
"memory-trial","217","501518","0.0-18.0-1.85","3977","approach_avoid_sv1","""event"",""trial"",""time""
""focus"",""0"",""1""
""fullscreenenter"",""1"",""6078""
","
","""event"",""trial"",""time""
""focus"",""0"",""1""
","""event"",""trial"",""time""
""fullscreenenter"",""1"",""6078""
","
","","","","","","1105","images/tree3.png","","","memory_trial","1","definitely_old",""
"html-keyboard-response","218","502028","0.0-18.0-0.86","3977","approach_avoid_sv1","""event"",""trial"",""time""
""focus"",""0"",""1""
""fullscreenenter"",""1"",""6078""
","
","""event"",""trial"",""time""
""focus"",""0"",""1""
","""event"",""trial"",""time""
""fullscreenenter"",""1"",""6078""
","
","","","","","","null","<div style=""font-size:60px;"">+</div>","null","","fixation","","",""
"memory-trial","219","505158","0.0-18.0-1.86","3977","approach_avoid_sv1","""event"",""trial"",""time""
""focus"",""0"",""1""
""fullscreenenter"",""1"",""6078""
","
","""event"",""trial"",""time""
""focus"",""0"",""1""
","""event"",""trial"",""time""
""fullscreenenter"",""1"",""6078""
","
","","","","","","2125","images/boat3.png","","","memory_trial","4","definitely_new",""
"html-keyboard-response","220","505667","0.0-18.0-0.87","3977","approach_avoid_sv1","""event"",""trial"",""time""
""focus"",""0"",""1""
""fullscreenenter"",""1"",""6078""
","
","""event"",""trial"",""time""
""focus"",""0"",""1""
","""event"",""trial"",""time""
""fullscreenenter"",""1"",""6078""
","
","","","","","","null","<div style=""font-size:60px;"">+</div>","null","","fixation","","",""
"memory-trial","221","508267","0.0-18.0-1.87","3977","approach_avoid_sv1","""event"",""trial"",""time""
""focus"",""0"",""1""
""fullscreenenter"",""1"",""6078""
","
","""event"",""trial"",""time""
""focus"",""0"",""1""
","""event"",""trial"",""time""
""fullscreenenter"",""1"",""6078""
","
","","","","","","1598","images/train8.png","","","memory_trial","4","definitely_new",""
"html-keyboard-response","222","508777","0.0-18.0-0.88","3977","approach_avoid_sv1","""event"",""trial"",""time""
""focus"",""0"",""1""
""fullscreenenter"",""1"",""6078""
","
","""event"",""trial"",""time""
""focus"",""0"",""1""
","""event"",""trial"",""time""
""fullscreenenter"",""1"",""6078""
","
","","","","","","null","<div style=""font-size:60px;"">+</div>","null","","fixation","","",""
"memory-trial","223","510917","0.0-18.0-1.88","3977","approach_avoid_sv1","""event"",""trial"",""time""
""focus"",""0"",""1""
""fullscreenenter"",""1"",""6078""
","
","""event"",""trial"",""time""
""focus"",""0"",""1""
","""event"",""trial"",""time""
""fullscreenenter"",""1"",""6078""
","
","","","","","","1136","images/bed2.png","","","memory_trial","4","definitely_new",""
"html-keyboard-response","224","511427","0.0-18.0-0.89","3977","approach_avoid_sv1","""event"",""trial"",""time""
""focus"",""0"",""1""
""fullscreenenter"",""1"",""6078""
","
","""event"",""trial"",""time""
""focus"",""0"",""1""
","""event"",""trial"",""time""
""fullscreenenter"",""1"",""6078""
","
","","","","","","null","<div style=""font-size:60px;"">+</div>","null","","fixation","","",""
"memory-trial","225","513917","0.0-18.0-1.89","3977","approach_avoid_sv1","""event"",""trial"",""time""
""focus"",""0"",""1""
""fullscreenenter"",""1"",""6078""
","
","""event"",""trial"",""time""
""focus"",""0"",""1""
","""event"",""trial"",""time""
""fullscreenenter"",""1"",""6078""
","
","","","","","","1486","images/plane6.png","","","memory_trial","3","maybe_new",""
"html-keyboard-response","226","514428","0.0-18.0-0.90","3977","approach_avoid_sv1","""event"",""trial"",""time""
""focus"",""0"",""1""
""fullscreenenter"",""1"",""6078""
","
","""event"",""trial"",""time""
""focus"",""0"",""1""
","""event"",""trial"",""time""
""fullscreenenter"",""1"",""6078""
","
","","","","","","null","<div style=""font-size:60px;"">+</div>","null","","fixation","","",""
"memory-trial","227","517427","0.0-18.0-1.90","3977","approach_avoid_sv1","""event"",""trial"",""time""
""focus"",""0"",""1""
""fullscreenenter"",""1"",""6078""
","
","""event"",""trial"",""time""
""focus"",""0"",""1""
","""event"",""trial"",""time""
""fullscreenenter"",""1"",""6078""
","
","","","","","","1998","images/apple6.png","","","memory_trial","4","definitely_new",""
"html-keyboard-response","228","517937","0.0-18.0-0.91","3977","approach_avoid_sv1","""event"",""trial"",""time""
""focus"",""0"",""1""
""fullscreenenter"",""1"",""6078""
","
","""event"",""trial"",""time""
""focus"",""0"",""1""
","""event"",""trial"",""time""
""fullscreenenter"",""1"",""6078""
","
","","","","","","null","<div style=""font-size:60px;"">+</div>","null","","fixation","","",""
"memory-trial","229","520037","0.0-18.0-1.91","3977","approach_avoid_sv1","""event"",""trial"",""time""
""focus"",""0"",""1""
""fullscreenenter"",""1"",""6078""
""blur"",""230"",""1422834""
""focus"",""230"",""1424408""
""blur"",""230"",""1425020""
""focus"",""230"",""1672922""
","""event"",""trial"",""time""
""blur"",""230"",""1422834""
""blur"",""230"",""1425020""
","""event"",""trial"",""time""
""focus"",""0"",""1""
""focus"",""230"",""1424408""
""focus"",""230"",""1672922""
","""event"",""trial"",""time""
""fullscreenenter"",""1"",""6078""
","
","","","","","","1095","images/train1.png","","","memory_trial","4","definitely_new",""
"html-button-response","230","1674586","0.0-18.0-2.91-0.91","3977","approach_avoid_sv1","""event"",""trial"",""time""
""focus"",""0"",""1""
""fullscreenenter"",""1"",""6078""
""blur"",""230"",""1422834""
""focus"",""230"",""1424408""
""blur"",""230"",""1425020""
""focus"",""230"",""1672922""
","""event"",""trial"",""time""
""blur"",""230"",""1422834""
""blur"",""230"",""1425020""
","""event"",""trial"",""time""
""focus"",""0"",""1""
""focus"",""230"",""1424408""
""focus"",""230"",""1672922""
","""event"",""trial"",""time""
""fullscreenenter"",""1"",""6078""
","
","","","","","","1154506","<p> Take a break! </p><p> Click the button to continue. </p>","0","","break","","",""
"html-keyboard-response","231","1675093","0.0-18.0-0.92","3977","approach_avoid_sv1","""event"",""trial"",""time""
""focus"",""0"",""1""
""fullscreenenter"",""1"",""6078""
""blur"",""230"",""1422834""
""focus"",""230"",""1424408""
""blur"",""230"",""1425020""
""focus"",""230"",""1672922""
","""event"",""trial"",""time""
""blur"",""230"",""1422834""
""blur"",""230"",""1425020""
","""event"",""trial"",""time""
""focus"",""0"",""1""
""focus"",""230"",""1424408""
""focus"",""230"",""1672922""
","""event"",""trial"",""time""
""fullscreenenter"",""1"",""6078""
","
","","","","","","null","<div style=""font-size:60px;"">+</div>","null","","fixation","","",""
"memory-trial","232","1681047","0.0-18.0-1.92","3977","approach_avoid_sv1","""event"",""trial"",""time""
""focus"",""0"",""1""
""fullscreenenter"",""1"",""6078""
""blur"",""230"",""1422834""
""focus"",""230"",""1424408""
""blur"",""230"",""1425020""
""focus"",""230"",""1672922""
","""event"",""trial"",""time""
""blur"",""230"",""1422834""
""blur"",""230"",""1425020""
","""event"",""trial"",""time""
""focus"",""0"",""1""
""focus"",""230"",""1424408""
""focus"",""230"",""1672922""
","""event"",""trial"",""time""
""fullscreenenter"",""1"",""6078""
","
","","","","","","4951","images/rabbit5.png","","","memory_trial","4","definitely_new",""
"html-keyboard-response","233","1681557","0.0-18.0-0.93","3977","approach_avoid_sv1","""event"",""trial"",""time""
""focus"",""0"",""1""
""fullscreenenter"",""1"",""6078""
""blur"",""230"",""1422834""
""focus"",""230"",""1424408""
""blur"",""230"",""1425020""
""focus"",""230"",""1672922""
","""event"",""trial"",""time""
""blur"",""230"",""1422834""
""blur"",""230"",""1425020""
","""event"",""trial"",""time""
""focus"",""0"",""1""
""focus"",""230"",""1424408""
""focus"",""230"",""1672922""
","""event"",""trial"",""time""
""fullscreenenter"",""1"",""6078""
","
","","","","","","null","<div style=""font-size:60px;"">+</div>","null","","fixation","","",""
"memory-trial","234","1684287","0.0-18.0-1.93","3977","approach_avoid_sv1","""event"",""trial"",""time""
""focus"",""0"",""1""
""fullscreenenter"",""1"",""6078""
""blur"",""230"",""1422834""
""focus"",""230"",""1424408""
""blur"",""230"",""1425020""
""focus"",""230"",""1672922""
","""event"",""trial"",""time""
""blur"",""230"",""1422834""
""blur"",""230"",""1425020""
","""event"",""trial"",""time""
""focus"",""0"",""1""
""focus"",""230"",""1424408""
""focus"",""230"",""1672922""
","""event"",""trial"",""time""
""fullscreenenter"",""1"",""6078""
","
","","","","","","1728","images/cat7.png","","","memory_trial","1","definitely_old",""
"html-keyboard-response","235","1684797","0.0-18.0-0.94","3977","approach_avoid_sv1","""event"",""trial"",""time""
""focus"",""0"",""1""
""fullscreenenter"",""1"",""6078""
""blur"",""230"",""1422834""
""focus"",""230"",""1424408""
""blur"",""230"",""1425020""
""focus"",""230"",""1672922""
","""event"",""trial"",""time""
""blur"",""230"",""1422834""
""blur"",""230"",""1425020""
","""event"",""trial"",""time""
""focus"",""0"",""1""
""focus"",""230"",""1424408""
""focus"",""230"",""1672922""
","""event"",""trial"",""time""
""fullscreenenter"",""1"",""6078""
","
","","","","","","null","<div style=""font-size:60px;"">+</div>","null","","fixation","","",""
"memory-trial","236","1687337","0.0-18.0-1.94","3977","approach_avoid_sv1","""event"",""trial"",""time""
""focus"",""0"",""1""
""fullscreenenter"",""1"",""6078""
""blur"",""230"",""1422834""
""focus"",""230"",""1424408""
""blur"",""230"",""1425020""
""focus"",""230"",""1672922""
","""event"",""trial"",""time""
""blur"",""230"",""1422834""
""blur"",""230"",""1425020""
","""event"",""trial"",""time""
""focus"",""0"",""1""
""focus"",""230"",""1424408""
""focus"",""230"",""1672922""
","""event"",""trial"",""time""
""fullscreenenter"",""1"",""6078""
","
","","","","","","1536","images/tree5.png","","","memory_trial","1","definitely_old",""
"html-keyboard-response","237","1687847","0.0-18.0-0.95","3977","approach_avoid_sv1","""event"",""trial"",""time""
""focus"",""0"",""1""
""fullscreenenter"",""1"",""6078""
""blur"",""230"",""1422834""
""focus"",""230"",""1424408""
""blur"",""230"",""1425020""
""focus"",""230"",""1672922""
","""event"",""trial"",""time""
""blur"",""230"",""1422834""
""blur"",""230"",""1425020""
","""event"",""trial"",""time""
""focus"",""0"",""1""
""focus"",""230"",""1424408""
""focus"",""230"",""1672922""
","""event"",""trial"",""time""
""fullscreenenter"",""1"",""6078""
","
","","","","","","null","<div style=""font-size:60px;"">+</div>","null","","fixation","","",""
"memory-trial","238","1692207","0.0-18.0-1.95","3977","approach_avoid_sv1","""event"",""trial"",""time""
""focus"",""0"",""1""
""fullscreenenter"",""1"",""6078""
""blur"",""230"",""1422834""
""focus"",""230"",""1424408""
""blur"",""230"",""1425020""
""focus"",""230"",""1672922""
","""event"",""trial"",""time""
""blur"",""230"",""1422834""
""blur"",""230"",""1425020""
","""event"",""trial"",""time""
""focus"",""0"",""1""
""focus"",""230"",""1424408""
""focus"",""230"",""1672922""
","""event"",""trial"",""time""
""fullscreenenter"",""1"",""6078""
","
