"trial_type","trial_index","time_elapsed","internal_node_id","subject_id","task_version","interactions","blur_events","focus_events","fullscreenenter_events","fullscreenexit_events","success","timeout","failed_images","failed_audio","failed_video","rt","stimulus","response","button_pressed","task_part","key_press","answer","correct"
"pavlovia","0","2","0.0-0.0","6374","approach_avoid_sv1","""event"",""trial"",""time""
""fullscreenenter"",""1"",""6203""
","
","
","""event"",""trial"",""time""
""fullscreenenter"",""1"",""6203""
","
","","","","","","","","","","","","",""
"fullscreen","1","7204","0.0-1.0","6374","approach_avoid_sv1","""event"",""trial"",""time""
""fullscreenenter"",""1"",""6203""
","
","
","""event"",""trial"",""time""
""fullscreenenter"",""1"",""6203""
","
","true","","","","","","","","","","","",""
"preload","2","20025","0.0-2.0","6374","approach_avoid_sv1","""event"",""trial"",""time""
""fullscreenenter"",""1"",""6203""
","
","
","""event"",""trial"",""time""
""fullscreenenter"",""1"",""6203""
","
","true","false","[]","[]","[]","","","","","","","",""
"preload","3","34021","0.0-3.0","6374","approach_avoid_sv1","""event"",""trial"",""time""
""fullscreenenter"",""1"",""6203""
","
","
","""event"",""trial"",""time""
""fullscreenenter"",""1"",""6203""
","
","true","false","[]","[]","[]","","","","","","","",""
"preload","4","35011","0.0-4.0","6374","approach_avoid_sv1","""event"",""trial"",""time""
""fullscreenenter"",""1"",""6203""
","
","
","""event"",""trial"",""time""
""fullscreenenter"",""1"",""6203""
","
","true","false","[]","[]","[]","","","","","","","",""
"audio-keyboard-response","5","41353","0.0-5.0","6374","approach_avoid_sv1","""event"",""trial"",""time""
""fullscreenenter"",""1"",""6203""
","
","
","""event"",""trial"",""time""
""fullscreenenter"",""1"",""6203""
","
","","","","","","6341.333333333333","audio/beep_loop.wav","audiovolumeup","","","","",""
"audio-button-response","6","44782","0.0-6.0","6374","approach_avoid_sv1","""event"",""trial"",""time""
""fullscreenenter"",""1"",""6203""
","
","
","""event"",""trial"",""time""
""fullscreenenter"",""1"",""6203""
","
","","","","","","3429","audio/turtle.wav","3","","","","",""
"audio-button-response","7","47646","0.0-7.0","6374","approach_avoid_sv1","""event"",""trial"",""time""
""fullscreenenter"",""1"",""6203""
","
","
","""event"",""trial"",""time""
""fullscreenenter"",""1"",""6203""
","
","","","","","","1851","audio/shark.wav","2","","","","",""
"preload","8","63088","0.0-8.0","6374","approach_avoid_sv1","""event"",""trial"",""time""
""fullscreenenter"",""1"",""6203""
","
","
","""event"",""trial"",""time""
""fullscreenenter"",""1"",""6203""
","
","true","false","[]","[]","[]","","","","","","","",""
"learning-instructions","9","73455","0.0-9.0-0.0","6374","approach_avoid_sv1","""event"",""trial"",""time""
""fullscreenenter"",""1"",""6203""
","
","
","""event"",""trial"",""time""
""fullscreenenter"",""1"",""6203""
","
","","","","","","5885.700000047684","<p> Welcome back! </p><p> Last week, you had to make choices about lots of different items.  </p>","","0","instructions","","",""
"learning-instructions","10","87294","0.0-9.0-0.1","6374","approach_avoid_sv1","""event"",""trial"",""time""
""fullscreenenter"",""1"",""6203""
","
","
","""event"",""trial"",""time""
""fullscreenenter"",""1"",""6203""
","
","","","","","","9716","<p> Today, we are going to ask you to try to remember all the items. </p>","","0","instructions","","",""
"learning-instructions","11","99590","0.0-9.0-0.2","6374","approach_avoid_sv1","""event"",""trial"",""time""
""fullscreenenter"",""1"",""6203""
","
","
","""event"",""trial"",""time""
""fullscreenenter"",""1"",""6203""
","
","","","","","","2171.5999999046326","<p> On every trial, you will see an image. </p><p> The image may be an OLD image you saw during the games last week or it may be a NEW image that was not presented. </p>","","0","instructions","","",""
"learning-instructions","12","110487","0.0-9.0-0.3","6374","approach_avoid_sv1","""event"",""trial"",""time""
""fullscreenenter"",""1"",""6203""
","
","
","""event"",""trial"",""time""
""fullscreenenter"",""1"",""6203""
","
","","","","","","2386.7999999523163","<p> You need to select whether the image is:  </p><p>  'Definitely old', 'Maybe old', 'Maybe new', or 'Definitely new.'  </p><div class=""mem-choice-instructions-grid""><div class=""choice-option"" id=""choice-option-1"" ><img src=""images/definitely_old_1.png"" id=""choice-option-img-1"" class=""choice-option-img"" stage=""1""></div><div class=""choice-option"" id=""choice-option-2"" ><img src=""images/maybe_old_1.png"" id=""choice-option-img-2"" class=""choice-option-img"" stage=""1""></div><div class=""choice-option"" id=""choice-option-3"" ><img src=""images/maybe_new_1.png"" id=""choice-option-img-3"" class=""choice-option-img"" stage=""1""></div><div class=""choice-option"" id=""choice-option-4"" > <img src=""images/definitely_new_1.png"" id=""choice-option-img-4"" class=""choice-option-img"" stage=""1""></div></div>","","0","instructions","","",""
"learning-instructions","13","120870","0.0-9.0-0.4","6374","approach_avoid_sv1","""event"",""trial"",""time""
""fullscreenenter"",""1"",""6203""
","
","
","""event"",""trial"",""time""
""fullscreenenter"",""1"",""6203""
","
","","","","","","3860.399999976158","<p> You should use the 1, 2, 3, and 4 keys to make your responses.  </p><div class=""mem-choice-instructions-grid""><div class=""choice-option"" id=""choice-option-1"" ><img src=""images/definitely_old.png"" id=""choice-option-img-1"" class=""choice-option-img"" stage=""1""></div><div class=""choice-option"" id=""choice-option-2"" ><img src=""images/maybe_old.png"" id=""choice-option-img-2"" class=""choice-option-img"" stage=""1""></div><div class=""choice-option"" id=""choice-option-3"" ><img src=""images/maybe_new.png"" id=""choice-option-img-3"" class=""choice-option-img"" stage=""1""></div><div class=""choice-option"" id=""choice-option-4"" > <img src=""images/definitely_new.png"" id=""choice-option-img-4"" class=""choice-option-img"" stage=""1""></div></div>","","0","instructions","","",""
"learning-instructions","14","128943","0.0-9.0-0.5","6374","approach_avoid_sv1","""event"",""trial"",""time""
""fullscreenenter"",""1"",""6203""
","
","
","""event"",""trial"",""time""
""fullscreenenter"",""1"",""6203""
","
","","","","","","1743.6000000238419","<p> You will have 10 seconds to make each response.  </p><p>  Make sure to respond before time runs out! </p>","","0","instructions","","",""
"learning-instructions","15","143719","0.0-9.0-0.6","6374","approach_avoid_sv1","""event"",""trial"",""time""
""fullscreenenter"",""1"",""6203""
","
","
","""event"",""trial"",""time""
""fullscreenenter"",""1"",""6203""
","
","","","","","","7699.100000023842","<p> Today, you will see each image ONCE only.  </p><p>  That means none of the images will repeat. </p>","","0","instructions","","",""
"learning-instructions","16","160647","0.0-9.0-0.7","6374","approach_avoid_sv1","""event"",""trial"",""time""
""fullscreenenter"",""1"",""6203""
","
","
","""event"",""trial"",""time""
""fullscreenenter"",""1"",""6203""
","
","","","","","","4247.299999952316","<p> Before you play the real game, it is time to practice. </p><p>  Just like in the real game, some of the images in the practice will be ones you have seen before. </p><p>  Others will be entirely new. </p>","","0","instructions","","",""
"html-button-response","17","165767","0.0-10.0","6374","approach_avoid_sv1","""event"",""trial"",""time""
""fullscreenenter"",""1"",""6203""
","
","
","""event"",""trial"",""time""
""fullscreenenter"",""1"",""6203""
","
","","","","","","4998.799999952316","<p> Ready to practice? </p><p> Remember, use the 1, 2, 3, and 4 keys to make your responses. </p>","0","","instructions","","",""
"html-keyboard-response","18","166397","0.0-11.0-0.0","6374","approach_avoid_sv1","""event"",""trial"",""time""
""fullscreenenter"",""1"",""6203""
","
","
","""event"",""trial"",""time""
""fullscreenenter"",""1"",""6203""
","
","","","","","","null","<div style=""font-size:60px;"">+</div>","null","","fixation","","",""
"memory-trial","19","172207","0.0-11.0-1.0","6374","approach_avoid_sv1","""event"",""trial"",""time""
""fullscreenenter"",""1"",""6203""
","
","
","""event"",""trial"",""time""
""fullscreenenter"",""1"",""6203""
","
","","","","","","4777.899999976158","images/racket5.png","","","practice","3","maybe_new",""
"html-keyboard-response","20","172717","0.0-11.0-0.1","6374","approach_avoid_sv1","""event"",""trial"",""time""
""fullscreenenter"",""1"",""6203""
","
","
","""event"",""trial"",""time""
""fullscreenenter"",""1"",""6203""
","
","","","","","","null","<div style=""font-size:60px;"">+</div>","null","","fixation","","",""
"memory-trial","21","177287","0.0-11.0-1.1","6374","approach_avoid_sv1","""event"",""trial"",""time""
""fullscreenenter"",""1"",""6203""
","
","
","""event"",""trial"",""time""
""fullscreenenter"",""1"",""6203""
","
","","","","","","3544.1999999284744","images/ball3.png","","","practice","3","maybe_new",""
"html-keyboard-response","22","177807","0.0-11.0-0.2","6374","approach_avoid_sv1","""event"",""trial"",""time""
""fullscreenenter"",""1"",""6203""
","
","
","""event"",""trial"",""time""
""fullscreenenter"",""1"",""6203""
","
","","","","","","null","<div style=""font-size:60px;"">+</div>","null","","fixation","","",""
"memory-trial","23","182587","0.0-11.0-1.2","6374","approach_avoid_sv1","""event"",""trial"",""time""
""fullscreenenter"",""1"",""6203""
","
","
","""event"",""trial"",""time""
""fullscreenenter"",""1"",""6203""
","
","","","","","","3768.5999999046326","images/racket1.png","","","practice","2","maybe_old",""
"html-keyboard-response","24","183097","0.0-11.0-0.3","6374","approach_avoid_sv1","""event"",""trial"",""time""
""fullscreenenter"",""1"",""6203""
","
","
","""event"",""trial"",""time""
""fullscreenenter"",""1"",""6203""
","
","","","","","","null","<div style=""font-size:60px;"">+</div>","null","","fixation","","",""
"memory-trial","25","186548","0.0-11.0-1.3","6374","approach_avoid_sv1","""event"",""trial"",""time""
""fullscreenenter"",""1"",""6203""
","
","
","""event"",""trial"",""time""
""fullscreenenter"",""1"",""6203""
","
","","","","","","2443.8000000715256","images/ball2.png","","","practice","1","definitely_old",""
"html-keyboard-response","26","187052","0.0-11.0-0.4","6374","approach_avoid_sv1","""event"",""trial"",""time""
""fullscreenenter"",""1"",""6203""
","
","
","""event"",""trial"",""time""
""fullscreenenter"",""1"",""6203""
","
","","","","","","null","<div style=""font-size:60px;"">+</div>","null","","fixation","","",""
"memory-trial","27","190916","0.0-11.0-1.4","6374","approach_avoid_sv1","""event"",""trial"",""time""
""fullscreenenter"",""1"",""6203""
","
","
","""event"",""trial"",""time""
""fullscreenenter"",""1"",""6203""
","
","","","","","","2856.4000000953674","images/ball1.png","","","practice","2","maybe_old",""
"html-keyboard-response","28","191419","0.0-11.0-0.5","6374","approach_avoid_sv1","""event"",""trial"",""time""
""fullscreenenter"",""1"",""6203""
","
","
","""event"",""trial"",""time""
""fullscreenenter"",""1"",""6203""
","
","","","","","","null","<div style=""font-size:60px;"">+</div>","null","","fixation","","",""
"memory-trial","29","196501","0.0-11.0-1.5","6374","approach_avoid_sv1","""event"",""trial"",""time""
""fullscreenenter"",""1"",""6203""
","
","
","""event"",""trial"",""time""
""fullscreenenter"",""1"",""6203""
","
","","","","","","4076.2999999523163","images/racket2.png","","","practice","2","maybe_old",""
"html-keyboard-response","30","197004","0.0-11.0-0.6","6374","approach_avoid_sv1","""event"",""trial"",""time""
""fullscreenenter"",""1"",""6203""
","
","
","""event"",""trial"",""time""
""fullscreenenter"",""1"",""6203""
","
","","","","","","null","<div style=""font-size:60px;"">+</div>","null","","fixation","","",""
"memory-trial","31","200916","0.0-11.0-1.6","6374","approach_avoid_sv1","""event"",""trial"",""time""
""fullscreenenter"",""1"",""6203""
","
","
","""event"",""trial"",""time""
""fullscreenenter"",""1"",""6203""
","
","","","","","","2903.2999999523163","images/racket3.png","","","practice","2","maybe_old",""
"html-keyboard-response","32","201420","0.0-11.0-0.7","6374","approach_avoid_sv1","""event"",""trial"",""time""
""fullscreenenter"",""1"",""6203""
","
","
","""event"",""trial"",""time""
""fullscreenenter"",""1"",""6203""
","
","","","","","","null","<div style=""font-size:60px;"">+</div>","null","","fixation","","",""
"memory-trial","33","206421","0.0-11.0-1.7","6374","approach_avoid_sv1","""event"",""trial"",""time""
""fullscreenenter"",""1"",""6203""
","
","
","""event"",""trial"",""time""
""fullscreenenter"",""1"",""6203""
","
","","","","","","3992.2000000476837","images/ball5.png","","","practice","2","maybe_old",""
"learning-instructions","34","215006","0.0-12.0-0.0","6374","approach_avoid_sv1","""event"",""trial"",""time""
""fullscreenenter"",""1"",""6203""
","
","
","""event"",""trial"",""time""
""fullscreenenter"",""1"",""6203""
","
","","","","","","1212.5","<p> Great! You have completed the practice. </p><p> Before you start, we're going to ask you a few questions about how the game works.  </p>","","0","instructions","","",""
"preload","35","223235","0.0-13.0","6374","approach_avoid_sv1","""event"",""trial"",""time""
""fullscreenenter"",""1"",""6203""
","
","
","""event"",""trial"",""time""
""fullscreenenter"",""1"",""6203""
","
","true","false","[]","[]","[]","","","","","","","",""
"comp-q","36","230014","0.0-14.0-0.0","6374","approach_avoid_sv1","""event"",""trial"",""time""
""fullscreenenter"",""1"",""6203""
","
","
","""event"",""trial"",""time""
""fullscreenenter"",""1"",""6203""
","
","","","","","","950.2000000476837","<p> <b> True or False? </b> </p><p> In this game, you will only see each image once. </p>","","0","comp_question","","","true"
"comp-q","37","237511","0.0-14.0-1.0","6374","approach_avoid_sv1","""event"",""trial"",""time""
""fullscreenenter"",""1"",""6203""
","
","
","""event"",""trial"",""time""
""fullscreenenter"",""1"",""6203""
","
","","","","","","1146.8000000715256","<p> <b> That's right! </b> You will see many different images <i> one time each </i> in this game. </p>","","0","comp_answer","","",""
"comp-q","38","243638","0.0-15.0-0.0","6374","approach_avoid_sv1","""event"",""trial"",""time""
""fullscreenenter"",""1"",""6203""
","
","
","""event"",""trial"",""time""
""fullscreenenter"",""1"",""6203""
","
","","","","","","1113.8000000715256","<p> <b> True or False? </b> </p><p> You should use the mouse and click to make your response. </p>","","1","comp_question","","","true"
"comp-q","39","251438","0.0-15.0-1.0","6374","approach_avoid_sv1","""event"",""trial"",""time""
""fullscreenenter"",""1"",""6203""
","
","
","""event"",""trial"",""time""
""fullscreenenter"",""1"",""6203""
","
","","","","","","1294.2000000476837","<p><b> That's right! </b> You should use the '1', '2', '3', and '4' keys to make your response. </p>","","0","comp_answer","","",""
"comp-q","40","258806","0.0-16.0-0.0","6374","approach_avoid_sv1","""event"",""trial"",""time""
""fullscreenenter"",""1"",""6203""
","
","
","""event"",""trial"",""time""
""fullscreenenter"",""1"",""6203""
","
","","","","","","1692.2000000476837","<p> <b> True or False? </b> </p><p> You will have as much time as you want to make each choice. </p>","","1","comp_question","","","true"
"comp-q","41","264582","0.0-16.0-1.0","6374","approach_avoid_sv1","""event"",""trial"",""time""
""fullscreenenter"",""1"",""6203""
","
","
","""event"",""trial"",""time""
""fullscreenenter"",""1"",""6203""
","
","","","","","","1087","<p> <b> That's right! </b> You will only have 10 seconds to make each choice. </p>","","0","comp_answer","","",""
"learning-instructions","42","278750","0.0-17.0","6374","approach_avoid_sv1","""event"",""trial"",""time""
""fullscreenenter"",""1"",""6203""
","
","
","""event"",""trial"",""time""
""fullscreenenter"",""1"",""6203""
","
","","","","","","5485.599999904633","<p> Great! You are now ready to begin the game. </p><p> Remember, use the 1, 2, 3, and 4 keys to make your responses. </p>","","0","instructions","","",""
"html-keyboard-response","43","279372","0.0-18.0-0.0","6374","approach_avoid_sv1","""event"",""trial"",""time""
""fullscreenenter"",""1"",""6203""
","
","
","""event"",""trial"",""time""
""fullscreenenter"",""1"",""6203""
","
","","","","","","null","<div style=""font-size:60px;"">+</div>","null","","fixation","","",""
"memory-trial","44","283222","0.0-18.0-1.0","6374","approach_avoid_sv1","""event"",""trial"",""time""
""fullscreenenter"",""1"",""6203""
","
","
","""event"",""trial"",""time""
""fullscreenenter"",""1"",""6203""
","
","","","","","","2839.600000023842","images/horse3.png","","","memory_trial","2","maybe_old",""
"html-keyboard-response","45","283742","0.0-18.0-0.1","6374","approach_avoid_sv1","""event"",""trial"",""time""
""fullscreenenter"",""1"",""6203""
","
","
","""event"",""trial"",""time""
""fullscreenenter"",""1"",""6203""
","
","","","","","","null","<div style=""font-size:60px;"">+</div>","null","","fixation","","",""
"memory-trial","46","286902","0.0-18.0-1.1","6374","approach_avoid_sv1","""event"",""trial"",""time""
""fullscreenenter"",""1"",""6203""
","
","
","""event"",""trial"",""time""
""fullscreenenter"",""1"",""6203""
","
","","","","","","2150.100000023842","images/dog5.png","","","memory_trial","1","definitely_old",""
"html-keyboard-response","47","287422","0.0-18.0-0.2","6374","approach_avoid_sv1","""event"",""trial"",""time""
""fullscreenenter"",""1"",""6203""
","
","
","""event"",""trial"",""time""
""fullscreenenter"",""1"",""6203""
","
","","","","","","null","<div style=""font-size:60px;"">+</div>","null","","fixation","","",""
"memory-trial","48","291492","0.0-18.0-1.2","6374","approach_avoid_sv1","""event"",""trial"",""time""
""fullscreenenter"",""1"",""6203""
","
","
","""event"",""trial"",""time""
""fullscreenenter"",""1"",""6203""
","
","","","","","","3065.2999999523163","images/sofa1.png","","","memory_trial","3","maybe_new",""
"html-keyboard-response","49","292012","0.0-18.0-0.3","6374","approach_avoid_sv1","""event"",""trial"",""time""
""fullscreenenter"",""1"",""6203""
","
","
","""event"",""trial"",""time""
""fullscreenenter"",""1"",""6203""
","
","","","","","","null","<div style=""font-size:60px;"">+</div>","null","","fixation","","",""
"memory-trial","50","295802","0.0-18.0-1.3","6374","approach_avoid_sv1","""event"",""trial"",""time""
""fullscreenenter"",""1"",""6203""
","
","
","""event"",""trial"",""time""
""fullscreenenter"",""1"",""6203""
","
","","","","","","2774.9000000953674","images/table7.png","","","memory_trial","3","maybe_new",""
"html-keyboard-response","51","296322","0.0-18.0-0.4","6374","approach_avoid_sv1","""event"",""trial"",""time""
""fullscreenenter"",""1"",""6203""
","
","
","""event"",""trial"",""time""
""fullscreenenter"",""1"",""6203""
","
","","","","","","null","<div style=""font-size:60px;"">+</div>","null","","fixation","","",""
"memory-trial","52","300202","0.0-18.0-1.4","6374","approach_avoid_sv1","""event"",""trial"",""time""
""fullscreenenter"",""1"",""6203""
","
","
","""event"",""trial"",""time""
""fullscreenenter"",""1"",""6203""
","
","","","","","","2866.399999976158","images/bed4.png","","","memory_trial","2","maybe_old",""
"html-keyboard-response","53","300722","0.0-18.0-0.5","6374","approach_avoid_sv1","""event"",""trial"",""time""
""fullscreenenter"",""1"",""6203""
","
","
","""event"",""trial"",""time""
""fullscreenenter"",""1"",""6203""
","
","","","","","","null","<div style=""font-size:60px;"">+</div>","null","","fixation","","",""
"memory-trial","54","303925","0.0-18.0-1.5","6374","approach_avoid_sv1","""event"",""trial"",""time""
""fullscreenenter"",""1"",""6203""
","
","
","""event"",""trial"",""time""
""fullscreenenter"",""1"",""6203""
","
","","","","","","2197.2000000476837","images/sheep6.png","","","memory_trial","3","maybe_new",""
"html-keyboard-response","55","304428","0.0-18.0-0.6","6374","approach_avoid_sv1","""event"",""trial"",""time""
""fullscreenenter"",""1"",""6203""
","
","
","""event"",""trial"",""time""
""fullscreenenter"",""1"",""6203""
","
","","","","","","null","<div style=""font-size:60px;"">+</div>","null","","fixation","","",""
"memory-trial","56","308106","0.0-18.0-1.6","6374","approach_avoid_sv1","""event"",""trial"",""time""
""fullscreenenter"",""1"",""6203""
","
","
","""event"",""trial"",""time""
""fullscreenenter"",""1"",""6203""
","
","","","","","","2664.100000023842","images/tree1.png","","","memory_trial","4","definitely_new",""
"html-keyboard-response","57","308613","0.0-18.0-0.7","6374","approach_avoid_sv1","""event"",""trial"",""time""
""fullscreenenter"",""1"",""6203""
","
","
","""event"",""trial"",""time""
""fullscreenenter"",""1"",""6203""
","
","","","","","","null","<div style=""font-size:60px;"">+</div>","null","","fixation","","",""
"memory-trial","58","311252","0.0-18.0-1.7","6374","approach_avoid_sv1","""event"",""trial"",""time""
""fullscreenenter"",""1"",""6203""
","
","
","""event"",""trial"",""time""
""fullscreenenter"",""1"",""6203""
","
","","","","","","1632.2000000476837","images/truck7.png","","","memory_trial","4","definitely_new",""
"html-keyboard-response","59","311757","0.0-18.0-0.8","6374","approach_avoid_sv1","""event"",""trial"",""time""
""fullscreenenter"",""1"",""6203""
","
","
","""event"",""trial"",""time""
""fullscreenenter"",""1"",""6203""
","
","","","","","","null","<div style=""font-size:60px;"">+</div>","null","","fixation","","",""
"memory-trial","60","313748","0.0-18.0-1.8","6374","approach_avoid_sv1","""event"",""trial"",""time""
""fullscreenenter"",""1"",""6203""
","
","
","""event"",""trial"",""time""
""fullscreenenter"",""1"",""6203""
","
","","","","","","984.8999999761581","images/chair4.png","","","memory_trial","4","definitely_new",""
"html-keyboard-response","61","314252","0.0-18.0-0.9","6374","approach_avoid_sv1","""event"",""trial"",""time""
""fullscreenenter"",""1"",""6203""
","
","
","""event"",""trial"",""time""
""fullscreenenter"",""1"",""6203""
","
","","","","","","null","<div style=""font-size:60px;"">+</div>","null","","fixation","","",""
"memory-trial","62","317732","0.0-18.0-1.9","6374","approach_avoid_sv1","""event"",""trial"",""time""
""fullscreenenter"",""1"",""6203""
","
","
","""event"",""trial"",""time""
""fullscreenenter"",""1"",""6203""
","
","","","","","","2476","images/bush6.png","","","memory_trial","1","definitely_old",""
"html-keyboard-response","63","318237","0.0-18.0-0.10","6374","approach_avoid_sv1","""event"",""trial"",""time""
""fullscreenenter"",""1"",""6203""
","
","
","""event"",""trial"",""time""
""fullscreenenter"",""1"",""6203""
","
","","","","","","null","<div style=""font-size:60px;"">+</div>","null","","fixation","","",""
"memory-trial","64","323397","0.0-18.0-1.10","6374","approach_avoid_sv1","""event"",""trial"",""time""
""fullscreenenter"",""1"",""6203""
","
","
","""event"",""trial"",""time""
""fullscreenenter"",""1"",""6203""
","
","","","","","","4151.900000095367","images/plane2.png","","","memory_trial","3","maybe_new",""
"html-keyboard-response","65","323900","0.0-18.0-0.11","6374","approach_avoid_sv1","""event"",""trial"",""time""
""fullscreenenter"",""1"",""6203""
","
","
","""event"",""trial"",""time""
""fullscreenenter"",""1"",""6203""
","
","","","","","","null","<div style=""font-size:60px;"">+</div>","null","","fixation","","",""
"memory-trial","66","327477","0.0-18.0-1.11","6374","approach_avoid_sv1","""event"",""trial"",""time""
""fullscreenenter"",""1"",""6203""
","
","
","""event"",""trial"",""time""
""fullscreenenter"",""1"",""6203""
","
","","","","","","2568.5","images/cat3.png","","","memory_trial","3","maybe_new",""
"html-keyboard-response","67","327991","0.0-18.0-0.12","6374","approach_avoid_sv1","""event"",""trial"",""time""
""fullscreenenter"",""1"",""6203""
","
","
","""event"",""trial"",""time""
""fullscreenenter"",""1"",""6203""
","
","","","","","","null","<div style=""font-size:60px;"">+</div>","null","","fixation","","",""
"memory-trial","68","330773","0.0-18.0-1.12","6374","approach_avoid_sv1","""event"",""trial"",""time""
""fullscreenenter"",""1"",""6203""
","
","
","""event"",""trial"",""time""
""fullscreenenter"",""1"",""6203""
","
","","","","","","1776","images/flower3.png","","","memory_trial","2","maybe_old",""
"html-keyboard-response","69","331276","0.0-18.0-0.13","6374","approach_avoid_sv1","""event"",""trial"",""time""
""fullscreenenter"",""1"",""6203""
","
","
","""event"",""trial"",""time""
""fullscreenenter"",""1"",""6203""
","
","","","","","","null","<div style=""font-size:60px;"">+</div>","null","","fixation","","",""
"memory-trial","70","336100","0.0-18.0-1.13","6374","approach_avoid_sv1","""event"",""trial"",""time""
""fullscreenenter"",""1"",""6203""
","
","
","""event"",""trial"",""time""
""fullscreenenter"",""1"",""6203""
","
","","","","","","3816.600000023842","images/orange3.png","","","memory_trial","2","maybe_old",""
"html-keyboard-response","71","336604","0.0-18.0-0.14","6374","approach_avoid_sv1","""event"",""trial"",""time""
""fullscreenenter"",""1"",""6203""
","
","
","""event"",""trial"",""time""
""fullscreenenter"",""1"",""6203""
","
","","","","","","null","<div style=""font-size:60px;"">+</div>","null","","fixation","","",""
"memory-trial","72","340133","0.0-18.0-1.14","6374","approach_avoid_sv1","""event"",""trial"",""time""
""fullscreenenter"",""1"",""6203""
","
","
","""event"",""trial"",""time""
""fullscreenenter"",""1"",""6203""
","
","","","","","","2520.2000000476837","images/apple3.png","","","memory_trial","2","maybe_old",""
"html-keyboard-response","73","340636","0.0-18.0-0.15","6374","approach_avoid_sv1","""event"",""trial"",""time""
""fullscreenenter"",""1"",""6203""
","
","
","""event"",""trial"",""time""
""fullscreenenter"",""1"",""6203""
","
","","","","","","null","<div style=""font-size:60px;"">+</div>","null","","fixation","","",""
"memory-trial","74","342900","0.0-18.0-1.15","6374","approach_avoid_sv1","""event"",""trial"",""time""
""fullscreenenter"",""1"",""6203""
","
","
","""event"",""trial"",""time""
""fullscreenenter"",""1"",""6203""
","
","","","","","","1259.3999999761581","images/banana6.png","","","memory_trial","2","maybe_old",""
"html-keyboard-response","75","343404","0.0-18.0-0.16","6374","approach_avoid_sv1","""event"",""trial"",""time""
""fullscreenenter"",""1"",""6203""
","
","
","""event"",""trial"",""time""
""fullscreenenter"",""1"",""6203""
","
","","","","","","null","<div style=""font-size:60px;"">+</div>","null","","fixation","","",""
"memory-trial","76","346388","0.0-18.0-1.16","6374","approach_avoid_sv1","""event"",""trial"",""time""
""fullscreenenter"",""1"",""6203""
","
","
","""event"",""trial"",""time""
""fullscreenenter"",""1"",""6203""
","
","","","","","","1977.7999999523163","images/boat7.png","","","memory_trial","3","maybe_new",""
"html-keyboard-response","77","346892","0.0-18.0-0.17","6374","approach_avoid_sv1","""event"",""trial"",""time""
""fullscreenenter"",""1"",""6203""
","
","
","""event"",""trial"",""time""
""fullscreenenter"",""1"",""6203""
","
","","","","","","null","<div style=""font-size:60px;"">+</div>","null","","fixation","","",""
"memory-trial","78","350660","0.0-18.0-1.17","6374","approach_avoid_sv1","""event"",""trial"",""time""
""fullscreenenter"",""1"",""6203""
","
","
","""event"",""trial"",""time""
""fullscreenenter"",""1"",""6203""
","
","","","","","","2760.399999976158","images/cow6.png","","","memory_trial","1","definitely_old",""
"html-keyboard-response","79","351164","0.0-18.0-0.18","6374","approach_avoid_sv1","""event"",""trial"",""time""
""fullscreenenter"",""1"",""6203""
","
","
","""event"",""trial"",""time""
""fullscreenenter"",""1"",""6203""
","
","","","","","","null","<div style=""font-size:60px;"">+</div>","null","","fixation","","",""
"memory-trial","80","355093","0.0-18.0-1.18","6374","approach_avoid_sv1","""event"",""trial"",""time""
""fullscreenenter"",""1"",""6203""
","
","
","""event"",""trial"",""time""
""fullscreenenter"",""1"",""6203""
","
","","","","","","2923.6999999284744","images/chair6.png","","","memory_trial","3","maybe_new",""
"html-keyboard-response","81","355597","0.0-18.0-0.19","6374","approach_avoid_sv1","""event"",""trial"",""time""
""fullscreenenter"",""1"",""6203""
","
","
","""event"",""trial"",""time""
""fullscreenenter"",""1"",""6203""
","
","","","","","","null","<div style=""font-size:60px;"">+</div>","null","","fixation","","",""
"memory-trial","82","358981","0.0-18.0-1.19","6374","approach_avoid_sv1","""event"",""trial"",""time""
""fullscreenenter"",""1"",""6203""
","
","
","""event"",""trial"",""time""
""fullscreenenter"",""1"",""6203""
","
","","","","","","2375.9000000953674","images/dog2.png","","","memory_trial","4","definitely_new",""
"html-keyboard-response","83","359485","0.0-18.0-0.20","6374","approach_avoid_sv1","""event"",""trial"",""time""
""fullscreenenter"",""1"",""6203""
","
","
","""event"",""trial"",""time""
""fullscreenenter"",""1"",""6203""
","
","","","","","","null","<div style=""font-size:60px;"">+</div>","null","","fixation","","",""
"memory-trial","84","363156","0.0-18.0-1.20","6374","approach_avoid_sv1","""event"",""trial"",""time""
""fullscreenenter"",""1"",""6203""
","
","
","""event"",""trial"",""time""
""fullscreenenter"",""1"",""6203""
","
","","","","","","2664.100000023842","images/cow5.png","","","memory_trial","1","definitely_old",""
"html-keyboard-response","85","363659","0.0-18.0-0.21","6374","approach_avoid_sv1","""event"",""trial"",""time""
""fullscreenenter"",""1"",""6203""
","
","
","""event"",""trial"",""time""
""fullscreenenter"",""1"",""6203""
","
","","","","","","null","<div style=""font-size:60px;"">+</div>","null","","fixation","","",""
"memory-trial","86","367668","0.0-18.0-1.21","6374","approach_avoid_sv1","""event"",""trial"",""time""
""fullscreenenter"",""1"",""6203""
","
","
","""event"",""trial"",""time""
""fullscreenenter"",""1"",""6203""
","
","","","","","","3003.2000000476837","images/apple5.png","","","memory_trial","2","maybe_old",""
"html-keyboard-response","87","368171","0.0-18.0-0.22","6374","approach_avoid_sv1","""event"",""trial"",""time""
""fullscreenenter"",""1"",""6203""
","
","
","""event"",""trial"",""time""
""fullscreenenter"",""1"",""6203""
","
","","","","","","null","<div style=""font-size:60px;"">+</div>","null","","fixation","","",""
"memory-trial","88","371956","0.0-18.0-1.22","6374","approach_avoid_sv1","""event"",""trial"",""time""
""fullscreenenter"",""1"",""6203""
","
","
","""event"",""trial"",""time""
""fullscreenenter"",""1"",""6203""
","
","","","","","","2777.1999999284744","images/cat1.png","","","memory_trial","3","maybe_new",""
"html-keyboard-response","89","372460","0.0-18.0-0.23","6374","approach_avoid_sv1","""event"",""trial"",""time""
""fullscreenenter"",""1"",""6203""
","
","
","""event"",""trial"",""time""
""fullscreenenter"",""1"",""6203""
","
","","","","","","null","<div style=""font-size:60px;"">+</div>","null","","fixation","","",""
"memory-trial","90","376660","0.0-18.0-1.23","6374","approach_avoid_sv1","""event"",""trial"",""time""
""fullscreenenter"",""1"",""6203""
","
","
","""event"",""trial"",""time""
""fullscreenenter"",""1"",""6203""
","
","","","","","","3190.7999999523163","images/banana8.png","","","memory_trial","1","definitely_old",""
"html-keyboard-response","91","377164","0.0-18.0-0.24","6374","approach_avoid_sv1","""event"",""trial"",""time""
""fullscreenenter"",""1"",""6203""
","
","
","""event"",""trial"",""time""
""fullscreenenter"",""1"",""6203""
","
","","","","","","null","<div style=""font-size:60px;"">+</div>","null","","fixation","","",""
"memory-trial","92","380724","0.0-18.0-1.24","6374","approach_avoid_sv1","""event"",""trial"",""time""
""fullscreenenter"",""1"",""6203""
","
","
","""event"",""trial"",""time""
""fullscreenenter"",""1"",""6203""
","
","","","","","","2554.5","images/rodent3.png","","","memory_trial","1","definitely_old",""
"html-keyboard-response","93","381228","0.0-18.0-0.25","6374","approach_avoid_sv1","""event"",""trial"",""time""
""fullscreenenter"",""1"",""6203""
","
","
","""event"",""trial"",""time""
""fullscreenenter"",""1"",""6203""
","
","","","","","","null","<div style=""font-size:60px;"">+</div>","null","","fixation","","",""
"memory-trial","94","384067","0.0-18.0-1.25","6374","approach_avoid_sv1","""event"",""trial"",""time""
""fullscreenenter"",""1"",""6203""
","
","
","""event"",""trial"",""time""
""fullscreenenter"",""1"",""6203""
","
","","","","","","1832.3999999761581","images/table8.png","","","memory_trial","3","maybe_new",""
"html-keyboard-response","95","384571","0.0-18.0-0.26","6374","approach_avoid_sv1","""event"",""trial"",""time""
""fullscreenenter"",""1"",""6203""
","
","
","""event"",""trial"",""time""
""fullscreenenter"",""1"",""6203""
","
","","","","","","null","<div style=""font-size:60px;"">+</div>","null","","fixation","","",""
"memory-trial","96","387572","0.0-18.0-1.26","6374","approach_avoid_sv1","""event"",""trial"",""time""
""fullscreenenter"",""1"",""6203""
","
","
","""event"",""trial"",""time""
""fullscreenenter"",""1"",""6203""
","
","","","","","","1992.2000000476837","images/plane7.png","","","memory_trial","2","maybe_old",""
"html-keyboard-response","97","388077","0.0-18.0-0.27","6374","approach_avoid_sv1","""event"",""trial"",""time""
""fullscreenenter"",""1"",""6203""
","
","
","""event"",""trial"",""time""
""fullscreenenter"",""1"",""6203""
","
","","","","","","null","<div style=""font-size:60px;"">+</div>","null","","fixation","","",""
"memory-trial","98","392504","0.0-18.0-1.27","6374","approach_avoid_sv1","""event"",""trial"",""time""
""fullscreenenter"",""1"",""6203""
","
","
","""event"",""trial"",""time""
""fullscreenenter"",""1"",""6203""
","
","","","","","","3418.899999976158","images/apple2.png","","","memory_trial","1","definitely_old",""
"html-keyboard-response","99","393012","0.0-18.0-0.28","6374","approach_avoid_sv1","""event"",""trial"",""time""
""fullscreenenter"",""1"",""6203""
","
","
","""event"",""trial"",""time""
""fullscreenenter"",""1"",""6203""
","
","","","","","","null","<div style=""font-size:60px;"">+</div>","null","","fixation","","",""
"memory-trial","100","395380","0.0-18.0-1.28","6374","approach_avoid_sv1","""event"",""trial"",""time""
""fullscreenenter"",""1"",""6203""
","
","
","""event"",""trial"",""time""
""fullscreenenter"",""1"",""6203""
","
","","","","","","1359.3999999761581","images/bush8.png","","","memory_trial","1","definitely_old",""
"html-keyboard-response","101","395884","0.0-18.0-0.29","6374","approach_avoid_sv1","""event"",""trial"",""time""
""fullscreenenter"",""1"",""6203""
","
","
","""event"",""trial"",""time""
""fullscreenenter"",""1"",""6203""
","
","","","","","","null","<div style=""font-size:60px;"">+</div>","null","","fixation","","",""
"memory-trial","102","398628","0.0-18.0-1.29","6374","approach_avoid_sv1","""event"",""trial"",""time""
""fullscreenenter"",""1"",""6203""
","
","
","""event"",""trial"",""time""
""fullscreenenter"",""1"",""6203""
","
","","","","","","1736.5","images/straw7.png","","","memory_trial","3","maybe_new",""
"html-keyboard-response","103","399132","0.0-18.0-0.30","6374","approach_avoid_sv1","""event"",""trial"",""time""
""fullscreenenter"",""1"",""6203""
","
","
","""event"",""trial"",""time""
""fullscreenenter"",""1"",""6203""
","
","","","","","","null","<div style=""font-size:60px;"">+</div>","null","","fixation","","",""
"memory-trial","104","402052","0.0-18.0-1.30","6374","approach_avoid_sv1","""event"",""trial"",""time""
""fullscreenenter"",""1"",""6203""
","
","
","""event"",""trial"",""time""
""fullscreenenter"",""1"",""6203""
","
","","","","","","1912.0999999046326","images/truck4.png","","","memory_trial","4","definitely_new",""
"html-keyboard-response","105","402556","0.0-18.0-0.31","6374","approach_avoid_sv1","""event"",""trial"",""time""
""fullscreenenter"",""1"",""6203""
","
","
","""event"",""trial"",""time""
""fullscreenenter"",""1"",""6203""
","
","","","","","","null","<div style=""font-size:60px;"">+</div>","null","","fixation","","",""
"memory-trial","106","405092","0.0-18.0-1.31","6374","approach_avoid_sv1","""event"",""trial"",""time""
""fullscreenenter"",""1"",""6203""
","
","
","""event"",""trial"",""time""
""fullscreenenter"",""1"",""6203""
","
","","","","","","1529.7000000476837","images/straw1.png","","","memory_trial","3","maybe_new",""
"html-keyboard-response","107","405596","0.0-18.0-0.32","6374","approach_avoid_sv1","""event"",""trial"",""time""
""fullscreenenter"",""1"",""6203""
","
","
","""event"",""trial"",""time""
""fullscreenenter"",""1"",""6203""
","
","","","","","","null","<div style=""font-size:60px;"">+</div>","null","","fixation","","",""
"memory-trial","108","407733","0.0-18.0-1.32","6374","approach_avoid_sv1","""event"",""trial"",""time""
""fullscreenenter"",""1"",""6203""
","
","
","""event"",""trial"",""time""
""fullscreenenter"",""1"",""6203""
","
","","","","","","1128.7000000476837","images/cat6.png","","","memory_trial","4","definitely_new",""
"html-keyboard-response","109","408235","0.0-18.0-0.33","6374","approach_avoid_sv1","""event"",""trial"",""time""
""fullscreenenter"",""1"",""6203""
","
","
","""event"",""trial"",""time""
""fullscreenenter"",""1"",""6203""
","
","","","","","","null","<div style=""font-size:60px;"">+</div>","null","","fixation","","",""
"memory-trial","110","411284","0.0-18.0-1.33","6374","approach_avoid_sv1","""event"",""trial"",""time""
""fullscreenenter"",""1"",""6203""
","
","
","""event"",""trial"",""time""
""fullscreenenter"",""1"",""6203""
","
","","","","","","2042.3999999761581","images/cactus2.png","","","memory_trial","1","definitely_old",""
"html-keyboard-response","111","411788","0.0-18.0-0.34","6374","approach_avoid_sv1","""event"",""trial"",""time""
""fullscreenenter"",""1"",""6203""
","
","
","""event"",""trial"",""time""
""fullscreenenter"",""1"",""6203""
","
","","","","","","null","<div style=""font-size:60px;"">+</div>","null","","fixation","","",""
"memory-trial","112","413797","0.0-18.0-1.34","6374","approach_avoid_sv1","""event"",""trial"",""time""
""fullscreenenter"",""1"",""6203""
","
","
","""event"",""trial"",""time""
""fullscreenenter"",""1"",""6203""
","
","","","","","","1001.3000000715256","images/flower2.png","","","memory_trial","1","definitely_old",""
"html-keyboard-response","113","414300","0.0-18.0-0.35","6374","approach_avoid_sv1","""event"",""trial"",""time""
""fullscreenenter"",""1"",""6203""
","
","
","""event"",""trial"",""time""
""fullscreenenter"",""1"",""6203""
","
","","","","","","null","<div style=""font-size:60px;"">+</div>","null","","fixation","","",""
"memory-trial","114","418084","0.0-18.0-1.35","6374","approach_avoid_sv1","""event"",""trial"",""time""
""fullscreenenter"",""1"",""6203""
","
","
","""event"",""trial"",""time""
""fullscreenenter"",""1"",""6203""
","
","","","","","","2778.2999999523163","images/plane8.png","","","memory_trial","3","maybe_new",""
"html-keyboard-response","115","418588","0.0-18.0-0.36","6374","approach_avoid_sv1","""event"",""trial"",""time""
""fullscreenenter"",""1"",""6203""
","
","
","""event"",""trial"",""time""
""fullscreenenter"",""1"",""6203""
","
","","","","","","null","<div style=""font-size:60px;"">+</div>","null","","fixation","","",""
"memory-trial","116","421604","0.0-18.0-1.36","6374","approach_avoid_sv1","""event"",""trial"",""time""
""fullscreenenter"",""1"",""6203""
","
","
","""event"",""trial"",""time""
""fullscreenenter"",""1"",""6203""
","
","","","","","","2008.8999999761581","images/table4.png","","","memory_trial","4","definitely_new",""
"html-keyboard-response","117","422107","0.0-18.0-0.37","6374","approach_avoid_sv1","""event"",""trial"",""time""
""fullscreenenter"",""1"",""6203""
","
","
","""event"",""trial"",""time""
""fullscreenenter"",""1"",""6203""
","
","","","","","","null","<div style=""font-size:60px;"">+</div>","null","","fixation","","",""
"memory-trial","118","425251","0.0-18.0-1.37","6374","approach_avoid_sv1","""event"",""trial"",""time""
""fullscreenenter"",""1"",""6203""
","
","
","""event"",""trial"",""time""
""fullscreenenter"",""1"",""6203""
","
","","","","","","2137.5","images/truck5.png","","","memory_trial","3","maybe_new",""
"html-keyboard-response","119","425757","0.0-18.0-0.38","6374","approach_avoid_sv1","""event"",""trial"",""time""
""fullscreenenter"",""1"",""6203""
","
","
","""event"",""trial"",""time""
""fullscreenenter"",""1"",""6203""
","
","","","","","","null","<div style=""font-size:60px;"">+</div>","null","","fixation","","",""
"memory-trial","120","428564","0.0-18.0-1.38","6374","approach_avoid_sv1","""event"",""trial"",""time""
""fullscreenenter"",""1"",""6203""
","
","
","""event"",""trial"",""time""
""fullscreenenter"",""1"",""6203""
","
","","","","","","1801.1000000238419","images/sofa8.png","","","memory_trial","4","definitely_new",""
"html-keyboard-response","121","429068","0.0-18.0-0.39","6374","approach_avoid_sv1","""event"",""trial"",""time""
""fullscreenenter"",""1"",""6203""
","
","
","""event"",""trial"",""time""
""fullscreenenter"",""1"",""6203""
","
","","","","","","null","<div style=""font-size:60px;"">+</div>","null","","fixation","","",""
"memory-trial","122","433012","0.0-18.0-1.39","6374","approach_avoid_sv1","""event"",""trial"",""time""
""fullscreenenter"",""1"",""6203""
","
","
","""event"",""trial"",""time""
""fullscreenenter"",""1"",""6203""
","
","","","","","","2936.8000000715256","images/plane4.png","","","memory_trial","2","maybe_old",""
"html-keyboard-response","123","433516","0.0-18.0-0.40","6374","approach_avoid_sv1","""event"",""trial"",""time""
""fullscreenenter"",""1"",""6203""
","
","
","""event"",""trial"",""time""
""fullscreenenter"",""1"",""6203""
","
","","","","","","null","<div style=""font-size:60px;"">+</div>","null","","fixation","","",""
"memory-trial","124","437892","0.0-18.0-1.40","6374","approach_avoid_sv1","""event"",""trial"",""time""
""fullscreenenter"",""1"",""6203""
","
","
","""event"",""trial"",""time""
""fullscreenenter"",""1"",""6203""
","
","","","","","","3368.899999976158","images/cow3.png","","","memory_trial","3","maybe_new",""
"html-keyboard-response","125","438396","0.0-18.0-0.41","6374","approach_avoid_sv1","""event"",""trial"",""time""
""fullscreenenter"",""1"",""6203""
","
","
","""event"",""trial"",""time""
""fullscreenenter"",""1"",""6203""
","
","","","","","","null","<div style=""font-size:60px;"">+</div>","null","","fixation","","",""
"memory-trial","126","443397","0.0-18.0-1.41","6374","approach_avoid_sv1","""event"",""trial"",""time""
""fullscreenenter"",""1"",""6203""
","
","
","""event"",""trial"",""time""
""fullscreenenter"",""1"",""6203""
","
","","","","","","3993.5","images/rabbit8.png","","","memory_trial","2","maybe_old",""
"html-button-response","127","485245","0.0-18.0-2.41-0.41","6374","approach_avoid_sv1","""event"",""trial"",""time""
""fullscreenenter"",""1"",""6203""
","
","
","""event"",""trial"",""time""
""fullscreenenter"",""1"",""6203""
","
","","","","","","41848.39999997616","<p> Take a break! </p><p> Click the button to continue. </p>","0","","break","","",""
"html-keyboard-response","128","485748","0.0-18.0-0.42","6374","approach_avoid_sv1","""event"",""trial"",""time""
""fullscreenenter"",""1"",""6203""
","
","
","""event"",""trial"",""time""
""fullscreenenter"",""1"",""6203""
","
","","","","","","null","<div style=""font-size:60px;"">+</div>","null","","fixation","","",""
"memory-trial","129","490851","0.0-18.0-1.42","6374","approach_avoid_sv1","""event"",""trial"",""time""
""fullscreenenter"",""1"",""6203""
","
","
","""event"",""trial"",""time""
""fullscreenenter"",""1"",""6203""
","
","","","","","","4096.200000047684","images/orange5.png","","","memory_trial","2","maybe_old",""
"html-keyboard-response","130","491356","0.0-18.0-0.43","6374","approach_avoid_sv1","""event"",""trial"",""time""
""fullscreenenter"",""1"",""6203""
","
","
","""event"",""trial"",""time""
""fullscreenenter"",""1"",""6203""
","
","","","","","","null","<div style=""font-size:60px;"">+</div>","null","","fixation","","",""
"memory-trial","131","494803","0.0-18.0-1.43","6374","approach_avoid_sv1","""event"",""trial"",""time""
""fullscreenenter"",""1"",""6203""
","
","
","""event"",""trial"",""time""
""fullscreenenter"",""1"",""6203""
","
","","","","","","2439.2999999523163","images/sofa6.png","","","memory_trial","3","maybe_new",""
"html-keyboard-response","132","495308","0.0-18.0-0.44","6374","approach_avoid_sv1","""event"",""trial"",""time""
""fullscreenenter"",""1"",""6203""
","
","
","""event"",""trial"",""time""
""fullscreenenter"",""1"",""6203""
","
","","","","","","null","<div style=""font-size:60px;"">+</div>","null","","fixation","","",""
"memory-trial","133","498644","0.0-18.0-1.44","6374","approach_avoid_sv1","""event"",""trial"",""time""
""fullscreenenter"",""1"",""6203""
","
","
","""event"",""trial"",""time""
""fullscreenenter"",""1"",""6203""
","
","","","","","","2329.5","images/dog7.png","","","memory_trial","2","maybe_old",""
"html-keyboard-response","134","499148","0.0-18.0-0.45","6374","approach_avoid_sv1","""event"",""trial"",""time""
""fullscreenenter"",""1"",""6203""
","
","
","""event"",""trial"",""time""
""fullscreenenter"",""1"",""6203""
","
","","","","","","null","<div style=""font-size:60px;"">+</div>","null","","fixation","","",""
"memory-trial","135","503203","0.0-18.0-1.45","6374","approach_avoid_sv1","""event"",""trial"",""time""
""fullscreenenter"",""1"",""6203""
","
","
","""event"",""trial"",""time""
""fullscreenenter"",""1"",""6203""
","
","","","","","","3048.100000023842","images/bush7.png","","","memory_trial","3","maybe_new",""
"html-keyboard-response","136","503720","0.0-18.0-0.46","6374","approach_avoid_sv1","""event"",""trial"",""time""
""fullscreenenter"",""1"",""6203""
","
","
","""event"",""trial"",""time""
""fullscreenenter"",""1"",""6203""
","
","","","","","","null","<div style=""font-size:60px;"">+</div>","null","","fixation","","",""
"memory-trial","137","507028","0.0-18.0-1.46","6374","approach_avoid_sv1","""event"",""trial"",""time""
""fullscreenenter"",""1"",""6203""
","
","
","""event"",""trial"",""time""
""fullscreenenter"",""1"",""6203""
","
","","","","","","2300.600000023842","images/goat5.png","","","memory_trial","1","definitely_old",""
"html-keyboard-response","138","507532","0.0-18.0-0.47","6374","approach_avoid_sv1","""event"",""trial"",""time""
""fullscreenenter"",""1"",""6203""
","
","
","""event"",""trial"",""time""
""fullscreenenter"",""1"",""6203""
","
","","","","","","null","<div style=""font-size:60px;"">+</div>","null","","fixation","","",""
"memory-trial","139","512243","0.0-18.0-1.47","6374","approach_avoid_sv1","""event"",""trial"",""time""
""fullscreenenter"",""1"",""6203""
","
","
","""event"",""trial"",""time""
""fullscreenenter"",""1"",""6203""
","
","","","","","","3705.2999999523163","images/bed3.png","","","memory_trial","2","maybe_old",""
"html-keyboard-response","140","512748","0.0-18.0-0.48","6374","approach_avoid_sv1","""event"",""trial"",""time""
""fullscreenenter"",""1"",""6203""
","
","
","""event"",""trial"",""time""
""fullscreenenter"",""1"",""6203""
","
","","","","","","null","<div style=""font-size:60px;"">+</div>","null","","fixation","","",""
"memory-trial","141","516339","0.0-18.0-1.48","6374","approach_avoid_sv1","""event"",""trial"",""time""
""fullscreenenter"",""1"",""6203""
","
","
","""event"",""trial"",""time""
""fullscreenenter"",""1"",""6203""
","
","","","","","","2584.3000000715256","images/chair3.png","","","memory_trial","1","definitely_old",""
"html-keyboard-response","142","516844","0.0-18.0-0.49","6374","approach_avoid_sv1","""event"",""trial"",""time""
""fullscreenenter"",""1"",""6203""
","
","
","""event"",""trial"",""time""
""fullscreenenter"",""1"",""6203""
","
","","","","","","null","<div style=""font-size:60px;"">+</div>","null","","fixation","","",""
"memory-trial","143","519363","0.0-18.0-1.49","6374","approach_avoid_sv1","""event"",""trial"",""time""
""fullscreenenter"",""1"",""6203""
","
","
","""event"",""trial"",""time""
""fullscreenenter"",""1"",""6203""
","
","","","","","","1512.4000000953674","images/train1.png","","","memory_trial","1","definitely_old",""
"html-keyboard-response","144","519867","0.0-18.0-0.50","6374","approach_avoid_sv1","""event"",""trial"",""time""
""fullscreenenter"",""1"",""6203""
","
","
","""event"",""trial"",""time""
""fullscreenenter"",""1"",""6203""
","
","","","","","","null","<div style=""font-size:60px;"">+</div>","null","","fixation","","",""
"memory-trial","145","521843","0.0-18.0-1.50","6374","approach_avoid_sv1","""event"",""trial"",""time""
""fullscreenenter"",""1"",""6203""
","
","
","""event"",""trial"",""time""
""fullscreenenter"",""1"",""6203""
","
","","","","","","969.3999999761581","images/bed6.png","","","memory_trial","1","definitely_old",""
"html-keyboard-response","146","522348","0.0-18.0-0.51","6374","approach_avoid_sv1","""event"",""trial"",""time""
""fullscreenenter"",""1"",""6203""
","
","
","""event"",""trial"",""time""
""fullscreenenter"",""1"",""6203""
","
","","","","","","null","<div style=""font-size:60px;"">+</div>","null","","fixation","","",""
"memory-trial","147","525300","0.0-18.0-1.51","6374","approach_avoid_sv1","""event"",""trial"",""time""
""fullscreenenter"",""1"",""6203""
","
","
","""event"",""trial"",""time""
""fullscreenenter"",""1"",""6203""
","
","","","","","","1945.8000000715256","images/chair7.png","","","memory_trial","4","definitely_new",""
"html-keyboard-response","148","525803","0.0-18.0-0.52","6374","approach_avoid_sv1","""event"",""trial"",""time""
""fullscreenenter"",""1"",""6203""
","
","
","""event"",""trial"",""time""
""fullscreenenter"",""1"",""6203""
","
","","","","","","null","<div style=""font-size:60px;"">+</div>","null","","fixation","","",""
"memory-trial","149","529523","0.0-18.0-1.52","6374","approach_avoid_sv1","""event"",""trial"",""time""
""fullscreenenter"",""1"",""6203""
","
","
","""event"",""trial"",""time""
""fullscreenenter"",""1"",""6203""
","
","","","","","","2713.5","images/rodent5.png","","","memory_trial","4","definitely_new",""
"html-keyboard-response","150","530027","0.0-18.0-0.53","6374","approach_avoid_sv1","""event"",""trial"",""time""
""fullscreenenter"",""1"",""6203""
","
","
","""event"",""trial"",""time""
""fullscreenenter"",""1"",""6203""
","
","","","","","","null","<div style=""font-size:60px;"">+</div>","null","","fixation","","",""
"memory-trial","151","532067","0.0-18.0-1.53","6374","approach_avoid_sv1","""event"",""trial"",""time""
""fullscreenenter"",""1"",""6203""
","
","
","""event"",""trial"",""time""
""fullscreenenter"",""1"",""6203""
","
","","","","","","1033.5","images/cat2.png","","","memory_trial","4","definitely_new",""
"html-keyboard-response","152","532571","0.0-18.0-0.54","6374","approach_avoid_sv1","""event"",""trial"",""time""
""fullscreenenter"",""1"",""6203""
","
","
","""event"",""trial"",""time""
""fullscreenenter"",""1"",""6203""
","
","","","","","","null","<div style=""font-size:60px;"">+</div>","null","","fixation","","",""
"memory-trial","153","535907","0.0-18.0-1.54","6374","approach_avoid_sv1","""event"",""trial"",""time""
""fullscreenenter"",""1"",""6203""
","
","
","""event"",""trial"",""time""
""fullscreenenter"",""1"",""6203""
","
","","","","","","2330.1999999284744","images/goat7.png","","","memory_trial","4","definitely_new",""
"html-keyboard-response","154","536412","0.0-18.0-0.55","6374","approach_avoid_sv1","""event"",""trial"",""time""
""fullscreenenter"",""1"",""6203""
","
","
","""event"",""trial"",""time""
""fullscreenenter"",""1"",""6203""
","
","","","","","","null","<div style=""font-size:60px;"">+</div>","null","","fixation","","",""
"memory-trial","155","540099","0.0-18.0-1.55","6374","approach_avoid_sv1","""event"",""trial"",""time""
""fullscreenenter"",""1"",""6203""
","
","
","""event"",""trial"",""time""
""fullscreenenter"",""1"",""6203""
","
","","","","","","2680.399999976158","images/apple8.png","","","memory_trial","2","maybe_old",""
"html-keyboard-response","156","540604","0.0-18.0-0.56","6374","approach_avoid_sv1","""event"",""trial"",""time""
""fullscreenenter"",""1"",""6203""
","
","
","""event"",""trial"",""time""
""fullscreenenter"",""1"",""6203""
","
","","","","","","null","<div style=""font-size:60px;"">+</div>","null","","fixation","","",""
"memory-trial","157","543299","0.0-18.0-1.56","6374","approach_avoid_sv1","""event"",""trial"",""time""
""fullscreenenter"",""1"",""6203""
","
","
","""event"",""trial"",""time""
""fullscreenenter"",""1"",""6203""
","
","","","","","","1688.2999999523163","images/chair8.png","","","memory_trial","4","definitely_new",""
"html-keyboard-response","158","543804","0.0-18.0-0.57","6374","approach_avoid_sv1","""event"",""trial"",""time""
""fullscreenenter"",""1"",""6203""
","
","
","""event"",""trial"",""time""
""fullscreenenter"",""1"",""6203""
","
","","","","","","null","<div style=""font-size:60px;"">+</div>","null","","fixation","","",""
"memory-trial","159","547223","0.0-18.0-1.57","6374","approach_avoid_sv1","""event"",""trial"",""time""
""fullscreenenter"",""1"",""6203""
","
","
","""event"",""trial"",""time""
""fullscreenenter"",""1"",""6203""
","
","","","","","","2409.899999976158","images/apple4.png","","","memory_trial","4","definitely_new",""
"html-keyboard-response","160","547732","0.0-18.0-0.58","6374","approach_avoid_sv1","""event"",""trial"",""time""
""fullscreenenter"",""1"",""6203""
","
","
","""event"",""trial"",""time""
""fullscreenenter"",""1"",""6203""
","
","","","","","","null","<div style=""font-size:60px;"">+</div>","null","","fixation","","",""
"memory-trial","161","551061","0.0-18.0-1.58","6374","approach_avoid_sv1","""event"",""trial"",""time""
""fullscreenenter"",""1"",""6203""
","
","
","""event"",""trial"",""time""
""fullscreenenter"",""1"",""6203""
","
","","","","","","2320.7000000476837","images/rodent1.png","","","memory_trial","2","maybe_old",""
"html-keyboard-response","162","551565","0.0-18.0-0.59","6374","approach_avoid_sv1","""event"",""trial"",""time""
""fullscreenenter"",""1"",""6203""
","
","
","""event"",""trial"",""time""
""fullscreenenter"",""1"",""6203""
","
","","","","","","null","<div style=""font-size:60px;"">+</div>","null","","fixation","","",""
"memory-trial","163","554260","0.0-18.0-1.59","6374","approach_avoid_sv1","""event"",""trial"",""time""
""fullscreenenter"",""1"",""6203""
","
","
","""event"",""trial"",""time""
""fullscreenenter"",""1"",""6203""
","
","","","","","","1688.2000000476837","images/dog6.png","","","memory_trial","1","definitely_old",""
"html-keyboard-response","164","554765","0.0-18.0-0.60","6374","approach_avoid_sv1","""event"",""trial"",""time""
""fullscreenenter"",""1"",""6203""
","
","
","""event"",""trial"",""time""
""fullscreenenter"",""1"",""6203""
","
","","","","","","null","<div style=""font-size:60px;"">+</div>","null","","fixation","","",""
"memory-trial","165","557556","0.0-18.0-1.60","6374","approach_avoid_sv1","""event"",""trial"",""time""
""fullscreenenter"",""1"",""6203""
","
","
","""event"",""trial"",""time""
""fullscreenenter"",""1"",""6203""
","
","","","","","","1785.8999999761581","images/horse5.png","","","memory_trial","1","definitely_old",""
"html-keyboard-response","166","558060","0.0-18.0-0.61","6374","approach_avoid_sv1","""event"",""trial"",""time""
""fullscreenenter"",""1"",""6203""
","
","
","""event"",""trial"",""time""
""fullscreenenter"",""1"",""6203""
","
","","","","","","null","<div style=""font-size:60px;"">+</div>","null","","fixation","","",""
"memory-trial","167","561141","0.0-18.0-1.61","6374","approach_avoid_sv1","""event"",""trial"",""time""
""fullscreenenter"",""1"",""6203""
","
","
","""event"",""trial"",""time""
""fullscreenenter"",""1"",""6203""
","
","","","","","","2073.2999999523163","images/bush3.png","","","memory_trial","4","definitely_new",""
"html-keyboard-response","168","561645","0.0-18.0-0.62","6374","approach_avoid_sv1","""event"",""trial"",""time""
""fullscreenenter"",""1"",""6203""
","
","
","""event"",""trial"",""time""
""fullscreenenter"",""1"",""6203""
","
","","","","","","null","<div style=""font-size:60px;"">+</div>","null","","fixation","","",""
"memory-trial","169","565284","0.0-18.0-1.62","6374","approach_avoid_sv1","""event"",""trial"",""time""
""fullscreenenter"",""1"",""6203""
","
","
","""event"",""trial"",""time""
""fullscreenenter"",""1"",""6203""
","
","","","","","","2632.4000000953674","images/orange4.png","","","memory_trial","1","definitely_old",""
"html-keyboard-response","170","565788","0.0-18.0-0.63","6374","approach_avoid_sv1","""event"",""trial"",""time""
""fullscreenenter"",""1"",""6203""
","
","
","""event"",""trial"",""time""
""fullscreenenter"",""1"",""6203""
","
","","","","","","null","<div style=""font-size:60px;"">+</div>","null","","fixation","","",""
"memory-trial","171","568981","0.0-18.0-1.63","6374","approach_avoid_sv1","""event"",""trial"",""time""
""fullscreenenter"",""1"",""6203""
","
","
","""event"",""trial"",""time""
""fullscreenenter"",""1"",""6203""
","
","","","","","","2186.1999999284744","images/bush5.png","","","memory_trial","3","maybe_new",""
"html-keyboard-response","172","569485","0.0-18.0-0.64","6374","approach_avoid_sv1","""event"",""trial"",""time""
""fullscreenenter"",""1"",""6203""
","
","
","""event"",""trial"",""time""
""fullscreenenter"",""1"",""6203""
","
","","","","","","null","<div style=""font-size:60px;"">+</div>","null","","fixation","","",""
"memory-trial","173","572372","0.0-18.0-1.64","6374","approach_avoid_sv1","""event"",""trial"",""time""
""fullscreenenter"",""1"",""6203""
","
","
","""event"",""trial"",""time""
""fullscreenenter"",""1"",""6203""
","
","","","","","","1879.8999999761581","images/rodent8.png","","","memory_trial","3","maybe_new",""
"html-keyboard-response","174","572876","0.0-18.0-0.65","6374","approach_avoid_sv1","""event"",""trial"",""time""
""fullscreenenter"",""1"",""6203""
","
","
","""event"",""trial"",""time""
""fullscreenenter"",""1"",""6203""
","
","","","","","","null","<div style=""font-size:60px;"">+</div>","null","","fixation","","",""
"memory-trial","175","576034","0.0-18.0-1.65","6374","approach_avoid_sv1","""event"",""trial"",""time""
""fullscreenenter"",""1"",""6203""
","
","
","""event"",""trial"",""time""
""fullscreenenter"",""1"",""6203""
","
","","","","","","2136.7000000476837","images/train4.png","","","memory_trial","1","definitely_old",""
"html-keyboard-response","176","576540","0.0-18.0-0.66","6374","approach_avoid_sv1","""event"",""trial"",""time""
""fullscreenenter"",""1"",""6203""
","
","
","""event"",""trial"",""time""
""fullscreenenter"",""1"",""6203""
","
","","","","","","null","<div style=""font-size:60px;"">+</div>","null","","fixation","","",""
"memory-trial","177","580356","0.0-18.0-1.66","6374","approach_avoid_sv1","""event"",""trial"",""time""
""fullscreenenter"",""1"",""6203""
","
","
","""event"",""trial"",""time""
""fullscreenenter"",""1"",""6203""
","
","","","","","","2811.100000023842","images/banana7.png","","","memory_trial","3","maybe_new",""
"html-keyboard-response","178","580861","0.0-18.0-0.67","6374","approach_avoid_sv1","""event"",""trial"",""time""
""fullscreenenter"",""1"",""6203""
","
","
","""event"",""trial"",""time""
""fullscreenenter"",""1"",""6203""
","
","","","","","","null","<div style=""font-size:60px;"">+</div>","null","","fixation","","",""
"memory-trial","179","584596","0.0-18.0-1.67","6374","approach_avoid_sv1","""event"",""trial"",""time""
""fullscreenenter"",""1"",""6203""
","
","
","""event"",""trial"",""time""
""fullscreenenter"",""1"",""6203""
","
","","","","","","2728.3000000715256","images/boat2.png","","","memory_trial","4","definitely_new",""
"html-keyboard-response","180","585100","0.0-18.0-0.68","6374","approach_avoid_sv1","""event"",""trial"",""time""
""fullscreenenter"",""1"",""6203""
","
","
","""event"",""trial"",""time""
""fullscreenenter"",""1"",""6203""
","
","","","","","","null","<div style=""font-size:60px;"">+</div>","null","","fixation","","",""
"memory-trial","181","588580","0.0-18.0-1.68","6374","approach_avoid_sv1","""event"",""trial"",""time""
""fullscreenenter"",""1"",""6203""
","
","
","""event"",""trial"",""time""
""fullscreenenter"",""1"",""6203""
","
","","","","","","2472.899999976158","images/apple6.png","","","memory_trial","2","maybe_old",""
"html-keyboard-response","182","589084","0.0-18.0-0.69","6374","approach_avoid_sv1","""event"",""trial"",""time""
""fullscreenenter"",""1"",""6203""
","
","
","""event"",""trial"",""time""
""fullscreenenter"",""1"",""6203""
","
","","","","","","null","<div style=""font-size:60px;"">+</div>","null","","fixation","","",""
"memory-trial","183","592131","0.0-18.0-1.69","6374","approach_avoid_sv1","""event"",""trial"",""time""
""fullscreenenter"",""1"",""6203""
","
","
","""event"",""trial"",""time""
""fullscreenenter"",""1"",""6203""
","
","","","","","","2042","images/tree2.png","","","memory_trial","4","definitely_new",""
"html-keyboard-response","184","592636","0.0-18.0-0.70","6374","approach_avoid_sv1","""event"",""trial"",""time""
""fullscreenenter"",""1"",""6203""
","
","
","""event"",""trial"",""time""
""fullscreenenter"",""1"",""6203""
","
","","","","","","null","<div style=""font-size:60px;"">+</div>","null","","fixation","","",""
"memory-trial","185","595316","0.0-18.0-1.70","6374","approach_avoid_sv1","""event"",""trial"",""time""
""fullscreenenter"",""1"",""6203""
","
","
","""event"",""trial"",""time""
""fullscreenenter"",""1"",""6203""
","
","","","","","","1673","images/rabbit2.png","","","memory_trial","1","definitely_old",""
"html-keyboard-response","186","595820","0.0-18.0-0.71","6374","approach_avoid_sv1","""event"",""trial"",""time""
""fullscreenenter"",""1"",""6203""
","
","
","""event"",""trial"",""time""
""fullscreenenter"",""1"",""6203""
","
","","","","","","null","<div style=""font-size:60px;"">+</div>","null","","fixation","","",""
"memory-trial","187","598244","0.0-18.0-1.71","6374","approach_avoid_sv1","""event"",""trial"",""time""
""fullscreenenter"",""1"",""6203""
","
","
","""event"",""trial"",""time""
""fullscreenenter"",""1"",""6203""
","
","","","","","","1417.5","images/bush1.png","","","memory_trial","1","definitely_old",""
"html-keyboard-response","188","598749","0.0-18.0-0.72","6374","approach_avoid_sv1","""event"",""trial"",""time""
""fullscreenenter"",""1"",""6203""
","
","
","""event"",""trial"",""time""
""fullscreenenter"",""1"",""6203""
","
","","","","","","null","<div style=""font-size:60px;"">+</div>","null","","fixation","","",""
"memory-trial","189","601572","0.0-18.0-1.72","6374","approach_avoid_sv1","""event"",""trial"",""time""
""fullscreenenter"",""1"",""6203""
","
","
","""event"",""trial"",""time""
""fullscreenenter"",""1"",""6203""
","
","","","","","","1816.2999999523163","images/cow8.png","","","memory_trial","1","definitely_old",""
"html-keyboard-response","190","602076","0.0-18.0-0.73","6374","approach_avoid_sv1","""event"",""trial"",""time""
""fullscreenenter"",""1"",""6203""
","
","
","""event"",""trial"",""time""
""fullscreenenter"",""1"",""6203""
","
","","","","","","null","<div style=""font-size:60px;"">+</div>","null","","fixation","","",""
"memory-trial","191","605092","0.0-18.0-1.73","6374","approach_avoid_sv1","""event"",""trial"",""time""
""fullscreenenter"",""1"",""6203""
","
","
","""event"",""trial"",""time""
""fullscreenenter"",""1"",""6203""
","
","","","","","","2010.1000000238419","images/bed2.png","","","memory_trial","4","definitely_new",""
"html-keyboard-response","192","605596","0.0-18.0-0.74","6374","approach_avoid_sv1","""event"",""trial"",""time""
""fullscreenenter"",""1"",""6203""
","
","
","""event"",""trial"",""time""
""fullscreenenter"",""1"",""6203""
","
","","","","","","null","<div style=""font-size:60px;"">+</div>","null","","fixation","","",""
"memory-trial","193","608868","0.0-18.0-1.74","6374","approach_avoid_sv1","""event"",""trial"",""time""
""fullscreenenter"",""1"",""6203""
","
","
","""event"",""trial"",""time""
""fullscreenenter"",""1"",""6203""
","
","","","","","","2265.2000000476837","images/bed8.png","","","memory_trial","3","maybe_new",""
"html-keyboard-response","194","609372","0.0-18.0-0.75","6374","approach_avoid_sv1","""event"",""trial"",""time""
""fullscreenenter"",""1"",""6203""
","
","
","""event"",""trial"",""time""
""fullscreenenter"",""1"",""6203""
","
","","","","","","null","<div style=""font-size:60px;"">+</div>","null","","fixation","","",""
"memory-trial","195","611892","0.0-18.0-1.75","6374","approach_avoid_sv1","""event"",""trial"",""time""
""fullscreenenter"",""1"",""6203""
","
","
","""event"",""trial"",""time""
""fullscreenenter"",""1"",""6203""
","
","","","","","","1512.7000000476837","images/sofa2.png","","","memory_trial","3","maybe_new",""
"html-keyboard-response","196","612396","0.0-18.0-0.76","6374","approach_avoid_sv1","""event"",""trial"",""time""
""fullscreenenter"",""1"",""6203""
","
","
","""event"",""trial"",""time""
""fullscreenenter"",""1"",""6203""
","
","","","","","","null","<div style=""font-size:60px;"">+</div>","null","","fixation","","",""
"memory-trial","197","615365","0.0-18.0-1.76","6374","approach_avoid_sv1","""event"",""trial"",""time""
""fullscreenenter"",""1"",""6203""
","
","
","""event"",""trial"",""time""
""fullscreenenter"",""1"",""6203""
","
","","","","","","1962.2000000476837","images/tree5.png","","","memory_trial","4","definitely_new",""
"html-keyboard-response","198","615867","0.0-18.0-0.77","6374","approach_avoid_sv1","""event"",""trial"",""time""
""fullscreenenter"",""1"",""6203""
","
","
","""event"",""trial"",""time""
""fullscreenenter"",""1"",""6203""
","
","","","","","","null","<div style=""font-size:60px;"">+</div>","null","","fixation","","",""
"memory-trial","199","618479","0.0-18.0-1.77","6374","approach_avoid_sv1","""event"",""trial"",""time""
""fullscreenenter"",""1"",""6203""
","
","
","""event"",""trial"",""time""
""fullscreenenter"",""1"",""6203""
","
","","","","","","1593.6000000238419","images/sofa3.png","","","memory_trial","3","maybe_new",""
"html-keyboard-response","200","618988","0.0-18.0-0.78","6374","approach_avoid_sv1","""event"",""trial"",""time""
""fullscreenenter"",""1"",""6203""
","
","
","""event"",""trial"",""time""
""fullscreenenter"",""1"",""6203""
","
","","","","","","null","<div style=""font-size:60px;"">+</div>","null","","fixation","","",""
"memory-trial","201","621668","0.0-18.0-1.78","6374","approach_avoid_sv1","""event"",""trial"",""time""
""fullscreenenter"",""1"",""6203""
","
","
","""event"",""trial"",""time""
""fullscreenenter"",""1"",""6203""
","
","","","","","","1672.7999999523163","images/dog8.png","","","memory_trial","1","definitely_old",""
"html-keyboard-response","202","622172","0.0-18.0-0.79","6374","approach_avoid_sv1","""event"",""trial"",""time""
""fullscreenenter"",""1"",""6203""
","
","
","""event"",""trial"",""time""
""fullscreenenter"",""1"",""6203""
","
","","","","","","null","<div style=""font-size:60px;"">+</div>","null","","fixation","","",""
"memory-trial","203","625029","0.0-18.0-1.79","6374","approach_avoid_sv1","""event"",""trial"",""time""
""fullscreenenter"",""1"",""6203""
","
","
","""event"",""trial"",""time""
""fullscreenenter"",""1"",""6203""
","
","","","","","","1849.2000000476837","images/dog4.png","","","memory_trial","1","definitely_old",""
"html-keyboard-response","204","625532","0.0-18.0-0.80","6374","approach_avoid_sv1","""event"",""trial"",""time""
""fullscreenenter"",""1"",""6203""
","
","
","""event"",""trial"",""time""
""fullscreenenter"",""1"",""6203""
","
","","","","","","null","<div style=""font-size:60px;"">+</div>","null","","fixation","","",""
"memory-trial","205","627700","0.0-18.0-1.80","6374","approach_avoid_sv1","""event"",""trial"",""time""
""fullscreenenter"",""1"",""6203""
","
","
","""event"",""trial"",""time""
""fullscreenenter"",""1"",""6203""
","
","","","","","","1162.5","images/table2.png","","","memory_trial","1","definitely_old",""
"html-keyboard-response","206","628205","0.0-18.0-0.81","6374","approach_avoid_sv1","""event"",""trial"",""time""
""fullscreenenter"",""1"",""6203""
","
","
","""event"",""trial"",""time""
""fullscreenenter"",""1"",""6203""
","
","","","","","","null","<div style=""font-size:60px;"">+</div>","null","","fixation","","",""
"memory-trial","207","630933","0.0-18.0-1.81","6374","approach_avoid_sv1","""event"",""trial"",""time""
""fullscreenenter"",""1"",""6203""
","
","
","""event"",""trial"",""time""
""fullscreenenter"",""1"",""6203""
","
","","","","","","1720.1999999284744","images/straw4.png","","","memory_trial","4","definitely_new",""
"html-keyboard-response","208","631436","0.0-18.0-0.82","6374","approach_avoid_sv1","""event"",""trial"",""time""
""fullscreenenter"",""1"",""6203""
","
","
","""event"",""trial"",""time""
""fullscreenenter"",""1"",""6203""
","
","","","","","","null","<div style=""font-size:60px;"">+</div>","null","","fixation","","",""
"memory-trial","209","633861","0.0-18.0-1.82","6374","approach_avoid_sv1","""event"",""trial"",""time""
""fullscreenenter"",""1"",""6203""
","
","
","""event"",""trial"",""time""
""fullscreenenter"",""1"",""6203""
","
","","","","","","1417.0999999046326","images/goat8.png","","","memory_trial","1","definitely_old",""
"html-keyboard-response","210","634364","0.0-18.0-0.83","6374","approach_avoid_sv1","""event"",""trial"",""time""
""fullscreenenter"",""1"",""6203""
","
","
","""event"",""trial"",""time""
""fullscreenenter"",""1"",""6203""
","
","","","","","","null","<div style=""font-size:60px;"">+</div>","null","","fixation","","",""
"memory-trial","211","636532","0.0-18.0-1.83","6374","approach_avoid_sv1","""event"",""trial"",""time""
""fullscreenenter"",""1"",""6203""
","
","
","""event"",""trial"",""time""
""fullscreenenter"",""1"",""6203""
","
","","","","","","1161","images/cow4.png","","","memory_trial","1","definitely_old",""
"html-keyboard-response","212","637036","0.0-18.0-0.84","6374","approach_avoid_sv1","""event"",""trial"",""time""
""fullscreenenter"",""1"",""6203""
","
","
","""event"",""trial"",""time""
""fullscreenenter"",""1"",""6203""
","
","","","","","","null","<div style=""font-size:60px;"">+</div>","null","","fixation","","",""
"memory-trial","213","640196","0.0-18.0-1.84","6374","approach_avoid_sv1","""event"",""trial"",""time""
""fullscreenenter"",""1"",""6203""
","
","
","""event"",""trial"",""time""
""fullscreenenter"",""1"",""6203""
","
","","","","","","2154.2000000476837","images/sofa5.png","","","memory_trial","3","maybe_new",""
"html-keyboard-response","214","640708","0.0-18.0-0.85","6374","approach_avoid_sv1","""event"",""trial"",""time""
""fullscreenenter"",""1"",""6203""
","
","
","""event"",""trial"",""time""
""fullscreenenter"",""1"",""6203""
","
","","","","","","null","<div style=""font-size:60px;"">+</div>","null","","fixation","","",""
"memory-trial","215","644132","0.0-18.0-1.85","6374","approach_avoid_sv1","""event"",""trial"",""time""
""fullscreenenter"",""1"",""6203""
","
","
","""event"",""trial"",""time""
""fullscreenenter"",""1"",""6203""
","
","","","","","","2417.2000000476837","images/truck8.png","","","memory_trial","4","definitely_new",""
"html-keyboard-response","216","644637","0.0-18.0-0.86","6374","approach_avoid_sv1","""event"",""trial"",""time""
""fullscreenenter"",""1"",""6203""
","
","
","""event"",""trial"",""time""
""fullscreenenter"",""1"",""6203""
","
","","","","","","null","<div style=""font-size:60px;"">+</div>","null","","fixation","","",""
"memory-trial","217","647492","0.0-18.0-1.86","6374","approach_avoid_sv1","""event"",""trial"",""time""
""fullscreenenter"",""1"",""6203""
","
","
","""event"",""trial"",""time""
""fullscreenenter"",""1"",""6203""
","
","","","","","","1848.3999999761581","images/rabbit4.png","","","memory_trial","2","maybe_old",""
"html-keyboard-response","218","647996","0.0-18.0-0.87","6374","approach_avoid_sv1","""event"",""trial"",""time""
""fullscreenenter"",""1"",""6203""
","
","
","""event"",""trial"",""time""
""fullscreenenter"",""1"",""6203""
","
","","","","","","null","<div style=""font-size:60px;"">+</div>","null","","fixation","","",""
"memory-trial","219","650741","0.0-18.0-1.87","6374","approach_avoid_sv1","""event"",""trial"",""time""
""fullscreenenter"",""1"",""6203""
","
","
","""event"",""trial"",""time""
""fullscreenenter"",""1"",""6203""
","
","","","","","","1738.1000000238419","images/boat3.png","","","memory_trial","4","definitely_new",""
"html-keyboard-response","220","651244","0.0-18.0-0.88","6374","approach_avoid_sv1","""event"",""trial"",""time""
""fullscreenenter"",""1"",""6203""
","
","
","""event"",""trial"",""time""
""fullscreenenter"",""1"",""6203""
","
","","","","","","null","<div style=""font-size:60px;"">+</div>","null","","fixation","","",""
"memory-trial","221","654020","0.0-18.0-1.88","6374","approach_avoid_sv1","""event"",""trial"",""time""
""fullscreenenter"",""1"",""6203""
","
","
","""event"",""trial"",""time""
""fullscreenenter"",""1"",""6203""
","
","","","","","","1768.7999999523163","images/table6.png","","","memory_trial","1","definitely_old",""
"html-keyboard-response","222","654525","0.0-18.0-0.89","6374","approach_avoid_sv1","""event"",""trial"",""time""
""fullscreenenter"",""1"",""6203""
","
","
","""event"",""trial"",""time""
""fullscreenenter"",""1"",""6203""
","
","","","","","","null","<div style=""font-size:60px;"">+</div>","null","","fixation","","",""
"memory-trial","223","657525","0.0-18.0-1.89","6374","approach_avoid_sv1","""event"",""trial"",""time""
""fullscreenenter"",""1"",""6203""
","
","
","""event"",""trial"",""time""
""fullscreenenter"",""1"",""6203""
","
","","","","","","1991.5","images/goat3.png","","","memory_trial","1","definitely_old",""
"html-keyboard-response","224","658035","0.0-18.0-0.90","6374","approach_avoid_sv1","""event"",""trial"",""time""
""fullscreenenter"",""1"",""6203""
","
","
","""event"",""trial"",""time""
""fullscreenenter"",""1"",""6203""
","
","","","","","","null","<div style=""font-size:60px;"">+</div>","null","","fixation","","",""
"memory-trial","225","660661","0.0-18.0-1.90","6374","approach_avoid_sv1","""event"",""trial"",""time""
""fullscreenenter"",""1"",""6203""
","
","
","""event"",""trial"",""time""
""fullscreenenter"",""1"",""6203""
","
","","","","","","1617.6999999284744","images/bed7.png","","","memory_trial","1","definitely_old",""
"html-keyboard-response","226","661164","0.0-18.0-0.91","6374","approach_avoid_sv1","""event"",""trial"",""time""
""fullscreenenter"",""1"",""6203""
","
","
","""event"",""trial"",""time""
""fullscreenenter"",""1"",""6203""
","
","","","","","","null","<div style=""font-size:60px;"">+</div>","null","","fixation","","",""
"memory-trial","227","664740","0.0-18.0-1.91","6374","approach_avoid_sv1","""event"",""trial"",""time""
""fullscreenenter"",""1"",""6203""
","
","
","""event"",""trial"",""time""
""fullscreenenter"",""1"",""6203""
","
","","","","","","2572.5","images/rabbit5.png","","","memory_trial","1","definitely_old",""
"html-button-response","228","750678","0.0-18.0-2.91-0.91","6374","approach_avoid_sv1","""event"",""trial"",""time""
""fullscreenenter"",""1"",""6203""
","
","
","""event"",""trial"",""time""
""fullscreenenter"",""1"",""6203""
","
","","","","","","85937.19999992847","<p> Take a break! </p><p> Click the button to continue. </p>","0","","break","","",""
"html-keyboard-response","229","751180","0.0-18.0-0.92","6374","approach_avoid_sv1","""event"",""trial"",""time""
""fullscreenenter"",""1"",""6203""
","
","
","""event"",""trial"",""time""
""fullscreenenter"",""1"",""6203""
","
","","","","","","null","<div style=""font-size:60px;"">+</div>","null","","fixation","","",""
"memory-trial","230","755332","0.0-18.0-1.92","6374","approach_avoid_sv1","""event"",""trial"",""time""
""fullscreenenter"",""1"",""6203""
","
","
","""event"",""trial"",""time""
""fullscreenenter"",""1"",""6203""
","
","","","","","","3143.899999976158","images/truck6.png","","","memory_trial","3","maybe_new",""
"html-keyboard-response","231","755835","0.0-18.0-0.93","6374","approach_avoid_sv1","""event"",""trial"",""time""
""fullscreenenter"",""1"",""6203""
","
","
","""event"",""trial"",""time""
""fullscreenenter"",""1"",""6203""
","
","","","","","","null","<div style=""font-size:60px;"">+</div>","null","","fixation","","",""
"memory-trial","232","758947","0.0-18.0-1.93","6374","approach_avoid_sv1","""event"",""trial"",""time""
""fullscreenenter"",""1"",""6203""
","
","
","""event"",""trial"",""time""
""fullscreenenter"",""1"",""6203""
","
","","","","","","2104.899999976158","images/train8.png","","","memory_trial","2","maybe_old",""
"html-keyboard-response","233","759452","0.0-18.0-0.94","6374","approach_avoid_sv1","""event"",""trial"",""time""
""fullscreenenter"",""1"",""6203""
","
","
","""event"",""trial"",""time""
""fullscreenenter"",""1"",""6203""
","
","","","","","","null","<div style=""font-size:60px;"">+</div>","null","","fixation","","",""
"memory-trial","234","763621","0.0-18.0-1.94","6374","approach_avoid_sv1","""event"",""trial"",""time""
""fullscreenenter"",""1"",""6203""
","
","
","""event"",""trial"",""time""
""fullscreenenter"",""1"",""6203""
","
","","","","","","3163.7999999523163","images/train3.png","","","memory_trial","3","maybe_new",""
"html-keyboard-response","235","764124","0.0-18.0-0.95","6374","approach_avoid_sv1","""event"",""trial"",""time""
""fullscreenenter"",""1"",""6203""
","
","
","""event"",""trial"",""time""
""fullscreenenter"",""1"",""6203""
","
","","","","","","null","<div style=""font-size:60px;"">+</div>","null","","fixation","","",""
"memory-trial","236","767700","0.0-18.0-1.95","6374","approach_avoid_sv1","""event"",""trial"",""time""
""fullscreenenter"",""1"",""6203""
","
","
","""event"",""trial"",""time""
""fullscreenenter"",""1"",""6203""
","
","","","","","","2567.5","images/apple7.png","","","memory_trial","2","maybe_old",""
"html-keyboard-response","237","768203","0.0-18.0-0.96","6374","approach_avoid_sv1","""event"",""trial"",""time""
""fullscreenenter"",""1"",""6203""
","
","
","""event"",""trial"",""time""
""fullscreenenter"",""1"",""6203""
","
","","","","","","null","<div style=""font-size:60px;"">+</div>","null","","fixation","","",""
"memory-trial","238","771252","0.0-18.0-1.96","6374","approach_avoid_sv1","""event"",""trial"",""time""
""fullscreenenter"",""1"",""6203""
","
","
","""event"",""trial"",""time""
""fullscreenenter"",""1"",""6203""
","
","","","","","","2041.1000000238419","images/truck2.png","","","memory_trial","4","definitely_new",""
"html-keyboard-response","239","771755","0.0-18.0-0.97","6374","approach_avoid_sv1","""event"",""trial"",""time""
""fullscreenenter"",""1"",""6203""
","
","
","""event"",""trial"",""time""
""fullscreenenter"",""1"",""6203""
","
","","","","","","null","<div style=""font-size:60px;"">+</div>","null","","fixation","","",""
"memory-trial","240","775380","0.0-18.0-1.97","6374","approach_avoid_sv1","""event"",""trial"",""time""
""fullscreenenter"",""1"",""6203""
","
","
","""event"",""trial"",""time""
""fullscreenenter"",""1"",""6203""
","
","","","","","","2617.5999999046326","images/rabbit1.png","","","memory_trial","3","maybe_new",""
"html-keyboard-response","241","775883","0.0-18.0-0.98","6374","approach_avoid_sv1","""event"",""trial"",""time""
""fullscreenenter"",""1"",""6203""
","
","
","""event"",""trial"",""time""
""fullscreenenter"",""1"",""6203""
","
","","","","","","null","<div style=""font-size:60px;"">+</div>","null","","fixation","","",""
"memory-trial","242","779188","0.0-18.0-1.98","6374","approach_avoid_sv1","""event"",""trial"",""time""
""fullscreenenter"",""1"",""6203""
","
","
","""event"",""trial"",""time""
""fullscreenenter"",""1"",""6203""
","
","","","","","","2295.600000023842","images/cow2.png","","","memory_trial","2","maybe_old",""
"html-keyboard-response","243","779692","0.0-18.0-0.99","6374","approach_avoid_sv1","""event"",""trial"",""time""
""fullscreenenter"",""1"",""6203""
","
","
","""event"",""trial"",""time""
""fullscreenenter"",""1"",""6203""
","
","","","","","","null","<div style=""font-size:60px;"">+</div>","null","","fixation","","",""
"memory-trial","244","782868","0.0-18.0-1.99","6374","approach_avoid_sv1","""event"",""trial"",""time""
""fullscreenenter"",""1"",""6203""
","
","
","""event"",""trial"",""time""
""fullscreenenter"",""1"",""6203""
","
","","","","","","2168.100000023842","images/horse8.png","","","memory_trial","3","maybe_new",""
"html-keyboard-response","245","783371","0.0-18.0-0.100","6374","approach_avoid_sv1","""event"",""trial"",""time""
""fullscreenenter"",""1"",""6203""
","
","
","""event"",""trial"",""time""
""fullscreenenter"",""1"",""6203""
","
","","","","","","null","<div style=""font-size:60px;"">+</div>","null","","fixation","","",""
"memory-trial","246","786291","0.0-18.0-1.100","6374","approach_avoid_sv1","""event"",""trial"",""time""
""fullscreenenter"",""1"",""6203""
","
","
","""event"",""trial"",""time""
""fullscreenenter"",""1"",""6203""
","
","","","","","","1914.8999999761581","images/flower1.png","","","memory_trial","1","definitely_old",""
"html-keyboard-response","247","786796","0.0-18.0-0.101","6374","approach_avoid_sv1","""event"",""trial"",""time""
""fullscreenenter"",""1"",""6203""
","
","
","""event"",""trial"",""time""
""fullscreenenter"",""1"",""6203""
","
","","","","","","null","<div style=""font-size:60px;"">+</div>","null","","fixation","","",""
"memory-trial","248","791251","0.0-18.0-1.101","6374","approach_avoid_sv1","""event"",""trial"",""time""
""fullscreenenter"",""1"",""6203""
","
","
","""event"",""trial"",""time""
""fullscreenenter"",""1"",""6203""
","
","","","","","","3447.899999976158","images/cactus8.png","","","memory_trial","4","definitely_new",""
"html-keyboard-response","249","791756","0.0-18.0-0.102","6374","approach_avoid_sv1","""event"",""trial"",""time""
""fullscreenenter"",""1"",""6203""
","
","
","""event"",""trial"",""time""
""fullscreenenter"",""1"",""6203""
","
","","","","","","null","<div style=""font-size:60px;"">+</div>","null","","fixation","","",""
"memory-trial","250","794532","0.0-18.0-1.102","6374","approach_avoid_sv1","""event"",""trial"",""time""
""fullscreenenter"",""1"",""6203""
","
","
","""event"",""trial"",""time""
""fullscreenenter"",""1"",""6203""
","
","","","","","","1768","images/cat8.png","","","memory_trial","4","definitely_new",""
"html-keyboard-response","251","795036","0.0-18.0-0.103","6374","approach_avoid_sv1","""event"",""trial"",""time""
""fullscreenenter"",""1"",""6203""
","
","
","""event"",""trial"",""time""
""fullscreenenter"",""1"",""6203""
","
","","","","","","null","<div style=""font-size:60px;"">+</div>","null","","fixation","","",""
"memory-trial","252","797317","0.0-18.0-1.103","6374","approach_avoid_sv1","""event"",""trial"",""time""
""fullscreenenter"",""1"",""6203""
","
","
","""event"",""trial"",""time""
""fullscreenenter"",""1"",""6203""
","
","","","","","","1275.2999999523163","images/truck1.png","","","memory_trial","4","definitely_new",""
"html-keyboard-response","253","797820","0.0-18.0-0.104","6374","approach_avoid_sv1","""event"",""trial"",""time""
""fullscreenenter"",""1"",""6203""
","
","
","""event"",""trial"",""time""
""fullscreenenter"",""1"",""6203""
","
","","","","","","null","<div style=""font-size:60px;"">+</div>","null","","fixation","","",""
"memory-trial","254","801365","0.0-18.0-1.104","6374","approach_avoid_sv1","""event"",""trial"",""time""
""fullscreenenter"",""1"",""6203""
","
","
","""event"",""trial"",""time""
""fullscreenenter"",""1"",""6203""
","
","","","","","","2535.7999999523163","images/tree4.png","","","memory_trial","4","definitely_new",""
"html-keyboard-response","255","801869","0.0-18.0-0.105","6374","approach_avoid_sv1","""event"",""trial"",""time""
""fullscreenenter"",""1"",""6203""
","
","
","""event"",""trial"",""time""
""fullscreenenter"",""1"",""6203""
","
","","","","","","null","<div style=""font-size:60px;"">+</div>","null","","fixation","","",""
"memory-trial","256","804613","0.0-18.0-1.105","6374","approach_avoid_sv1","""event"",""trial"",""time""
""fullscreenenter"",""1"",""6203""
","
","
","""event"",""trial"",""time""
""fullscreenenter"",""1"",""6203""
","
","","","","","","1735.1999999284744","images/goat6.png","","","memory_trial","4","definitely_new",""
"html-keyboard-response","257","805117","0.0-18.0-0.106","6374","approach_avoid_sv1","""event"",""trial"",""time""
""fullscreenenter"",""1"",""6203""
","
","
","""event"",""trial"",""time""
""fullscreenenter"",""1"",""6203""
","
","","","","","","null","<div style=""font-size:60px;"">+</div>","null","","fixation","","",""
"memory-trial","258","807493","0.0-18.0-1.106","6374","approach_avoid_sv1","""event"",""trial"",""time""
""fullscreenenter"",""1"",""6203""
","
","
","""event"",""trial"",""time""
""fullscreenenter"",""1"",""6203""
","
","","","","","","1371.6000000238419","images/straw5.png","","","memory_trial","4","definitely_new",""
"html-keyboard-response","259","807997","0.0-18.0-0.107","6374","approach_avoid_sv1","""event"",""trial"",""time""
""fullscreenenter"",""1"",""6203""
","
","
","""event"",""trial"",""time""
""fullscreenenter"",""1"",""6203""
","
","","","","","","null","<div style=""font-size:60px;"">+</div>","null","","fixation","","",""
"memory-trial","260","811380","0.0-18.0-1.107","6374","approach_avoid_sv1","""event"",""trial"",""time""
""fullscreenenter"",""1"",""6203""
","
","
","""event"",""trial"",""time""
""fullscreenenter"",""1"",""6203""
","
","","","","","","2374.9000000953674","images/rodent4.png","","","memory_trial","1","definitely_old",""
"html-keyboard-response","261","811884","0.0-18.0-0.108","6374","approach_avoid_sv1","""event"",""trial"",""time""
""fullscreenenter"",""1"",""6203""
","
","
","""event"",""trial"",""time""
""fullscreenenter"",""1"",""6203""
","
","","","","","","null","<div style=""font-size:60px;"">+</div>","null","","fixation","","",""
"memory-trial","262","814293","0.0-18.0-1.108","6374","approach_avoid_sv1","""event"",""trial"",""time""
""fullscreenenter"",""1"",""6203""
","
","
","""event"",""trial"",""time""
""fullscreenenter"",""1"",""6203""
","
","","","","","","1400.2000000476837","images/plane1.png","","","memory_trial","1","definitely_old",""
"html-keyboard-response","263","814796","0.0-18.0-0.109","6374","approach_avoid_sv1","""event"",""trial"",""time""
""fullscreenenter"",""1"",""6203""
","
","
","""event"",""trial"",""time""
""fullscreenenter"",""1"",""6203""
","
","","","","","","null","<div style=""font-size:60px;"">+</div>","null","","fixation","","",""
"memory-trial","264","817588","0.0-18.0-1.109","6374","approach_avoid_sv1","""event"",""trial"",""time""
""fullscreenenter"",""1"",""6203""
","
","
","""event"",""trial"",""time""
""fullscreenenter"",""1"",""6203""
","
","","","","","","1788.1000000238419","images/banana1.png","","","memory_trial","1","definitely_old",""
"html-keyboard-response","265","818093","0.0-18.0-0.110","6374","approach_avoid_sv1","""event"",""trial"",""time""
""fullscreenenter"",""1"",""6203""
","
","
","""event"",""trial"",""time""
""fullscreenenter"",""1"",""6203""
","
","","","","","","null","<div style=""font-size:60px;"">+</div>","null","","fixation","","",""
"memory-trial","266","820596","0.0-18.0-1.110","6374","approach_avoid_sv1","""event"",""trial"",""time""
""fullscreenenter"",""1"",""6203""
","
","
","""event"",""trial"",""time""
""fullscreenenter"",""1"",""6203""
","
","","","","","","1495.2000000476837","images/cow1.png","","","memory_trial","4","definitely_new",""
"html-keyboard-response","267","821100","0.0-18.0-0.111","6374","approach_avoid_sv1","""event"",""trial"",""time""
""fullscreenenter"",""1"",""6203""
","
","
","""event"",""trial"",""time""
""fullscreenenter"",""1"",""6203""
","
","","","","","","null","<div style=""font-size:60px;"">+</div>","null","","fixation","","",""
"memory-trial","268","824052","0.0-18.0-1.111","6374","approach_avoid_sv1","""event"",""trial"",""time""
""fullscreenenter"",""1"",""6203""
","
","
","""event"",""trial"",""time""
""fullscreenenter"",""1"",""6203""
","
","","","","","","1945","images/orange8.png","","","memory_trial","4","definitely_new",""
"html-keyboard-response","269","824557","0.0-18.0-0.112","6374","approach_avoid_sv1","""event"",""trial"",""time""
""fullscreenenter"",""1"",""6203""
","
","
","""event"",""trial"",""time""
""fullscreenenter"",""1"",""6203""
","
","","","","","","null","<div style=""font-size:60px;"">+</div>","null","","fixation","","",""
"memory-trial","270","827668","0.0-18.0-1.112","6374","approach_avoid_sv1","""event"",""trial"",""time""
""fullscreenenter"",""1"",""6203""
","
","
","""event"",""trial"",""time""
""fullscreenenter"",""1"",""6203""
","
","","","","","","2107","images/flower5.png","","","memory_trial","2","maybe_old",""
"html-keyboard-response","271","828172","0.0-18.0-0.113","6374","approach_avoid_sv1","""event"",""trial"",""time""
""fullscreenenter"",""1"",""6203""
","
","
","""event"",""trial"",""time""
""fullscreenenter"",""1"",""6203""
","
","","","","","","null","<div style=""font-size:60px;"">+</div>","null","","fixation","","",""
"memory-trial","272","831878","0.0-18.0-1.113","6374","approach_avoid_sv1","""event"",""trial"",""time""
""fullscreenenter"",""1"",""6203""
","
","
","""event"",""trial"",""time""
""fullscreenenter"",""1"",""6203""
","
","","","","","","2696.4000000953674","images/orange1.png","","","memory_trial","2","maybe_old",""
"html-keyboard-response","273","832380","0.0-18.0-0.114","6374","approach_avoid_sv1","""event"",""trial"",""time""
""fullscreenenter"",""1"",""6203""
","
","
","""event"",""trial"",""time""
""fullscreenenter"",""1"",""6203""
","
","","","","","","null","<div style=""font-size:60px;"">+</div>","null","","fixation","","",""
"memory-trial","274","836421","0.0-18.0-1.114","6374","approach_avoid_sv1","""event"",""trial"",""time""
""fullscreenenter"",""1"",""6203""
","
","
","""event"",""trial"",""time""
""fullscreenenter"",""1"",""6203""
","
","","","","","","3033.600000023842","images/straw8.png","","","memory_trial","4","definitely_new",""
"html-keyboard-response","275","836925","0.0-18.0-0.115","6374","approach_avoid_sv1","""event"",""trial"",""time""
""fullscreenenter"",""1"",""6203""
","
","
","""event"",""trial"",""time""
""fullscreenenter"",""1"",""6203""
","
","","","","","","null","<div style=""font-size:60px;"">+</div>","null","","fixation","","",""
"memory-trial","276","840149","0.0-18.0-1.115","6374","approach_avoid_sv1","""event"",""trial"",""time""
""fullscreenenter"",""1"",""6203""
","
","
","""event"",""trial"",""time""
""fullscreenenter"",""1"",""6203""
","
","","","","","","2218.7999999523163","images/cat5.png","","","memory_trial","2","maybe_old",""
"html-keyboard-response","277","840653","0.0-18.0-0.116","6374","approach_avoid_sv1","""event"",""trial"",""time""
""fullscreenenter"",""1"",""6203""
","
","
","""event"",""trial"",""time""
""fullscreenenter"",""1"",""6203""
","
","","","","","","null","<div style=""font-size:60px;"">+</div>","null","","fixation","","",""
"memory-trial","278","843524","0.0-18.0-1.116","6374","approach_avoid_sv1","""event"",""trial"",""time""
""fullscreenenter"",""1"",""6203""
","
","
","""event"",""trial"",""time""
""fullscreenenter"",""1"",""6203""
","
","","","","","","1864.8000000715256","images/banana2.png","","","memory_trial","1","definitely_old",""
"html-keyboard-response","279","844028","0.0-18.0-0.117","6374","approach_avoid_sv1","""event"",""trial"",""time""
""fullscreenenter"",""1"",""6203""
","
","
","""event"",""trial"",""time""
""fullscreenenter"",""1"",""6203""
","
","","","","","","null","<div style=""font-size:60px;"">+</div>","null","","fixation","","",""
"memory-trial","280","847284","0.0-18.0-1.117","6374","approach_avoid_sv1","""event"",""trial"",""time""
""fullscreenenter"",""1"",""6203""
","
","
","""event"",""trial"",""time""
""fullscreenenter"",""1"",""6203""
","
","","","","","","2248.399999976158","images/bush4.png","","","memory_trial","3","maybe_new",""
"html-keyboard-response","281","847788","0.0-18.0-0.118","6374","approach_avoid_sv1","""event"",""trial"",""time""
""fullscreenenter"",""1"",""6203""
","
","
","""event"",""trial"",""time""
""fullscreenenter"",""1"",""6203""
","
","","","","","","null","<div style=""font-size:60px;"">+</div>","null","","fixation","","",""
"memory-trial","282","850245","0.0-18.0-1.118","6374","approach_avoid_sv1","""event"",""trial"",""time""
""fullscreenenter"",""1"",""6203""
","
","
","""event"",""trial"",""time""
""fullscreenenter"",""1"",""6203""
","
","","","","","","1451.5","images/rodent2.png","","","memory_trial","2","maybe_old",""
"html-keyboard-response","283","850748","0.0-18.0-0.119","6374","approach_avoid_sv1","""event"",""trial"",""time""
""fullscreenenter"",""1"",""6203""
","
","
","""event"",""trial"",""time""
""fullscreenenter"",""1"",""6203""
","
","","","","","","null","<div style=""font-size:60px;"">+</div>","null","","fixation","","",""
"memory-trial","284","853397","0.0-18.0-1.119","6374","approach_avoid_sv1","""event"",""trial"",""time""
""fullscreenenter"",""1"",""6203""
","
","
","""event"",""trial"",""time""
""fullscreenenter"",""1"",""6203""
","
","","","","","","1641.5","images/sheep1.png","","","memory_trial","4","definitely_new",""
"html-keyboard-response","285","853901","0.0-18.0-0.120","6374","approach_avoid_sv1","""event"",""trial"",""time""
""fullscreenenter"",""1"",""6203""
","
","
","""event"",""trial"",""time""
""fullscreenenter"",""1"",""6203""
","
","","","","","","null","<div style=""font-size:60px;"">+</div>","null","","fixation","","",""
"memory-trial","286","856884","0.0-18.0-1.120","6374","approach_avoid_sv1","""event"",""trial"",""time""
""fullscreenenter"",""1"",""6203""
","
","
","""event"",""trial"",""time""
""fullscreenenter"",""1"",""6203""
","
","","","","","","1976.5","images/bed5.png","","","memory_trial","2","maybe_old",""
"html-keyboard-response","287","857387","0.0-18.0-0.121","6374","approach_avoid_sv1","""event"",""trial"",""time""
""fullscreenenter"",""1"",""6203""
","
","
","""event"",""trial"",""time""
""fullscreenenter"",""1"",""6203""
","
","","","","","","null","<div style=""font-size:60px;"">+</div>","null","","fixation","","",""
"memory-trial","288","860916","0.0-18.0-1.121","6374","approach_avoid_sv1","""event"",""trial"",""time""
""fullscreenenter"",""1"",""6203""
","
","
","""event"",""trial"",""time""
""fullscreenenter"",""1"",""6203""
","
","","","","","","2524.5","images/goat2.png","","","memory_trial","3","maybe_new",""
"html-keyboard-response","289","861419","0.0-18.0-0.122","6374","approach_avoid_sv1","""event"",""trial"",""time""
""fullscreenenter"",""1"",""6203""
","
","
","""event"",""trial"",""time""
""fullscreenenter"",""1"",""6203""
","
","","","","","","null","<div style=""font-size:60px;"">+</div>","null","","fixation","","",""
"memory-trial","290","864228","0.0-18.0-1.122","6374","approach_avoid_sv1","""event"",""trial"",""time""
""fullscreenenter"",""1"",""6203""
","
","
","""event"",""trial"",""time""
""fullscreenenter"",""1"",""6203""
","
","","","","","","1800.5","images/sheep7.png","","","memory_trial","4","definitely_new",""
"html-keyboard-response","291","864732","0.0-18.0-0.123","6374","approach_avoid_sv1","""event"",""trial"",""time""
""fullscreenenter"",""1"",""6203""
","
","
","""event"",""trial"",""time""
""fullscreenenter"",""1"",""6203""
","
","","","","","","null","<div style=""font-size:60px;"">+</div>","null","","fixation","","",""
"memory-trial","292","867892","0.0-18.0-1.123","6374","approach_avoid_sv1","""event"",""trial"",""time""
""fullscreenenter"",""1"",""6203""
","
","
","""event"",""trial"",""time""
""fullscreenenter"",""1"",""6203""
","
","","","","","","2151.899999976158","images/banana4.png","","","memory_trial","2","maybe_old",""
"html-keyboard-response","293","868397","0.0-18.0-0.124","6374","approach_avoid_sv1","""event"",""trial"",""time""
""fullscreenenter"",""1"",""6203""
","
","
","""event"",""trial"",""time""
""fullscreenenter"",""1"",""6203""
","
","","","","","","null","<div style=""font-size:60px;"">+</div>","null","","fixation","","",""
"memory-trial","294","872612","0.0-18.0-1.124","6374","approach_avoid_sv1","""event"",""trial"",""time""
""fullscreenenter"",""1"",""6203""
","
","
","""event"",""trial"",""time""
""fullscreenenter"",""1"",""6203""
","
","","","","","","3208.899999976158","images/sheep5.png","","","memory_trial","4","definitely_new",""
"html-keyboard-response","295","873116","0.0-18.0-0.125","6374","approach_avoid_sv1","""event"",""trial"",""time""
""fullscreenenter"",""1"",""6203""
","
","
","""event"",""trial"",""time""
""fullscreenenter"",""1"",""6203""
","
","","","","","","null","<div style=""font-size:60px;"">+</div>","null","","fixation","","",""
"memory-trial","296","876196","0.0-18.0-1.125","6374","approach_avoid_sv1","""event"",""trial"",""time""
""fullscreenenter"",""1"",""6203""
","
","
","""event"",""trial"",""time""
""fullscreenenter"",""1"",""6203""
","
","","","","","","2071.7000000476837","images/plane5.png","","","memory_trial","1","definitely_old",""
"html-keyboard-response","297","876700","0.0-18.0-0.126","6374","approach_avoid_sv1","""event"",""trial"",""time""
""fullscreenenter"",""1"",""6203""
","
","
","""event"",""trial"",""time""
