"trial_type","trial_index","time_elapsed","internal_node_id","subject_id","task_version","interactions","blur_events","focus_events","fullscreenenter_events","fullscreenexit_events","success","timeout","failed_images","failed_audio","failed_video","rt","stimulus","response","button_pressed","task_part","key_press","answer","correct"
"pavlovia","0","7","0.0-0.0","5392","approach_avoid_sv1","""event"",""trial"",""time""
""fullscreenenter"",""1"",""8666""
","
","
","""event"",""trial"",""time""
""fullscreenenter"",""1"",""8666""
","
","","","","","","","","","","","","",""
"fullscreen","1","9578","0.0-1.0","5392","approach_avoid_sv1","""event"",""trial"",""time""
""fullscreenenter"",""1"",""8666""
""blur"",""2"",""10791""
""focus"",""2"",""12025""
","""event"",""trial"",""time""
""blur"",""2"",""10791""
","""event"",""trial"",""time""
""focus"",""2"",""12025""
","""event"",""trial"",""time""
""fullscreenenter"",""1"",""8666""
","
","true","","","","","","","","","","","",""
"preload","2","12401","0.0-2.0","5392","approach_avoid_sv1","""event"",""trial"",""time""
""fullscreenenter"",""1"",""8666""
""blur"",""2"",""10791""
""focus"",""2"",""12025""
","""event"",""trial"",""time""
""blur"",""2"",""10791""
","""event"",""trial"",""time""
""focus"",""2"",""12025""
","""event"",""trial"",""time""
""fullscreenenter"",""1"",""8666""
","
","true","false","[]","[]","[]","","","","","","","",""
"preload","3","13452","0.0-3.0","5392","approach_avoid_sv1","""event"",""trial"",""time""
""fullscreenenter"",""1"",""8666""
""blur"",""2"",""10791""
""focus"",""2"",""12025""
","""event"",""trial"",""time""
""blur"",""2"",""10791""
","""event"",""trial"",""time""
""focus"",""2"",""12025""
","""event"",""trial"",""time""
""fullscreenenter"",""1"",""8666""
","
","true","false","[]","[]","[]","","","","","","","",""
"preload","4","13735","0.0-4.0","5392","approach_avoid_sv1","""event"",""trial"",""time""
""fullscreenenter"",""1"",""8666""
""blur"",""2"",""10791""
""focus"",""2"",""12025""
","""event"",""trial"",""time""
""blur"",""2"",""10791""
","""event"",""trial"",""time""
""focus"",""2"",""12025""
","""event"",""trial"",""time""
""fullscreenenter"",""1"",""8666""
","
","true","false","[]","[]","[]","","","","","","","",""
"audio-keyboard-response","5","19400","0.0-5.0","5392","approach_avoid_sv1","""event"",""trial"",""time""
""fullscreenenter"",""1"",""8666""
""blur"",""2"",""10791""
""focus"",""2"",""12025""
","""event"",""trial"",""time""
""blur"",""2"",""10791""
","""event"",""trial"",""time""
""focus"",""2"",""12025""
","""event"",""trial"",""time""
""fullscreenenter"",""1"",""8666""
","
","","","","","","5664","audio/beep_loop.wav"," ","","","","",""
"audio-button-response","6","21287","0.0-6.0","5392","approach_avoid_sv1","""event"",""trial"",""time""
""fullscreenenter"",""1"",""8666""
""blur"",""2"",""10791""
""focus"",""2"",""12025""
","""event"",""trial"",""time""
""blur"",""2"",""10791""
","""event"",""trial"",""time""
""focus"",""2"",""12025""
","""event"",""trial"",""time""
""fullscreenenter"",""1"",""8666""
","
","","","","","","1888","audio/turtle.wav","3","","","","",""
"audio-button-response","7","24539","0.0-7.0","5392","approach_avoid_sv1","""event"",""trial"",""time""
""fullscreenenter"",""1"",""8666""
""blur"",""2"",""10791""
""focus"",""2"",""12025""
","""event"",""trial"",""time""
""blur"",""2"",""10791""
","""event"",""trial"",""time""
""focus"",""2"",""12025""
","""event"",""trial"",""time""
""fullscreenenter"",""1"",""8666""
","
","","","","","","2240","audio/shark.wav","2","","","","",""
"preload","8","32017","0.0-8.0","5392","approach_avoid_sv1","""event"",""trial"",""time""
""fullscreenenter"",""1"",""8666""
""blur"",""2"",""10791""
""focus"",""2"",""12025""
","""event"",""trial"",""time""
""blur"",""2"",""10791""
","""event"",""trial"",""time""
""focus"",""2"",""12025""
","""event"",""trial"",""time""
""fullscreenenter"",""1"",""8666""
","
","true","false","[]","[]","[]","","","","","","","",""
"learning-instructions","9","43723","0.0-9.0-0.0","5392","approach_avoid_sv1","""event"",""trial"",""time""
""fullscreenenter"",""1"",""8666""
""blur"",""2"",""10791""
""focus"",""2"",""12025""
","""event"",""trial"",""time""
""blur"",""2"",""10791""
","""event"",""trial"",""time""
""focus"",""2"",""12025""
","""event"",""trial"",""time""
""fullscreenenter"",""1"",""8666""
","
","","","","","","7224.199999809265","<p> Welcome back! </p><p> Last week, you had to make choices about lots of different items.  </p>","","0","instructions","","",""
"learning-instructions","10","59763","0.0-9.0-0.1","5392","approach_avoid_sv1","""event"",""trial"",""time""
""fullscreenenter"",""1"",""8666""
""blur"",""2"",""10791""
""focus"",""2"",""12025""
","""event"",""trial"",""time""
""blur"",""2"",""10791""
","""event"",""trial"",""time""
""focus"",""2"",""12025""
","""event"",""trial"",""time""
""fullscreenenter"",""1"",""8666""
","
","","","","","","11907.800000190735","<p> Today, we are going to ask you to try to remember all the items. </p>","","0","instructions","","",""
"learning-instructions","11","72559","0.0-9.0-0.2","5392","approach_avoid_sv1","""event"",""trial"",""time""
""fullscreenenter"",""1"",""8666""
""blur"",""2"",""10791""
""focus"",""2"",""12025""
","""event"",""trial"",""time""
""blur"",""2"",""10791""
","""event"",""trial"",""time""
""focus"",""2"",""12025""
","""event"",""trial"",""time""
""fullscreenenter"",""1"",""8666""
","
","","","","","","2656","<p> On every trial, you will see an image. </p><p> The image may be an OLD image you saw during the games last week or it may be a NEW image that was not presented. </p>","","0","instructions","","",""
"learning-instructions","12","82993","0.0-9.0-0.3","5392","approach_avoid_sv1","""event"",""trial"",""time""
""fullscreenenter"",""1"",""8666""
""blur"",""2"",""10791""
""focus"",""2"",""12025""
","""event"",""trial"",""time""
""blur"",""2"",""10791""
","""event"",""trial"",""time""
""focus"",""2"",""12025""
","""event"",""trial"",""time""
""fullscreenenter"",""1"",""8666""
","
","","","","","","1920.6999998092651","<p> You need to select whether the image is:  </p><p>  'Definitely old', 'Maybe old', 'Maybe new', or 'Definitely new.'  </p><div class=""mem-choice-instructions-grid""><div class=""choice-option"" id=""choice-option-1"" ><img src=""images/definitely_old_1.png"" id=""choice-option-img-1"" class=""choice-option-img"" stage=""1""></div><div class=""choice-option"" id=""choice-option-2"" ><img src=""images/maybe_old_1.png"" id=""choice-option-img-2"" class=""choice-option-img"" stage=""1""></div><div class=""choice-option"" id=""choice-option-3"" ><img src=""images/maybe_new_1.png"" id=""choice-option-img-3"" class=""choice-option-img"" stage=""1""></div><div class=""choice-option"" id=""choice-option-4"" > <img src=""images/definitely_new_1.png"" id=""choice-option-img-4"" class=""choice-option-img"" stage=""1""></div></div>","","0","instructions","","",""
"learning-instructions","13","90299","0.0-9.0-0.4","5392","approach_avoid_sv1","""event"",""trial"",""time""
""fullscreenenter"",""1"",""8666""
""blur"",""2"",""10791""
""focus"",""2"",""12025""
","""event"",""trial"",""time""
""blur"",""2"",""10791""
","""event"",""trial"",""time""
""focus"",""2"",""12025""
","""event"",""trial"",""time""
""fullscreenenter"",""1"",""8666""
","
","","","","","","790.3000001907349","<p> You should use the 1, 2, 3, and 4 keys to make your responses.  </p><div class=""mem-choice-instructions-grid""><div class=""choice-option"" id=""choice-option-1"" ><img src=""images/definitely_old.png"" id=""choice-option-img-1"" class=""choice-option-img"" stage=""1""></div><div class=""choice-option"" id=""choice-option-2"" ><img src=""images/maybe_old.png"" id=""choice-option-img-2"" class=""choice-option-img"" stage=""1""></div><div class=""choice-option"" id=""choice-option-3"" ><img src=""images/maybe_new.png"" id=""choice-option-img-3"" class=""choice-option-img"" stage=""1""></div><div class=""choice-option"" id=""choice-option-4"" > <img src=""images/definitely_new.png"" id=""choice-option-img-4"" class=""choice-option-img"" stage=""1""></div></div>","","0","instructions","","",""
"learning-instructions","14","97932","0.0-9.0-0.5","5392","approach_avoid_sv1","""event"",""trial"",""time""
""fullscreenenter"",""1"",""8666""
""blur"",""2"",""10791""
""focus"",""2"",""12025""
","""event"",""trial"",""time""
""blur"",""2"",""10791""
","""event"",""trial"",""time""
""focus"",""2"",""12025""
","""event"",""trial"",""time""
""fullscreenenter"",""1"",""8666""
","
","","","","","","1298.5","<p> You will have 10 seconds to make each response.  </p><p>  Make sure to respond before time runs out! </p>","","0","instructions","","",""
"learning-instructions","15","134670","0.0-9.0-0.6","5392","approach_avoid_sv1","""event"",""trial"",""time""
""fullscreenenter"",""1"",""8666""
""blur"",""2"",""10791""
""focus"",""2"",""12025""
","""event"",""trial"",""time""
""blur"",""2"",""10791""
","""event"",""trial"",""time""
""focus"",""2"",""12025""
","""event"",""trial"",""time""
""fullscreenenter"",""1"",""8666""
","
","","","","","","29662.199999809265","<p> Today, you will see each image ONCE only.  </p><p>  That means none of the images will repeat. </p>","","0","instructions","","",""
"learning-instructions","16","148592","0.0-9.0-0.7","5392","approach_avoid_sv1","""event"",""trial"",""time""
""fullscreenenter"",""1"",""8666""
""blur"",""2"",""10791""
""focus"",""2"",""12025""
","""event"",""trial"",""time""
""blur"",""2"",""10791""
","""event"",""trial"",""time""
""focus"",""2"",""12025""
","""event"",""trial"",""time""
""fullscreenenter"",""1"",""8666""
","
","","","","","","1248.3000001907349","<p> Before you play the real game, it is time to practice. </p><p>  Just like in the real game, some of the images in the practice will be ones you have seen before. </p><p>  Others will be entirely new. </p>","","0","instructions","","",""
"html-button-response","17","150182","0.0-10.0","5392","approach_avoid_sv1","""event"",""trial"",""time""
""fullscreenenter"",""1"",""8666""
""blur"",""2"",""10791""
""focus"",""2"",""12025""
","""event"",""trial"",""time""
""blur"",""2"",""10791""
","""event"",""trial"",""time""
""focus"",""2"",""12025""
","""event"",""trial"",""time""
""fullscreenenter"",""1"",""8666""
","
","","","","","","1480.0999999046326","<p> Ready to practice? </p><p> Remember, use the 1, 2, 3, and 4 keys to make your responses. </p>","0","","instructions","","",""
"html-keyboard-response","18","150809","0.0-11.0-0.0","5392","approach_avoid_sv1","""event"",""trial"",""time""
""fullscreenenter"",""1"",""8666""
""blur"",""2"",""10791""
""focus"",""2"",""12025""
","""event"",""trial"",""time""
""blur"",""2"",""10791""
","""event"",""trial"",""time""
""focus"",""2"",""12025""
","""event"",""trial"",""time""
""fullscreenenter"",""1"",""8666""
","
","","","","","","null","<div style=""font-size:60px;"">+</div>","null","","fixation","","",""
"memory-trial","19","154873","0.0-11.0-1.0","5392","approach_avoid_sv1","""event"",""trial"",""time""
""fullscreenenter"",""1"",""8666""
""blur"",""2"",""10791""
""focus"",""2"",""12025""
","""event"",""trial"",""time""
""blur"",""2"",""10791""
","""event"",""trial"",""time""
""focus"",""2"",""12025""
","""event"",""trial"",""time""
""fullscreenenter"",""1"",""8666""
","
","","","","","","3049.300000190735","images/ball5.png","","","practice","3","maybe_new",""
"html-keyboard-response","20","155382","0.0-11.0-0.1","5392","approach_avoid_sv1","""event"",""trial"",""time""
""fullscreenenter"",""1"",""8666""
""blur"",""2"",""10791""
""focus"",""2"",""12025""
","""event"",""trial"",""time""
""blur"",""2"",""10791""
","""event"",""trial"",""time""
""focus"",""2"",""12025""
","""event"",""trial"",""time""
""fullscreenenter"",""1"",""8666""
","
","","","","","","null","<div style=""font-size:60px;"">+</div>","null","","fixation","","",""
"memory-trial","21","159417","0.0-11.0-1.1","5392","approach_avoid_sv1","""event"",""trial"",""time""
""fullscreenenter"",""1"",""8666""
""blur"",""2"",""10791""
""focus"",""2"",""12025""
","""event"",""trial"",""time""
""blur"",""2"",""10791""
","""event"",""trial"",""time""
""focus"",""2"",""12025""
","""event"",""trial"",""time""
""fullscreenenter"",""1"",""8666""
","
","","","","","","3013.9000000953674","images/ball2.png","","","practice","2","maybe_old",""
"html-keyboard-response","22","159930","0.0-11.0-0.2","5392","approach_avoid_sv1","""event"",""trial"",""time""
""fullscreenenter"",""1"",""8666""
""blur"",""2"",""10791""
""focus"",""2"",""12025""
","""event"",""trial"",""time""
""blur"",""2"",""10791""
","""event"",""trial"",""time""
""focus"",""2"",""12025""
","""event"",""trial"",""time""
""fullscreenenter"",""1"",""8666""
","
","","","","","","null","<div style=""font-size:60px;"">+</div>","null","","fixation","","",""
"memory-trial","23","163546","0.0-11.0-1.2","5392","approach_avoid_sv1","""event"",""trial"",""time""
""fullscreenenter"",""1"",""8666""
""blur"",""2"",""10791""
""focus"",""2"",""12025""
","""event"",""trial"",""time""
""blur"",""2"",""10791""
","""event"",""trial"",""time""
""focus"",""2"",""12025""
","""event"",""trial"",""time""
""fullscreenenter"",""1"",""8666""
","
","","","","","","2601.5","images/racket1.png","","","practice","1","definitely_old",""
"html-keyboard-response","24","164059","0.0-11.0-0.3","5392","approach_avoid_sv1","""event"",""trial"",""time""
""fullscreenenter"",""1"",""8666""
""blur"",""2"",""10791""
""focus"",""2"",""12025""
","""event"",""trial"",""time""
""blur"",""2"",""10791""
","""event"",""trial"",""time""
""focus"",""2"",""12025""
","""event"",""trial"",""time""
""fullscreenenter"",""1"",""8666""
","
","","","","","","null","<div style=""font-size:60px;"">+</div>","null","","fixation","","",""
"memory-trial","25","168627","0.0-11.0-1.3","5392","approach_avoid_sv1","""event"",""trial"",""time""
""fullscreenenter"",""1"",""8666""
""blur"",""2"",""10791""
""focus"",""2"",""12025""
","""event"",""trial"",""time""
""blur"",""2"",""10791""
","""event"",""trial"",""time""
""focus"",""2"",""12025""
","""event"",""trial"",""time""
""fullscreenenter"",""1"",""8666""
","
","","","","","","3552.5","images/ball3.png","","","practice","4","definitely_new",""
"html-keyboard-response","26","169141","0.0-11.0-0.4","5392","approach_avoid_sv1","""event"",""trial"",""time""
""fullscreenenter"",""1"",""8666""
""blur"",""2"",""10791""
""focus"",""2"",""12025""
","""event"",""trial"",""time""
""blur"",""2"",""10791""
","""event"",""trial"",""time""
""focus"",""2"",""12025""
","""event"",""trial"",""time""
""fullscreenenter"",""1"",""8666""
","
","","","","","","null","<div style=""font-size:60px;"">+</div>","null","","fixation","","",""
"memory-trial","27","172765","0.0-11.0-1.4","5392","approach_avoid_sv1","""event"",""trial"",""time""
""fullscreenenter"",""1"",""8666""
""blur"",""2"",""10791""
""focus"",""2"",""12025""
","""event"",""trial"",""time""
""blur"",""2"",""10791""
","""event"",""trial"",""time""
""focus"",""2"",""12025""
","""event"",""trial"",""time""
""fullscreenenter"",""1"",""8666""
","
","","","","","","2605.2000002861023","images/racket3.png","","","practice","3","maybe_new",""
"html-keyboard-response","28","173279","0.0-11.0-0.5","5392","approach_avoid_sv1","""event"",""trial"",""time""
""fullscreenenter"",""1"",""8666""
""blur"",""2"",""10791""
""focus"",""2"",""12025""
","""event"",""trial"",""time""
""blur"",""2"",""10791""
","""event"",""trial"",""time""
""focus"",""2"",""12025""
","""event"",""trial"",""time""
""fullscreenenter"",""1"",""8666""
","
","","","","","","null","<div style=""font-size:60px;"">+</div>","null","","fixation","","",""
"memory-trial","29","176053","0.0-11.0-1.5","5392","approach_avoid_sv1","""event"",""trial"",""time""
""fullscreenenter"",""1"",""8666""
""blur"",""2"",""10791""
""focus"",""2"",""12025""
","""event"",""trial"",""time""
""blur"",""2"",""10791""
","""event"",""trial"",""time""
""focus"",""2"",""12025""
","""event"",""trial"",""time""
""fullscreenenter"",""1"",""8666""
","
","","","","","","1755.5999999046326","images/racket5.png","","","practice","4","definitely_new",""
"html-keyboard-response","30","176562","0.0-11.0-0.6","5392","approach_avoid_sv1","""event"",""trial"",""time""
""fullscreenenter"",""1"",""8666""
""blur"",""2"",""10791""
""focus"",""2"",""12025""
","""event"",""trial"",""time""
""blur"",""2"",""10791""
","""event"",""trial"",""time""
""focus"",""2"",""12025""
","""event"",""trial"",""time""
""fullscreenenter"",""1"",""8666""
","
","","","","","","null","<div style=""font-size:60px;"">+</div>","null","","fixation","","",""
"memory-trial","31","179379","0.0-11.0-1.6","5392","approach_avoid_sv1","""event"",""trial"",""time""
""fullscreenenter"",""1"",""8666""
""blur"",""2"",""10791""
""focus"",""2"",""12025""
","""event"",""trial"",""time""
""blur"",""2"",""10791""
","""event"",""trial"",""time""
""focus"",""2"",""12025""
","""event"",""trial"",""time""
""fullscreenenter"",""1"",""8666""
","
","","","","","","1802","images/ball1.png","","","practice","4","definitely_new",""
"html-keyboard-response","32","179882","0.0-11.0-0.7","5392","approach_avoid_sv1","""event"",""trial"",""time""
""fullscreenenter"",""1"",""8666""
""blur"",""2"",""10791""
""focus"",""2"",""12025""
","""event"",""trial"",""time""
""blur"",""2"",""10791""
","""event"",""trial"",""time""
""focus"",""2"",""12025""
","""event"",""trial"",""time""
""fullscreenenter"",""1"",""8666""
","
","","","","","","null","<div style=""font-size:60px;"">+</div>","null","","fixation","","",""
"memory-trial","33","181955","0.0-11.0-1.7","5392","approach_avoid_sv1","""event"",""trial"",""time""
""fullscreenenter"",""1"",""8666""
""blur"",""2"",""10791""
""focus"",""2"",""12025""
","""event"",""trial"",""time""
""blur"",""2"",""10791""
","""event"",""trial"",""time""
""focus"",""2"",""12025""
","""event"",""trial"",""time""
""fullscreenenter"",""1"",""8666""
","
","","","","","","1062","images/racket2.png","","","practice","4","definitely_new",""
"learning-instructions","34","192477","0.0-12.0-0.0","5392","approach_avoid_sv1","""event"",""trial"",""time""
""fullscreenenter"",""1"",""8666""
""blur"",""2"",""10791""
""focus"",""2"",""12025""
","""event"",""trial"",""time""
""blur"",""2"",""10791""
","""event"",""trial"",""time""
""focus"",""2"",""12025""
","""event"",""trial"",""time""
""fullscreenenter"",""1"",""8666""
","
","","","","","","3237.2000002861023","<p> Great! You have completed the practice. </p><p> Before you start, we're going to ask you a few questions about how the game works.  </p>","","0","instructions","","",""
"preload","35","194913","0.0-13.0","5392","approach_avoid_sv1","""event"",""trial"",""time""
""fullscreenenter"",""1"",""8666""
""blur"",""2"",""10791""
""focus"",""2"",""12025""
","""event"",""trial"",""time""
""blur"",""2"",""10791""
","""event"",""trial"",""time""
""focus"",""2"",""12025""
","""event"",""trial"",""time""
""fullscreenenter"",""1"",""8666""
","
","true","false","[]","[]","[]","","","","","","","",""
"comp-q","36","205239","0.0-14.0-0.0","5392","approach_avoid_sv1","""event"",""trial"",""time""
""fullscreenenter"",""1"",""8666""
""blur"",""2"",""10791""
""focus"",""2"",""12025""
","""event"",""trial"",""time""
""blur"",""2"",""10791""
","""event"",""trial"",""time""
""focus"",""2"",""12025""
","""event"",""trial"",""time""
""fullscreenenter"",""1"",""8666""
","
","","","","","","4494","<p> <b> True or False? </b> </p><p> In this game, you will only see each image once. </p>","","0","comp_question","","","true"
"comp-q","37","214340","0.0-14.0-1.0","5392","approach_avoid_sv1","""event"",""trial"",""time""
""fullscreenenter"",""1"",""8666""
""blur"",""2"",""10791""
""focus"",""2"",""12025""
","""event"",""trial"",""time""
""blur"",""2"",""10791""
","""event"",""trial"",""time""
""focus"",""2"",""12025""
","""event"",""trial"",""time""
""fullscreenenter"",""1"",""8666""
","
","","","","","","2760.5","<p> <b> That's right! </b> You will see many different images <i> one time each </i> in this game. </p>","","0","comp_answer","","",""
"comp-q","38","223168","0.0-15.0-0.0","5392","approach_avoid_sv1","""event"",""trial"",""time""
""fullscreenenter"",""1"",""8666""
""blur"",""2"",""10791""
""focus"",""2"",""12025""
","""event"",""trial"",""time""
""blur"",""2"",""10791""
","""event"",""trial"",""time""
""focus"",""2"",""12025""
","""event"",""trial"",""time""
""fullscreenenter"",""1"",""8666""
","
","","","","","","3811.300000190735","<p> <b> True or False? </b> </p><p> You should use the mouse and click to make your response. </p>","","1","comp_question","","","true"
"comp-q","39","231502","0.0-15.0-1.0","5392","approach_avoid_sv1","""event"",""trial"",""time""
""fullscreenenter"",""1"",""8666""
""blur"",""2"",""10791""
""focus"",""2"",""12025""
","""event"",""trial"",""time""
""blur"",""2"",""10791""
","""event"",""trial"",""time""
""focus"",""2"",""12025""
","""event"",""trial"",""time""
""fullscreenenter"",""1"",""8666""
","
","","","","","","1831.7999997138977","<p><b> That's right! </b> You should use the '1', '2', '3', and '4' keys to make your response. </p>","","0","comp_answer","","",""
"comp-q","40","238487","0.0-16.0-0.0","5392","approach_avoid_sv1","""event"",""trial"",""time""
""fullscreenenter"",""1"",""8666""
""blur"",""2"",""10791""
""focus"",""2"",""12025""
","""event"",""trial"",""time""
""blur"",""2"",""10791""
","""event"",""trial"",""time""
""focus"",""2"",""12025""
","""event"",""trial"",""time""
""fullscreenenter"",""1"",""8666""
","
","","","","","","1285.3999996185303","<p> <b> True or False? </b> </p><p> You will have as much time as you want to make each choice. </p>","","1","comp_question","","","true"
"comp-q","41","244606","0.0-16.0-1.0","5392","approach_avoid_sv1","""event"",""trial"",""time""
""fullscreenenter"",""1"",""8666""
""blur"",""2"",""10791""
""focus"",""2"",""12025""
","""event"",""trial"",""time""
""blur"",""2"",""10791""
","""event"",""trial"",""time""
""focus"",""2"",""12025""
","""event"",""trial"",""time""
""fullscreenenter"",""1"",""8666""
","
","","","","","","1420.5","<p> <b> That's right! </b> You will only have 10 seconds to make each choice. </p>","","0","comp_answer","","",""
"learning-instructions","42","254840","0.0-17.0","5392","approach_avoid_sv1","""event"",""trial"",""time""
""fullscreenenter"",""1"",""8666""
""blur"",""2"",""10791""
""focus"",""2"",""12025""
","""event"",""trial"",""time""
""blur"",""2"",""10791""
","""event"",""trial"",""time""
""focus"",""2"",""12025""
","""event"",""trial"",""time""
""fullscreenenter"",""1"",""8666""
","
","","","","","","1562.5","<p> Great! You are now ready to begin the game. </p><p> Remember, use the 1, 2, 3, and 4 keys to make your responses. </p>","","0","instructions","","",""
"html-keyboard-response","43","255460","0.0-18.0-0.0","5392","approach_avoid_sv1","""event"",""trial"",""time""
""fullscreenenter"",""1"",""8666""
""blur"",""2"",""10791""
""focus"",""2"",""12025""
","""event"",""trial"",""time""
""blur"",""2"",""10791""
","""event"",""trial"",""time""
""focus"",""2"",""12025""
","""event"",""trial"",""time""
""fullscreenenter"",""1"",""8666""
","
","","","","","","null","<div style=""font-size:60px;"">+</div>","null","","fixation","","",""
"memory-trial","44","258318","0.0-18.0-1.0","5392","approach_avoid_sv1","""event"",""trial"",""time""
""fullscreenenter"",""1"",""8666""
""blur"",""2"",""10791""
""focus"",""2"",""12025""
","""event"",""trial"",""time""
""blur"",""2"",""10791""
","""event"",""trial"",""time""
""focus"",""2"",""12025""
","""event"",""trial"",""time""
""fullscreenenter"",""1"",""8666""
","
","","","","","","1839.4000000953674","images/cat5.png","","","memory_trial","2","maybe_old",""
"html-keyboard-response","45","258829","0.0-18.0-0.1","5392","approach_avoid_sv1","""event"",""trial"",""time""
""fullscreenenter"",""1"",""8666""
""blur"",""2"",""10791""
""focus"",""2"",""12025""
","""event"",""trial"",""time""
""blur"",""2"",""10791""
","""event"",""trial"",""time""
""focus"",""2"",""12025""
","""event"",""trial"",""time""
""fullscreenenter"",""1"",""8666""
","
","","","","","","null","<div style=""font-size:60px;"">+</div>","null","","fixation","","",""
"memory-trial","46","261205","0.0-18.0-1.1","5392","approach_avoid_sv1","""event"",""trial"",""time""
""fullscreenenter"",""1"",""8666""
""blur"",""2"",""10791""
""focus"",""2"",""12025""
","""event"",""trial"",""time""
""blur"",""2"",""10791""
","""event"",""trial"",""time""
""focus"",""2"",""12025""
","""event"",""trial"",""time""
""fullscreenenter"",""1"",""8666""
","
","","","","","","1362.1999998092651","images/chair8.png","","","memory_trial","1","definitely_old",""
"html-keyboard-response","47","261715","0.0-18.0-0.2","5392","approach_avoid_sv1","""event"",""trial"",""time""
""fullscreenenter"",""1"",""8666""
""blur"",""2"",""10791""
""focus"",""2"",""12025""
","""event"",""trial"",""time""
""blur"",""2"",""10791""
","""event"",""trial"",""time""
""focus"",""2"",""12025""
","""event"",""trial"",""time""
""fullscreenenter"",""1"",""8666""
","
","","","","","","null","<div style=""font-size:60px;"">+</div>","null","","fixation","","",""
"memory-trial","48","263697","0.0-18.0-1.2","5392","approach_avoid_sv1","""event"",""trial"",""time""
""fullscreenenter"",""1"",""8666""
""blur"",""2"",""10791""
""focus"",""2"",""12025""
","""event"",""trial"",""time""
""blur"",""2"",""10791""
","""event"",""trial"",""time""
""focus"",""2"",""12025""
","""event"",""trial"",""time""
""fullscreenenter"",""1"",""8666""
","
","","","","","","956.2999997138977","images/cow8.png","","","memory_trial","4","definitely_new",""
"html-keyboard-response","49","264213","0.0-18.0-0.3","5392","approach_avoid_sv1","""event"",""trial"",""time""
""fullscreenenter"",""1"",""8666""
""blur"",""2"",""10791""
""focus"",""2"",""12025""
","""event"",""trial"",""time""
""blur"",""2"",""10791""
","""event"",""trial"",""time""
""focus"",""2"",""12025""
","""event"",""trial"",""time""
""fullscreenenter"",""1"",""8666""
","
","","","","","","null","<div style=""font-size:60px;"">+</div>","null","","fixation","","",""
"memory-trial","50","266753","0.0-18.0-1.3","5392","approach_avoid_sv1","""event"",""trial"",""time""
""fullscreenenter"",""1"",""8666""
""blur"",""2"",""10791""
""focus"",""2"",""12025""
","""event"",""trial"",""time""
""blur"",""2"",""10791""
","""event"",""trial"",""time""
""focus"",""2"",""12025""
","""event"",""trial"",""time""
""fullscreenenter"",""1"",""8666""
","
","","","","","","1520.4000000953674","images/orange2.png","","","memory_trial","3","maybe_new",""
"html-keyboard-response","51","267271","0.0-18.0-0.4","5392","approach_avoid_sv1","""event"",""trial"",""time""
""fullscreenenter"",""1"",""8666""
""blur"",""2"",""10791""
""focus"",""2"",""12025""
","""event"",""trial"",""time""
""blur"",""2"",""10791""
","""event"",""trial"",""time""
""focus"",""2"",""12025""
","""event"",""trial"",""time""
""fullscreenenter"",""1"",""8666""
","
","","","","","","null","<div style=""font-size:60px;"">+</div>","null","","fixation","","",""
"memory-trial","52","270114","0.0-18.0-1.4","5392","approach_avoid_sv1","""event"",""trial"",""time""
""fullscreenenter"",""1"",""8666""
""blur"",""2"",""10791""
""focus"",""2"",""12025""
","""event"",""trial"",""time""
""blur"",""2"",""10791""
","""event"",""trial"",""time""
""focus"",""2"",""12025""
","""event"",""trial"",""time""
""fullscreenenter"",""1"",""8666""
","
","","","","","","1824","images/apple6.png","","","memory_trial","3","maybe_new",""
"html-keyboard-response","53","270627","0.0-18.0-0.5","5392","approach_avoid_sv1","""event"",""trial"",""time""
""fullscreenenter"",""1"",""8666""
""blur"",""2"",""10791""
""focus"",""2"",""12025""
","""event"",""trial"",""time""
""blur"",""2"",""10791""
","""event"",""trial"",""time""
""focus"",""2"",""12025""
","""event"",""trial"",""time""
""fullscreenenter"",""1"",""8666""
","
","","","","","","null","<div style=""font-size:60px;"">+</div>","null","","fixation","","",""
"memory-trial","54","272904","0.0-18.0-1.5","5392","approach_avoid_sv1","""event"",""trial"",""time""
""fullscreenenter"",""1"",""8666""
""blur"",""2"",""10791""
""focus"",""2"",""12025""
","""event"",""trial"",""time""
""blur"",""2"",""10791""
","""event"",""trial"",""time""
""focus"",""2"",""12025""
","""event"",""trial"",""time""
""fullscreenenter"",""1"",""8666""
","
","","","","","","1255.6999998092651","images/train6.png","","","memory_trial","1","definitely_old",""
"html-keyboard-response","55","273415","0.0-18.0-0.6","5392","approach_avoid_sv1","""event"",""trial"",""time""
""fullscreenenter"",""1"",""8666""
""blur"",""2"",""10791""
""focus"",""2"",""12025""
","""event"",""trial"",""time""
""blur"",""2"",""10791""
","""event"",""trial"",""time""
""focus"",""2"",""12025""
","""event"",""trial"",""time""
""fullscreenenter"",""1"",""8666""
","
","","","","","","null","<div style=""font-size:60px;"">+</div>","null","","fixation","","",""
"memory-trial","56","275414","0.0-18.0-1.6","5392","approach_avoid_sv1","""event"",""trial"",""time""
""fullscreenenter"",""1"",""8666""
""blur"",""2"",""10791""
""focus"",""2"",""12025""
","""event"",""trial"",""time""
""blur"",""2"",""10791""
","""event"",""trial"",""time""
""focus"",""2"",""12025""
","""event"",""trial"",""time""
""fullscreenenter"",""1"",""8666""
","
","","","","","","989.5999999046326","images/bush3.png","","","memory_trial","1","definitely_old",""
"html-keyboard-response","57","275927","0.0-18.0-0.7","5392","approach_avoid_sv1","""event"",""trial"",""time""
""fullscreenenter"",""1"",""8666""
""blur"",""2"",""10791""
""focus"",""2"",""12025""
","""event"",""trial"",""time""
""blur"",""2"",""10791""
","""event"",""trial"",""time""
""focus"",""2"",""12025""
","""event"",""trial"",""time""
""fullscreenenter"",""1"",""8666""
","
","","","","","","null","<div style=""font-size:60px;"">+</div>","null","","fixation","","",""
"memory-trial","58","278657","0.0-18.0-1.7","5392","approach_avoid_sv1","""event"",""trial"",""time""
""fullscreenenter"",""1"",""8666""
""blur"",""2"",""10791""
""focus"",""2"",""12025""
","""event"",""trial"",""time""
""blur"",""2"",""10791""
","""event"",""trial"",""time""
""focus"",""2"",""12025""
","""event"",""trial"",""time""
""fullscreenenter"",""1"",""8666""
","
","","","","","","1713.3999996185303","images/goat5.png","","","memory_trial","3","maybe_new",""
"html-keyboard-response","59","279170","0.0-18.0-0.8","5392","approach_avoid_sv1","""event"",""trial"",""time""
""fullscreenenter"",""1"",""8666""
""blur"",""2"",""10791""
""focus"",""2"",""12025""
","""event"",""trial"",""time""
""blur"",""2"",""10791""
","""event"",""trial"",""time""
""focus"",""2"",""12025""
","""event"",""trial"",""time""
""fullscreenenter"",""1"",""8666""
","
","","","","","","null","<div style=""font-size:60px;"">+</div>","null","","fixation","","",""
"memory-trial","60","281431","0.0-18.0-1.8","5392","approach_avoid_sv1","""event"",""trial"",""time""
""fullscreenenter"",""1"",""8666""
""blur"",""2"",""10791""
""focus"",""2"",""12025""
","""event"",""trial"",""time""
""blur"",""2"",""10791""
","""event"",""trial"",""time""
""focus"",""2"",""12025""
","""event"",""trial"",""time""
""fullscreenenter"",""1"",""8666""
","
","","","","","","1242","images/orange8.png","","","memory_trial","3","maybe_new",""
"html-keyboard-response","61","281947","0.0-18.0-0.9","5392","approach_avoid_sv1","""event"",""trial"",""time""
""fullscreenenter"",""1"",""8666""
""blur"",""2"",""10791""
""focus"",""2"",""12025""
","""event"",""trial"",""time""
""blur"",""2"",""10791""
","""event"",""trial"",""time""
""focus"",""2"",""12025""
","""event"",""trial"",""time""
""fullscreenenter"",""1"",""8666""
","
","","","","","","null","<div style=""font-size:60px;"">+</div>","null","","fixation","","",""
"memory-trial","62","284282","0.0-18.0-1.9","5392","approach_avoid_sv1","""event"",""trial"",""time""
""fullscreenenter"",""1"",""8666""
""blur"",""2"",""10791""
""focus"",""2"",""12025""
","""event"",""trial"",""time""
""blur"",""2"",""10791""
","""event"",""trial"",""time""
""focus"",""2"",""12025""
","""event"",""trial"",""time""
""fullscreenenter"",""1"",""8666""
","
","","","","","","1332","images/banana3.png","","","memory_trial","1","definitely_old",""
"html-keyboard-response","63","284786","0.0-18.0-0.10","5392","approach_avoid_sv1","""event"",""trial"",""time""
""fullscreenenter"",""1"",""8666""
""blur"",""2"",""10791""
""focus"",""2"",""12025""
","""event"",""trial"",""time""
""blur"",""2"",""10791""
","""event"",""trial"",""time""
""focus"",""2"",""12025""
","""event"",""trial"",""time""
""fullscreenenter"",""1"",""8666""
","
","","","","","","null","<div style=""font-size:60px;"">+</div>","null","","fixation","","",""
"memory-trial","64","287170","0.0-18.0-1.10","5392","approach_avoid_sv1","""event"",""trial"",""time""
""fullscreenenter"",""1"",""8666""
""blur"",""2"",""10791""
""focus"",""2"",""12025""
","""event"",""trial"",""time""
""blur"",""2"",""10791""
","""event"",""trial"",""time""
""focus"",""2"",""12025""
","""event"",""trial"",""time""
""fullscreenenter"",""1"",""8666""
","
","","","","","","1381.4000000953674","images/cat1.png","","","memory_trial","4","definitely_new",""
"html-keyboard-response","65","287676","0.0-18.0-0.11","5392","approach_avoid_sv1","""event"",""trial"",""time""
""fullscreenenter"",""1"",""8666""
""blur"",""2"",""10791""
""focus"",""2"",""12025""
","""event"",""trial"",""time""
""blur"",""2"",""10791""
","""event"",""trial"",""time""
""focus"",""2"",""12025""
","""event"",""trial"",""time""
""fullscreenenter"",""1"",""8666""
","
","","","","","","null","<div style=""font-size:60px;"">+</div>","null","","fixation","","",""
"memory-trial","66","289778","0.0-18.0-1.11","5392","approach_avoid_sv1","""event"",""trial"",""time""
""fullscreenenter"",""1"",""8666""
""blur"",""2"",""10791""
""focus"",""2"",""12025""
","""event"",""trial"",""time""
""blur"",""2"",""10791""
","""event"",""trial"",""time""
""focus"",""2"",""12025""
","""event"",""trial"",""time""
""fullscreenenter"",""1"",""8666""
","
","","","","","","1098.9000000953674","images/tree3.png","","","memory_trial","1","definitely_old",""
"html-keyboard-response","67","290282","0.0-18.0-0.12","5392","approach_avoid_sv1","""event"",""trial"",""time""
""fullscreenenter"",""1"",""8666""
""blur"",""2"",""10791""
""focus"",""2"",""12025""
","""event"",""trial"",""time""
""blur"",""2"",""10791""
","""event"",""trial"",""time""
""focus"",""2"",""12025""
","""event"",""trial"",""time""
""fullscreenenter"",""1"",""8666""
","
","","","","","","null","<div style=""font-size:60px;"">+</div>","null","","fixation","","",""
"memory-trial","68","292586","0.0-18.0-1.12","5392","approach_avoid_sv1","""event"",""trial"",""time""
""fullscreenenter"",""1"",""8666""
""blur"",""2"",""10791""
""focus"",""2"",""12025""
","""event"",""trial"",""time""
""blur"",""2"",""10791""
","""event"",""trial"",""time""
""focus"",""2"",""12025""
","""event"",""trial"",""time""
""fullscreenenter"",""1"",""8666""
","
","","","","","","1298.4000000953674","images/flower1.png","","","memory_trial","3","maybe_new",""
"html-keyboard-response","69","293091","0.0-18.0-0.13","5392","approach_avoid_sv1","""event"",""trial"",""time""
""fullscreenenter"",""1"",""8666""
""blur"",""2"",""10791""
""focus"",""2"",""12025""
","""event"",""trial"",""time""
""blur"",""2"",""10791""
","""event"",""trial"",""time""
""focus"",""2"",""12025""
","""event"",""trial"",""time""
""fullscreenenter"",""1"",""8666""
","
","","","","","","null","<div style=""font-size:60px;"">+</div>","null","","fixation","","",""
"memory-trial","70","296205","0.0-18.0-1.13","5392","approach_avoid_sv1","""event"",""trial"",""time""
""fullscreenenter"",""1"",""8666""
""blur"",""2"",""10791""
""focus"",""2"",""12025""
","""event"",""trial"",""time""
""blur"",""2"",""10791""
","""event"",""trial"",""time""
""focus"",""2"",""12025""
","""event"",""trial"",""time""
""fullscreenenter"",""1"",""8666""
","
","","","","","","2096.5","images/horse2.png","","","memory_trial","1","definitely_old",""
"html-keyboard-response","71","296716","0.0-18.0-0.14","5392","approach_avoid_sv1","""event"",""trial"",""time""
""fullscreenenter"",""1"",""8666""
""blur"",""2"",""10791""
""focus"",""2"",""12025""
","""event"",""trial"",""time""
""blur"",""2"",""10791""
","""event"",""trial"",""time""
""focus"",""2"",""12025""
","""event"",""trial"",""time""
""fullscreenenter"",""1"",""8666""
","
","","","","","","null","<div style=""font-size:60px;"">+</div>","null","","fixation","","",""
"memory-trial","72","299115","0.0-18.0-1.14","5392","approach_avoid_sv1","""event"",""trial"",""time""
""fullscreenenter"",""1"",""8666""
""blur"",""2"",""10791""
""focus"",""2"",""12025""
","""event"",""trial"",""time""
""blur"",""2"",""10791""
","""event"",""trial"",""time""
""focus"",""2"",""12025""
","""event"",""trial"",""time""
""fullscreenenter"",""1"",""8666""
","
","","","","","","1394.2999997138977","images/chair3.png","","","memory_trial","2","maybe_old",""
"html-keyboard-response","73","299618","0.0-18.0-0.15","5392","approach_avoid_sv1","""event"",""trial"",""time""
""fullscreenenter"",""1"",""8666""
""blur"",""2"",""10791""
""focus"",""2"",""12025""
","""event"",""trial"",""time""
""blur"",""2"",""10791""
","""event"",""trial"",""time""
""focus"",""2"",""12025""
","""event"",""trial"",""time""
""fullscreenenter"",""1"",""8666""
","
","","","","","","null","<div style=""font-size:60px;"">+</div>","null","","fixation","","",""
"memory-trial","74","302101","0.0-18.0-1.15","5392","approach_avoid_sv1","""event"",""trial"",""time""
""fullscreenenter"",""1"",""8666""
""blur"",""2"",""10791""
""focus"",""2"",""12025""
","""event"",""trial"",""time""
""blur"",""2"",""10791""
","""event"",""trial"",""time""
""focus"",""2"",""12025""
","""event"",""trial"",""time""
""fullscreenenter"",""1"",""8666""
","
","","","","","","1475.5","images/sofa6.png","","","memory_trial","2","maybe_old",""
"html-keyboard-response","75","302610","0.0-18.0-0.16","5392","approach_avoid_sv1","""event"",""trial"",""time""
""fullscreenenter"",""1"",""8666""
""blur"",""2"",""10791""
""focus"",""2"",""12025""
","""event"",""trial"",""time""
""blur"",""2"",""10791""
","""event"",""trial"",""time""
""focus"",""2"",""12025""
","""event"",""trial"",""time""
""fullscreenenter"",""1"",""8666""
","
","","","","","","null","<div style=""font-size:60px;"">+</div>","null","","fixation","","",""
"memory-trial","76","304595","0.0-18.0-1.16","5392","approach_avoid_sv1","""event"",""trial"",""time""
""fullscreenenter"",""1"",""8666""
""blur"",""2"",""10791""
""focus"",""2"",""12025""
","""event"",""trial"",""time""
""blur"",""2"",""10791""
","""event"",""trial"",""time""
""focus"",""2"",""12025""
","""event"",""trial"",""time""
""fullscreenenter"",""1"",""8666""
","
","","","","","","976.5","images/bed7.png","","","memory_trial","2","maybe_old",""
"html-keyboard-response","77","305098","0.0-18.0-0.17","5392","approach_avoid_sv1","""event"",""trial"",""time""
""fullscreenenter"",""1"",""8666""
""blur"",""2"",""10791""
""focus"",""2"",""12025""
","""event"",""trial"",""time""
""blur"",""2"",""10791""
","""event"",""trial"",""time""
""focus"",""2"",""12025""
","""event"",""trial"",""time""
""fullscreenenter"",""1"",""8666""
","
","","","","","","null","<div style=""font-size:60px;"">+</div>","null","","fixation","","",""
"memory-trial","78","307474","0.0-18.0-1.17","5392","approach_avoid_sv1","""event"",""trial"",""time""
""fullscreenenter"",""1"",""8666""
""blur"",""2"",""10791""
""focus"",""2"",""12025""
","""event"",""trial"",""time""
""blur"",""2"",""10791""
","""event"",""trial"",""time""
""focus"",""2"",""12025""
","""event"",""trial"",""time""
""fullscreenenter"",""1"",""8666""
","
","","","","","","1372.9000000953674","images/chair2.png","","","memory_trial","1","definitely_old",""
"html-keyboard-response","79","307979","0.0-18.0-0.18","5392","approach_avoid_sv1","""event"",""trial"",""time""
""fullscreenenter"",""1"",""8666""
""blur"",""2"",""10791""
""focus"",""2"",""12025""
","""event"",""trial"",""time""
""blur"",""2"",""10791""
","""event"",""trial"",""time""
""focus"",""2"",""12025""
","""event"",""trial"",""time""
""fullscreenenter"",""1"",""8666""
","
","","","","","","null","<div style=""font-size:60px;"">+</div>","null","","fixation","","",""
"memory-trial","80","310010","0.0-18.0-1.18","5392","approach_avoid_sv1","""event"",""trial"",""time""
""fullscreenenter"",""1"",""8666""
""blur"",""2"",""10791""
""focus"",""2"",""12025""
","""event"",""trial"",""time""
""blur"",""2"",""10791""
","""event"",""trial"",""time""
""focus"",""2"",""12025""
","""event"",""trial"",""time""
""fullscreenenter"",""1"",""8666""
","
","","","","","","1023.7999997138977","images/chair5.png","","","memory_trial","1","definitely_old",""
"html-keyboard-response","81","310514","0.0-18.0-0.19","5392","approach_avoid_sv1","""event"",""trial"",""time""
""fullscreenenter"",""1"",""8666""
""blur"",""2"",""10791""
""focus"",""2"",""12025""
","""event"",""trial"",""time""
""blur"",""2"",""10791""
","""event"",""trial"",""time""
""focus"",""2"",""12025""
","""event"",""trial"",""time""
""fullscreenenter"",""1"",""8666""
","
","","","","","","null","<div style=""font-size:60px;"">+</div>","null","","fixation","","",""
"memory-trial","82","312531","0.0-18.0-1.19","5392","approach_avoid_sv1","""event"",""trial"",""time""
""fullscreenenter"",""1"",""8666""
""blur"",""2"",""10791""
""focus"",""2"",""12025""
","""event"",""trial"",""time""
""blur"",""2"",""10791""
","""event"",""trial"",""time""
""focus"",""2"",""12025""
","""event"",""trial"",""time""
""fullscreenenter"",""1"",""8666""
","
","","","","","","1006.8000001907349","images/goat1.png","","","memory_trial","4","definitely_new",""
"html-keyboard-response","83","313034","0.0-18.0-0.20","5392","approach_avoid_sv1","""event"",""trial"",""time""
""fullscreenenter"",""1"",""8666""
""blur"",""2"",""10791""
""focus"",""2"",""12025""
","""event"",""trial"",""time""
""blur"",""2"",""10791""
","""event"",""trial"",""time""
""focus"",""2"",""12025""
","""event"",""trial"",""time""
""fullscreenenter"",""1"",""8666""
","
","","","","","","null","<div style=""font-size:60px;"">+</div>","null","","fixation","","",""
"memory-trial","84","315067","0.0-18.0-1.20","5392","approach_avoid_sv1","""event"",""trial"",""time""
""fullscreenenter"",""1"",""8666""
""blur"",""2"",""10791""
""focus"",""2"",""12025""
","""event"",""trial"",""time""
""blur"",""2"",""10791""
","""event"",""trial"",""time""
""focus"",""2"",""12025""
","""event"",""trial"",""time""
""fullscreenenter"",""1"",""8666""
","
","","","","","","1022.5","images/goat3.png","","","memory_trial","4","definitely_new",""
"html-keyboard-response","85","315570","0.0-18.0-0.21","5392","approach_avoid_sv1","""event"",""trial"",""time""
""fullscreenenter"",""1"",""8666""
""blur"",""2"",""10791""
""focus"",""2"",""12025""
","""event"",""trial"",""time""
""blur"",""2"",""10791""
","""event"",""trial"",""time""
""focus"",""2"",""12025""
","""event"",""trial"",""time""
""fullscreenenter"",""1"",""8666""
","
","","","","","","null","<div style=""font-size:60px;"">+</div>","null","","fixation","","",""
"memory-trial","86","317819","0.0-18.0-1.21","5392","approach_avoid_sv1","""event"",""trial"",""time""
""fullscreenenter"",""1"",""8666""
""blur"",""2"",""10791""
""focus"",""2"",""12025""
","""event"",""trial"",""time""
""blur"",""2"",""10791""
","""event"",""trial"",""time""
""focus"",""2"",""12025""
","""event"",""trial"",""time""
""fullscreenenter"",""1"",""8666""
","
","","","","","","1245.5","images/tree6.png","","","memory_trial","3","maybe_new",""
"html-keyboard-response","87","318322","0.0-18.0-0.22","5392","approach_avoid_sv1","""event"",""trial"",""time""
""fullscreenenter"",""1"",""8666""
""blur"",""2"",""10791""
""focus"",""2"",""12025""
","""event"",""trial"",""time""
""blur"",""2"",""10791""
","""event"",""trial"",""time""
""focus"",""2"",""12025""
","""event"",""trial"",""time""
""fullscreenenter"",""1"",""8666""
","
","","","","","","null","<div style=""font-size:60px;"">+</div>","null","","fixation","","",""
"memory-trial","88","321030","0.0-18.0-1.22","5392","approach_avoid_sv1","""event"",""trial"",""time""
""fullscreenenter"",""1"",""8666""
""blur"",""2"",""10791""
""focus"",""2"",""12025""
","""event"",""trial"",""time""
""blur"",""2"",""10791""
","""event"",""trial"",""time""
""focus"",""2"",""12025""
","""event"",""trial"",""time""
""fullscreenenter"",""1"",""8666""
","
","","","","","","1687.8000001907349","images/table7.png","","","memory_trial","2","maybe_old",""
"html-keyboard-response","89","321538","0.0-18.0-0.23","5392","approach_avoid_sv1","""event"",""trial"",""time""
""fullscreenenter"",""1"",""8666""
""blur"",""2"",""10791""
""focus"",""2"",""12025""
","""event"",""trial"",""time""
""blur"",""2"",""10791""
","""event"",""trial"",""time""
""focus"",""2"",""12025""
","""event"",""trial"",""time""
""fullscreenenter"",""1"",""8666""
","
","","","","","","null","<div style=""font-size:60px;"">+</div>","null","","fixation","","",""
"memory-trial","90","324211","0.0-18.0-1.23","5392","approach_avoid_sv1","""event"",""trial"",""time""
""fullscreenenter"",""1"",""8666""
""blur"",""2"",""10791""
""focus"",""2"",""12025""
","""event"",""trial"",""time""
""blur"",""2"",""10791""
","""event"",""trial"",""time""
""focus"",""2"",""12025""
","""event"",""trial"",""time""
""fullscreenenter"",""1"",""8666""
","
","","","","","","1667.1000003814697","images/sofa3.png","","","memory_trial","3","maybe_new",""
"html-keyboard-response","91","324714","0.0-18.0-0.24","5392","approach_avoid_sv1","""event"",""trial"",""time""
""fullscreenenter"",""1"",""8666""
""blur"",""2"",""10791""
""focus"",""2"",""12025""
","""event"",""trial"",""time""
""blur"",""2"",""10791""
","""event"",""trial"",""time""
""focus"",""2"",""12025""
","""event"",""trial"",""time""
""fullscreenenter"",""1"",""8666""
","
","","","","","","null","<div style=""font-size:60px;"">+</div>","null","","fixation","","",""
"memory-trial","92","326979","0.0-18.0-1.24","5392","approach_avoid_sv1","""event"",""trial"",""time""
""fullscreenenter"",""1"",""8666""
""blur"",""2"",""10791""
""focus"",""2"",""12025""
","""event"",""trial"",""time""
""blur"",""2"",""10791""
","""event"",""trial"",""time""
""focus"",""2"",""12025""
","""event"",""trial"",""time""
""fullscreenenter"",""1"",""8666""
","
","","","","","","1254.7999997138977","images/horse5.png","","","memory_trial","4","definitely_new",""
"html-keyboard-response","93","327482","0.0-18.0-0.25","5392","approach_avoid_sv1","""event"",""trial"",""time""
""fullscreenenter"",""1"",""8666""
""blur"",""2"",""10791""
""focus"",""2"",""12025""
","""event"",""trial"",""time""
""blur"",""2"",""10791""
","""event"",""trial"",""time""
""focus"",""2"",""12025""
","""event"",""trial"",""time""
""fullscreenenter"",""1"",""8666""
","
","","","","","","null","<div style=""font-size:60px;"">+</div>","null","","fixation","","",""
"memory-trial","94","330436","0.0-18.0-1.25","5392","approach_avoid_sv1","""event"",""trial"",""time""
""fullscreenenter"",""1"",""8666""
""blur"",""2"",""10791""
""focus"",""2"",""12025""
","""event"",""trial"",""time""
""blur"",""2"",""10791""
","""event"",""trial"",""time""
""focus"",""2"",""12025""
","""event"",""trial"",""time""
""fullscreenenter"",""1"",""8666""
","
","","","","","","1945.4000000953674","images/sheep8.png","","","memory_trial","2","maybe_old",""
"html-keyboard-response","95","330938","0.0-18.0-0.26","5392","approach_avoid_sv1","""event"",""trial"",""time""
""fullscreenenter"",""1"",""8666""
""blur"",""2"",""10791""
""focus"",""2"",""12025""
","""event"",""trial"",""time""
""blur"",""2"",""10791""
","""event"",""trial"",""time""
""focus"",""2"",""12025""
","""event"",""trial"",""time""
""fullscreenenter"",""1"",""8666""
","
","","","","","","null","<div style=""font-size:60px;"">+</div>","null","","fixation","","",""
"memory-trial","96","333475","0.0-18.0-1.26","5392","approach_avoid_sv1","""event"",""trial"",""time""
""fullscreenenter"",""1"",""8666""
""blur"",""2"",""10791""
""focus"",""2"",""12025""
","""event"",""trial"",""time""
""blur"",""2"",""10791""
","""event"",""trial"",""time""
""focus"",""2"",""12025""
","""event"",""trial"",""time""
""fullscreenenter"",""1"",""8666""
","
","","","","","","1528.3000001907349","images/banana6.png","","","memory_trial","4","definitely_new",""
"html-keyboard-response","97","333978","0.0-18.0-0.27","5392","approach_avoid_sv1","""event"",""trial"",""time""
""fullscreenenter"",""1"",""8666""
""blur"",""2"",""10791""
""focus"",""2"",""12025""
","""event"",""trial"",""time""
""blur"",""2"",""10791""
","""event"",""trial"",""time""
""focus"",""2"",""12025""
","""event"",""trial"",""time""
""fullscreenenter"",""1"",""8666""
","
","","","","","","null","<div style=""font-size:60px;"">+</div>","null","","fixation","","",""
"memory-trial","98","336202","0.0-18.0-1.27","5392","approach_avoid_sv1","""event"",""trial"",""time""
""fullscreenenter"",""1"",""8666""
""blur"",""2"",""10791""
""focus"",""2"",""12025""
","""event"",""trial"",""time""
""blur"",""2"",""10791""
","""event"",""trial"",""time""
""focus"",""2"",""12025""
","""event"",""trial"",""time""
""fullscreenenter"",""1"",""8666""
","
","","","","","","1219.5999999046326","images/chair6.png","","","memory_trial","4","definitely_new",""
"html-keyboard-response","99","336706","0.0-18.0-0.28","5392","approach_avoid_sv1","""event"",""trial"",""time""
""fullscreenenter"",""1"",""8666""
""blur"",""2"",""10791""
""focus"",""2"",""12025""
","""event"",""trial"",""time""
""blur"",""2"",""10791""
","""event"",""trial"",""time""
""focus"",""2"",""12025""
","""event"",""trial"",""time""
""fullscreenenter"",""1"",""8666""
","
","","","","","","null","<div style=""font-size:60px;"">+</div>","null","","fixation","","",""
"memory-trial","100","339970","0.0-18.0-1.28","5392","approach_avoid_sv1","""event"",""trial"",""time""
""fullscreenenter"",""1"",""8666""
""blur"",""2"",""10791""
""focus"",""2"",""12025""
","""event"",""trial"",""time""
""blur"",""2"",""10791""
","""event"",""trial"",""time""
""focus"",""2"",""12025""
","""event"",""trial"",""time""
""fullscreenenter"",""1"",""8666""
","
","","","","","","2252.199999809265","images/boat8.png","","","memory_trial","2","maybe_old",""
"html-keyboard-response","101","340475","0.0-18.0-0.29","5392","approach_avoid_sv1","""event"",""trial"",""time""
""fullscreenenter"",""1"",""8666""
""blur"",""2"",""10791""
""focus"",""2"",""12025""
","""event"",""trial"",""time""
""blur"",""2"",""10791""
","""event"",""trial"",""time""
""focus"",""2"",""12025""
","""event"",""trial"",""time""
""fullscreenenter"",""1"",""8666""
","
","","","","","","null","<div style=""font-size:60px;"">+</div>","null","","fixation","","",""
"memory-trial","102","343579","0.0-18.0-1.29","5392","approach_avoid_sv1","""event"",""trial"",""time""
""fullscreenenter"",""1"",""8666""
""blur"",""2"",""10791""
""focus"",""2"",""12025""
","""event"",""trial"",""time""
""blur"",""2"",""10791""
","""event"",""trial"",""time""
""focus"",""2"",""12025""
","""event"",""trial"",""time""
""fullscreenenter"",""1"",""8666""
","
","","","","","","2093.0999999046326","images/sheep5.png","","","memory_trial","4","definitely_new",""
"html-keyboard-response","103","344082","0.0-18.0-0.30","5392","approach_avoid_sv1","""event"",""trial"",""time""
""fullscreenenter"",""1"",""8666""
""blur"",""2"",""10791""
""focus"",""2"",""12025""
","""event"",""trial"",""time""
""blur"",""2"",""10791""
","""event"",""trial"",""time""
""focus"",""2"",""12025""
","""event"",""trial"",""time""
""fullscreenenter"",""1"",""8666""
","
","","","","","","null","<div style=""font-size:60px;"">+</div>","null","","fixation","","",""
"memory-trial","104","346124","0.0-18.0-1.30","5392","approach_avoid_sv1","""event"",""trial"",""time""
""fullscreenenter"",""1"",""8666""
""blur"",""2"",""10791""
""focus"",""2"",""12025""
","""event"",""trial"",""time""
""blur"",""2"",""10791""
","""event"",""trial"",""time""
""focus"",""2"",""12025""
","""event"",""trial"",""time""
""fullscreenenter"",""1"",""8666""
","
","","","","","","1033.7000002861023","images/bush6.png","","","memory_trial","1","definitely_old",""
"html-keyboard-response","105","346626","0.0-18.0-0.31","5392","approach_avoid_sv1","""event"",""trial"",""time""
""fullscreenenter"",""1"",""8666""
""blur"",""2"",""10791""
""focus"",""2"",""12025""
","""event"",""trial"",""time""
""blur"",""2"",""10791""
","""event"",""trial"",""time""
""focus"",""2"",""12025""
","""event"",""trial"",""time""
""fullscreenenter"",""1"",""8666""
","
","","","","","","null","<div style=""font-size:60px;"">+</div>","null","","fixation","","",""
"memory-trial","106","350731","0.0-18.0-1.31","5392","approach_avoid_sv1","""event"",""trial"",""time""
""fullscreenenter"",""1"",""8666""
""blur"",""2"",""10791""
""focus"",""2"",""12025""
","""event"",""trial"",""time""
""blur"",""2"",""10791""
","""event"",""trial"",""time""
""focus"",""2"",""12025""
","""event"",""trial"",""time""
""fullscreenenter"",""1"",""8666""
","
","","","","","","3098.7000002861023","images/rabbit8.png","","","memory_trial","4","definitely_new",""
"html-keyboard-response","107","351235","0.0-18.0-0.32","5392","approach_avoid_sv1","""event"",""trial"",""time""
""fullscreenenter"",""1"",""8666""
""blur"",""2"",""10791""
""focus"",""2"",""12025""
","""event"",""trial"",""time""
""blur"",""2"",""10791""
","""event"",""trial"",""time""
""focus"",""2"",""12025""
","""event"",""trial"",""time""
""fullscreenenter"",""1"",""8666""
","
","","","","","","null","<div style=""font-size:60px;"">+</div>","null","","fixation","","",""
"memory-trial","108","353522","0.0-18.0-1.32","5392","approach_avoid_sv1","""event"",""trial"",""time""
""fullscreenenter"",""1"",""8666""
""blur"",""2"",""10791""
""focus"",""2"",""12025""
","""event"",""trial"",""time""
""blur"",""2"",""10791""
","""event"",""trial"",""time""
""focus"",""2"",""12025""
","""event"",""trial"",""time""
""fullscreenenter"",""1"",""8666""
","
","","","","","","1284","images/rodent7.png","","","memory_trial","2","maybe_old",""
"html-keyboard-response","109","354027","0.0-18.0-0.33","5392","approach_avoid_sv1","""event"",""trial"",""time""
""fullscreenenter"",""1"",""8666""
""blur"",""2"",""10791""
""focus"",""2"",""12025""
","""event"",""trial"",""time""
""blur"",""2"",""10791""
","""event"",""trial"",""time""
""focus"",""2"",""12025""
","""event"",""trial"",""time""
""fullscreenenter"",""1"",""8666""
","
","","","","","","null","<div style=""font-size:60px;"">+</div>","null","","fixation","","",""
"memory-trial","110","356371","0.0-18.0-1.33","5392","approach_avoid_sv1","""event"",""trial"",""time""
""fullscreenenter"",""1"",""8666""
""blur"",""2"",""10791""
""focus"",""2"",""12025""
","""event"",""trial"",""time""
""blur"",""2"",""10791""
","""event"",""trial"",""time""
""focus"",""2"",""12025""
","""event"",""trial"",""time""
""fullscreenenter"",""1"",""8666""
","
","","","","","","1336","images/tree5.png","","","memory_trial","4","definitely_new",""
"html-keyboard-response","111","356875","0.0-18.0-0.34","5392","approach_avoid_sv1","""event"",""trial"",""time""
""fullscreenenter"",""1"",""8666""
""blur"",""2"",""10791""
""focus"",""2"",""12025""
","""event"",""trial"",""time""
""blur"",""2"",""10791""
","""event"",""trial"",""time""
""focus"",""2"",""12025""
","""event"",""trial"",""time""
""fullscreenenter"",""1"",""8666""
","
","","","","","","null","<div style=""font-size:60px;"">+</div>","null","","fixation","","",""
"memory-trial","112","359755","0.0-18.0-1.34","5392","approach_avoid_sv1","""event"",""trial"",""time""
""fullscreenenter"",""1"",""8666""
""blur"",""2"",""10791""
""focus"",""2"",""12025""
","""event"",""trial"",""time""
""blur"",""2"",""10791""
","""event"",""trial"",""time""
""focus"",""2"",""12025""
","""event"",""trial"",""time""
""fullscreenenter"",""1"",""8666""
","
","","","","","","1873.1000003814697","images/banana1.png","","","memory_trial","2","maybe_old",""
"html-keyboard-response","113","360258","0.0-18.0-0.35","5392","approach_avoid_sv1","""event"",""trial"",""time""
""fullscreenenter"",""1"",""8666""
""blur"",""2"",""10791""
""focus"",""2"",""12025""
","""event"",""trial"",""time""
""blur"",""2"",""10791""
","""event"",""trial"",""time""
""focus"",""2"",""12025""
","""event"",""trial"",""time""
""fullscreenenter"",""1"",""8666""
","
","","","","","","null","<div style=""font-size:60px;"">+</div>","null","","fixation","","",""
"memory-trial","114","362458","0.0-18.0-1.35","5392","approach_avoid_sv1","""event"",""trial"",""time""
""fullscreenenter"",""1"",""8666""
""blur"",""2"",""10791""
""focus"",""2"",""12025""
","""event"",""trial"",""time""
""blur"",""2"",""10791""
","""event"",""trial"",""time""
""focus"",""2"",""12025""
","""event"",""trial"",""time""
""fullscreenenter"",""1"",""8666""
","
","","","","","","1195.5999999046326","images/bush7.png","","","memory_trial","3","maybe_new",""
"html-keyboard-response","115","362962","0.0-18.0-0.36","5392","approach_avoid_sv1","""event"",""trial"",""time""
""fullscreenenter"",""1"",""8666""
""blur"",""2"",""10791""
""focus"",""2"",""12025""
","""event"",""trial"",""time""
""blur"",""2"",""10791""
","""event"",""trial"",""time""
""focus"",""2"",""12025""
","""event"",""trial"",""time""
""fullscreenenter"",""1"",""8666""
","
","","","","","","null","<div style=""font-size:60px;"">+</div>","null","","fixation","","",""
"memory-trial","116","365147","0.0-18.0-1.36","5392","approach_avoid_sv1","""event"",""trial"",""time""
""fullscreenenter"",""1"",""8666""
""blur"",""2"",""10791""
""focus"",""2"",""12025""
","""event"",""trial"",""time""
""blur"",""2"",""10791""
","""event"",""trial"",""time""
""focus"",""2"",""12025""
","""event"",""trial"",""time""
""fullscreenenter"",""1"",""8666""
","
","","","","","","1180.2999997138977","images/tree2.png","","","memory_trial","1","definitely_old",""
"html-keyboard-response","117","365651","0.0-18.0-0.37","5392","approach_avoid_sv1","""event"",""trial"",""time""
""fullscreenenter"",""1"",""8666""
""blur"",""2"",""10791""
""focus"",""2"",""12025""
","""event"",""trial"",""time""
""blur"",""2"",""10791""
","""event"",""trial"",""time""
""focus"",""2"",""12025""
","""event"",""trial"",""time""
""fullscreenenter"",""1"",""8666""
","
","","","","","","null","<div style=""font-size:60px;"">+</div>","null","","fixation","","",""
"memory-trial","118","368107","0.0-18.0-1.37","5392","approach_avoid_sv1","""event"",""trial"",""time""
""fullscreenenter"",""1"",""8666""
""blur"",""2"",""10791""
""focus"",""2"",""12025""
","""event"",""trial"",""time""
""blur"",""2"",""10791""
","""event"",""trial"",""time""
""focus"",""2"",""12025""
","""event"",""trial"",""time""
""fullscreenenter"",""1"",""8666""
","
","","","","","","1449.0999999046326","images/rabbit1.png","","","memory_trial","4","definitely_new",""
"html-keyboard-response","119","368611","0.0-18.0-0.38","5392","approach_avoid_sv1","""event"",""trial"",""time""
""fullscreenenter"",""1"",""8666""
""blur"",""2"",""10791""
""focus"",""2"",""12025""
","""event"",""trial"",""time""
""blur"",""2"",""10791""
","""event"",""trial"",""time""
""focus"",""2"",""12025""
","""event"",""trial"",""time""
""fullscreenenter"",""1"",""8666""
","
","","","","","","null","<div style=""font-size:60px;"">+</div>","null","","fixation","","",""
"memory-trial","120","370787","0.0-18.0-1.38","5392","approach_avoid_sv1","""event"",""trial"",""time""
""fullscreenenter"",""1"",""8666""
""blur"",""2"",""10791""
""focus"",""2"",""12025""
","""event"",""trial"",""time""
""blur"",""2"",""10791""
","""event"",""trial"",""time""
""focus"",""2"",""12025""
","""event"",""trial"",""time""
""fullscreenenter"",""1"",""8666""
","
","","","","","","1170.2999997138977","images/bed1.png","","","memory_trial","2","maybe_old",""
"html-keyboard-response","121","371291","0.0-18.0-0.39","5392","approach_avoid_sv1","""event"",""trial"",""time""
""fullscreenenter"",""1"",""8666""
""blur"",""2"",""10791""
""focus"",""2"",""12025""
","""event"",""trial"",""time""
""blur"",""2"",""10791""
","""event"",""trial"",""time""
""focus"",""2"",""12025""
","""event"",""trial"",""time""
""fullscreenenter"",""1"",""8666""
","
","","","","","","null","<div style=""font-size:60px;"">+</div>","null","","fixation","","",""
"memory-trial","122","373467","0.0-18.0-1.39","5392","approach_avoid_sv1","""event"",""trial"",""time""
""fullscreenenter"",""1"",""8666""
""blur"",""2"",""10791""
""focus"",""2"",""12025""
","""event"",""trial"",""time""
""blur"",""2"",""10791""
","""event"",""trial"",""time""
""focus"",""2"",""12025""
","""event"",""trial"",""time""
""fullscreenenter"",""1"",""8666""
","
","","","","","","1172.1999998092651","images/cat3.png","","","memory_trial","1","definitely_old",""
"html-keyboard-response","123","373984","0.0-18.0-0.40","5392","approach_avoid_sv1","""event"",""trial"",""time""
""fullscreenenter"",""1"",""8666""
""blur"",""2"",""10791""
""focus"",""2"",""12025""
","""event"",""trial"",""time""
""blur"",""2"",""10791""
","""event"",""trial"",""time""
""focus"",""2"",""12025""
","""event"",""trial"",""time""
""fullscreenenter"",""1"",""8666""
","
","","","","","","null","<div style=""font-size:60px;"">+</div>","null","","fixation","","",""
"memory-trial","124","376627","0.0-18.0-1.40","5392","approach_avoid_sv1","""event"",""trial"",""time""
""fullscreenenter"",""1"",""8666""
""blur"",""2"",""10791""
""focus"",""2"",""12025""
","""event"",""trial"",""time""
""blur"",""2"",""10791""
","""event"",""trial"",""time""
""focus"",""2"",""12025""
","""event"",""trial"",""time""
""fullscreenenter"",""1"",""8666""
","
","","","","","","1627.2999997138977","images/horse3.png","","","memory_trial","3","maybe_new",""
"html-keyboard-response","125","377131","0.0-18.0-0.41","5392","approach_avoid_sv1","""event"",""trial"",""time""
""fullscreenenter"",""1"",""8666""
""blur"",""2"",""10791""
""focus"",""2"",""12025""
","""event"",""trial"",""time""
""blur"",""2"",""10791""
","""event"",""trial"",""time""
""focus"",""2"",""12025""
","""event"",""trial"",""time""
""fullscreenenter"",""1"",""8666""
","
","","","","","","null","<div style=""font-size:60px;"">+</div>","null","","fixation","","",""
"memory-trial","126","379603","0.0-18.0-1.41","5392","approach_avoid_sv1","""event"",""trial"",""time""
""fullscreenenter"",""1"",""8666""
""blur"",""2"",""10791""
""focus"",""2"",""12025""
","""event"",""trial"",""time""
""blur"",""2"",""10791""
","""event"",""trial"",""time""
""focus"",""2"",""12025""
","""event"",""trial"",""time""
""fullscreenenter"",""1"",""8666""
","
","","","","","","1461.4000000953674","images/plane7.png","","","memory_trial","2","maybe_old",""
"html-button-response","127","382641","0.0-18.0-2.41-0.41","5392","approach_avoid_sv1","""event"",""trial"",""time""
""fullscreenenter"",""1"",""8666""
""blur"",""2"",""10791""
""focus"",""2"",""12025""
","""event"",""trial"",""time""
""blur"",""2"",""10791""
","""event"",""trial"",""time""
""focus"",""2"",""12025""
","""event"",""trial"",""time""
""fullscreenenter"",""1"",""8666""
","
","","","","","","3037.5999999046326","<p> Take a break! </p><p> Click the button to continue. </p>","0","","break","","",""
"html-keyboard-response","128","383147","0.0-18.0-0.42","5392","approach_avoid_sv1","""event"",""trial"",""time""
""fullscreenenter"",""1"",""8666""
""blur"",""2"",""10791""
""focus"",""2"",""12025""
","""event"",""trial"",""time""
""blur"",""2"",""10791""
","""event"",""trial"",""time""
""focus"",""2"",""12025""
","""event"",""trial"",""time""
""fullscreenenter"",""1"",""8666""
","
","","","","","","null","<div style=""font-size:60px;"">+</div>","null","","fixation","","",""
"memory-trial","129","385371","0.0-18.0-1.42","5392","approach_avoid_sv1","""event"",""trial"",""time""
""fullscreenenter"",""1"",""8666""
""blur"",""2"",""10791""
""focus"",""2"",""12025""
","""event"",""trial"",""time""
""blur"",""2"",""10791""
","""event"",""trial"",""time""
""focus"",""2"",""12025""
","""event"",""trial"",""time""
""fullscreenenter"",""1"",""8666""
","
","","","","","","1214.6000003814697","images/boat5.png","","","memory_trial","1","definitely_old",""
"html-keyboard-response","130","385875","0.0-18.0-0.43","5392","approach_avoid_sv1","""event"",""trial"",""time""
""fullscreenenter"",""1"",""8666""
""blur"",""2"",""10791""
""focus"",""2"",""12025""
","""event"",""trial"",""time""
""blur"",""2"",""10791""
","""event"",""trial"",""time""
""focus"",""2"",""12025""
","""event"",""trial"",""time""
""fullscreenenter"",""1"",""8666""
","
","","","","","","null","<div style=""font-size:60px;"">+</div>","null","","fixation","","",""
"memory-trial","131","388217","0.0-18.0-1.43","5392","approach_avoid_sv1","""event"",""trial"",""time""
""fullscreenenter"",""1"",""8666""
""blur"",""2"",""10791""
""focus"",""2"",""12025""
","""event"",""trial"",""time""
""blur"",""2"",""10791""
","""event"",""trial"",""time""
""focus"",""2"",""12025""
","""event"",""trial"",""time""
""fullscreenenter"",""1"",""8666""
","
","","","","","","1331","images/cactus8.png","","","memory_trial","3","maybe_new",""
"html-keyboard-response","132","388723","0.0-18.0-0.44","5392","approach_avoid_sv1","""event"",""trial"",""time""
""fullscreenenter"",""1"",""8666""
""blur"",""2"",""10791""
""focus"",""2"",""12025""
","""event"",""trial"",""time""
""blur"",""2"",""10791""
","""event"",""trial"",""time""
""focus"",""2"",""12025""
","""event"",""trial"",""time""
""fullscreenenter"",""1"",""8666""
","
","","","","","","null","<div style=""font-size:60px;"">+</div>","null","","fixation","","",""
"memory-trial","133","391300","0.0-18.0-1.44","5392","approach_avoid_sv1","""event"",""trial"",""time""
""fullscreenenter"",""1"",""8666""
""blur"",""2"",""10791""
""focus"",""2"",""12025""
","""event"",""trial"",""time""
""blur"",""2"",""10791""
","""event"",""trial"",""time""
""focus"",""2"",""12025""
","""event"",""trial"",""time""
""fullscreenenter"",""1"",""8666""
","
","","","","","","1571.9000000953674","images/straw1.png","","","memory_trial","3","maybe_new",""
"html-keyboard-response","134","391803","0.0-18.0-0.45","5392","approach_avoid_sv1","""event"",""trial"",""time""
""fullscreenenter"",""1"",""8666""
""blur"",""2"",""10791""
""focus"",""2"",""12025""
","""event"",""trial"",""time""
""blur"",""2"",""10791""
","""event"",""trial"",""time""
""focus"",""2"",""12025""
","""event"",""trial"",""time""
""fullscreenenter"",""1"",""8666""
","
","","","","","","null","<div style=""font-size:60px;"">+</div>","null","","fixation","","",""
"memory-trial","135","394268","0.0-18.0-1.45","5392","approach_avoid_sv1","""event"",""trial"",""time""
""fullscreenenter"",""1"",""8666""
""blur"",""2"",""10791""
""focus"",""2"",""12025""
","""event"",""trial"",""time""
""blur"",""2"",""10791""
","""event"",""trial"",""time""
""focus"",""2"",""12025""
","""event"",""trial"",""time""
""fullscreenenter"",""1"",""8666""
","
","","","","","","1453.2999997138977","images/table8.png","","","memory_trial","2","maybe_old",""
"html-keyboard-response","136","394779","0.0-18.0-0.46","5392","approach_avoid_sv1","""event"",""trial"",""time""
""fullscreenenter"",""1"",""8666""
""blur"",""2"",""10791""
""focus"",""2"",""12025""
","""event"",""trial"",""time""
""blur"",""2"",""10791""
","""event"",""trial"",""time""
""focus"",""2"",""12025""
","""event"",""trial"",""time""
""fullscreenenter"",""1"",""8666""
","
","","","","","","null","<div style=""font-size:60px;"">+</div>","null","","fixation","","",""
"memory-trial","137","397715","0.0-18.0-1.46","5392","approach_avoid_sv1","""event"",""trial"",""time""
""fullscreenenter"",""1"",""8666""
""blur"",""2"",""10791""
""focus"",""2"",""12025""
","""event"",""trial"",""time""
""blur"",""2"",""10791""
","""event"",""trial"",""time""
""focus"",""2"",""12025""
","""event"",""trial"",""time""
""fullscreenenter"",""1"",""8666""
","
","","","","","","1927.4000000953674","images/tree7.png","","","memory_trial","2","maybe_old",""
"html-keyboard-response","138","398228","0.0-18.0-0.47","5392","approach_avoid_sv1","""event"",""trial"",""time""
""fullscreenenter"",""1"",""8666""
""blur"",""2"",""10791""
""focus"",""2"",""12025""
","""event"",""trial"",""time""
""blur"",""2"",""10791""
","""event"",""trial"",""time""
""focus"",""2"",""12025""
","""event"",""trial"",""time""
""fullscreenenter"",""1"",""8666""
","
","","","","","","null","<div style=""font-size:60px;"">+</div>","null","","fixation","","",""
"memory-trial","139","400499","0.0-18.0-1.47","5392","approach_avoid_sv1","""event"",""trial"",""time""
""fullscreenenter"",""1"",""8666""
""blur"",""2"",""10791""
""focus"",""2"",""12025""
","""event"",""trial"",""time""
""blur"",""2"",""10791""
","""event"",""trial"",""time""
""focus"",""2"",""12025""
","""event"",""trial"",""time""
""fullscreenenter"",""1"",""8666""
","
","","","","","","1260.7999997138977","images/truck5.png","","","memory_trial","4","definitely_new",""
"html-keyboard-response","140","401003","0.0-18.0-0.48","5392","approach_avoid_sv1","""event"",""trial"",""time""
""fullscreenenter"",""1"",""8666""
""blur"",""2"",""10791""
""focus"",""2"",""12025""
","""event"",""trial"",""time""
""blur"",""2"",""10791""
","""event"",""trial"",""time""
""focus"",""2"",""12025""
","""event"",""trial"",""time""
""fullscreenenter"",""1"",""8666""
","
","","","","","","null","<div style=""font-size:60px;"">+</div>","null","","fixation","","",""
"memory-trial","141","403867","0.0-18.0-1.48","5392","approach_avoid_sv1","""event"",""trial"",""time""
""fullscreenenter"",""1"",""8666""
""blur"",""2"",""10791""
""focus"",""2"",""12025""
","""event"",""trial"",""time""
""blur"",""2"",""10791""
","""event"",""trial"",""time""
""focus"",""2"",""12025""
","""event"",""trial"",""time""
""fullscreenenter"",""1"",""8666""
","
","","","","","","1859.1000003814697","images/cactus5.png","","","memory_trial","1","definitely_old",""
"html-keyboard-response","142","404371","0.0-18.0-0.49","5392","approach_avoid_sv1","""event"",""trial"",""time""
""fullscreenenter"",""1"",""8666""
""blur"",""2"",""10791""
""focus"",""2"",""12025""
","""event"",""trial"",""time""
""blur"",""2"",""10791""
","""event"",""trial"",""time""
""focus"",""2"",""12025""
","""event"",""trial"",""time""
""fullscreenenter"",""1"",""8666""
","
","","","","","","null","<div style=""font-size:60px;"">+</div>","null","","fixation","","",""
"memory-trial","143","406347","0.0-18.0-1.49","5392","approach_avoid_sv1","""event"",""trial"",""time""
""fullscreenenter"",""1"",""8666""
""blur"",""2"",""10791""
""focus"",""2"",""12025""
","""event"",""trial"",""time""
""blur"",""2"",""10791""
","""event"",""trial"",""time""
""focus"",""2"",""12025""
","""event"",""trial"",""time""
""fullscreenenter"",""1"",""8666""
","
","","","","","","965.0999999046326","images/straw3.png","","","memory_trial","3","maybe_new",""
"html-keyboard-response","144","406850","0.0-18.0-0.50","5392","approach_avoid_sv1","""event"",""trial"",""time""
""fullscreenenter"",""1"",""8666""
""blur"",""2"",""10791""
""focus"",""2"",""12025""
","""event"",""trial"",""time""
""blur"",""2"",""10791""
","""event"",""trial"",""time""
""focus"",""2"",""12025""
","""event"",""trial"",""time""
""fullscreenenter"",""1"",""8666""
","
","","","","","","null","<div style=""font-size:60px;"">+</div>","null","","fixation","","",""
"memory-trial","145","409331","0.0-18.0-1.50","5392","approach_avoid_sv1","""event"",""trial"",""time""
""fullscreenenter"",""1"",""8666""
""blur"",""2"",""10791""
""focus"",""2"",""12025""
","""event"",""trial"",""time""
""blur"",""2"",""10791""
","""event"",""trial"",""time""
""focus"",""2"",""12025""
","""event"",""trial"",""time""
""fullscreenenter"",""1"",""8666""
","
","","","","","","1475.5999999046326","images/cat8.png","","","memory_trial","4","definitely_new",""
"html-keyboard-response","146","409835","0.0-18.0-0.51","5392","approach_avoid_sv1","""event"",""trial"",""time""
""fullscreenenter"",""1"",""8666""
""blur"",""2"",""10791""
""focus"",""2"",""12025""
","""event"",""trial"",""time""
""blur"",""2"",""10791""
","""event"",""trial"",""time""
""focus"",""2"",""12025""
","""event"",""trial"",""time""
""fullscreenenter"",""1"",""8666""
","
","","","","","","null","<div style=""font-size:60px;"">+</div>","null","","fixation","","",""
"memory-trial","147","412675","0.0-18.0-1.51","5392","approach_avoid_sv1","""event"",""trial"",""time""
""fullscreenenter"",""1"",""8666""
""blur"",""2"",""10791""
""focus"",""2"",""12025""
","""event"",""trial"",""time""
""blur"",""2"",""10791""
","""event"",""trial"",""time""
""focus"",""2"",""12025""
","""event"",""trial"",""time""
""fullscreenenter"",""1"",""8666""
","
","","","","","","1836.5","images/tree8.png","","","memory_trial","4","definitely_new",""
"html-keyboard-response","148","413179","0.0-18.0-0.52","5392","approach_avoid_sv1","""event"",""trial"",""time""
""fullscreenenter"",""1"",""8666""
""blur"",""2"",""10791""
""focus"",""2"",""12025""
","""event"",""trial"",""time""
""blur"",""2"",""10791""
","""event"",""trial"",""time""
""focus"",""2"",""12025""
","""event"",""trial"",""time""
""fullscreenenter"",""1"",""8666""
","
","","","","","","null","<div style=""font-size:60px;"">+</div>","null","","fixation","","",""
"memory-trial","149","415459","0.0-18.0-1.52","5392","approach_avoid_sv1","""event"",""trial"",""time""
""fullscreenenter"",""1"",""8666""
""blur"",""2"",""10791""
""focus"",""2"",""12025""
","""event"",""trial"",""time""
""blur"",""2"",""10791""
","""event"",""trial"",""time""
""focus"",""2"",""12025""
","""event"",""trial"",""time""
""fullscreenenter"",""1"",""8666""
","
","","","","","","1274.4000000953674","images/orange7.png","","","memory_trial","2","maybe_old",""
"html-keyboard-response","150","415962","0.0-18.0-0.53","5392","approach_avoid_sv1","""event"",""trial"",""time""
""fullscreenenter"",""1"",""8666""
""blur"",""2"",""10791""
""focus"",""2"",""12025""
","""event"",""trial"",""time""
""blur"",""2"",""10791""
","""event"",""trial"",""time""
""focus"",""2"",""12025""
","""event"",""trial"",""time""
""fullscreenenter"",""1"",""8666""
","
","","","","","","null","<div style=""font-size:60px;"">+</div>","null","","fixation","","",""
"memory-trial","151","418218","0.0-18.0-1.53","5392","approach_avoid_sv1","""event"",""trial"",""time""
""fullscreenenter"",""1"",""8666""
""blur"",""2"",""10791""
""focus"",""2"",""12025""
","""event"",""trial"",""time""
""blur"",""2"",""10791""
","""event"",""trial"",""time""
""focus"",""2"",""12025""
","""event"",""trial"",""time""
""fullscreenenter"",""1"",""8666""
","
","","","","","","1250.7000002861023","images/chair7.png","","","memory_trial","4","definitely_new",""
"html-keyboard-response","152","418723","0.0-18.0-0.54","5392","approach_avoid_sv1","""event"",""trial"",""time""
""fullscreenenter"",""1"",""8666""
""blur"",""2"",""10791""
""focus"",""2"",""12025""
","""event"",""trial"",""time""
""blur"",""2"",""10791""
","""event"",""trial"",""time""
""focus"",""2"",""12025""
","""event"",""trial"",""time""
""fullscreenenter"",""1"",""8666""
","
","","","","","","null","<div style=""font-size:60px;"">+</div>","null","","fixation","","",""
"memory-trial","153","422147","0.0-18.0-1.54","5392","approach_avoid_sv1","""event"",""trial"",""time""
""fullscreenenter"",""1"",""8666""
""blur"",""2"",""10791""
""focus"",""2"",""12025""
","""event"",""trial"",""time""
""blur"",""2"",""10791""
","""event"",""trial"",""time""
""focus"",""2"",""12025""
","""event"",""trial"",""time""
""fullscreenenter"",""1"",""8666""
","
","","","","","","2419.7000002861023","images/sheep7.png","","","memory_trial","4","definitely_new",""
"html-keyboard-response","154","422651","0.0-18.0-0.55","5392","approach_avoid_sv1","""event"",""trial"",""time""
""fullscreenenter"",""1"",""8666""
""blur"",""2"",""10791""
""focus"",""2"",""12025""
","""event"",""trial"",""time""
""blur"",""2"",""10791""
","""event"",""trial"",""time""
""focus"",""2"",""12025""
","""event"",""trial"",""time""
""fullscreenenter"",""1"",""8666""
","
","","","","","","null","<div style=""font-size:60px;"">+</div>","null","","fixation","","",""
"memory-trial","155","425019","0.0-18.0-1.55","5392","approach_avoid_sv1","""event"",""trial"",""time""
""fullscreenenter"",""1"",""8666""
""blur"",""2"",""10791""
""focus"",""2"",""12025""
","""event"",""trial"",""time""
""blur"",""2"",""10791""
","""event"",""trial"",""time""
""focus"",""2"",""12025""
","""event"",""trial"",""time""
""fullscreenenter"",""1"",""8666""
","
","","","","","","1358.4000000953674","images/plane8.png","","","memory_trial","2","maybe_old",""
"html-keyboard-response","156","425524","0.0-18.0-0.56","5392","approach_avoid_sv1","""event"",""trial"",""time""
""fullscreenenter"",""1"",""8666""
""blur"",""2"",""10791""
""focus"",""2"",""12025""
","""event"",""trial"",""time""
""blur"",""2"",""10791""
","""event"",""trial"",""time""
""focus"",""2"",""12025""
","""event"",""trial"",""time""
""fullscreenenter"",""1"",""8666""
","
","","","","","","null","<div style=""font-size:60px;"">+</div>","null","","fixation","","",""
"memory-trial","157","427547","0.0-18.0-1.56","5392","approach_avoid_sv1","""event"",""trial"",""time""
""fullscreenenter"",""1"",""8666""
""blur"",""2"",""10791""
""focus"",""2"",""12025""
","""event"",""trial"",""time""
""blur"",""2"",""10791""
","""event"",""trial"",""time""
""focus"",""2"",""12025""
","""event"",""trial"",""time""
""fullscreenenter"",""1"",""8666""
","
","","","","","","1017.8999996185303","images/truck3.png","","","memory_trial","4","definitely_new",""
"html-keyboard-response","158","428051","0.0-18.0-0.57","5392","approach_avoid_sv1","""event"",""trial"",""time""
""fullscreenenter"",""1"",""8666""
""blur"",""2"",""10791""
""focus"",""2"",""12025""
","""event"",""trial"",""time""
""blur"",""2"",""10791""
","""event"",""trial"",""time""
""focus"",""2"",""12025""
","""event"",""trial"",""time""
""fullscreenenter"",""1"",""8666""
","
","","","","","","null","<div style=""font-size:60px;"">+</div>","null","","fixation","","",""
"memory-trial","159","431131","0.0-18.0-1.57","5392","approach_avoid_sv1","""event"",""trial"",""time""
""fullscreenenter"",""1"",""8666""
""blur"",""2"",""10791""
""focus"",""2"",""12025""
","""event"",""trial"",""time""
""blur"",""2"",""10791""
","""event"",""trial"",""time""
""focus"",""2"",""12025""
","""event"",""trial"",""time""
""fullscreenenter"",""1"",""8666""
","
","","","","","","2069.5999999046326","images/boat2.png","","","memory_trial","1","definitely_old",""
"html-keyboard-response","160","431635","0.0-18.0-0.58","5392","approach_avoid_sv1","""event"",""trial"",""time""
""fullscreenenter"",""1"",""8666""
""blur"",""2"",""10791""
""focus"",""2"",""12025""
","""event"",""trial"",""time""
""blur"",""2"",""10791""
","""event"",""trial"",""time""
""focus"",""2"",""12025""
","""event"",""trial"",""time""
""fullscreenenter"",""1"",""8666""
","
","","","","","","null","<div style=""font-size:60px;"">+</div>","null","","fixation","","",""
"memory-trial","161","433787","0.0-18.0-1.58","5392","approach_avoid_sv1","""event"",""trial"",""time""
""fullscreenenter"",""1"",""8666""
""blur"",""2"",""10791""
""focus"",""2"",""12025""
","""event"",""trial"",""time""
""blur"",""2"",""10791""
","""event"",""trial"",""time""
""focus"",""2"",""12025""
","""event"",""trial"",""time""
""fullscreenenter"",""1"",""8666""
","
","","","","","","1141.5999999046326","images/table3.png","","","memory_trial","4","definitely_new",""
"html-keyboard-response","162","434301","0.0-18.0-0.59","5392","approach_avoid_sv1","""event"",""trial"",""time""
""fullscreenenter"",""1"",""8666""
""blur"",""2"",""10791""
""focus"",""2"",""12025""
","""event"",""trial"",""time""
""blur"",""2"",""10791""
","""event"",""trial"",""time""
""focus"",""2"",""12025""
","""event"",""trial"",""time""
""fullscreenenter"",""1"",""8666""
","
","","","","","","null","<div style=""font-size:60px;"">+</div>","null","","fixation","","",""
"memory-trial","163","436507","0.0-18.0-1.59","5392","approach_avoid_sv1","""event"",""trial"",""time""
""fullscreenenter"",""1"",""8666""
""blur"",""2"",""10791""
""focus"",""2"",""12025""
","""event"",""trial"",""time""
""blur"",""2"",""10791""
","""event"",""trial"",""time""
""focus"",""2"",""12025""
","""event"",""trial"",""time""
""fullscreenenter"",""1"",""8666""
","
","","","","","","1201.5","images/banana8.png","","","memory_trial","4","definitely_new",""
"html-keyboard-response","164","437012","0.0-18.0-0.60","5392","approach_avoid_sv1","""event"",""trial"",""time""
""fullscreenenter"",""1"",""8666""
""blur"",""2"",""10791""
""focus"",""2"",""12025""
","""event"",""trial"",""time""
""blur"",""2"",""10791""
","""event"",""trial"",""time""
""focus"",""2"",""12025""
","""event"",""trial"",""time""
""fullscreenenter"",""1"",""8666""
","
","","","","","","null","<div style=""font-size:60px;"">+</div>","null","","fixation","","",""
"memory-trial","165","439267","0.0-18.0-1.60","5392","approach_avoid_sv1","""event"",""trial"",""time""
""fullscreenenter"",""1"",""8666""
""blur"",""2"",""10791""
""focus"",""2"",""12025""
","""event"",""trial"",""time""
""blur"",""2"",""10791""
","""event"",""trial"",""time""
""focus"",""2"",""12025""
","""event"",""trial"",""time""
""fullscreenenter"",""1"",""8666""
","
","","","","","","1245.7999997138977","images/plane2.png","","","memory_trial","1","definitely_old",""
"html-keyboard-response","166","439770","0.0-18.0-0.61","5392","approach_avoid_sv1","""event"",""trial"",""time""
""fullscreenenter"",""1"",""8666""
""blur"",""2"",""10791""
""focus"",""2"",""12025""
","""event"",""trial"",""time""
""blur"",""2"",""10791""
","""event"",""trial"",""time""
""focus"",""2"",""12025""
","""event"",""trial"",""time""
""fullscreenenter"",""1"",""8666""
","
","","","","","","null","<div style=""font-size:60px;"">+</div>","null","","fixation","","",""
"memory-trial","167","441700","0.0-18.0-1.61","5392","approach_avoid_sv1","""event"",""trial"",""time""
""fullscreenenter"",""1"",""8666""
""blur"",""2"",""10791""
""focus"",""2"",""12025""
","""event"",""trial"",""time""
""blur"",""2"",""10791""
","""event"",""trial"",""time""
""focus"",""2"",""12025""
","""event"",""trial"",""time""
""fullscreenenter"",""1"",""8666""
","
","","","","","","922.4000000953674","images/orange1.png","","","memory_trial","1","definitely_old",""
"html-keyboard-response","168","442203","0.0-18.0-0.62","5392","approach_avoid_sv1","""event"",""trial"",""time""
""fullscreenenter"",""1"",""8666""
""blur"",""2"",""10791""
""focus"",""2"",""12025""
","""event"",""trial"",""time""
""blur"",""2"",""10791""
","""event"",""trial"",""time""
""focus"",""2"",""12025""
","""event"",""trial"",""time""
""fullscreenenter"",""1"",""8666""
","
","","","","","","null","<div style=""font-size:60px;"">+</div>","null","","fixation","","",""
"memory-trial","169","444644","0.0-18.0-1.62","5392","approach_avoid_sv1","""event"",""trial"",""time""
""fullscreenenter"",""1"",""8666""
""blur"",""2"",""10791""
""focus"",""2"",""12025""
","""event"",""trial"",""time""
""blur"",""2"",""10791""
","""event"",""trial"",""time""
""focus"",""2"",""12025""
","""event"",""trial"",""time""
""fullscreenenter"",""1"",""8666""
","
","","","","","","1431","images/rodent8.png","","","memory_trial","4","definitely_new",""
"html-keyboard-response","170","445146","0.0-18.0-0.63","5392","approach_avoid_sv1","""event"",""trial"",""time""
""fullscreenenter"",""1"",""8666""
""blur"",""2"",""10791""
""focus"",""2"",""12025""
","""event"",""trial"",""time""
""blur"",""2"",""10791""
","""event"",""trial"",""time""
""focus"",""2"",""12025""
","""event"",""trial"",""time""
""fullscreenenter"",""1"",""8666""
","
","","","","","","null","<div style=""font-size:60px;"">+</div>","null","","fixation","","",""
"memory-trial","171","447651","0.0-18.0-1.63","5392","approach_avoid_sv1","""event"",""trial"",""time""
""fullscreenenter"",""1"",""8666""
""blur"",""2"",""10791""
""focus"",""2"",""12025""
","""event"",""trial"",""time""
""blur"",""2"",""10791""
","""event"",""trial"",""time""
""focus"",""2"",""12025""
","""event"",""trial"",""time""
""fullscreenenter"",""1"",""8666""
","
","","","","","","1499.5999999046326","images/cactus1.png","","","memory_trial","2","maybe_old",""
"html-keyboard-response","172","448155","0.0-18.0-0.64","5392","approach_avoid_sv1","""event"",""trial"",""time""
""fullscreenenter"",""1"",""8666""
""blur"",""2"",""10791""
""focus"",""2"",""12025""
","""event"",""trial"",""time""
""blur"",""2"",""10791""
","""event"",""trial"",""time""
""focus"",""2"",""12025""
","""event"",""trial"",""time""
""fullscreenenter"",""1"",""8666""
","
","","","","","","null","<div style=""font-size:60px;"">+</div>","null","","fixation","","",""
"memory-trial","173","451027","0.0-18.0-1.64","5392","approach_avoid_sv1","""event"",""trial"",""time""
""fullscreenenter"",""1"",""8666""
""blur"",""2"",""10791""
""focus"",""2"",""12025""
","""event"",""trial"",""time""
""blur"",""2"",""10791""
","""event"",""trial"",""time""
""focus"",""2"",""12025""
","""event"",""trial"",""time""
""fullscreenenter"",""1"",""8666""
","
","","","","","","1867.3000001907349","images/rodent4.png","","","memory_trial","2","maybe_old",""
"html-keyboard-response","174","451531","0.0-18.0-0.65","5392","approach_avoid_sv1","""event"",""trial"",""time""
""fullscreenenter"",""1"",""8666""
""blur"",""2"",""10791""
""focus"",""2"",""12025""
","""event"",""trial"",""time""
""blur"",""2"",""10791""
","""event"",""trial"",""time""
""focus"",""2"",""12025""
","""event"",""trial"",""time""
""fullscreenenter"",""1"",""8666""
","
","","","","","","null","<div style=""font-size:60px;"">+</div>","null","","fixation","","",""
"memory-trial","175","454323","0.0-18.0-1.65","5392","approach_avoid_sv1","""event"",""trial"",""time""
""fullscreenenter"",""1"",""8666""
""blur"",""2"",""10791""
""focus"",""2"",""12025""
","""event"",""trial"",""time""
""blur"",""2"",""10791""
","""event"",""trial"",""time""
""focus"",""2"",""12025""
","""event"",""trial"",""time""
""fullscreenenter"",""1"",""8666""
","
","","","","","","1784.4000000953674","images/rabbit7.png","","","memory_trial","4","definitely_new",""
"html-keyboard-response","176","454827","0.0-18.0-0.66","5392","approach_avoid_sv1","""event"",""trial"",""time""
""fullscreenenter"",""1"",""8666""
""blur"",""2"",""10791""
""focus"",""2"",""12025""
","""event"",""trial"",""time""
""blur"",""2"",""10791""
","""event"",""trial"",""time""
""focus"",""2"",""12025""
","""event"",""trial"",""time""
""fullscreenenter"",""1"",""8666""
","
","","","","","","null","<div style=""font-size:60px;"">+</div>","null","","fixation","","",""
"memory-trial","177","457283","0.0-18.0-1.66","5392","approach_avoid_sv1","""event"",""trial"",""time""
""fullscreenenter"",""1"",""8666""
""blur"",""2"",""10791""
""focus"",""2"",""12025""
","""event"",""trial"",""time""
""blur"",""2"",""10791""
","""event"",""trial"",""time""
""focus"",""2"",""12025""
","""event"",""trial"",""time""
""fullscreenenter"",""1"",""8666""
","
","","","","","","1448","images/sofa4.png","","","memory_trial","2","maybe_old",""
"html-keyboard-response","178","457787","0.0-18.0-0.67","5392","approach_avoid_sv1","""event"",""trial"",""time""
""fullscreenenter"",""1"",""8666""
""blur"",""2"",""10791""
""focus"",""2"",""12025""
","""event"",""trial"",""time""
""blur"",""2"",""10791""
","""event"",""trial"",""time""
""focus"",""2"",""12025""
","""event"",""trial"",""time""
""fullscreenenter"",""1"",""8666""
","
","","","","","","null","<div style=""font-size:60px;"">+</div>","null","","fixation","","",""
"memory-trial","179","460155","0.0-18.0-1.67","5392","approach_avoid_sv1","""event"",""trial"",""time""
""fullscreenenter"",""1"",""8666""
""blur"",""2"",""10791""
""focus"",""2"",""12025""
","""event"",""trial"",""time""
""blur"",""2"",""10791""
","""event"",""trial"",""time""
""focus"",""2"",""12025""
","""event"",""trial"",""time""
""fullscreenenter"",""1"",""8666""
","
","","","","","","1358.3000001907349","images/bed3.png","","","memory_trial","3","maybe_new",""
"html-keyboard-response","180","460659","0.0-18.0-0.68","5392","approach_avoid_sv1","""event"",""trial"",""time""
""fullscreenenter"",""1"",""8666""
""blur"",""2"",""10791""
""focus"",""2"",""12025""
","""event"",""trial"",""time""
""blur"",""2"",""10791""
","""event"",""trial"",""time""
""focus"",""2"",""12025""
","""event"",""trial"",""time""
""fullscreenenter"",""1"",""8666""
","
","","","","","","null","<div style=""font-size:60px;"">+</div>","null","","fixation","","",""
"memory-trial","181","462629","0.0-18.0-1.68","5392","approach_avoid_sv1","""event"",""trial"",""time""
""fullscreenenter"",""1"",""8666""
""blur"",""2"",""10791""
""focus"",""2"",""12025""
","""event"",""trial"",""time""
""blur"",""2"",""10791""
","""event"",""trial"",""time""
""focus"",""2"",""12025""
","""event"",""trial"",""time""
""fullscreenenter"",""1"",""8666""
","
","","","","","","964.5999999046326","images/flower8.png","","","memory_trial","4","definitely_new",""
"html-keyboard-response","182","463130","0.0-18.0-0.69","5392","approach_avoid_sv1","""event"",""trial"",""time""
""fullscreenenter"",""1"",""8666""
""blur"",""2"",""10791""
""focus"",""2"",""12025""
","""event"",""trial"",""time""
""blur"",""2"",""10791""
","""event"",""trial"",""time""
""focus"",""2"",""12025""
","""event"",""trial"",""time""
""fullscreenenter"",""1"",""8666""
","
","","","","","","null","<div style=""font-size:60px;"">+</div>","null","","fixation","","",""
"memory-trial","183","466098","0.0-18.0-1.69","5392","approach_avoid_sv1","""event"",""trial"",""time""
""fullscreenenter"",""1"",""8666""
""blur"",""2"",""10791""
""focus"",""2"",""12025""
","""event"",""trial"",""time""
""blur"",""2"",""10791""
","""event"",""trial"",""time""
""focus"",""2"",""12025""
","""event"",""trial"",""time""
""fullscreenenter"",""1"",""8666""
","
","","","","","","1957.7999997138977","images/apple3.png","","","memory_trial","4","definitely_new",""
"html-keyboard-response","184","466602","0.0-18.0-0.70","5392","approach_avoid_sv1","""event"",""trial"",""time""
""fullscreenenter"",""1"",""8666""
""blur"",""2"",""10791""
""focus"",""2"",""12025""
","""event"",""trial"",""time""
""blur"",""2"",""10791""
","""event"",""trial"",""time""
""focus"",""2"",""12025""
","""event"",""trial"",""time""
""fullscreenenter"",""1"",""8666""
","
","","","","","","null","<div style=""font-size:60px;"">+</div>","null","","fixation","","",""
"memory-trial","185","469091","0.0-18.0-1.70","5392","approach_avoid_sv1","""event"",""trial"",""time""
""fullscreenenter"",""1"",""8666""
""blur"",""2"",""10791""
""focus"",""2"",""12025""
","""event"",""trial"",""time""
""blur"",""2"",""10791""
","""event"",""trial"",""time""
""focus"",""2"",""12025""
","""event"",""trial"",""time""
""fullscreenenter"",""1"",""8666""
","
","","","","","","1482.8999996185303","images/orange5.png","","","memory_trial","3","maybe_new",""
"html-keyboard-response","186","469595","0.0-18.0-0.71","5392","approach_avoid_sv1","""event"",""trial"",""time""
""fullscreenenter"",""1"",""8666""
""blur"",""2"",""10791""
""focus"",""2"",""12025""
","""event"",""trial"",""time""
""blur"",""2"",""10791""
","""event"",""trial"",""time""
""focus"",""2"",""12025""
","""event"",""trial"",""time""
""fullscreenenter"",""1"",""8666""
","
","","","","","","null","<div style=""font-size:60px;"">+</div>","null","","fixation","","",""
"memory-trial","187","472204","0.0-18.0-1.71","5392","approach_avoid_sv1","""event"",""trial"",""time""
""fullscreenenter"",""1"",""8666""
""blur"",""2"",""10791""
""focus"",""2"",""12025""
","""event"",""trial"",""time""
""blur"",""2"",""10791""
","""event"",""trial"",""time""
""focus"",""2"",""12025""
","""event"",""trial"",""time""
""fullscreenenter"",""1"",""8666""
","
","","","","","","1597.5999999046326","images/sofa2.png","","","memory_trial","3","maybe_new",""
"html-keyboard-response","188","472706","0.0-18.0-0.72","5392","approach_avoid_sv1","""event"",""trial"",""time""
""fullscreenenter"",""1"",""8666""
""blur"",""2"",""10791""
""focus"",""2"",""12025""
","""event"",""trial"",""time""
""blur"",""2"",""10791""
","""event"",""trial"",""time""
""focus"",""2"",""12025""
","""event"",""trial"",""time""
""fullscreenenter"",""1"",""8666""
","
","","","","","","null","<div style=""font-size:60px;"">+</div>","null","","fixation","","",""
"memory-trial","189","475851","0.0-18.0-1.72","5392","approach_avoid_sv1","""event"",""trial"",""time""
""fullscreenenter"",""1"",""8666""
""blur"",""2"",""10791""
""focus"",""2"",""12025""
","""event"",""trial"",""time""
""blur"",""2"",""10791""
","""event"",""trial"",""time""
""focus"",""2"",""12025""
","""event"",""trial"",""time""
""fullscreenenter"",""1"",""8666""
","
","","","","","","2139","images/sheep3.png","","","memory_trial","2","maybe_old",""
"html-keyboard-response","190","476367","0.0-18.0-0.73","5392","approach_avoid_sv1","""event"",""trial"",""time""
""fullscreenenter"",""1"",""8666""
""blur"",""2"",""10791""
""focus"",""2"",""12025""
","""event"",""trial"",""time""
""blur"",""2"",""10791""
","""event"",""trial"",""time""
""focus"",""2"",""12025""
","""event"",""trial"",""time""
""fullscreenenter"",""1"",""8666""
","
","","","","","","null","<div style=""font-size:60px;"">+</div>","null","","fixation","","",""
"memory-trial","191","480500","0.0-18.0-1.73","5392","approach_avoid_sv1","""event"",""trial"",""time""
""fullscreenenter"",""1"",""8666""
""blur"",""2"",""10791""
""focus"",""2"",""12025""
","""event"",""trial"",""time""
""blur"",""2"",""10791""
","""event"",""trial"",""time""
""focus"",""2"",""12025""
","""event"",""trial"",""time""
""fullscreenenter"",""1"",""8666""
","
","","","","","","3124.4000000953674","images/banana2.png","","","memory_trial","1","definitely_old",""
"html-keyboard-response","192","481003","0.0-18.0-0.74","5392","approach_avoid_sv1","""event"",""trial"",""time""
""fullscreenenter"",""1"",""8666""
""blur"",""2"",""10791""
""focus"",""2"",""12025""
","""event"",""trial"",""time""
""blur"",""2"",""10791""
","""event"",""trial"",""time""
""focus"",""2"",""12025""
","""event"",""trial"",""time""
""fullscreenenter"",""1"",""8666""
","
","","","","","","null","<div style=""font-size:60px;"">+</div>","null","","fixation","","",""
"memory-trial","193","483048","0.0-18.0-1.74","5392","approach_avoid_sv1","""event"",""trial"",""time""
""fullscreenenter"",""1"",""8666""
""blur"",""2"",""10791""
""focus"",""2"",""12025""
","""event"",""trial"",""time""
""blur"",""2"",""10791""
","""event"",""trial"",""time""
""focus"",""2"",""12025""
","""event"",""trial"",""time""
""fullscreenenter"",""1"",""8666""
","
","","","","","","1022.6999998092651","images/sofa5.png","","","memory_trial","2","maybe_old",""
"html-keyboard-response","194","483554","0.0-18.0-0.75","5392","approach_avoid_sv1","""event"",""trial"",""time""
""fullscreenenter"",""1"",""8666""
""blur"",""2"",""10791""
""focus"",""2"",""12025""
","""event"",""trial"",""time""
""blur"",""2"",""10791""
","""event"",""trial"",""time""
""focus"",""2"",""12025""
","""event"",""trial"",""time""
""fullscreenenter"",""1"",""8666""
","
","","","","","","null","<div style=""font-size:60px;"">+</div>","null","","fixation","","",""
"memory-trial","195","486284","0.0-18.0-1.75","5392","approach_avoid_sv1","""event"",""trial"",""time""
""fullscreenenter"",""1"",""8666""
""blur"",""2"",""10791""
""focus"",""2"",""12025""
","""event"",""trial"",""time""
""blur"",""2"",""10791""
","""event"",""trial"",""time""
""focus"",""2"",""12025""
","""event"",""trial"",""time""
""fullscreenenter"",""1"",""8666""
","
","","","","","","1724.3000001907349","images/tree4.png","","","memory_trial","2","maybe_old",""
"html-keyboard-response","196","486788","0.0-18.0-0.76","5392","approach_avoid_sv1","""event"",""trial"",""time""
""fullscreenenter"",""1"",""8666""
""blur"",""2"",""10791""
""focus"",""2"",""12025""
","""event"",""trial"",""time""
""blur"",""2"",""10791""
","""event"",""trial"",""time""
""focus"",""2"",""12025""
","""event"",""trial"",""time""
""fullscreenenter"",""1"",""8666""
","
","","","","","","null","<div style=""font-size:60px;"">+</div>","null","","fixation","","",""
"memory-trial","197","488642","0.0-18.0-1.76","5392","approach_avoid_sv1","""event"",""trial"",""time""
""fullscreenenter"",""1"",""8666""
""blur"",""2"",""10791""
""focus"",""2"",""12025""
","""event"",""trial"",""time""
""blur"",""2"",""10791""
","""event"",""trial"",""time""
""focus"",""2"",""12025""
","""event"",""trial"",""time""
""fullscreenenter"",""1"",""8666""
","
","","","","","","851.6000003814697","images/banana5.png","","","memory_trial","2","maybe_old",""
"html-keyboard-response","198","489147","0.0-18.0-0.77","5392","approach_avoid_sv1","""event"",""trial"",""time""
""fullscreenenter"",""1"",""8666""
""blur"",""2"",""10791""
""focus"",""2"",""12025""
","""event"",""trial"",""time""
""blur"",""2"",""10791""
","""event"",""trial"",""time""
""focus"",""2"",""12025""
","""event"",""trial"",""time""
""fullscreenenter"",""1"",""8666""
","
","","","","","","null","<div style=""font-size:60px;"">+</div>","null","","fixation","","",""
"memory-trial","199","491219","0.0-18.0-1.77","5392","approach_avoid_sv1","""event"",""trial"",""time""
""fullscreenenter"",""1"",""8666""
""blur"",""2"",""10791""
""focus"",""2"",""12025""
","""event"",""trial"",""time""
""blur"",""2"",""10791""
","""event"",""trial"",""time""
""focus"",""2"",""12025""
","""event"",""trial"",""time""
""fullscreenenter"",""1"",""8666""
","
