"trial_type","trial_index","time_elapsed","internal_node_id","subject_id","task_version","interactions","blur_events","focus_events","fullscreenenter_events","fullscreenexit_events","success","timeout","failed_images","failed_audio","failed_video","rt","stimulus","response","button_pressed","task_part","key_press","answer","correct"
"pavlovia","0","2","0.0-0.0","7572","approach_avoid_sv1","""event"",""trial"",""time""
""fullscreenenter"",""1"",""8816""
","
","
","""event"",""trial"",""time""
""fullscreenenter"",""1"",""8816""
","
","","","","","","","","","","","","",""
"fullscreen","1","9809","0.0-1.0","7572","approach_avoid_sv1","""event"",""trial"",""time""
""fullscreenenter"",""1"",""8816""
","
","
","""event"",""trial"",""time""
""fullscreenenter"",""1"",""8816""
","
","true","","","","","","","","","","","",""
"preload","2","33039","0.0-2.0","7572","approach_avoid_sv1","""event"",""trial"",""time""
""fullscreenenter"",""1"",""8816""
","
","
","""event"",""trial"",""time""
""fullscreenenter"",""1"",""8816""
","
","true","false","[]","[]","[]","","","","","","","",""
"preload","3","57681","0.0-3.0","7572","approach_avoid_sv1","""event"",""trial"",""time""
""fullscreenenter"",""1"",""8816""
","
","
","""event"",""trial"",""time""
""fullscreenenter"",""1"",""8816""
","
","true","false","[]","[]","[]","","","","","","","",""
"preload","4","59098","0.0-4.0","7572","approach_avoid_sv1","""event"",""trial"",""time""
""fullscreenenter"",""1"",""8816""
","
","
","""event"",""trial"",""time""
""fullscreenenter"",""1"",""8816""
","
","true","false","[]","[]","[]","","","","","","","",""
"audio-keyboard-response","5","61588","0.0-5.0","7572","approach_avoid_sv1","""event"",""trial"",""time""
""fullscreenenter"",""1"",""8816""
","
","
","""event"",""trial"",""time""
""fullscreenenter"",""1"",""8816""
","
","","","","","","2490.666666666667","audio/beep_loop.wav"," ","","","","",""
"audio-button-response","6","63218","0.0-6.0","7572","approach_avoid_sv1","""event"",""trial"",""time""
""fullscreenenter"",""1"",""8816""
","
","
","""event"",""trial"",""time""
""fullscreenenter"",""1"",""8816""
","
","","","","","","1629","audio/turtle.wav","0","","","","",""
"audio-button-response","7","65516","0.0-7.0","7572","approach_avoid_sv1","""event"",""trial"",""time""
""fullscreenenter"",""1"",""8816""
","
","
","""event"",""trial"",""time""
""fullscreenenter"",""1"",""8816""
","
","","","","","","1299","audio/shark.wav","2","","","","",""
"preload","8","95344","0.0-8.0","7572","approach_avoid_sv1","""event"",""trial"",""time""
""fullscreenenter"",""1"",""8816""
","
","
","""event"",""trial"",""time""
""fullscreenenter"",""1"",""8816""
","
","true","false","[]","[]","[]","","","","","","","",""
"learning-instructions","9","127494","0.0-9.0-0.0","7572","approach_avoid_sv1","""event"",""trial"",""time""
""fullscreenenter"",""1"",""8816""
","
","
","""event"",""trial"",""time""
""fullscreenenter"",""1"",""8816""
","
","","","","","","27678.799999952316","<p> Welcome back! </p><p> Last week, you had to make choices about lots of different items.  </p>","","0","instructions","","",""
"learning-instructions","10","138338","0.0-9.0-0.1","7572","approach_avoid_sv1","""event"",""trial"",""time""
""fullscreenenter"",""1"",""8816""
","
","
","""event"",""trial"",""time""
""fullscreenenter"",""1"",""8816""
","
","","","","","","6733","<p> Today, we are going to ask you to try to remember all the items. </p>","","0","instructions","","",""
"learning-instructions","11","150746","0.0-9.0-0.2","7572","approach_avoid_sv1","""event"",""trial"",""time""
""fullscreenenter"",""1"",""8816""
","
","
","""event"",""trial"",""time""
""fullscreenenter"",""1"",""8816""
","
","","","","","","2281","<p> On every trial, you will see an image. </p><p> The image may be an OLD image you saw during the games last week or it may be a NEW image that was not presented. </p>","","0","instructions","","",""
"learning-instructions","12","161038","0.0-9.0-0.3","7572","approach_avoid_sv1","""event"",""trial"",""time""
""fullscreenenter"",""1"",""8816""
""fullscreenexit"",""13"",""167991""
""blur"",""13"",""168259""
""focus"",""13"",""171324""
","""event"",""trial"",""time""
""blur"",""13"",""168259""
","""event"",""trial"",""time""
""focus"",""13"",""171324""
","""event"",""trial"",""time""
""fullscreenenter"",""1"",""8816""
","""event"",""trial"",""time""
""fullscreenexit"",""13"",""167991""
","","","","","","1782.8999999761581","<p> You need to select whether the image is:  </p><p>  'Definitely old', 'Maybe old', 'Maybe new', or 'Definitely new.'  </p><div class=""mem-choice-instructions-grid""><div class=""choice-option"" id=""choice-option-1"" ><img src=""images/definitely_old_1.png"" id=""choice-option-img-1"" class=""choice-option-img"" stage=""1""></div><div class=""choice-option"" id=""choice-option-2"" ><img src=""images/maybe_old_1.png"" id=""choice-option-img-2"" class=""choice-option-img"" stage=""1""></div><div class=""choice-option"" id=""choice-option-3"" ><img src=""images/maybe_new_1.png"" id=""choice-option-img-3"" class=""choice-option-img"" stage=""1""></div><div class=""choice-option"" id=""choice-option-4"" > <img src=""images/definitely_new_1.png"" id=""choice-option-img-4"" class=""choice-option-img"" stage=""1""></div></div>","","0","instructions","","",""
"learning-instructions","13","174954","0.0-9.0-0.4","7572","approach_avoid_sv1","""event"",""trial"",""time""
""fullscreenenter"",""1"",""8816""
""fullscreenexit"",""13"",""167991""
""blur"",""13"",""168259""
""focus"",""13"",""171324""
","""event"",""trial"",""time""
""blur"",""13"",""168259""
","""event"",""trial"",""time""
""focus"",""13"",""171324""
","""event"",""trial"",""time""
""fullscreenenter"",""1"",""8816""
","""event"",""trial"",""time""
""fullscreenexit"",""13"",""167991""
","","","","","","7408.899999976158","<p> You should use the 1, 2, 3, and 4 keys to make your responses.  </p><div class=""mem-choice-instructions-grid""><div class=""choice-option"" id=""choice-option-1"" ><img src=""images/definitely_old.png"" id=""choice-option-img-1"" class=""choice-option-img"" stage=""1""></div><div class=""choice-option"" id=""choice-option-2"" ><img src=""images/maybe_old.png"" id=""choice-option-img-2"" class=""choice-option-img"" stage=""1""></div><div class=""choice-option"" id=""choice-option-3"" ><img src=""images/maybe_new.png"" id=""choice-option-img-3"" class=""choice-option-img"" stage=""1""></div><div class=""choice-option"" id=""choice-option-4"" > <img src=""images/definitely_new.png"" id=""choice-option-img-4"" class=""choice-option-img"" stage=""1""></div></div>","","0","instructions","","",""
"learning-instructions","14","182250","0.0-9.0-0.5","7572","approach_avoid_sv1","""event"",""trial"",""time""
""fullscreenenter"",""1"",""8816""
""fullscreenexit"",""13"",""167991""
""blur"",""13"",""168259""
""focus"",""13"",""171324""
","""event"",""trial"",""time""
""blur"",""13"",""168259""
","""event"",""trial"",""time""
""focus"",""13"",""171324""
","""event"",""trial"",""time""
""fullscreenenter"",""1"",""8816""
","""event"",""trial"",""time""
""fullscreenexit"",""13"",""167991""
","","","","","","959.6000000238419","<p> You will have 10 seconds to make each response.  </p><p>  Make sure to respond before time runs out! </p>","","0","instructions","","",""
"learning-instructions","15","189889","0.0-9.0-0.6","7572","approach_avoid_sv1","""event"",""trial"",""time""
""fullscreenenter"",""1"",""8816""
""fullscreenexit"",""13"",""167991""
""blur"",""13"",""168259""
""focus"",""13"",""171324""
","""event"",""trial"",""time""
""blur"",""13"",""168259""
","""event"",""trial"",""time""
""focus"",""13"",""171324""
","""event"",""trial"",""time""
""fullscreenenter"",""1"",""8816""
","""event"",""trial"",""time""
""fullscreenexit"",""13"",""167991""
","","","","","","568.3000000715256","<p> Today, you will see each image ONCE only.  </p><p>  That means none of the images will repeat. </p>","","0","instructions","","",""
"learning-instructions","16","203231","0.0-9.0-0.7","7572","approach_avoid_sv1","""event"",""trial"",""time""
""fullscreenenter"",""1"",""8816""
""fullscreenexit"",""13"",""167991""
""blur"",""13"",""168259""
""focus"",""13"",""171324""
","""event"",""trial"",""time""
""blur"",""13"",""168259""
","""event"",""trial"",""time""
""focus"",""13"",""171324""
","""event"",""trial"",""time""
""fullscreenenter"",""1"",""8816""
","""event"",""trial"",""time""
""fullscreenexit"",""13"",""167991""
","","","","","","669.8000000715256","<p> Before you play the real game, it is time to practice. </p><p>  Just like in the real game, some of the images in the practice will be ones you have seen before. </p><p>  Others will be entirely new. </p>","","0","instructions","","",""
"html-button-response","17","205419","0.0-10.0","7572","approach_avoid_sv1","""event"",""trial"",""time""
""fullscreenenter"",""1"",""8816""
""fullscreenexit"",""13"",""167991""
""blur"",""13"",""168259""
""focus"",""13"",""171324""
","""event"",""trial"",""time""
""blur"",""13"",""168259""
","""event"",""trial"",""time""
""focus"",""13"",""171324""
","""event"",""trial"",""time""
""fullscreenenter"",""1"",""8816""
","""event"",""trial"",""time""
""fullscreenexit"",""13"",""167991""
","","","","","","2073.4000000953674","<p> Ready to practice? </p><p> Remember, use the 1, 2, 3, and 4 keys to make your responses. </p>","0","","instructions","","",""
"html-keyboard-response","18","206041","0.0-11.0-0.0","7572","approach_avoid_sv1","""event"",""trial"",""time""
""fullscreenenter"",""1"",""8816""
""fullscreenexit"",""13"",""167991""
""blur"",""13"",""168259""
""focus"",""13"",""171324""
","""event"",""trial"",""time""
""blur"",""13"",""168259""
","""event"",""trial"",""time""
""focus"",""13"",""171324""
","""event"",""trial"",""time""
""fullscreenenter"",""1"",""8816""
","""event"",""trial"",""time""
""fullscreenexit"",""13"",""167991""
","","","","","","null","<div style=""font-size:60px;"">+</div>","null","","fixation","","",""
"memory-trial","19","209368","0.0-11.0-1.0","7572","approach_avoid_sv1","""event"",""trial"",""time""
""fullscreenenter"",""1"",""8816""
""fullscreenexit"",""13"",""167991""
""blur"",""13"",""168259""
""focus"",""13"",""171324""
","""event"",""trial"",""time""
""blur"",""13"",""168259""
","""event"",""trial"",""time""
""focus"",""13"",""171324""
","""event"",""trial"",""time""
""fullscreenenter"",""1"",""8816""
","""event"",""trial"",""time""
""fullscreenexit"",""13"",""167991""
","","","","","","2314.100000023842","images/racket1.png","","","practice","1","definitely_old",""
"html-keyboard-response","20","209869","0.0-11.0-0.1","7572","approach_avoid_sv1","""event"",""trial"",""time""
""fullscreenenter"",""1"",""8816""
""fullscreenexit"",""13"",""167991""
""blur"",""13"",""168259""
""focus"",""13"",""171324""
","""event"",""trial"",""time""
""blur"",""13"",""168259""
","""event"",""trial"",""time""
""focus"",""13"",""171324""
","""event"",""trial"",""time""
""fullscreenenter"",""1"",""8816""
","""event"",""trial"",""time""
""fullscreenexit"",""13"",""167991""
","","","","","","null","<div style=""font-size:60px;"">+</div>","null","","fixation","","",""
"memory-trial","21","212193","0.0-11.0-1.1","7572","approach_avoid_sv1","""event"",""trial"",""time""
""fullscreenenter"",""1"",""8816""
""fullscreenexit"",""13"",""167991""
""blur"",""13"",""168259""
""focus"",""13"",""171324""
","""event"",""trial"",""time""
""blur"",""13"",""168259""
","""event"",""trial"",""time""
""focus"",""13"",""171324""
","""event"",""trial"",""time""
""fullscreenenter"",""1"",""8816""
","""event"",""trial"",""time""
""fullscreenexit"",""13"",""167991""
","","","","","","1316.6000000238419","images/ball2.png","","","practice","4","definitely_new",""
"html-keyboard-response","22","212709","0.0-11.0-0.2","7572","approach_avoid_sv1","""event"",""trial"",""time""
""fullscreenenter"",""1"",""8816""
""fullscreenexit"",""13"",""167991""
""blur"",""13"",""168259""
""focus"",""13"",""171324""
","""event"",""trial"",""time""
""blur"",""13"",""168259""
","""event"",""trial"",""time""
""focus"",""13"",""171324""
","""event"",""trial"",""time""
""fullscreenenter"",""1"",""8816""
","""event"",""trial"",""time""
""fullscreenexit"",""13"",""167991""
","","","","","","null","<div style=""font-size:60px;"">+</div>","null","","fixation","","",""
"memory-trial","23","215625","0.0-11.0-1.2","7572","approach_avoid_sv1","""event"",""trial"",""time""
""fullscreenenter"",""1"",""8816""
""fullscreenexit"",""13"",""167991""
""blur"",""13"",""168259""
""focus"",""13"",""171324""
","""event"",""trial"",""time""
""blur"",""13"",""168259""
","""event"",""trial"",""time""
""focus"",""13"",""171324""
","""event"",""trial"",""time""
""fullscreenenter"",""1"",""8816""
","""event"",""trial"",""time""
""fullscreenexit"",""13"",""167991""
","","","","","","1908.7999999523163","images/racket2.png","","","practice","1","definitely_old",""
"html-keyboard-response","24","216126","0.0-11.0-0.3","7572","approach_avoid_sv1","""event"",""trial"",""time""
""fullscreenenter"",""1"",""8816""
""fullscreenexit"",""13"",""167991""
""blur"",""13"",""168259""
""focus"",""13"",""171324""
","""event"",""trial"",""time""
""blur"",""13"",""168259""
","""event"",""trial"",""time""
""focus"",""13"",""171324""
","""event"",""trial"",""time""
""fullscreenenter"",""1"",""8816""
","""event"",""trial"",""time""
""fullscreenexit"",""13"",""167991""
","","","","","","null","<div style=""font-size:60px;"">+</div>","null","","fixation","","",""
"memory-trial","25","218889","0.0-11.0-1.3","7572","approach_avoid_sv1","""event"",""trial"",""time""
""fullscreenenter"",""1"",""8816""
""fullscreenexit"",""13"",""167991""
""blur"",""13"",""168259""
""focus"",""13"",""171324""
","""event"",""trial"",""time""
""blur"",""13"",""168259""
","""event"",""trial"",""time""
""focus"",""13"",""171324""
","""event"",""trial"",""time""
""fullscreenenter"",""1"",""8816""
","""event"",""trial"",""time""
""fullscreenexit"",""13"",""167991""
","","","","","","1751.7000000476837","images/racket5.png","","","practice","4","definitely_new",""
"html-keyboard-response","26","219405","0.0-11.0-0.4","7572","approach_avoid_sv1","""event"",""trial"",""time""
""fullscreenenter"",""1"",""8816""
""fullscreenexit"",""13"",""167991""
""blur"",""13"",""168259""
""focus"",""13"",""171324""
","""event"",""trial"",""time""
""blur"",""13"",""168259""
","""event"",""trial"",""time""
""focus"",""13"",""171324""
","""event"",""trial"",""time""
""fullscreenenter"",""1"",""8816""
","""event"",""trial"",""time""
""fullscreenexit"",""13"",""167991""
","","","","","","null","<div style=""font-size:60px;"">+</div>","null","","fixation","","",""
"memory-trial","27","221698","0.0-11.0-1.4","7572","approach_avoid_sv1","""event"",""trial"",""time""
""fullscreenenter"",""1"",""8816""
""fullscreenexit"",""13"",""167991""
""blur"",""13"",""168259""
""focus"",""13"",""171324""
","""event"",""trial"",""time""
""blur"",""13"",""168259""
","""event"",""trial"",""time""
""focus"",""13"",""171324""
","""event"",""trial"",""time""
""fullscreenenter"",""1"",""8816""
","""event"",""trial"",""time""
""fullscreenexit"",""13"",""167991""
","","","","","","1291.5","images/ball1.png","","","practice","4","definitely_new",""
"html-keyboard-response","28","222199","0.0-11.0-0.5","7572","approach_avoid_sv1","""event"",""trial"",""time""
""fullscreenenter"",""1"",""8816""
""fullscreenexit"",""13"",""167991""
""blur"",""13"",""168259""
""focus"",""13"",""171324""
","""event"",""trial"",""time""
""blur"",""13"",""168259""
","""event"",""trial"",""time""
""focus"",""13"",""171324""
","""event"",""trial"",""time""
""fullscreenenter"",""1"",""8816""
","""event"",""trial"",""time""
""fullscreenexit"",""13"",""167991""
","","","","","","null","<div style=""font-size:60px;"">+</div>","null","","fixation","","",""
"memory-trial","29","224800","0.0-11.0-1.5","7572","approach_avoid_sv1","""event"",""trial"",""time""
""fullscreenenter"",""1"",""8816""
""fullscreenexit"",""13"",""167991""
""blur"",""13"",""168259""
""focus"",""13"",""171324""
","""event"",""trial"",""time""
""blur"",""13"",""168259""
","""event"",""trial"",""time""
""focus"",""13"",""171324""
","""event"",""trial"",""time""
""fullscreenenter"",""1"",""8816""
","""event"",""trial"",""time""
""fullscreenexit"",""13"",""167991""
","","","","","","1584.7000000476837","images/ball5.png","","","practice","1","definitely_old",""
"html-keyboard-response","30","225315","0.0-11.0-0.6","7572","approach_avoid_sv1","""event"",""trial"",""time""
""fullscreenenter"",""1"",""8816""
""fullscreenexit"",""13"",""167991""
""blur"",""13"",""168259""
""focus"",""13"",""171324""
","""event"",""trial"",""time""
""blur"",""13"",""168259""
","""event"",""trial"",""time""
""focus"",""13"",""171324""
","""event"",""trial"",""time""
""fullscreenenter"",""1"",""8816""
","""event"",""trial"",""time""
""fullscreenexit"",""13"",""167991""
","","","","","","null","<div style=""font-size:60px;"">+</div>","null","","fixation","","",""
"memory-trial","31","227596","0.0-11.0-1.6","7572","approach_avoid_sv1","""event"",""trial"",""time""
""fullscreenenter"",""1"",""8816""
""fullscreenexit"",""13"",""167991""
""blur"",""13"",""168259""
""focus"",""13"",""171324""
","""event"",""trial"",""time""
""blur"",""13"",""168259""
","""event"",""trial"",""time""
""focus"",""13"",""171324""
","""event"",""trial"",""time""
""fullscreenenter"",""1"",""8816""
","""event"",""trial"",""time""
""fullscreenexit"",""13"",""167991""
","","","","","","1274","images/ball3.png","","","practice","1","definitely_old",""
"html-keyboard-response","32","228112","0.0-11.0-0.7","7572","approach_avoid_sv1","""event"",""trial"",""time""
""fullscreenenter"",""1"",""8816""
""fullscreenexit"",""13"",""167991""
""blur"",""13"",""168259""
""focus"",""13"",""171324""
","""event"",""trial"",""time""
""blur"",""13"",""168259""
","""event"",""trial"",""time""
""focus"",""13"",""171324""
","""event"",""trial"",""time""
""fullscreenenter"",""1"",""8816""
","""event"",""trial"",""time""
""fullscreenexit"",""13"",""167991""
","","","","","","null","<div style=""font-size:60px;"">+</div>","null","","fixation","","",""
"memory-trial","33","230872","0.0-11.0-1.7","7572","approach_avoid_sv1","""event"",""trial"",""time""
""fullscreenenter"",""1"",""8816""
""fullscreenexit"",""13"",""167991""
""blur"",""13"",""168259""
""focus"",""13"",""171324""
","""event"",""trial"",""time""
""blur"",""13"",""168259""
","""event"",""trial"",""time""
""focus"",""13"",""171324""
","""event"",""trial"",""time""
""fullscreenenter"",""1"",""8816""
","""event"",""trial"",""time""
""fullscreenexit"",""13"",""167991""
","","","","","","1751.2999999523163","images/racket3.png","","","practice","3","maybe_new",""
"learning-instructions","34","244327","0.0-12.0-0.0","7572","approach_avoid_sv1","""event"",""trial"",""time""
""fullscreenenter"",""1"",""8816""
""fullscreenexit"",""13"",""167991""
""blur"",""13"",""168259""
""focus"",""13"",""171324""
","""event"",""trial"",""time""
""blur"",""13"",""168259""
","""event"",""trial"",""time""
""focus"",""13"",""171324""
","""event"",""trial"",""time""
""fullscreenenter"",""1"",""8816""
","""event"",""trial"",""time""
""fullscreenexit"",""13"",""167991""
","","","","","","6147.099999904633","<p> Great! You have completed the practice. </p><p> Before you start, we're going to ask you a few questions about how the game works.  </p>","","0","instructions","","",""
"preload","35","261413","0.0-13.0","7572","approach_avoid_sv1","""event"",""trial"",""time""
""fullscreenenter"",""1"",""8816""
""fullscreenexit"",""13"",""167991""
""blur"",""13"",""168259""
""focus"",""13"",""171324""
","""event"",""trial"",""time""
""blur"",""13"",""168259""
","""event"",""trial"",""time""
""focus"",""13"",""171324""
","""event"",""trial"",""time""
""fullscreenenter"",""1"",""8816""
","""event"",""trial"",""time""
""fullscreenexit"",""13"",""167991""
","true","false","[]","[]","[]","","","","","","","",""
"comp-q","36","269816","0.0-14.0-0.0","7572","approach_avoid_sv1","""event"",""trial"",""time""
""fullscreenenter"",""1"",""8816""
""fullscreenexit"",""13"",""167991""
""blur"",""13"",""168259""
""focus"",""13"",""171324""
""blur"",""37"",""276895""
""focus"",""37"",""287982""
","""event"",""trial"",""time""
""blur"",""13"",""168259""
""blur"",""37"",""276895""
","""event"",""trial"",""time""
""focus"",""13"",""171324""
""focus"",""37"",""287982""
","""event"",""trial"",""time""
""fullscreenenter"",""1"",""8816""
","""event"",""trial"",""time""
""fullscreenexit"",""13"",""167991""
","","","","","","2575.7000000476837","<p> <b> True or False? </b> </p><p> In this game, you will only see each image once. </p>","","0","comp_question","","","true"
"comp-q","37","288052","0.0-14.0-1.0","7572","approach_avoid_sv1","""event"",""trial"",""time""
""fullscreenenter"",""1"",""8816""
""fullscreenexit"",""13"",""167991""
""blur"",""13"",""168259""
""focus"",""13"",""171324""
""blur"",""37"",""276895""
""focus"",""37"",""287982""
","""event"",""trial"",""time""
""blur"",""13"",""168259""
""blur"",""37"",""276895""
","""event"",""trial"",""time""
""focus"",""13"",""171324""
""focus"",""37"",""287982""
","""event"",""trial"",""time""
""fullscreenenter"",""1"",""8816""
","""event"",""trial"",""time""
""fullscreenexit"",""13"",""167991""
","","","","","","11891.700000047684","<p> <b> That's right! </b> You will see many different images <i> one time each </i> in this game. </p>","","0","comp_answer","","",""
"comp-q","38","295726","0.0-15.0-0.0","7572","approach_avoid_sv1","""event"",""trial"",""time""
""fullscreenenter"",""1"",""8816""
""fullscreenexit"",""13"",""167991""
""blur"",""13"",""168259""
""focus"",""13"",""171324""
""blur"",""37"",""276895""
""focus"",""37"",""287982""
","""event"",""trial"",""time""
""blur"",""13"",""168259""
""blur"",""37"",""276895""
","""event"",""trial"",""time""
""focus"",""13"",""171324""
""focus"",""37"",""287982""
","""event"",""trial"",""time""
""fullscreenenter"",""1"",""8816""
","""event"",""trial"",""time""
""fullscreenexit"",""13"",""167991""
","","","","","","2656.2000000476837","<p> <b> True or False? </b> </p><p> You should use the mouse and click to make your response. </p>","","1","comp_question","","","true"
"comp-q","39","332646","0.0-15.0-1.0","7572","approach_avoid_sv1","""event"",""trial"",""time""
""fullscreenenter"",""1"",""8816""
""fullscreenexit"",""13"",""167991""
""blur"",""13"",""168259""
""focus"",""13"",""171324""
""blur"",""37"",""276895""
""focus"",""37"",""287982""
","""event"",""trial"",""time""
""blur"",""13"",""168259""
""blur"",""37"",""276895""
","""event"",""trial"",""time""
""focus"",""13"",""171324""
""focus"",""37"",""287982""
","""event"",""trial"",""time""
""fullscreenenter"",""1"",""8816""
","""event"",""trial"",""time""
""fullscreenexit"",""13"",""167991""
","","","","","","30415.800000071526","<p><b> That's right! </b> You should use the '1', '2', '3', and '4' keys to make your response. </p>","","0","comp_answer","","",""
"comp-q","40","342712","0.0-16.0-0.0","7572","approach_avoid_sv1","""event"",""trial"",""time""
""fullscreenenter"",""1"",""8816""
""fullscreenexit"",""13"",""167991""
""blur"",""13"",""168259""
""focus"",""13"",""171324""
""blur"",""37"",""276895""
""focus"",""37"",""287982""
","""event"",""trial"",""time""
""blur"",""13"",""168259""
""blur"",""37"",""276895""
","""event"",""trial"",""time""
""focus"",""13"",""171324""
""focus"",""37"",""287982""
","""event"",""trial"",""time""
""fullscreenenter"",""1"",""8816""
","""event"",""trial"",""time""
""fullscreenexit"",""13"",""167991""
","","","","","","4409.900000095367","<p> <b> True or False? </b> </p><p> You will have as much time as you want to make each choice. </p>","","1","comp_question","","","true"
"comp-q","41","349064","0.0-16.0-1.0","7572","approach_avoid_sv1","""event"",""trial"",""time""
""fullscreenenter"",""1"",""8816""
""fullscreenexit"",""13"",""167991""
""blur"",""13"",""168259""
""focus"",""13"",""171324""
""blur"",""37"",""276895""
""focus"",""37"",""287982""
","""event"",""trial"",""time""
""blur"",""13"",""168259""
""blur"",""37"",""276895""
","""event"",""trial"",""time""
""focus"",""13"",""171324""
""focus"",""37"",""287982""
","""event"",""trial"",""time""
""fullscreenenter"",""1"",""8816""
","""event"",""trial"",""time""
""fullscreenexit"",""13"",""167991""
","","","","","","1641.8000000715256","<p> <b> That's right! </b> You will only have 10 seconds to make each choice. </p>","","0","comp_answer","","",""
"learning-instructions","42","358632","0.0-17.0","7572","approach_avoid_sv1","""event"",""trial"",""time""
""fullscreenenter"",""1"",""8816""
""fullscreenexit"",""13"",""167991""
""blur"",""13"",""168259""
""focus"",""13"",""171324""
""blur"",""37"",""276895""
""focus"",""37"",""287982""
","""event"",""trial"",""time""
""blur"",""13"",""168259""
""blur"",""37"",""276895""
","""event"",""trial"",""time""
""focus"",""13"",""171324""
""focus"",""37"",""287982""
","""event"",""trial"",""time""
""fullscreenenter"",""1"",""8816""
","""event"",""trial"",""time""
""fullscreenexit"",""13"",""167991""
","","","","","","889.5999999046326","<p> Great! You are now ready to begin the game. </p><p> Remember, use the 1, 2, 3, and 4 keys to make your responses. </p>","","0","instructions","","",""
"html-keyboard-response","43","359245","0.0-18.0-0.0","7572","approach_avoid_sv1","""event"",""trial"",""time""
""fullscreenenter"",""1"",""8816""
""fullscreenexit"",""13"",""167991""
""blur"",""13"",""168259""
""focus"",""13"",""171324""
""blur"",""37"",""276895""
""focus"",""37"",""287982""
","""event"",""trial"",""time""
""blur"",""13"",""168259""
""blur"",""37"",""276895""
","""event"",""trial"",""time""
""focus"",""13"",""171324""
""focus"",""37"",""287982""
","""event"",""trial"",""time""
""fullscreenenter"",""1"",""8816""
","""event"",""trial"",""time""
""fullscreenexit"",""13"",""167991""
","","","","","","null","<div style=""font-size:60px;"">+</div>","null","","fixation","","",""
"memory-trial","44","362383","0.0-18.0-1.0","7572","approach_avoid_sv1","""event"",""trial"",""time""
""fullscreenenter"",""1"",""8816""
""fullscreenexit"",""13"",""167991""
""blur"",""13"",""168259""
""focus"",""13"",""171324""
""blur"",""37"",""276895""
""focus"",""37"",""287982""
","""event"",""trial"",""time""
""blur"",""13"",""168259""
""blur"",""37"",""276895""
","""event"",""trial"",""time""
""focus"",""13"",""171324""
""focus"",""37"",""287982""
","""event"",""trial"",""time""
""fullscreenenter"",""1"",""8816""
","""event"",""trial"",""time""
""fullscreenexit"",""13"",""167991""
","","","","","","2123","images/bed2.png","","","memory_trial","1","definitely_old",""
"html-keyboard-response","45","362898","0.0-18.0-0.1","7572","approach_avoid_sv1","""event"",""trial"",""time""
""fullscreenenter"",""1"",""8816""
""fullscreenexit"",""13"",""167991""
""blur"",""13"",""168259""
""focus"",""13"",""171324""
""blur"",""37"",""276895""
""focus"",""37"",""287982""
","""event"",""trial"",""time""
""blur"",""13"",""168259""
""blur"",""37"",""276895""
","""event"",""trial"",""time""
""focus"",""13"",""171324""
""focus"",""37"",""287982""
","""event"",""trial"",""time""
""fullscreenenter"",""1"",""8816""
","""event"",""trial"",""time""
""fullscreenexit"",""13"",""167991""
","","","","","","null","<div style=""font-size:60px;"">+</div>","null","","fixation","","",""
"memory-trial","46","364900","0.0-18.0-1.1","7572","approach_avoid_sv1","""event"",""trial"",""time""
""fullscreenenter"",""1"",""8816""
""fullscreenexit"",""13"",""167991""
""blur"",""13"",""168259""
""focus"",""13"",""171324""
""blur"",""37"",""276895""
""focus"",""37"",""287982""
","""event"",""trial"",""time""
""blur"",""13"",""168259""
""blur"",""37"",""276895""
","""event"",""trial"",""time""
""focus"",""13"",""171324""
""focus"",""37"",""287982""
","""event"",""trial"",""time""
""fullscreenenter"",""1"",""8816""
","""event"",""trial"",""time""
""fullscreenexit"",""13"",""167991""
","","","","","","986.3999999761581","images/goat3.png","","","memory_trial","1","definitely_old",""
"html-keyboard-response","47","365416","0.0-18.0-0.2","7572","approach_avoid_sv1","""event"",""trial"",""time""
""fullscreenenter"",""1"",""8816""
""fullscreenexit"",""13"",""167991""
""blur"",""13"",""168259""
""focus"",""13"",""171324""
""blur"",""37"",""276895""
""focus"",""37"",""287982""
","""event"",""trial"",""time""
""blur"",""13"",""168259""
""blur"",""37"",""276895""
","""event"",""trial"",""time""
""focus"",""13"",""171324""
""focus"",""37"",""287982""
","""event"",""trial"",""time""
""fullscreenenter"",""1"",""8816""
","""event"",""trial"",""time""
""fullscreenexit"",""13"",""167991""
","","","","","","null","<div style=""font-size:60px;"">+</div>","null","","fixation","","",""
"memory-trial","48","368004","0.0-18.0-1.2","7572","approach_avoid_sv1","""event"",""trial"",""time""
""fullscreenenter"",""1"",""8816""
""fullscreenexit"",""13"",""167991""
""blur"",""13"",""168259""
""focus"",""13"",""171324""
""blur"",""37"",""276895""
""focus"",""37"",""287982""
","""event"",""trial"",""time""
""blur"",""13"",""168259""
""blur"",""37"",""276895""
","""event"",""trial"",""time""
""focus"",""13"",""171324""
""focus"",""37"",""287982""
","""event"",""trial"",""time""
""fullscreenenter"",""1"",""8816""
","""event"",""trial"",""time""
""fullscreenexit"",""13"",""167991""
","","","","","","1586","images/orange6.png","","","memory_trial","1","definitely_old",""
"html-keyboard-response","49","368519","0.0-18.0-0.3","7572","approach_avoid_sv1","""event"",""trial"",""time""
""fullscreenenter"",""1"",""8816""
""fullscreenexit"",""13"",""167991""
""blur"",""13"",""168259""
""focus"",""13"",""171324""
""blur"",""37"",""276895""
""focus"",""37"",""287982""
","""event"",""trial"",""time""
""blur"",""13"",""168259""
""blur"",""37"",""276895""
","""event"",""trial"",""time""
""focus"",""13"",""171324""
""focus"",""37"",""287982""
","""event"",""trial"",""time""
""fullscreenenter"",""1"",""8816""
","""event"",""trial"",""time""
""fullscreenexit"",""13"",""167991""
","","","","","","null","<div style=""font-size:60px;"">+</div>","null","","fixation","","",""
"memory-trial","50","370297","0.0-18.0-1.3","7572","approach_avoid_sv1","""event"",""trial"",""time""
""fullscreenenter"",""1"",""8816""
""fullscreenexit"",""13"",""167991""
""blur"",""13"",""168259""
""focus"",""13"",""171324""
""blur"",""37"",""276895""
""focus"",""37"",""287982""
","""event"",""trial"",""time""
""blur"",""13"",""168259""
""blur"",""37"",""276895""
","""event"",""trial"",""time""
""focus"",""13"",""171324""
""focus"",""37"",""287982""
","""event"",""trial"",""time""
""fullscreenenter"",""1"",""8816""
","""event"",""trial"",""time""
""fullscreenexit"",""13"",""167991""
","","","","","","769.2999999523163","images/straw7.png","","","memory_trial","1","definitely_old",""
"html-keyboard-response","51","370799","0.0-18.0-0.4","7572","approach_avoid_sv1","""event"",""trial"",""time""
""fullscreenenter"",""1"",""8816""
""fullscreenexit"",""13"",""167991""
""blur"",""13"",""168259""
""focus"",""13"",""171324""
""blur"",""37"",""276895""
""focus"",""37"",""287982""
","""event"",""trial"",""time""
""blur"",""13"",""168259""
""blur"",""37"",""276895""
","""event"",""trial"",""time""
""focus"",""13"",""171324""
""focus"",""37"",""287982""
","""event"",""trial"",""time""
""fullscreenenter"",""1"",""8816""
","""event"",""trial"",""time""
""fullscreenexit"",""13"",""167991""
","","","","","","null","<div style=""font-size:60px;"">+</div>","null","","fixation","","",""
"memory-trial","52","372907","0.0-18.0-1.4","7572","approach_avoid_sv1","""event"",""trial"",""time""
""fullscreenenter"",""1"",""8816""
""fullscreenexit"",""13"",""167991""
""blur"",""13"",""168259""
""focus"",""13"",""171324""
""blur"",""37"",""276895""
""focus"",""37"",""287982""
","""event"",""trial"",""time""
""blur"",""13"",""168259""
""blur"",""37"",""276895""
","""event"",""trial"",""time""
""focus"",""13"",""171324""
""focus"",""37"",""287982""
","""event"",""trial"",""time""
""fullscreenenter"",""1"",""8816""
","""event"",""trial"",""time""
""fullscreenexit"",""13"",""167991""
","","","","","","1094","images/cat8.png","","","memory_trial","4","definitely_new",""
"html-keyboard-response","53","373409","0.0-18.0-0.5","7572","approach_avoid_sv1","""event"",""trial"",""time""
""fullscreenenter"",""1"",""8816""
""fullscreenexit"",""13"",""167991""
""blur"",""13"",""168259""
""focus"",""13"",""171324""
""blur"",""37"",""276895""
""focus"",""37"",""287982""
","""event"",""trial"",""time""
""blur"",""13"",""168259""
""blur"",""37"",""276895""
","""event"",""trial"",""time""
""focus"",""13"",""171324""
""focus"",""37"",""287982""
","""event"",""trial"",""time""
""fullscreenenter"",""1"",""8816""
","""event"",""trial"",""time""
""fullscreenexit"",""13"",""167991""
","","","","","","null","<div style=""font-size:60px;"">+</div>","null","","fixation","","",""
"memory-trial","54","375134","0.0-18.0-1.5","7572","approach_avoid_sv1","""event"",""trial"",""time""
""fullscreenenter"",""1"",""8816""
""fullscreenexit"",""13"",""167991""
""blur"",""13"",""168259""
""focus"",""13"",""171324""
""blur"",""37"",""276895""
""focus"",""37"",""287982""
","""event"",""trial"",""time""
""blur"",""13"",""168259""
""blur"",""37"",""276895""
","""event"",""trial"",""time""
""focus"",""13"",""171324""
""focus"",""37"",""287982""
","""event"",""trial"",""time""
""fullscreenenter"",""1"",""8816""
","""event"",""trial"",""time""
""fullscreenexit"",""13"",""167991""
","","","","","","714.6999999284744","images/flower3.png","","","memory_trial","4","definitely_new",""
"html-keyboard-response","55","375651","0.0-18.0-0.6","7572","approach_avoid_sv1","""event"",""trial"",""time""
""fullscreenenter"",""1"",""8816""
""fullscreenexit"",""13"",""167991""
""blur"",""13"",""168259""
""focus"",""13"",""171324""
""blur"",""37"",""276895""
""focus"",""37"",""287982""
","""event"",""trial"",""time""
""blur"",""13"",""168259""
""blur"",""37"",""276895""
","""event"",""trial"",""time""
""focus"",""13"",""171324""
""focus"",""37"",""287982""
","""event"",""trial"",""time""
""fullscreenenter"",""1"",""8816""
","""event"",""trial"",""time""
""fullscreenexit"",""13"",""167991""
","","","","","","null","<div style=""font-size:60px;"">+</div>","null","","fixation","","",""
"memory-trial","56","377323","0.0-18.0-1.6","7572","approach_avoid_sv1","""event"",""trial"",""time""
""fullscreenenter"",""1"",""8816""
""fullscreenexit"",""13"",""167991""
""blur"",""13"",""168259""
""focus"",""13"",""171324""
""blur"",""37"",""276895""
""focus"",""37"",""287982""
","""event"",""trial"",""time""
""blur"",""13"",""168259""
""blur"",""37"",""276895""
","""event"",""trial"",""time""
""focus"",""13"",""171324""
""focus"",""37"",""287982""
","""event"",""trial"",""time""
""fullscreenenter"",""1"",""8816""
","""event"",""trial"",""time""
""fullscreenexit"",""13"",""167991""
","","","","","","660.8999999761581","images/cow8.png","","","memory_trial","4","definitely_new",""
"html-keyboard-response","57","377824","0.0-18.0-0.7","7572","approach_avoid_sv1","""event"",""trial"",""time""
""fullscreenenter"",""1"",""8816""
""fullscreenexit"",""13"",""167991""
""blur"",""13"",""168259""
""focus"",""13"",""171324""
""blur"",""37"",""276895""
""focus"",""37"",""287982""
","""event"",""trial"",""time""
""blur"",""13"",""168259""
""blur"",""37"",""276895""
","""event"",""trial"",""time""
""focus"",""13"",""171324""
""focus"",""37"",""287982""
","""event"",""trial"",""time""
""fullscreenenter"",""1"",""8816""
","""event"",""trial"",""time""
""fullscreenexit"",""13"",""167991""
","","","","","","null","<div style=""font-size:60px;"">+</div>","null","","fixation","","",""
"memory-trial","58","380428","0.0-18.0-1.7","7572","approach_avoid_sv1","""event"",""trial"",""time""
""fullscreenenter"",""1"",""8816""
""fullscreenexit"",""13"",""167991""
""blur"",""13"",""168259""
""focus"",""13"",""171324""
""blur"",""37"",""276895""
""focus"",""37"",""287982""
","""event"",""trial"",""time""
""blur"",""13"",""168259""
""blur"",""37"",""276895""
","""event"",""trial"",""time""
""focus"",""13"",""171324""
""focus"",""37"",""287982""
","""event"",""trial"",""time""
""fullscreenenter"",""1"",""8816""
","""event"",""trial"",""time""
""fullscreenexit"",""13"",""167991""
","","","","","","1589.6000000238419","images/goat5.png","","","memory_trial","4","definitely_new",""
"html-keyboard-response","59","380941","0.0-18.0-0.8","7572","approach_avoid_sv1","""event"",""trial"",""time""
""fullscreenenter"",""1"",""8816""
""fullscreenexit"",""13"",""167991""
""blur"",""13"",""168259""
""focus"",""13"",""171324""
""blur"",""37"",""276895""
""focus"",""37"",""287982""
","""event"",""trial"",""time""
""blur"",""13"",""168259""
""blur"",""37"",""276895""
","""event"",""trial"",""time""
""focus"",""13"",""171324""
""focus"",""37"",""287982""
","""event"",""trial"",""time""
""fullscreenenter"",""1"",""8816""
","""event"",""trial"",""time""
""fullscreenexit"",""13"",""167991""
","","","","","","null","<div style=""font-size:60px;"">+</div>","null","","fixation","","",""
"memory-trial","60","383158","0.0-18.0-1.8","7572","approach_avoid_sv1","""event"",""trial"",""time""
""fullscreenenter"",""1"",""8816""
""fullscreenexit"",""13"",""167991""
""blur"",""13"",""168259""
""focus"",""13"",""171324""
""blur"",""37"",""276895""
""focus"",""37"",""287982""
","""event"",""trial"",""time""
""blur"",""13"",""168259""
""blur"",""37"",""276895""
","""event"",""trial"",""time""
""focus"",""13"",""171324""
""focus"",""37"",""287982""
","""event"",""trial"",""time""
""fullscreenenter"",""1"",""8816""
","""event"",""trial"",""time""
""fullscreenexit"",""13"",""167991""
","","","","","","1205.8999999761581","images/goat1.png","","","memory_trial","4","definitely_new",""
"html-keyboard-response","61","383674","0.0-18.0-0.9","7572","approach_avoid_sv1","""event"",""trial"",""time""
""fullscreenenter"",""1"",""8816""
""fullscreenexit"",""13"",""167991""
""blur"",""13"",""168259""
""focus"",""13"",""171324""
""blur"",""37"",""276895""
""focus"",""37"",""287982""
","""event"",""trial"",""time""
""blur"",""13"",""168259""
""blur"",""37"",""276895""
","""event"",""trial"",""time""
""focus"",""13"",""171324""
""focus"",""37"",""287982""
","""event"",""trial"",""time""
""fullscreenenter"",""1"",""8816""
","""event"",""trial"",""time""
""fullscreenexit"",""13"",""167991""
","","","","","","null","<div style=""font-size:60px;"">+</div>","null","","fixation","","",""
"memory-trial","62","385390","0.0-18.0-1.9","7572","approach_avoid_sv1","""event"",""trial"",""time""
""fullscreenenter"",""1"",""8816""
""fullscreenexit"",""13"",""167991""
""blur"",""13"",""168259""
""focus"",""13"",""171324""
""blur"",""37"",""276895""
""focus"",""37"",""287982""
","""event"",""trial"",""time""
""blur"",""13"",""168259""
""blur"",""37"",""276895""
","""event"",""trial"",""time""
""focus"",""13"",""171324""
""focus"",""37"",""287982""
","""event"",""trial"",""time""
""fullscreenenter"",""1"",""8816""
","""event"",""trial"",""time""
""fullscreenexit"",""13"",""167991""
","","","","","","702.6999999284744","images/cow1.png","","","memory_trial","4","definitely_new",""
"html-keyboard-response","63","385906","0.0-18.0-0.10","7572","approach_avoid_sv1","""event"",""trial"",""time""
""fullscreenenter"",""1"",""8816""
""fullscreenexit"",""13"",""167991""
""blur"",""13"",""168259""
""focus"",""13"",""171324""
""blur"",""37"",""276895""
""focus"",""37"",""287982""
","""event"",""trial"",""time""
""blur"",""13"",""168259""
""blur"",""37"",""276895""
","""event"",""trial"",""time""
""focus"",""13"",""171324""
""focus"",""37"",""287982""
","""event"",""trial"",""time""
""fullscreenenter"",""1"",""8816""
","""event"",""trial"",""time""
""fullscreenexit"",""13"",""167991""
","","","","","","null","<div style=""font-size:60px;"">+</div>","null","","fixation","","",""
"memory-trial","64","388925","0.0-18.0-1.10","7572","approach_avoid_sv1","""event"",""trial"",""time""
""fullscreenenter"",""1"",""8816""
""fullscreenexit"",""13"",""167991""
""blur"",""13"",""168259""
""focus"",""13"",""171324""
""blur"",""37"",""276895""
""focus"",""37"",""287982""
","""event"",""trial"",""time""
""blur"",""13"",""168259""
""blur"",""37"",""276895""
","""event"",""trial"",""time""
""focus"",""13"",""171324""
""focus"",""37"",""287982""
","""event"",""trial"",""time""
""fullscreenenter"",""1"",""8816""
","""event"",""trial"",""time""
""fullscreenexit"",""13"",""167991""
","","","","","","2018","images/rodent2.png","","","memory_trial","4","definitely_new",""
"html-keyboard-response","65","389426","0.0-18.0-0.11","7572","approach_avoid_sv1","""event"",""trial"",""time""
""fullscreenenter"",""1"",""8816""
""fullscreenexit"",""13"",""167991""
""blur"",""13"",""168259""
""focus"",""13"",""171324""
""blur"",""37"",""276895""
""focus"",""37"",""287982""
","""event"",""trial"",""time""
""blur"",""13"",""168259""
""blur"",""37"",""276895""
","""event"",""trial"",""time""
""focus"",""13"",""171324""
""focus"",""37"",""287982""
","""event"",""trial"",""time""
""fullscreenenter"",""1"",""8816""
","""event"",""trial"",""time""
""fullscreenexit"",""13"",""167991""
","","","","","","null","<div style=""font-size:60px;"">+</div>","null","","fixation","","",""
"memory-trial","66","391783","0.0-18.0-1.11","7572","approach_avoid_sv1","""event"",""trial"",""time""
""fullscreenenter"",""1"",""8816""
""fullscreenexit"",""13"",""167991""
""blur"",""13"",""168259""
""focus"",""13"",""171324""
""blur"",""37"",""276895""
""focus"",""37"",""287982""
","""event"",""trial"",""time""
""blur"",""13"",""168259""
""blur"",""37"",""276895""
","""event"",""trial"",""time""
""focus"",""13"",""171324""
""focus"",""37"",""287982""
","""event"",""trial"",""time""
""fullscreenenter"",""1"",""8816""
","""event"",""trial"",""time""
""fullscreenexit"",""13"",""167991""
","","","","","","1355.6999999284744","images/rabbit4.png","","","memory_trial","3","maybe_new",""
"html-keyboard-response","67","392285","0.0-18.0-0.12","7572","approach_avoid_sv1","""event"",""trial"",""time""
""fullscreenenter"",""1"",""8816""
""fullscreenexit"",""13"",""167991""
""blur"",""13"",""168259""
""focus"",""13"",""171324""
""blur"",""37"",""276895""
""focus"",""37"",""287982""
","""event"",""trial"",""time""
""blur"",""13"",""168259""
""blur"",""37"",""276895""
","""event"",""trial"",""time""
""focus"",""13"",""171324""
""focus"",""37"",""287982""
","""event"",""trial"",""time""
""fullscreenenter"",""1"",""8816""
","""event"",""trial"",""time""
""fullscreenexit"",""13"",""167991""
","","","","","","null","<div style=""font-size:60px;"">+</div>","null","","fixation","","",""
"memory-trial","68","394775","0.0-18.0-1.12","7572","approach_avoid_sv1","""event"",""trial"",""time""
""fullscreenenter"",""1"",""8816""
""fullscreenexit"",""13"",""167991""
""blur"",""13"",""168259""
""focus"",""13"",""171324""
""blur"",""37"",""276895""
""focus"",""37"",""287982""
","""event"",""trial"",""time""
""blur"",""13"",""168259""
""blur"",""37"",""276895""
","""event"",""trial"",""time""
""focus"",""13"",""171324""
""focus"",""37"",""287982""
","""event"",""trial"",""time""
""fullscreenenter"",""1"",""8816""
","""event"",""trial"",""time""
""fullscreenexit"",""13"",""167991""
","","","","","","1487.8999999761581","images/sofa8.png","","","memory_trial","1","definitely_old",""
"html-keyboard-response","69","395277","0.0-18.0-0.13","7572","approach_avoid_sv1","""event"",""trial"",""time""
""fullscreenenter"",""1"",""8816""
""fullscreenexit"",""13"",""167991""
""blur"",""13"",""168259""
""focus"",""13"",""171324""
""blur"",""37"",""276895""
""focus"",""37"",""287982""
","""event"",""trial"",""time""
""blur"",""13"",""168259""
""blur"",""37"",""276895""
","""event"",""trial"",""time""
""focus"",""13"",""171324""
""focus"",""37"",""287982""
","""event"",""trial"",""time""
""fullscreenenter"",""1"",""8816""
","""event"",""trial"",""time""
""fullscreenexit"",""13"",""167991""
","","","","","","null","<div style=""font-size:60px;"">+</div>","null","","fixation","","",""
"memory-trial","70","397361","0.0-18.0-1.13","7572","approach_avoid_sv1","""event"",""trial"",""time""
""fullscreenenter"",""1"",""8816""
""fullscreenexit"",""13"",""167991""
""blur"",""13"",""168259""
""focus"",""13"",""171324""
""blur"",""37"",""276895""
""focus"",""37"",""287982""
","""event"",""trial"",""time""
""blur"",""13"",""168259""
""blur"",""37"",""276895""
","""event"",""trial"",""time""
""focus"",""13"",""171324""
""focus"",""37"",""287982""
","""event"",""trial"",""time""
""fullscreenenter"",""1"",""8816""
","""event"",""trial"",""time""
""fullscreenexit"",""13"",""167991""
","","","","","","1081.1000000238419","images/banana3.png","","","memory_trial","4","definitely_new",""
"html-keyboard-response","71","397862","0.0-18.0-0.14","7572","approach_avoid_sv1","""event"",""trial"",""time""
""fullscreenenter"",""1"",""8816""
""fullscreenexit"",""13"",""167991""
""blur"",""13"",""168259""
""focus"",""13"",""171324""
""blur"",""37"",""276895""
""focus"",""37"",""287982""
","""event"",""trial"",""time""
""blur"",""13"",""168259""
""blur"",""37"",""276895""
","""event"",""trial"",""time""
""focus"",""13"",""171324""
""focus"",""37"",""287982""
","""event"",""trial"",""time""
""fullscreenenter"",""1"",""8816""
","""event"",""trial"",""time""
""fullscreenexit"",""13"",""167991""
","","","","","","null","<div style=""font-size:60px;"">+</div>","null","","fixation","","",""
"memory-trial","72","401467","0.0-18.0-1.14","7572","approach_avoid_sv1","""event"",""trial"",""time""
""fullscreenenter"",""1"",""8816""
""fullscreenexit"",""13"",""167991""
""blur"",""13"",""168259""
""focus"",""13"",""171324""
""blur"",""37"",""276895""
""focus"",""37"",""287982""
","""event"",""trial"",""time""
""blur"",""13"",""168259""
""blur"",""37"",""276895""
","""event"",""trial"",""time""
""focus"",""13"",""171324""
""focus"",""37"",""287982""
","""event"",""trial"",""time""
""fullscreenenter"",""1"",""8816""
","""event"",""trial"",""time""
""fullscreenexit"",""13"",""167991""
","","","","","","2602.100000023842","images/sheep2.png","","","memory_trial","3","maybe_new",""
"html-keyboard-response","73","401968","0.0-18.0-0.15","7572","approach_avoid_sv1","""event"",""trial"",""time""
""fullscreenenter"",""1"",""8816""
""fullscreenexit"",""13"",""167991""
""blur"",""13"",""168259""
""focus"",""13"",""171324""
""blur"",""37"",""276895""
""focus"",""37"",""287982""
","""event"",""trial"",""time""
""blur"",""13"",""168259""
""blur"",""37"",""276895""
","""event"",""trial"",""time""
""focus"",""13"",""171324""
""focus"",""37"",""287982""
","""event"",""trial"",""time""
""fullscreenenter"",""1"",""8816""
","""event"",""trial"",""time""
""fullscreenexit"",""13"",""167991""
","","","","","","null","<div style=""font-size:60px;"">+</div>","null","","fixation","","",""
"memory-trial","74","403941","0.0-18.0-1.15","7572","approach_avoid_sv1","""event"",""trial"",""time""
""fullscreenenter"",""1"",""8816""
""fullscreenexit"",""13"",""167991""
""blur"",""13"",""168259""
""focus"",""13"",""171324""
""blur"",""37"",""276895""
""focus"",""37"",""287982""
","""event"",""trial"",""time""
""blur"",""13"",""168259""
""blur"",""37"",""276895""
","""event"",""trial"",""time""
""focus"",""13"",""171324""
""focus"",""37"",""287982""
","""event"",""trial"",""time""
""fullscreenenter"",""1"",""8816""
","""event"",""trial"",""time""
""fullscreenexit"",""13"",""167991""
","","","","","","971.3999999761581","images/rabbit2.png","","","memory_trial","1","definitely_old",""
"html-keyboard-response","75","404442","0.0-18.0-0.16","7572","approach_avoid_sv1","""event"",""trial"",""time""
""fullscreenenter"",""1"",""8816""
""fullscreenexit"",""13"",""167991""
""blur"",""13"",""168259""
""focus"",""13"",""171324""
""blur"",""37"",""276895""
""focus"",""37"",""287982""
","""event"",""trial"",""time""
""blur"",""13"",""168259""
""blur"",""37"",""276895""
","""event"",""trial"",""time""
""focus"",""13"",""171324""
""focus"",""37"",""287982""
","""event"",""trial"",""time""
""fullscreenenter"",""1"",""8816""
","""event"",""trial"",""time""
""fullscreenexit"",""13"",""167991""
","","","","","","null","<div style=""font-size:60px;"">+</div>","null","","fixation","","",""
"memory-trial","76","406590","0.0-18.0-1.16","7572","approach_avoid_sv1","""event"",""trial"",""time""
""fullscreenenter"",""1"",""8816""
""fullscreenexit"",""13"",""167991""
""blur"",""13"",""168259""
""focus"",""13"",""171324""
""blur"",""37"",""276895""
""focus"",""37"",""287982""
","""event"",""trial"",""time""
""blur"",""13"",""168259""
""blur"",""37"",""276895""
","""event"",""trial"",""time""
""focus"",""13"",""171324""
""focus"",""37"",""287982""
","""event"",""trial"",""time""
""fullscreenenter"",""1"",""8816""
","""event"",""trial"",""time""
""fullscreenexit"",""13"",""167991""
","","","","","","1139.2999999523163","images/chair2.png","","","memory_trial","2","maybe_old",""
"html-keyboard-response","77","407092","0.0-18.0-0.17","7572","approach_avoid_sv1","""event"",""trial"",""time""
""fullscreenenter"",""1"",""8816""
""fullscreenexit"",""13"",""167991""
""blur"",""13"",""168259""
""focus"",""13"",""171324""
""blur"",""37"",""276895""
""focus"",""37"",""287982""
","""event"",""trial"",""time""
""blur"",""13"",""168259""
""blur"",""37"",""276895""
","""event"",""trial"",""time""
""focus"",""13"",""171324""
""focus"",""37"",""287982""
","""event"",""trial"",""time""
""fullscreenenter"",""1"",""8816""
","""event"",""trial"",""time""
""fullscreenexit"",""13"",""167991""
","","","","","","null","<div style=""font-size:60px;"">+</div>","null","","fixation","","",""
"memory-trial","78","408886","0.0-18.0-1.17","7572","approach_avoid_sv1","""event"",""trial"",""time""
""fullscreenenter"",""1"",""8816""
""fullscreenexit"",""13"",""167991""
""blur"",""13"",""168259""
""focus"",""13"",""171324""
""blur"",""37"",""276895""
""focus"",""37"",""287982""
","""event"",""trial"",""time""
""blur"",""13"",""168259""
""blur"",""37"",""276895""
","""event"",""trial"",""time""
""focus"",""13"",""171324""
""focus"",""37"",""287982""
","""event"",""trial"",""time""
""fullscreenenter"",""1"",""8816""
","""event"",""trial"",""time""
""fullscreenexit"",""13"",""167991""
","","","","","","792.2000000476837","images/sheep3.png","","","memory_trial","1","definitely_old",""
"html-keyboard-response","79","409388","0.0-18.0-0.18","7572","approach_avoid_sv1","""event"",""trial"",""time""
""fullscreenenter"",""1"",""8816""
""fullscreenexit"",""13"",""167991""
""blur"",""13"",""168259""
""focus"",""13"",""171324""
""blur"",""37"",""276895""
""focus"",""37"",""287982""
","""event"",""trial"",""time""
""blur"",""13"",""168259""
""blur"",""37"",""276895""
","""event"",""trial"",""time""
""focus"",""13"",""171324""
""focus"",""37"",""287982""
","""event"",""trial"",""time""
""fullscreenenter"",""1"",""8816""
","""event"",""trial"",""time""
""fullscreenexit"",""13"",""167991""
","","","","","","null","<div style=""font-size:60px;"">+</div>","null","","fixation","","",""
"memory-trial","80","411432","0.0-18.0-1.18","7572","approach_avoid_sv1","""event"",""trial"",""time""
""fullscreenenter"",""1"",""8816""
""fullscreenexit"",""13"",""167991""
""blur"",""13"",""168259""
""focus"",""13"",""171324""
""blur"",""37"",""276895""
""focus"",""37"",""287982""
","""event"",""trial"",""time""
""blur"",""13"",""168259""
""blur"",""37"",""276895""
","""event"",""trial"",""time""
""focus"",""13"",""171324""
""focus"",""37"",""287982""
","""event"",""trial"",""time""
""fullscreenenter"",""1"",""8816""
","""event"",""trial"",""time""
""fullscreenexit"",""13"",""167991""
","","","","","","1042.2000000476837","images/goat7.png","","","memory_trial","2","maybe_old",""
"html-keyboard-response","81","411934","0.0-18.0-0.19","7572","approach_avoid_sv1","""event"",""trial"",""time""
""fullscreenenter"",""1"",""8816""
""fullscreenexit"",""13"",""167991""
""blur"",""13"",""168259""
""focus"",""13"",""171324""
""blur"",""37"",""276895""
""focus"",""37"",""287982""
","""event"",""trial"",""time""
""blur"",""13"",""168259""
""blur"",""37"",""276895""
","""event"",""trial"",""time""
""focus"",""13"",""171324""
""focus"",""37"",""287982""
","""event"",""trial"",""time""
""fullscreenenter"",""1"",""8816""
","""event"",""trial"",""time""
""fullscreenexit"",""13"",""167991""
","","","","","","null","<div style=""font-size:60px;"">+</div>","null","","fixation","","",""
"memory-trial","82","413820","0.0-18.0-1.19","7572","approach_avoid_sv1","""event"",""trial"",""time""
""fullscreenenter"",""1"",""8816""
""fullscreenexit"",""13"",""167991""
""blur"",""13"",""168259""
""focus"",""13"",""171324""
""blur"",""37"",""276895""
""focus"",""37"",""287982""
","""event"",""trial"",""time""
""blur"",""13"",""168259""
""blur"",""37"",""276895""
","""event"",""trial"",""time""
""focus"",""13"",""171324""
""focus"",""37"",""287982""
","""event"",""trial"",""time""
""fullscreenenter"",""1"",""8816""
","""event"",""trial"",""time""
""fullscreenexit"",""13"",""167991""
","","","","","","883.5","images/orange5.png","","","memory_trial","3","maybe_new",""
"html-keyboard-response","83","414320","0.0-18.0-0.20","7572","approach_avoid_sv1","""event"",""trial"",""time""
""fullscreenenter"",""1"",""8816""
""fullscreenexit"",""13"",""167991""
""blur"",""13"",""168259""
""focus"",""13"",""171324""
""blur"",""37"",""276895""
""focus"",""37"",""287982""
","""event"",""trial"",""time""
""blur"",""13"",""168259""
""blur"",""37"",""276895""
","""event"",""trial"",""time""
""focus"",""13"",""171324""
""focus"",""37"",""287982""
","""event"",""trial"",""time""
""fullscreenenter"",""1"",""8816""
","""event"",""trial"",""time""
""fullscreenexit"",""13"",""167991""
","","","","","","null","<div style=""font-size:60px;"">+</div>","null","","fixation","","",""
"memory-trial","84","417266","0.0-18.0-1.20","7572","approach_avoid_sv1","""event"",""trial"",""time""
""fullscreenenter"",""1"",""8816""
""fullscreenexit"",""13"",""167991""
""blur"",""13"",""168259""
""focus"",""13"",""171324""
""blur"",""37"",""276895""
""focus"",""37"",""287982""
","""event"",""trial"",""time""
""blur"",""13"",""168259""
""blur"",""37"",""276895""
","""event"",""trial"",""time""
""focus"",""13"",""171324""
""focus"",""37"",""287982""
","""event"",""trial"",""time""
""fullscreenenter"",""1"",""8816""
","""event"",""trial"",""time""
""fullscreenexit"",""13"",""167991""
","","","","","","1943.7999999523163","images/table8.png","","","memory_trial","1","definitely_old",""
"html-keyboard-response","85","417767","0.0-18.0-0.21","7572","approach_avoid_sv1","""event"",""trial"",""time""
""fullscreenenter"",""1"",""8816""
""fullscreenexit"",""13"",""167991""
""blur"",""13"",""168259""
""focus"",""13"",""171324""
""blur"",""37"",""276895""
""focus"",""37"",""287982""
","""event"",""trial"",""time""
""blur"",""13"",""168259""
""blur"",""37"",""276895""
","""event"",""trial"",""time""
""focus"",""13"",""171324""
""focus"",""37"",""287982""
","""event"",""trial"",""time""
""fullscreenenter"",""1"",""8816""
","""event"",""trial"",""time""
""fullscreenexit"",""13"",""167991""
","","","","","","null","<div style=""font-size:60px;"">+</div>","null","","fixation","","",""
"memory-trial","86","419440","0.0-18.0-1.21","7572","approach_avoid_sv1","""event"",""trial"",""time""
""fullscreenenter"",""1"",""8816""
""fullscreenexit"",""13"",""167991""
""blur"",""13"",""168259""
""focus"",""13"",""171324""
""blur"",""37"",""276895""
""focus"",""37"",""287982""
","""event"",""trial"",""time""
""blur"",""13"",""168259""
""blur"",""37"",""276895""
","""event"",""trial"",""time""
""focus"",""13"",""171324""
""focus"",""37"",""287982""
","""event"",""trial"",""time""
""fullscreenenter"",""1"",""8816""
","""event"",""trial"",""time""
""fullscreenexit"",""13"",""167991""
","","","","","","669.8000000715256","images/dog7.png","","","memory_trial","4","definitely_new",""
"html-keyboard-response","87","419941","0.0-18.0-0.22","7572","approach_avoid_sv1","""event"",""trial"",""time""
""fullscreenenter"",""1"",""8816""
""fullscreenexit"",""13"",""167991""
""blur"",""13"",""168259""
""focus"",""13"",""171324""
""blur"",""37"",""276895""
""focus"",""37"",""287982""
","""event"",""trial"",""time""
""blur"",""13"",""168259""
""blur"",""37"",""276895""
","""event"",""trial"",""time""
""focus"",""13"",""171324""
""focus"",""37"",""287982""
","""event"",""trial"",""time""
""fullscreenenter"",""1"",""8816""
","""event"",""trial"",""time""
""fullscreenexit"",""13"",""167991""
","","","","","","null","<div style=""font-size:60px;"">+</div>","null","","fixation","","",""
"memory-trial","88","421512","0.0-18.0-1.22","7572","approach_avoid_sv1","""event"",""trial"",""time""
""fullscreenenter"",""1"",""8816""
""fullscreenexit"",""13"",""167991""
""blur"",""13"",""168259""
""focus"",""13"",""171324""
""blur"",""37"",""276895""
""focus"",""37"",""287982""
","""event"",""trial"",""time""
""blur"",""13"",""168259""
""blur"",""37"",""276895""
","""event"",""trial"",""time""
""focus"",""13"",""171324""
""focus"",""37"",""287982""
","""event"",""trial"",""time""
""fullscreenenter"",""1"",""8816""
","""event"",""trial"",""time""
""fullscreenexit"",""13"",""167991""
","","","","","","569","images/flower8.png","","","memory_trial","4","definitely_new",""
"html-keyboard-response","89","422014","0.0-18.0-0.23","7572","approach_avoid_sv1","""event"",""trial"",""time""
""fullscreenenter"",""1"",""8816""
""fullscreenexit"",""13"",""167991""
""blur"",""13"",""168259""
""focus"",""13"",""171324""
""blur"",""37"",""276895""
""focus"",""37"",""287982""
","""event"",""trial"",""time""
""blur"",""13"",""168259""
""blur"",""37"",""276895""
","""event"",""trial"",""time""
""focus"",""13"",""171324""
""focus"",""37"",""287982""
","""event"",""trial"",""time""
""fullscreenenter"",""1"",""8816""
","""event"",""trial"",""time""
""fullscreenexit"",""13"",""167991""
","","","","","","null","<div style=""font-size:60px;"">+</div>","null","","fixation","","",""
"memory-trial","90","424445","0.0-18.0-1.23","7572","approach_avoid_sv1","""event"",""trial"",""time""
""fullscreenenter"",""1"",""8816""
""fullscreenexit"",""13"",""167991""
""blur"",""13"",""168259""
""focus"",""13"",""171324""
""blur"",""37"",""276895""
""focus"",""37"",""287982""
","""event"",""trial"",""time""
""blur"",""13"",""168259""
""blur"",""37"",""276895""
","""event"",""trial"",""time""
""focus"",""13"",""171324""
""focus"",""37"",""287982""
","""event"",""trial"",""time""
""fullscreenenter"",""1"",""8816""
","""event"",""trial"",""time""
""fullscreenexit"",""13"",""167991""
","","","","","","1429.8999999761581","images/boat3.png","","","memory_trial","4","definitely_new",""
"html-keyboard-response","91","424947","0.0-18.0-0.24","7572","approach_avoid_sv1","""event"",""trial"",""time""
""fullscreenenter"",""1"",""8816""
""fullscreenexit"",""13"",""167991""
""blur"",""13"",""168259""
""focus"",""13"",""171324""
""blur"",""37"",""276895""
""focus"",""37"",""287982""
","""event"",""trial"",""time""
""blur"",""13"",""168259""
""blur"",""37"",""276895""
","""event"",""trial"",""time""
""focus"",""13"",""171324""
""focus"",""37"",""287982""
","""event"",""trial"",""time""
""fullscreenenter"",""1"",""8816""
","""event"",""trial"",""time""
""fullscreenexit"",""13"",""167991""
","","","","","","null","<div style=""font-size:60px;"">+</div>","null","","fixation","","",""
"memory-trial","92","426971","0.0-18.0-1.24","7572","approach_avoid_sv1","""event"",""trial"",""time""
""fullscreenenter"",""1"",""8816""
""fullscreenexit"",""13"",""167991""
""blur"",""13"",""168259""
""focus"",""13"",""171324""
""blur"",""37"",""276895""
""focus"",""37"",""287982""
","""event"",""trial"",""time""
""blur"",""13"",""168259""
""blur"",""37"",""276895""
","""event"",""trial"",""time""
""focus"",""13"",""171324""
""focus"",""37"",""287982""
","""event"",""trial"",""time""
""fullscreenenter"",""1"",""8816""
","""event"",""trial"",""time""
""fullscreenexit"",""13"",""167991""
","","","","","","1013.6000000238419","images/horse2.png","","","memory_trial","4","definitely_new",""
"html-keyboard-response","93","427473","0.0-18.0-0.25","7572","approach_avoid_sv1","""event"",""trial"",""time""
""fullscreenenter"",""1"",""8816""
""fullscreenexit"",""13"",""167991""
""blur"",""13"",""168259""
""focus"",""13"",""171324""
""blur"",""37"",""276895""
""focus"",""37"",""287982""
","""event"",""trial"",""time""
""blur"",""13"",""168259""
""blur"",""37"",""276895""
","""event"",""trial"",""time""
""focus"",""13"",""171324""
""focus"",""37"",""287982""
","""event"",""trial"",""time""
""fullscreenenter"",""1"",""8816""
","""event"",""trial"",""time""
""fullscreenexit"",""13"",""167991""
","","","","","","null","<div style=""font-size:60px;"">+</div>","null","","fixation","","",""
"memory-trial","94","429478","0.0-18.0-1.25","7572","approach_avoid_sv1","""event"",""trial"",""time""
""fullscreenenter"",""1"",""8816""
""fullscreenexit"",""13"",""167991""
""blur"",""13"",""168259""
""focus"",""13"",""171324""
""blur"",""37"",""276895""
""focus"",""37"",""287982""
","""event"",""trial"",""time""
""blur"",""13"",""168259""
""blur"",""37"",""276895""
","""event"",""trial"",""time""
""focus"",""13"",""171324""
""focus"",""37"",""287982""
","""event"",""trial"",""time""
""fullscreenenter"",""1"",""8816""
","""event"",""trial"",""time""
""fullscreenexit"",""13"",""167991""
","","","","","","1002.5999999046326","images/banana4.png","","","memory_trial","4","definitely_new",""
"html-keyboard-response","95","429979","0.0-18.0-0.26","7572","approach_avoid_sv1","""event"",""trial"",""time""
""fullscreenenter"",""1"",""8816""
""fullscreenexit"",""13"",""167991""
""blur"",""13"",""168259""
""focus"",""13"",""171324""
""blur"",""37"",""276895""
""focus"",""37"",""287982""
","""event"",""trial"",""time""
""blur"",""13"",""168259""
""blur"",""37"",""276895""
","""event"",""trial"",""time""
""focus"",""13"",""171324""
""focus"",""37"",""287982""
","""event"",""trial"",""time""
""fullscreenenter"",""1"",""8816""
","""event"",""trial"",""time""
""fullscreenexit"",""13"",""167991""
","","","","","","null","<div style=""font-size:60px;"">+</div>","null","","fixation","","",""
"memory-trial","96","431722","0.0-18.0-1.26","7572","approach_avoid_sv1","""event"",""trial"",""time""
""fullscreenenter"",""1"",""8816""
""fullscreenexit"",""13"",""167991""
""blur"",""13"",""168259""
""focus"",""13"",""171324""
""blur"",""37"",""276895""
""focus"",""37"",""287982""
","""event"",""trial"",""time""
""blur"",""13"",""168259""
""blur"",""37"",""276895""
","""event"",""trial"",""time""
""focus"",""13"",""171324""
""focus"",""37"",""287982""
","""event"",""trial"",""time""
""fullscreenenter"",""1"",""8816""
","""event"",""trial"",""time""
""fullscreenexit"",""13"",""167991""
","","","","","","741","images/sheep7.png","","","memory_trial","4","definitely_new",""
"html-keyboard-response","97","432223","0.0-18.0-0.27","7572","approach_avoid_sv1","""event"",""trial"",""time""
""fullscreenenter"",""1"",""8816""
""fullscreenexit"",""13"",""167991""
""blur"",""13"",""168259""
""focus"",""13"",""171324""
""blur"",""37"",""276895""
""focus"",""37"",""287982""
","""event"",""trial"",""time""
""blur"",""13"",""168259""
""blur"",""37"",""276895""
","""event"",""trial"",""time""
""focus"",""13"",""171324""
""focus"",""37"",""287982""
","""event"",""trial"",""time""
""fullscreenenter"",""1"",""8816""
","""event"",""trial"",""time""
""fullscreenexit"",""13"",""167991""
","","","","","","null","<div style=""font-size:60px;"">+</div>","null","","fixation","","",""
"memory-trial","98","434367","0.0-18.0-1.27","7572","approach_avoid_sv1","""event"",""trial"",""time""
""fullscreenenter"",""1"",""8816""
""fullscreenexit"",""13"",""167991""
""blur"",""13"",""168259""
""focus"",""13"",""171324""
""blur"",""37"",""276895""
""focus"",""37"",""287982""
","""event"",""trial"",""time""
""blur"",""13"",""168259""
""blur"",""37"",""276895""
","""event"",""trial"",""time""
""focus"",""13"",""171324""
""focus"",""37"",""287982""
","""event"",""trial"",""time""
""fullscreenenter"",""1"",""8816""
","""event"",""trial"",""time""
""fullscreenexit"",""13"",""167991""
","","","","","","1142.8999999761581","images/sofa2.png","","","memory_trial","1","definitely_old",""
"html-keyboard-response","99","434868","0.0-18.0-0.28","7572","approach_avoid_sv1","""event"",""trial"",""time""
""fullscreenenter"",""1"",""8816""
""fullscreenexit"",""13"",""167991""
""blur"",""13"",""168259""
""focus"",""13"",""171324""
""blur"",""37"",""276895""
""focus"",""37"",""287982""
","""event"",""trial"",""time""
""blur"",""13"",""168259""
""blur"",""37"",""276895""
","""event"",""trial"",""time""
""focus"",""13"",""171324""
""focus"",""37"",""287982""
","""event"",""trial"",""time""
""fullscreenenter"",""1"",""8816""
","""event"",""trial"",""time""
""fullscreenexit"",""13"",""167991""
","","","","","","null","<div style=""font-size:60px;"">+</div>","null","","fixation","","",""
"memory-trial","100","437527","0.0-18.0-1.28","7572","approach_avoid_sv1","""event"",""trial"",""time""
""fullscreenenter"",""1"",""8816""
""fullscreenexit"",""13"",""167991""
""blur"",""13"",""168259""
""focus"",""13"",""171324""
""blur"",""37"",""276895""
""focus"",""37"",""287982""
","""event"",""trial"",""time""
""blur"",""13"",""168259""
""blur"",""37"",""276895""
","""event"",""trial"",""time""
""focus"",""13"",""171324""
""focus"",""37"",""287982""
","""event"",""trial"",""time""
""fullscreenenter"",""1"",""8816""
","""event"",""trial"",""time""
""fullscreenexit"",""13"",""167991""
","","","","","","1657.7000000476837","images/plane2.png","","","memory_trial","1","definitely_old",""
"html-keyboard-response","101","438029","0.0-18.0-0.29","7572","approach_avoid_sv1","""event"",""trial"",""time""
""fullscreenenter"",""1"",""8816""
""fullscreenexit"",""13"",""167991""
""blur"",""13"",""168259""
""focus"",""13"",""171324""
""blur"",""37"",""276895""
""focus"",""37"",""287982""
","""event"",""trial"",""time""
""blur"",""13"",""168259""
""blur"",""37"",""276895""
","""event"",""trial"",""time""
""focus"",""13"",""171324""
""focus"",""37"",""287982""
","""event"",""trial"",""time""
""fullscreenenter"",""1"",""8816""
","""event"",""trial"",""time""
""fullscreenexit"",""13"",""167991""
","","","","","","null","<div style=""font-size:60px;"">+</div>","null","","fixation","","",""
"memory-trial","102","440117","0.0-18.0-1.29","7572","approach_avoid_sv1","""event"",""trial"",""time""
""fullscreenenter"",""1"",""8816""
""fullscreenexit"",""13"",""167991""
""blur"",""13"",""168259""
""focus"",""13"",""171324""
""blur"",""37"",""276895""
""focus"",""37"",""287982""
","""event"",""trial"",""time""
""blur"",""13"",""168259""
""blur"",""37"",""276895""
","""event"",""trial"",""time""
""focus"",""13"",""171324""
""focus"",""37"",""287982""
","""event"",""trial"",""time""
""fullscreenenter"",""1"",""8816""
","""event"",""trial"",""time""
""fullscreenexit"",""13"",""167991""
","","","","","","1086.2000000476837","images/boat8.png","","","memory_trial","4","definitely_new",""
"html-keyboard-response","103","440618","0.0-18.0-0.30","7572","approach_avoid_sv1","""event"",""trial"",""time""
""fullscreenenter"",""1"",""8816""
""fullscreenexit"",""13"",""167991""
""blur"",""13"",""168259""
""focus"",""13"",""171324""
""blur"",""37"",""276895""
""focus"",""37"",""287982""
","""event"",""trial"",""time""
""blur"",""13"",""168259""
""blur"",""37"",""276895""
","""event"",""trial"",""time""
""focus"",""13"",""171324""
""focus"",""37"",""287982""
","""event"",""trial"",""time""
""fullscreenenter"",""1"",""8816""
","""event"",""trial"",""time""
""fullscreenexit"",""13"",""167991""
","","","","","","null","<div style=""font-size:60px;"">+</div>","null","","fixation","","",""
"memory-trial","104","443047","0.0-18.0-1.30","7572","approach_avoid_sv1","""event"",""trial"",""time""
""fullscreenenter"",""1"",""8816""
""fullscreenexit"",""13"",""167991""
""blur"",""13"",""168259""
""focus"",""13"",""171324""
""blur"",""37"",""276895""
""focus"",""37"",""287982""
","""event"",""trial"",""time""
""blur"",""13"",""168259""
""blur"",""37"",""276895""
","""event"",""trial"",""time""
""focus"",""13"",""171324""
""focus"",""37"",""287982""
","""event"",""trial"",""time""
""fullscreenenter"",""1"",""8816""
","""event"",""trial"",""time""
""fullscreenexit"",""13"",""167991""
","","","","","","1426.2999999523163","images/bed6.png","","","memory_trial","4","definitely_new",""
"html-keyboard-response","105","443548","0.0-18.0-0.31","7572","approach_avoid_sv1","""event"",""trial"",""time""
""fullscreenenter"",""1"",""8816""
""fullscreenexit"",""13"",""167991""
""blur"",""13"",""168259""
""focus"",""13"",""171324""
""blur"",""37"",""276895""
""focus"",""37"",""287982""
","""event"",""trial"",""time""
""blur"",""13"",""168259""
""blur"",""37"",""276895""
","""event"",""trial"",""time""
""focus"",""13"",""171324""
""focus"",""37"",""287982""
","""event"",""trial"",""time""
""fullscreenenter"",""1"",""8816""
","""event"",""trial"",""time""
""fullscreenexit"",""13"",""167991""
","","","","","","null","<div style=""font-size:60px;"">+</div>","null","","fixation","","",""
"memory-trial","106","445280","0.0-18.0-1.31","7572","approach_avoid_sv1","""event"",""trial"",""time""
""fullscreenenter"",""1"",""8816""
""fullscreenexit"",""13"",""167991""
""blur"",""13"",""168259""
""focus"",""13"",""171324""
""blur"",""37"",""276895""
""focus"",""37"",""287982""
","""event"",""trial"",""time""
""blur"",""13"",""168259""
""blur"",""37"",""276895""
","""event"",""trial"",""time""
""focus"",""13"",""171324""
""focus"",""37"",""287982""
","""event"",""trial"",""time""
""fullscreenenter"",""1"",""8816""
","""event"",""trial"",""time""
""fullscreenexit"",""13"",""167991""
","","","","","","730.7999999523163","images/cat2.png","","","memory_trial","4","definitely_new",""
"html-keyboard-response","107","445791","0.0-18.0-0.32","7572","approach_avoid_sv1","""event"",""trial"",""time""
""fullscreenenter"",""1"",""8816""
""fullscreenexit"",""13"",""167991""
""blur"",""13"",""168259""
""focus"",""13"",""171324""
""blur"",""37"",""276895""
""focus"",""37"",""287982""
","""event"",""trial"",""time""
""blur"",""13"",""168259""
""blur"",""37"",""276895""
","""event"",""trial"",""time""
""focus"",""13"",""171324""
""focus"",""37"",""287982""
","""event"",""trial"",""time""
""fullscreenenter"",""1"",""8816""
","""event"",""trial"",""time""
""fullscreenexit"",""13"",""167991""
","","","","","","null","<div style=""font-size:60px;"">+</div>","null","","fixation","","",""
"memory-trial","108","447582","0.0-18.0-1.32","7572","approach_avoid_sv1","""event"",""trial"",""time""
""fullscreenenter"",""1"",""8816""
""fullscreenexit"",""13"",""167991""
""blur"",""13"",""168259""
""focus"",""13"",""171324""
""blur"",""37"",""276895""
""focus"",""37"",""287982""
","""event"",""trial"",""time""
""blur"",""13"",""168259""
""blur"",""37"",""276895""
","""event"",""trial"",""time""
""focus"",""13"",""171324""
""focus"",""37"",""287982""
","""event"",""trial"",""time""
""fullscreenenter"",""1"",""8816""
","""event"",""trial"",""time""
""fullscreenexit"",""13"",""167991""
","","","","","","789.7000000476837","images/chair3.png","","","memory_trial","4","definitely_new",""
"html-keyboard-response","109","448084","0.0-18.0-0.33","7572","approach_avoid_sv1","""event"",""trial"",""time""
""fullscreenenter"",""1"",""8816""
""fullscreenexit"",""13"",""167991""
""blur"",""13"",""168259""
""focus"",""13"",""171324""
""blur"",""37"",""276895""
""focus"",""37"",""287982""
","""event"",""trial"",""time""
""blur"",""13"",""168259""
""blur"",""37"",""276895""
","""event"",""trial"",""time""
""focus"",""13"",""171324""
""focus"",""37"",""287982""
","""event"",""trial"",""time""
""fullscreenenter"",""1"",""8816""
","""event"",""trial"",""time""
""fullscreenexit"",""13"",""167991""
","","","","","","null","<div style=""font-size:60px;"">+</div>","null","","fixation","","",""
"memory-trial","110","450125","0.0-18.0-1.33","7572","approach_avoid_sv1","""event"",""trial"",""time""
""fullscreenenter"",""1"",""8816""
""fullscreenexit"",""13"",""167991""
""blur"",""13"",""168259""
""focus"",""13"",""171324""
""blur"",""37"",""276895""
""focus"",""37"",""287982""
","""event"",""trial"",""time""
""blur"",""13"",""168259""
""blur"",""37"",""276895""
","""event"",""trial"",""time""
""focus"",""13"",""171324""
""focus"",""37"",""287982""
","""event"",""trial"",""time""
""fullscreenenter"",""1"",""8816""
","""event"",""trial"",""time""
""fullscreenexit"",""13"",""167991""
","","","","","","1039.6000000238419","images/table6.png","","","memory_trial","4","definitely_new",""
"html-keyboard-response","111","450627","0.0-18.0-0.34","7572","approach_avoid_sv1","""event"",""trial"",""time""
""fullscreenenter"",""1"",""8816""
""fullscreenexit"",""13"",""167991""
""blur"",""13"",""168259""
""focus"",""13"",""171324""
""blur"",""37"",""276895""
""focus"",""37"",""287982""
","""event"",""trial"",""time""
""blur"",""13"",""168259""
""blur"",""37"",""276895""
","""event"",""trial"",""time""
""focus"",""13"",""171324""
""focus"",""37"",""287982""
","""event"",""trial"",""time""
""fullscreenenter"",""1"",""8816""
","""event"",""trial"",""time""
""fullscreenexit"",""13"",""167991""
","","","","","","null","<div style=""font-size:60px;"">+</div>","null","","fixation","","",""
"memory-trial","112","452658","0.0-18.0-1.34","7572","approach_avoid_sv1","""event"",""trial"",""time""
""fullscreenenter"",""1"",""8816""
""fullscreenexit"",""13"",""167991""
""blur"",""13"",""168259""
""focus"",""13"",""171324""
""blur"",""37"",""276895""
""focus"",""37"",""287982""
","""event"",""trial"",""time""
""blur"",""13"",""168259""
""blur"",""37"",""276895""
","""event"",""trial"",""time""
""focus"",""13"",""171324""
""focus"",""37"",""287982""
","""event"",""trial"",""time""
""fullscreenenter"",""1"",""8816""
","""event"",""trial"",""time""
""fullscreenexit"",""13"",""167991""
","","","","","","1028.5","images/straw6.png","","","memory_trial","4","definitely_new",""
"html-keyboard-response","113","453159","0.0-18.0-0.35","7572","approach_avoid_sv1","""event"",""trial"",""time""
""fullscreenenter"",""1"",""8816""
""fullscreenexit"",""13"",""167991""
""blur"",""13"",""168259""
""focus"",""13"",""171324""
""blur"",""37"",""276895""
""focus"",""37"",""287982""
","""event"",""trial"",""time""
""blur"",""13"",""168259""
""blur"",""37"",""276895""
","""event"",""trial"",""time""
""focus"",""13"",""171324""
""focus"",""37"",""287982""
","""event"",""trial"",""time""
""fullscreenenter"",""1"",""8816""
","""event"",""trial"",""time""
""fullscreenexit"",""13"",""167991""
","","","","","","null","<div style=""font-size:60px;"">+</div>","null","","fixation","","",""
"memory-trial","114","454902","0.0-18.0-1.35","7572","approach_avoid_sv1","""event"",""trial"",""time""
""fullscreenenter"",""1"",""8816""
""fullscreenexit"",""13"",""167991""
""blur"",""13"",""168259""
""focus"",""13"",""171324""
""blur"",""37"",""276895""
""focus"",""37"",""287982""
","""event"",""trial"",""time""
""blur"",""13"",""168259""
""blur"",""37"",""276895""
","""event"",""trial"",""time""
""focus"",""13"",""171324""
""focus"",""37"",""287982""
","""event"",""trial"",""time""
""fullscreenenter"",""1"",""8816""
","""event"",""trial"",""time""
""fullscreenexit"",""13"",""167991""
","","","","","","740.1999999284744","images/chair4.png","","","memory_trial","4","definitely_new",""
"html-keyboard-response","115","455402","0.0-18.0-0.36","7572","approach_avoid_sv1","""event"",""trial"",""time""
""fullscreenenter"",""1"",""8816""
""fullscreenexit"",""13"",""167991""
""blur"",""13"",""168259""
""focus"",""13"",""171324""
""blur"",""37"",""276895""
""focus"",""37"",""287982""
","""event"",""trial"",""time""
""blur"",""13"",""168259""
""blur"",""37"",""276895""
","""event"",""trial"",""time""
""focus"",""13"",""171324""
""focus"",""37"",""287982""
","""event"",""trial"",""time""
""fullscreenenter"",""1"",""8816""
","""event"",""trial"",""time""
""fullscreenexit"",""13"",""167991""
","","","","","","null","<div style=""font-size:60px;"">+</div>","null","","fixation","","",""
"memory-trial","116","457132","0.0-18.0-1.36","7572","approach_avoid_sv1","""event"",""trial"",""time""
""fullscreenenter"",""1"",""8816""
""fullscreenexit"",""13"",""167991""
""blur"",""13"",""168259""
""focus"",""13"",""171324""
""blur"",""37"",""276895""
""focus"",""37"",""287982""
","""event"",""trial"",""time""
""blur"",""13"",""168259""
""blur"",""37"",""276895""
","""event"",""trial"",""time""
""focus"",""13"",""171324""
""focus"",""37"",""287982""
","""event"",""trial"",""time""
""fullscreenenter"",""1"",""8816""
","""event"",""trial"",""time""
""fullscreenexit"",""13"",""167991""
","","","","","","728.1999999284744","images/sheep8.png","","","memory_trial","4","definitely_new",""
"html-keyboard-response","117","457634","0.0-18.0-0.37","7572","approach_avoid_sv1","""event"",""trial"",""time""
""fullscreenenter"",""1"",""8816""
""fullscreenexit"",""13"",""167991""
""blur"",""13"",""168259""
""focus"",""13"",""171324""
""blur"",""37"",""276895""
""focus"",""37"",""287982""
","""event"",""trial"",""time""
""blur"",""13"",""168259""
""blur"",""37"",""276895""
","""event"",""trial"",""time""
""focus"",""13"",""171324""
""focus"",""37"",""287982""
","""event"",""trial"",""time""
""fullscreenenter"",""1"",""8816""
","""event"",""trial"",""time""
""fullscreenexit"",""13"",""167991""
","","","","","","null","<div style=""font-size:60px;"">+</div>","null","","fixation","","",""
"memory-trial","118","459807","0.0-18.0-1.37","7572","approach_avoid_sv1","""event"",""trial"",""time""
""fullscreenenter"",""1"",""8816""
""fullscreenexit"",""13"",""167991""
""blur"",""13"",""168259""
""focus"",""13"",""171324""
""blur"",""37"",""276895""
""focus"",""37"",""287982""
","""event"",""trial"",""time""
""blur"",""13"",""168259""
""blur"",""37"",""276895""
","""event"",""trial"",""time""
""focus"",""13"",""171324""
""focus"",""37"",""287982""
","""event"",""trial"",""time""
""fullscreenenter"",""1"",""8816""
","""event"",""trial"",""time""
""fullscreenexit"",""13"",""167991""
","","","","","","1171.3999999761581","images/boat6.png","","","memory_trial","1","definitely_old",""
"html-keyboard-response","119","460308","0.0-18.0-0.38","7572","approach_avoid_sv1","""event"",""trial"",""time""
""fullscreenenter"",""1"",""8816""
""fullscreenexit"",""13"",""167991""
""blur"",""13"",""168259""
""focus"",""13"",""171324""
""blur"",""37"",""276895""
""focus"",""37"",""287982""
","""event"",""trial"",""time""
""blur"",""13"",""168259""
""blur"",""37"",""276895""
","""event"",""trial"",""time""
""focus"",""13"",""171324""
""focus"",""37"",""287982""
","""event"",""trial"",""time""
""fullscreenenter"",""1"",""8816""
","""event"",""trial"",""time""
""fullscreenexit"",""13"",""167991""
","","","","","","null","<div style=""font-size:60px;"">+</div>","null","","fixation","","",""
"memory-trial","120","462651","0.0-18.0-1.38","7572","approach_avoid_sv1","""event"",""trial"",""time""
""fullscreenenter"",""1"",""8816""
""fullscreenexit"",""13"",""167991""
""blur"",""13"",""168259""
""focus"",""13"",""171324""
""blur"",""37"",""276895""
""focus"",""37"",""287982""
","""event"",""trial"",""time""
""blur"",""13"",""168259""
""blur"",""37"",""276895""
","""event"",""trial"",""time""
""focus"",""13"",""171324""
""focus"",""37"",""287982""
","""event"",""trial"",""time""
""fullscreenenter"",""1"",""8816""
","""event"",""trial"",""time""
""fullscreenexit"",""13"",""167991""
","","","","","","1341.2999999523163","images/tree4.png","","","memory_trial","1","definitely_old",""
"html-keyboard-response","121","463152","0.0-18.0-0.39","7572","approach_avoid_sv1","""event"",""trial"",""time""
""fullscreenenter"",""1"",""8816""
""fullscreenexit"",""13"",""167991""
""blur"",""13"",""168259""
""focus"",""13"",""171324""
""blur"",""37"",""276895""
""focus"",""37"",""287982""
","""event"",""trial"",""time""
""blur"",""13"",""168259""
""blur"",""37"",""276895""
","""event"",""trial"",""time""
""focus"",""13"",""171324""
""focus"",""37"",""287982""
","""event"",""trial"",""time""
""fullscreenenter"",""1"",""8816""
","""event"",""trial"",""time""
""fullscreenexit"",""13"",""167991""
","","","","","","null","<div style=""font-size:60px;"">+</div>","null","","fixation","","",""
"memory-trial","122","464767","0.0-18.0-1.39","7572","approach_avoid_sv1","""event"",""trial"",""time""
""fullscreenenter"",""1"",""8816""
""fullscreenexit"",""13"",""167991""
""blur"",""13"",""168259""
""focus"",""13"",""171324""
""blur"",""37"",""276895""
""focus"",""37"",""287982""
","""event"",""trial"",""time""
""blur"",""13"",""168259""
""blur"",""37"",""276895""
","""event"",""trial"",""time""
""focus"",""13"",""171324""
""focus"",""37"",""287982""
","""event"",""trial"",""time""
""fullscreenenter"",""1"",""8816""
","""event"",""trial"",""time""
""fullscreenexit"",""13"",""167991""
","","","","","","613","images/dog8.png","","","memory_trial","4","definitely_new",""
"html-keyboard-response","123","465268","0.0-18.0-0.40","7572","approach_avoid_sv1","""event"",""trial"",""time""
""fullscreenenter"",""1"",""8816""
""fullscreenexit"",""13"",""167991""
""blur"",""13"",""168259""
""focus"",""13"",""171324""
""blur"",""37"",""276895""
""focus"",""37"",""287982""
","""event"",""trial"",""time""
""blur"",""13"",""168259""
""blur"",""37"",""276895""
","""event"",""trial"",""time""
""focus"",""13"",""171324""
""focus"",""37"",""287982""
","""event"",""trial"",""time""
""fullscreenenter"",""1"",""8816""
","""event"",""trial"",""time""
""fullscreenexit"",""13"",""167991""
","","","","","","null","<div style=""font-size:60px;"">+</div>","null","","fixation","","",""
"memory-trial","124","466945","0.0-18.0-1.40","7572","approach_avoid_sv1","""event"",""trial"",""time""
""fullscreenenter"",""1"",""8816""
""fullscreenexit"",""13"",""167991""
""blur"",""13"",""168259""
""focus"",""13"",""171324""
""blur"",""37"",""276895""
""focus"",""37"",""287982""
","""event"",""trial"",""time""
""blur"",""13"",""168259""
""blur"",""37"",""276895""
","""event"",""trial"",""time""
""focus"",""13"",""171324""
""focus"",""37"",""287982""
","""event"",""trial"",""time""
""fullscreenenter"",""1"",""8816""
","""event"",""trial"",""time""
""fullscreenexit"",""13"",""167991""
","","","","","","674.7000000476837","images/goat4.png","","","memory_trial","4","definitely_new",""
"html-keyboard-response","125","467446","0.0-18.0-0.41","7572","approach_avoid_sv1","""event"",""trial"",""time""
""fullscreenenter"",""1"",""8816""
""fullscreenexit"",""13"",""167991""
""blur"",""13"",""168259""
""focus"",""13"",""171324""
""blur"",""37"",""276895""
""focus"",""37"",""287982""
","""event"",""trial"",""time""
""blur"",""13"",""168259""
""blur"",""37"",""276895""
","""event"",""trial"",""time""
""focus"",""13"",""171324""
""focus"",""37"",""287982""
","""event"",""trial"",""time""
""fullscreenenter"",""1"",""8816""
","""event"",""trial"",""time""
""fullscreenexit"",""13"",""167991""
","","","","","","null","<div style=""font-size:60px;"">+</div>","null","","fixation","","",""
"memory-trial","126","469601","0.0-18.0-1.41","7572","approach_avoid_sv1","""event"",""trial"",""time""
""fullscreenenter"",""1"",""8816""
""fullscreenexit"",""13"",""167991""
""blur"",""13"",""168259""
""focus"",""13"",""171324""
""blur"",""37"",""276895""
""focus"",""37"",""287982""
","""event"",""trial"",""time""
""blur"",""13"",""168259""
""blur"",""37"",""276895""
","""event"",""trial"",""time""
""focus"",""13"",""171324""
""focus"",""37"",""287982""
","""event"",""trial"",""time""
""fullscreenenter"",""1"",""8816""
","""event"",""trial"",""time""
""fullscreenexit"",""13"",""167991""
","","","","","","1153.6000000238419","images/plane5.png","","","memory_trial","1","definitely_old",""
"html-button-response","127","473263","0.0-18.0-2.41-0.41","7572","approach_avoid_sv1","""event"",""trial"",""time""
""fullscreenenter"",""1"",""8816""
""fullscreenexit"",""13"",""167991""
""blur"",""13"",""168259""
""focus"",""13"",""171324""
""blur"",""37"",""276895""
""focus"",""37"",""287982""
","""event"",""trial"",""time""
""blur"",""13"",""168259""
""blur"",""37"",""276895""
","""event"",""trial"",""time""
""focus"",""13"",""171324""
""focus"",""37"",""287982""
","""event"",""trial"",""time""
""fullscreenenter"",""1"",""8816""
","""event"",""trial"",""time""
""fullscreenexit"",""13"",""167991""
","","","","","","3661.100000023842","<p> Take a break! </p><p> Click the button to continue. </p>","0","","break","","",""
"html-keyboard-response","128","473764","0.0-18.0-0.42","7572","approach_avoid_sv1","""event"",""trial"",""time""
""fullscreenenter"",""1"",""8816""
""fullscreenexit"",""13"",""167991""
""blur"",""13"",""168259""
""focus"",""13"",""171324""
""blur"",""37"",""276895""
""focus"",""37"",""287982""
","""event"",""trial"",""time""
""blur"",""13"",""168259""
""blur"",""37"",""276895""
","""event"",""trial"",""time""
""focus"",""13"",""171324""
""focus"",""37"",""287982""
","""event"",""trial"",""time""
""fullscreenenter"",""1"",""8816""
","""event"",""trial"",""time""
""fullscreenexit"",""13"",""167991""
","","","","","","null","<div style=""font-size:60px;"">+</div>","null","","fixation","","",""
"memory-trial","129","476709","0.0-18.0-1.42","7572","approach_avoid_sv1","""event"",""trial"",""time""
""fullscreenenter"",""1"",""8816""
""fullscreenexit"",""13"",""167991""
""blur"",""13"",""168259""
""focus"",""13"",""171324""
""blur"",""37"",""276895""
""focus"",""37"",""287982""
","""event"",""trial"",""time""
""blur"",""13"",""168259""
""blur"",""37"",""276895""
","""event"",""trial"",""time""
""focus"",""13"",""171324""
""focus"",""37"",""287982""
","""event"",""trial"",""time""
""fullscreenenter"",""1"",""8816""
","""event"",""trial"",""time""
""fullscreenexit"",""13"",""167991""
","","","","","","1943.6000000238419","images/rodent1.png","","","memory_trial","4","definitely_new",""
"html-keyboard-response","130","477211","0.0-18.0-0.43","7572","approach_avoid_sv1","""event"",""trial"",""time""
""fullscreenenter"",""1"",""8816""
""fullscreenexit"",""13"",""167991""
""blur"",""13"",""168259""
""focus"",""13"",""171324""
""blur"",""37"",""276895""
""focus"",""37"",""287982""
","""event"",""trial"",""time""
""blur"",""13"",""168259""
""blur"",""37"",""276895""
","""event"",""trial"",""time""
""focus"",""13"",""171324""
""focus"",""37"",""287982""
","""event"",""trial"",""time""
""fullscreenenter"",""1"",""8816""
","""event"",""trial"",""time""
""fullscreenexit"",""13"",""167991""
","","","","","","null","<div style=""font-size:60px;"">+</div>","null","","fixation","","",""
"memory-trial","131","479471","0.0-18.0-1.43","7572","approach_avoid_sv1","""event"",""trial"",""time""
""fullscreenenter"",""1"",""8816""
""fullscreenexit"",""13"",""167991""
""blur"",""13"",""168259""
""focus"",""13"",""171324""
""blur"",""37"",""276895""
""focus"",""37"",""287982""
","""event"",""trial"",""time""
""blur"",""13"",""168259""
""blur"",""37"",""276895""
","""event"",""trial"",""time""
""focus"",""13"",""171324""
""focus"",""37"",""287982""
","""event"",""trial"",""time""
""fullscreenenter"",""1"",""8816""
","""event"",""trial"",""time""
""fullscreenexit"",""13"",""167991""
","","","","","","1257.4000000953674","images/cactus8.png","","","memory_trial","4","definitely_new",""
"html-keyboard-response","132","479972","0.0-18.0-0.44","7572","approach_avoid_sv1","""event"",""trial"",""time""
""fullscreenenter"",""1"",""8816""
""fullscreenexit"",""13"",""167991""
""blur"",""13"",""168259""
""focus"",""13"",""171324""
""blur"",""37"",""276895""
""focus"",""37"",""287982""
","""event"",""trial"",""time""
""blur"",""13"",""168259""
""blur"",""37"",""276895""
","""event"",""trial"",""time""
""focus"",""13"",""171324""
""focus"",""37"",""287982""
","""event"",""trial"",""time""
""fullscreenenter"",""1"",""8816""
","""event"",""trial"",""time""
""fullscreenexit"",""13"",""167991""
","","","","","","null","<div style=""font-size:60px;"">+</div>","null","","fixation","","",""
"memory-trial","133","482057","0.0-18.0-1.44","7572","approach_avoid_sv1","""event"",""trial"",""time""
""fullscreenenter"",""1"",""8816""
""fullscreenexit"",""13"",""167991""
""blur"",""13"",""168259""
""focus"",""13"",""171324""
""blur"",""37"",""276895""
""focus"",""37"",""287982""
","""event"",""trial"",""time""
""blur"",""13"",""168259""
""blur"",""37"",""276895""
","""event"",""trial"",""time""
""focus"",""13"",""171324""
""focus"",""37"",""287982""
","""event"",""trial"",""time""
""fullscreenenter"",""1"",""8816""
","""event"",""trial"",""time""
""fullscreenexit"",""13"",""167991""
","","","","","","1081.6999999284744","images/boat7.png","","","memory_trial","1","definitely_old",""
"html-keyboard-response","134","482558","0.0-18.0-0.45","7572","approach_avoid_sv1","""event"",""trial"",""time""
""fullscreenenter"",""1"",""8816""
""fullscreenexit"",""13"",""167991""
""blur"",""13"",""168259""
""focus"",""13"",""171324""
""blur"",""37"",""276895""
""focus"",""37"",""287982""
","""event"",""trial"",""time""
""blur"",""13"",""168259""
""blur"",""37"",""276895""
","""event"",""trial"",""time""
""focus"",""13"",""171324""
""focus"",""37"",""287982""
","""event"",""trial"",""time""
""fullscreenenter"",""1"",""8816""
","""event"",""trial"",""time""
""fullscreenexit"",""13"",""167991""
","","","","","","null","<div style=""font-size:60px;"">+</div>","null","","fixation","","",""
"memory-trial","135","485105","0.0-18.0-1.45","7572","approach_avoid_sv1","""event"",""trial"",""time""
""fullscreenenter"",""1"",""8816""
""fullscreenexit"",""13"",""167991""
""blur"",""13"",""168259""
""focus"",""13"",""171324""
""blur"",""37"",""276895""
""focus"",""37"",""287982""
","""event"",""trial"",""time""
""blur"",""13"",""168259""
""blur"",""37"",""276895""
","""event"",""trial"",""time""
""focus"",""13"",""171324""
""focus"",""37"",""287982""
","""event"",""trial"",""time""
""fullscreenenter"",""1"",""8816""
","""event"",""trial"",""time""
""fullscreenexit"",""13"",""167991""
","","","","","","1544.6999999284744","images/bed5.png","","","memory_trial","1","definitely_old",""
"html-keyboard-response","136","485607","0.0-18.0-0.46","7572","approach_avoid_sv1","""event"",""trial"",""time""
""fullscreenenter"",""1"",""8816""
""fullscreenexit"",""13"",""167991""
""blur"",""13"",""168259""
""focus"",""13"",""171324""
""blur"",""37"",""276895""
""focus"",""37"",""287982""
","""event"",""trial"",""time""
""blur"",""13"",""168259""
""blur"",""37"",""276895""
","""event"",""trial"",""time""
""focus"",""13"",""171324""
""focus"",""37"",""287982""
","""event"",""trial"",""time""
""fullscreenenter"",""1"",""8816""
","""event"",""trial"",""time""
""fullscreenexit"",""13"",""167991""
","","","","","","null","<div style=""font-size:60px;"">+</div>","null","","fixation","","",""
"memory-trial","137","487349","0.0-18.0-1.46","7572","approach_avoid_sv1","""event"",""trial"",""time""
""fullscreenenter"",""1"",""8816""
""fullscreenexit"",""13"",""167991""
""blur"",""13"",""168259""
""focus"",""13"",""171324""
""blur"",""37"",""276895""
""focus"",""37"",""287982""
","""event"",""trial"",""time""
""blur"",""13"",""168259""
""blur"",""37"",""276895""
","""event"",""trial"",""time""
""focus"",""13"",""171324""
""focus"",""37"",""287982""
","""event"",""trial"",""time""
""fullscreenenter"",""1"",""8816""
","""event"",""trial"",""time""
""fullscreenexit"",""13"",""167991""
","","","","","","740.7000000476837","images/boat2.png","","","memory_trial","2","maybe_old",""
"html-keyboard-response","138","487850","0.0-18.0-0.47","7572","approach_avoid_sv1","""event"",""trial"",""time""
""fullscreenenter"",""1"",""8816""
""fullscreenexit"",""13"",""167991""
""blur"",""13"",""168259""
""focus"",""13"",""171324""
""blur"",""37"",""276895""
""focus"",""37"",""287982""
","""event"",""trial"",""time""
""blur"",""13"",""168259""
""blur"",""37"",""276895""
","""event"",""trial"",""time""
""focus"",""13"",""171324""
""focus"",""37"",""287982""
","""event"",""trial"",""time""
""fullscreenenter"",""1"",""8816""
","""event"",""trial"",""time""
""fullscreenexit"",""13"",""167991""
","","","","","","null","<div style=""font-size:60px;"">+</div>","null","","fixation","","",""
"memory-trial","139","491566","0.0-18.0-1.47","7572","approach_avoid_sv1","""event"",""trial"",""time""
""fullscreenenter"",""1"",""8816""
""fullscreenexit"",""13"",""167991""
""blur"",""13"",""168259""
""focus"",""13"",""171324""
""blur"",""37"",""276895""
""focus"",""37"",""287982""
","""event"",""trial"",""time""
""blur"",""13"",""168259""
""blur"",""37"",""276895""
","""event"",""trial"",""time""
""focus"",""13"",""171324""
""focus"",""37"",""287982""
","""event"",""trial"",""time""
""fullscreenenter"",""1"",""8816""
","""event"",""trial"",""time""
""fullscreenexit"",""13"",""167991""
","","","","","","2714","images/cactus5.png","","","memory_trial","3","maybe_new",""
"html-keyboard-response","140","492067","0.0-18.0-0.48","7572","approach_avoid_sv1","""event"",""trial"",""time""
""fullscreenenter"",""1"",""8816""
""fullscreenexit"",""13"",""167991""
""blur"",""13"",""168259""
""focus"",""13"",""171324""
""blur"",""37"",""276895""
""focus"",""37"",""287982""
","""event"",""trial"",""time""
""blur"",""13"",""168259""
""blur"",""37"",""276895""
","""event"",""trial"",""time""
""focus"",""13"",""171324""
""focus"",""37"",""287982""
","""event"",""trial"",""time""
""fullscreenenter"",""1"",""8816""
","""event"",""trial"",""time""
""fullscreenexit"",""13"",""167991""
","","","","","","null","<div style=""font-size:60px;"">+</div>","null","","fixation","","",""
"memory-trial","141","495325","0.0-18.0-1.48","7572","approach_avoid_sv1","""event"",""trial"",""time""
""fullscreenenter"",""1"",""8816""
""fullscreenexit"",""13"",""167991""
""blur"",""13"",""168259""
""focus"",""13"",""171324""
""blur"",""37"",""276895""
""focus"",""37"",""287982""
","""event"",""trial"",""time""
""blur"",""13"",""168259""
""blur"",""37"",""276895""
","""event"",""trial"",""time""
""focus"",""13"",""171324""
""focus"",""37"",""287982""
","""event"",""trial"",""time""
""fullscreenenter"",""1"",""8816""
","""event"",""trial"",""time""
""fullscreenexit"",""13"",""167991""
","","","","","","2245.3000000715256","images/banana8.png","","","memory_trial","1","definitely_old",""
"html-keyboard-response","142","495827","0.0-18.0-0.49","7572","approach_avoid_sv1","""event"",""trial"",""time""
""fullscreenenter"",""1"",""8816""
""fullscreenexit"",""13"",""167991""
""blur"",""13"",""168259""
""focus"",""13"",""171324""
""blur"",""37"",""276895""
""focus"",""37"",""287982""
","""event"",""trial"",""time""
""blur"",""13"",""168259""
""blur"",""37"",""276895""
","""event"",""trial"",""time""
""focus"",""13"",""171324""
""focus"",""37"",""287982""
","""event"",""trial"",""time""
""fullscreenenter"",""1"",""8816""
","""event"",""trial"",""time""
""fullscreenexit"",""13"",""167991""
","","","","","","null","<div style=""font-size:60px;"">+</div>","null","","fixation","","",""
"memory-trial","143","497558","0.0-18.0-1.49","7572","approach_avoid_sv1","""event"",""trial"",""time""
""fullscreenenter"",""1"",""8816""
""fullscreenexit"",""13"",""167991""
""blur"",""13"",""168259""
""focus"",""13"",""171324""
""blur"",""37"",""276895""
""focus"",""37"",""287982""
","""event"",""trial"",""time""
""blur"",""13"",""168259""
""blur"",""37"",""276895""
","""event"",""trial"",""time""
""focus"",""13"",""171324""
""focus"",""37"",""287982""
","""event"",""trial"",""time""
""fullscreenenter"",""1"",""8816""
","""event"",""trial"",""time""
""fullscreenexit"",""13"",""167991""
","","","","","","730.1999999284744","images/flower7.png","","","memory_trial","4","definitely_new",""
"html-keyboard-response","144","498059","0.0-18.0-0.50","7572","approach_avoid_sv1","""event"",""trial"",""time""
""fullscreenenter"",""1"",""8816""
""fullscreenexit"",""13"",""167991""
""blur"",""13"",""168259""
""focus"",""13"",""171324""
""blur"",""37"",""276895""
""focus"",""37"",""287982""
","""event"",""trial"",""time""
""blur"",""13"",""168259""
""blur"",""37"",""276895""
","""event"",""trial"",""time""
""focus"",""13"",""171324""
""focus"",""37"",""287982""
","""event"",""trial"",""time""
""fullscreenenter"",""1"",""8816""
","""event"",""trial"",""time""
""fullscreenexit"",""13"",""167991""
","","","","","","null","<div style=""font-size:60px;"">+</div>","null","","fixation","","",""
"memory-trial","145","500905","0.0-18.0-1.50","7572","approach_avoid_sv1","""event"",""trial"",""time""
""fullscreenenter"",""1"",""8816""
""fullscreenexit"",""13"",""167991""
""blur"",""13"",""168259""
""focus"",""13"",""171324""
""blur"",""37"",""276895""
""focus"",""37"",""287982""
","""event"",""trial"",""time""
""blur"",""13"",""168259""
""blur"",""37"",""276895""
","""event"",""trial"",""time""
""focus"",""13"",""171324""
""focus"",""37"",""287982""
","""event"",""trial"",""time""
""fullscreenenter"",""1"",""8816""
","""event"",""trial"",""time""
""fullscreenexit"",""13"",""167991""
","","","","","","1842.5","images/table1.png","","","memory_trial","4","definitely_new",""
"html-keyboard-response","146","501407","0.0-18.0-0.51","7572","approach_avoid_sv1","""event"",""trial"",""time""
""fullscreenenter"",""1"",""8816""
""fullscreenexit"",""13"",""167991""
""blur"",""13"",""168259""
""focus"",""13"",""171324""
""blur"",""37"",""276895""
""focus"",""37"",""287982""
","""event"",""trial"",""time""
""blur"",""13"",""168259""
""blur"",""37"",""276895""
