"trial_type","trial_index","time_elapsed","internal_node_id","subject_id","task_version","interactions","blur_events","focus_events","fullscreenenter_events","fullscreenexit_events","success","timeout","failed_images","failed_audio","failed_video","rt","stimulus","response","button_pressed","task_part","key_press","answer","correct"
"pavlovia","0","3","0.0-0.0","4467","approach_avoid_sv1","""event"",""trial"",""time""
""fullscreenenter"",""1"",""4494""
","
","
","""event"",""trial"",""time""
""fullscreenenter"",""1"",""4494""
","
","","","","","","","","","","","","",""
"fullscreen","1","5492","0.0-1.0","4467","approach_avoid_sv1","""event"",""trial"",""time""
""fullscreenenter"",""1"",""4494""
","
","
","""event"",""trial"",""time""
""fullscreenenter"",""1"",""4494""
","
","true","","","","","","","","","","","",""
"preload","2","11488","0.0-2.0","4467","approach_avoid_sv1","""event"",""trial"",""time""
""fullscreenenter"",""1"",""4494""
","
","
","""event"",""trial"",""time""
""fullscreenenter"",""1"",""4494""
","
","true","false","[]","[]","[]","","","","","","","",""
"preload","3","15454","0.0-3.0","4467","approach_avoid_sv1","""event"",""trial"",""time""
""fullscreenenter"",""1"",""4494""
","
","
","""event"",""trial"",""time""
""fullscreenenter"",""1"",""4494""
","
","true","false","[]","[]","[]","","","","","","","",""
"preload","4","15752","0.0-4.0","4467","approach_avoid_sv1","""event"",""trial"",""time""
""fullscreenenter"",""1"",""4494""
","
","
","""event"",""trial"",""time""
""fullscreenenter"",""1"",""4494""
","
","true","false","[]","[]","[]","","","","","","","",""
"audio-keyboard-response","5","24361","0.0-5.0","4467","approach_avoid_sv1","""event"",""trial"",""time""
""fullscreenenter"",""1"",""4494""
","
","
","""event"",""trial"",""time""
""fullscreenenter"",""1"",""4494""
","
","","","","","","8608","audio/beep_loop.wav"," ","","","","",""
"audio-button-response","6","26893","0.0-6.0","4467","approach_avoid_sv1","""event"",""trial"",""time""
""fullscreenenter"",""1"",""4494""
","
","
","""event"",""trial"",""time""
""fullscreenenter"",""1"",""4494""
","
","","","","","","2528","audio/turtle.wav","3","","","","",""
"audio-button-response","7","29871","0.0-7.0","4467","approach_avoid_sv1","""event"",""trial"",""time""
""fullscreenenter"",""1"",""4494""
","
","
","""event"",""trial"",""time""
""fullscreenenter"",""1"",""4494""
","
","","","","","","1973","audio/shark.wav","2","","","","",""
"preload","8","36105","0.0-8.0","4467","approach_avoid_sv1","""event"",""trial"",""time""
""fullscreenenter"",""1"",""4494""
","
","
","""event"",""trial"",""time""
""fullscreenenter"",""1"",""4494""
","
","true","false","[]","[]","[]","","","","","","","",""
"learning-instructions","9","100985","0.0-9.0-0.0","4467","approach_avoid_sv1","""event"",""trial"",""time""
""fullscreenenter"",""1"",""4494""
","
","
","""event"",""trial"",""time""
""fullscreenenter"",""1"",""4494""
","
","","","","","","60401.699999999255","<p> Welcome back! </p><p> Last week, you had to make choices about lots of different items.  </p>","","0","instructions","","",""
"learning-instructions","10","117615","0.0-9.0-0.1","4467","approach_avoid_sv1","""event"",""trial"",""time""
""fullscreenenter"",""1"",""4494""
","
","
","""event"",""trial"",""time""
""fullscreenenter"",""1"",""4494""
","
","","","","","","12459.699999999255","<p> Today, we are going to ask you to try to remember all the items. </p>","","0","instructions","","",""
"learning-instructions","11","128680","0.0-9.0-0.2","4467","approach_avoid_sv1","""event"",""trial"",""time""
""fullscreenenter"",""1"",""4494""
","
","
","""event"",""trial"",""time""
""fullscreenenter"",""1"",""4494""
","
","","","","","","935.5","<p> On every trial, you will see an image. </p><p> The image may be an OLD image you saw during the games last week or it may be a NEW image that was not presented. </p>","","0","instructions","","",""
"learning-instructions","12","137949","0.0-9.0-0.3","4467","approach_avoid_sv1","""event"",""trial"",""time""
""fullscreenenter"",""1"",""4494""
","
","
","""event"",""trial"",""time""
""fullscreenenter"",""1"",""4494""
","
","","","","","","769.5999999977648","<p> You need to select whether the image is:  </p><p>  'Definitely old', 'Maybe old', 'Maybe new', or 'Definitely new.'  </p><div class=""mem-choice-instructions-grid""><div class=""choice-option"" id=""choice-option-1"" ><img src=""images/definitely_old_1.png"" id=""choice-option-img-1"" class=""choice-option-img"" stage=""1""></div><div class=""choice-option"" id=""choice-option-2"" ><img src=""images/maybe_old_1.png"" id=""choice-option-img-2"" class=""choice-option-img"" stage=""1""></div><div class=""choice-option"" id=""choice-option-3"" ><img src=""images/maybe_new_1.png"" id=""choice-option-img-3"" class=""choice-option-img"" stage=""1""></div><div class=""choice-option"" id=""choice-option-4"" > <img src=""images/definitely_new_1.png"" id=""choice-option-img-4"" class=""choice-option-img"" stage=""1""></div></div>","","0","instructions","","",""
"learning-instructions","13","147900","0.0-9.0-0.4","4467","approach_avoid_sv1","""event"",""trial"",""time""
""fullscreenenter"",""1"",""4494""
","
","
","""event"",""trial"",""time""
""fullscreenenter"",""1"",""4494""
","
","","","","","","3435.89999999851","<p> You should use the 1, 2, 3, and 4 keys to make your responses.  </p><div class=""mem-choice-instructions-grid""><div class=""choice-option"" id=""choice-option-1"" ><img src=""images/definitely_old.png"" id=""choice-option-img-1"" class=""choice-option-img"" stage=""1""></div><div class=""choice-option"" id=""choice-option-2"" ><img src=""images/maybe_old.png"" id=""choice-option-img-2"" class=""choice-option-img"" stage=""1""></div><div class=""choice-option"" id=""choice-option-3"" ><img src=""images/maybe_new.png"" id=""choice-option-img-3"" class=""choice-option-img"" stage=""1""></div><div class=""choice-option"" id=""choice-option-4"" > <img src=""images/definitely_new.png"" id=""choice-option-img-4"" class=""choice-option-img"" stage=""1""></div></div>","","0","instructions","","",""
"learning-instructions","14","154854","0.0-9.0-0.5","4467","approach_avoid_sv1","""event"",""trial"",""time""
""fullscreenenter"",""1"",""4494""
","
","
","""event"",""trial"",""time""
""fullscreenenter"",""1"",""4494""
","
","","","","","","630.5","<p> You will have 10 seconds to make each response.  </p><p>  Make sure to respond before time runs out! </p>","","0","instructions","","",""
"learning-instructions","15","162424","0.0-9.0-0.6","4467","approach_avoid_sv1","""event"",""trial"",""time""
""fullscreenenter"",""1"",""4494""
","
","
","""event"",""trial"",""time""
""fullscreenenter"",""1"",""4494""
","
","","","","","","498.69999999925494","<p> Today, you will see each image ONCE only.  </p><p>  That means none of the images will repeat. </p>","","0","instructions","","",""
"learning-instructions","16","176768","0.0-9.0-0.7","4467","approach_avoid_sv1","""event"",""trial"",""time""
""fullscreenenter"",""1"",""4494""
","
","
","""event"",""trial"",""time""
""fullscreenenter"",""1"",""4494""
","
","","","","","","1675.5999999977648","<p> Before you play the real game, it is time to practice. </p><p>  Just like in the real game, some of the images in the practice will be ones you have seen before. </p><p>  Others will be entirely new. </p>","","0","instructions","","",""
"html-button-response","17","179831","0.0-10.0","4467","approach_avoid_sv1","""event"",""trial"",""time""
""fullscreenenter"",""1"",""4494""
","
","
","""event"",""trial"",""time""
""fullscreenenter"",""1"",""4494""
","
","","","","","","2957.2999999970198","<p> Ready to practice? </p><p> Remember, use the 1, 2, 3, and 4 keys to make your responses. </p>","0","","instructions","","",""
"html-keyboard-response","18","180441","0.0-11.0-0.0","4467","approach_avoid_sv1","""event"",""trial"",""time""
""fullscreenenter"",""1"",""4494""
","
","
","""event"",""trial"",""time""
""fullscreenenter"",""1"",""4494""
","
","","","","","","null","<div style=""font-size:60px;"">+</div>","null","","fixation","","",""
"memory-trial","19","184825","0.0-11.0-1.0","4467","approach_avoid_sv1","""event"",""trial"",""time""
""fullscreenenter"",""1"",""4494""
","
","
","""event"",""trial"",""time""
""fullscreenenter"",""1"",""4494""
","
","","","","","","3379.800000000745","images/ball2.png","","","practice","4","definitely_new",""
"html-keyboard-response","20","185330","0.0-11.0-0.1","4467","approach_avoid_sv1","""event"",""trial"",""time""
""fullscreenenter"",""1"",""4494""
","
","
","""event"",""trial"",""time""
""fullscreenenter"",""1"",""4494""
","
","","","","","","null","<div style=""font-size:60px;"">+</div>","null","","fixation","","",""
"memory-trial","21","190441","0.0-11.0-1.1","4467","approach_avoid_sv1","""event"",""trial"",""time""
""fullscreenenter"",""1"",""4494""
","
","
","""event"",""trial"",""time""
""fullscreenenter"",""1"",""4494""
","
","","","","","","4106.300000000745","images/racket5.png","","","practice","3","maybe_new",""
"html-keyboard-response","22","190943","0.0-11.0-0.2","4467","approach_avoid_sv1","""event"",""trial"",""time""
""fullscreenenter"",""1"",""4494""
","
","
","""event"",""trial"",""time""
""fullscreenenter"",""1"",""4494""
","
","","","","","","null","<div style=""font-size:60px;"">+</div>","null","","fixation","","",""
"memory-trial","23","194087","0.0-11.0-1.2","4467","approach_avoid_sv1","""event"",""trial"",""time""
""fullscreenenter"",""1"",""4494""
","
","
","""event"",""trial"",""time""
""fullscreenenter"",""1"",""4494""
","
","","","","","","2135.300000000745","images/ball1.png","","","practice","1","definitely_old",""
"html-keyboard-response","24","194593","0.0-11.0-0.3","4467","approach_avoid_sv1","""event"",""trial"",""time""
""fullscreenenter"",""1"",""4494""
","
","
","""event"",""trial"",""time""
""fullscreenenter"",""1"",""4494""
","
","","","","","","null","<div style=""font-size:60px;"">+</div>","null","","fixation","","",""
"memory-trial","25","198386","0.0-11.0-1.3","4467","approach_avoid_sv1","""event"",""trial"",""time""
""fullscreenenter"",""1"",""4494""
","
","
","""event"",""trial"",""time""
""fullscreenenter"",""1"",""4494""
","
","","","","","","2790","images/ball3.png","","","practice","1","definitely_old",""
"html-keyboard-response","26","198891","0.0-11.0-0.4","4467","approach_avoid_sv1","""event"",""trial"",""time""
""fullscreenenter"",""1"",""4494""
","
","
","""event"",""trial"",""time""
""fullscreenenter"",""1"",""4494""
","
","","","","","","null","<div style=""font-size:60px;"">+</div>","null","","fixation","","",""
"memory-trial","27","204176","0.0-11.0-1.4","4467","approach_avoid_sv1","""event"",""trial"",""time""
""fullscreenenter"",""1"",""4494""
","
","
","""event"",""trial"",""time""
""fullscreenenter"",""1"",""4494""
","
","","","","","","4279.099999997765","images/racket1.png","","","practice","2","maybe_old",""
"html-keyboard-response","28","204680","0.0-11.0-0.5","4467","approach_avoid_sv1","""event"",""trial"",""time""
""fullscreenenter"",""1"",""4494""
","
","
","""event"",""trial"",""time""
""fullscreenenter"",""1"",""4494""
","
","","","","","","null","<div style=""font-size:60px;"">+</div>","null","","fixation","","",""
"memory-trial","29","208255","0.0-11.0-1.5","4467","approach_avoid_sv1","""event"",""trial"",""time""
""fullscreenenter"",""1"",""4494""
","
","
","""event"",""trial"",""time""
""fullscreenenter"",""1"",""4494""
","
","","","","","","2570.300000000745","images/ball5.png","","","practice","2","maybe_old",""
"html-keyboard-response","30","208756","0.0-11.0-0.6","4467","approach_avoid_sv1","""event"",""trial"",""time""
""fullscreenenter"",""1"",""4494""
","
","
","""event"",""trial"",""time""
""fullscreenenter"",""1"",""4494""
","
","","","","","","null","<div style=""font-size:60px;"">+</div>","null","","fixation","","",""
"memory-trial","31","212601","0.0-11.0-1.6","4467","approach_avoid_sv1","""event"",""trial"",""time""
""fullscreenenter"",""1"",""4494""
","
","
","""event"",""trial"",""time""
""fullscreenenter"",""1"",""4494""
","
","","","","","","2841.60000000149","images/racket3.png","","","practice","1","definitely_old",""
"html-keyboard-response","32","213103","0.0-11.0-0.7","4467","approach_avoid_sv1","""event"",""trial"",""time""
""fullscreenenter"",""1"",""4494""
","
","
","""event"",""trial"",""time""
""fullscreenenter"",""1"",""4494""
","
","","","","","","null","<div style=""font-size:60px;"">+</div>","null","","fixation","","",""
"memory-trial","33","215758","0.0-11.0-1.7","4467","approach_avoid_sv1","""event"",""trial"",""time""
""fullscreenenter"",""1"",""4494""
","
","
","""event"",""trial"",""time""
""fullscreenenter"",""1"",""4494""
","
","","","","","","1651.6000000014901","images/racket2.png","","","practice","1","definitely_old",""
"learning-instructions","34","224571","0.0-12.0-0.0","4467","approach_avoid_sv1","""event"",""trial"",""time""
""fullscreenenter"",""1"",""4494""
","
","
","""event"",""trial"",""time""
""fullscreenenter"",""1"",""4494""
","
","","","","","","1362.0999999977648","<p> Great! You have completed the practice. </p><p> Before you start, we're going to ask you a few questions about how the game works.  </p>","","0","instructions","","",""
"preload","35","228394","0.0-13.0","4467","approach_avoid_sv1","""event"",""trial"",""time""
""fullscreenenter"",""1"",""4494""
","
","
","""event"",""trial"",""time""
""fullscreenenter"",""1"",""4494""
","
","true","false","[]","[]","[]","","","","","","","",""
"comp-q","36","235784","0.0-14.0-0.0","4467","approach_avoid_sv1","""event"",""trial"",""time""
""fullscreenenter"",""1"",""4494""
","
","
","""event"",""trial"",""time""
""fullscreenenter"",""1"",""4494""
","
","","","","","","1562.4000000022352","<p> <b> True or False? </b> </p><p> In this game, you will only see each image once. </p>","","0","comp_question","","","true"
"comp-q","37","243770","0.0-14.0-1.0","4467","approach_avoid_sv1","""event"",""trial"",""time""
""fullscreenenter"",""1"",""4494""
","
","
","""event"",""trial"",""time""
""fullscreenenter"",""1"",""4494""
","
","","","","","","1650","<p> <b> That's right! </b> You will see many different images <i> one time each </i> in this game. </p>","","0","comp_answer","","",""
"comp-q","38","249587","0.0-15.0-0.0","4467","approach_avoid_sv1","""event"",""trial"",""time""
""fullscreenenter"",""1"",""4494""
","
","
","""event"",""trial"",""time""
""fullscreenenter"",""1"",""4494""
","
","","","","","","812.3000000007451","<p> <b> True or False? </b> </p><p> You should use the mouse and click to make your response. </p>","","1","comp_question","","","true"
"comp-q","39","257505","0.0-15.0-1.0","4467","approach_avoid_sv1","""event"",""trial"",""time""
""fullscreenenter"",""1"",""4494""
","
","
","""event"",""trial"",""time""
""fullscreenenter"",""1"",""4494""
","
","","","","","","1418","<p><b> That's right! </b> You should use the '1', '2', '3', and '4' keys to make your response. </p>","","0","comp_answer","","",""
"comp-q","40","264184","0.0-16.0-0.0","4467","approach_avoid_sv1","""event"",""trial"",""time""
""fullscreenenter"",""1"",""4494""
","
","
","""event"",""trial"",""time""
""fullscreenenter"",""1"",""4494""
","
","","","","","","1003.4000000022352","<p> <b> True or False? </b> </p><p> You will have as much time as you want to make each choice. </p>","","1","comp_question","","","true"
"comp-q","41","269935","0.0-16.0-1.0","4467","approach_avoid_sv1","""event"",""trial"",""time""
""fullscreenenter"",""1"",""4494""
","
","
","""event"",""trial"",""time""
""fullscreenenter"",""1"",""4494""
","
","","","","","","1058.5","<p> <b> That's right! </b> You will only have 10 seconds to make each choice. </p>","","0","comp_answer","","",""
"learning-instructions","42","280153","0.0-17.0","4467","approach_avoid_sv1","""event"",""trial"",""time""
""fullscreenenter"",""1"",""4494""
","
","
","""event"",""trial"",""time""
""fullscreenenter"",""1"",""4494""
","
","","","","","","1548.6000000014901","<p> Great! You are now ready to begin the game. </p><p> Remember, use the 1, 2, 3, and 4 keys to make your responses. </p>","","0","instructions","","",""
"html-keyboard-response","43","280759","0.0-18.0-0.0","4467","approach_avoid_sv1","""event"",""trial"",""time""
""fullscreenenter"",""1"",""4494""
","
","
","""event"",""trial"",""time""
""fullscreenenter"",""1"",""4494""
","
","","","","","","null","<div style=""font-size:60px;"">+</div>","null","","fixation","","",""
"memory-trial","44","286518","0.0-18.0-1.0","4467","approach_avoid_sv1","""event"",""trial"",""time""
""fullscreenenter"",""1"",""4494""
","
","
","""event"",""trial"",""time""
""fullscreenenter"",""1"",""4494""
","
","","","","","","4756.099999997765","images/sofa2.png","","","memory_trial","2","maybe_old",""
"html-keyboard-response","45","287021","0.0-18.0-0.1","4467","approach_avoid_sv1","""event"",""trial"",""time""
""fullscreenenter"",""1"",""4494""
","
","
","""event"",""trial"",""time""
""fullscreenenter"",""1"",""4494""
","
","","","","","","null","<div style=""font-size:60px;"">+</div>","null","","fixation","","",""
"memory-trial","46","292232","0.0-18.0-1.1","4467","approach_avoid_sv1","""event"",""trial"",""time""
""fullscreenenter"",""1"",""4494""
","
","
","""event"",""trial"",""time""
""fullscreenenter"",""1"",""4494""
","
","","","","","","4208.10000000149","images/chair5.png","","","memory_trial","4","definitely_new",""
"html-keyboard-response","47","292737","0.0-18.0-0.2","4467","approach_avoid_sv1","""event"",""trial"",""time""
""fullscreenenter"",""1"",""4494""
","
","
","""event"",""trial"",""time""
""fullscreenenter"",""1"",""4494""
","
","","","","","","null","<div style=""font-size:60px;"">+</div>","null","","fixation","","",""
"memory-trial","48","295446","0.0-18.0-1.2","4467","approach_avoid_sv1","""event"",""trial"",""time""
""fullscreenenter"",""1"",""4494""
","
","
","""event"",""trial"",""time""
""fullscreenenter"",""1"",""4494""
","
","","","","","","1702.5999999977648","images/boat7.png","","","memory_trial","4","definitely_new",""
"html-keyboard-response","49","295948","0.0-18.0-0.3","4467","approach_avoid_sv1","""event"",""trial"",""time""
""fullscreenenter"",""1"",""4494""
","
","
","""event"",""trial"",""time""
""fullscreenenter"",""1"",""4494""
","
","","","","","","null","<div style=""font-size:60px;"">+</div>","null","","fixation","","",""
"memory-trial","50","298286","0.0-18.0-1.3","4467","approach_avoid_sv1","""event"",""trial"",""time""
""fullscreenenter"",""1"",""4494""
","
","
","""event"",""trial"",""time""
""fullscreenenter"",""1"",""4494""
","
","","","","","","1330.699999999255","images/sofa3.png","","","memory_trial","4","definitely_new",""
"html-keyboard-response","51","298789","0.0-18.0-0.4","4467","approach_avoid_sv1","""event"",""trial"",""time""
""fullscreenenter"",""1"",""4494""
","
","
","""event"",""trial"",""time""
""fullscreenenter"",""1"",""4494""
","
","","","","","","null","<div style=""font-size:60px;"">+</div>","null","","fixation","","",""
"memory-trial","52","303516","0.0-18.0-1.4","4467","approach_avoid_sv1","""event"",""trial"",""time""
""fullscreenenter"",""1"",""4494""
","
","
","""event"",""trial"",""time""
""fullscreenenter"",""1"",""4494""
","
","","","","","","3723.599999997765","images/bush4.png","","","memory_trial","2","maybe_old",""
"html-keyboard-response","53","304018","0.0-18.0-0.5","4467","approach_avoid_sv1","""event"",""trial"",""time""
""fullscreenenter"",""1"",""4494""
","
","
","""event"",""trial"",""time""
""fullscreenenter"",""1"",""4494""
","
","","","","","","null","<div style=""font-size:60px;"">+</div>","null","","fixation","","",""
"memory-trial","54","307586","0.0-18.0-1.5","4467","approach_avoid_sv1","""event"",""trial"",""time""
""fullscreenenter"",""1"",""4494""
","
","
","""event"",""trial"",""time""
""fullscreenenter"",""1"",""4494""
","
","","","","","","2563.099999997765","images/tree3.png","","","memory_trial","3","maybe_new",""
"html-keyboard-response","55","308087","0.0-18.0-0.6","4467","approach_avoid_sv1","""event"",""trial"",""time""
""fullscreenenter"",""1"",""4494""
","
","
","""event"",""trial"",""time""
""fullscreenenter"",""1"",""4494""
","
","","","","","","null","<div style=""font-size:60px;"">+</div>","null","","fixation","","",""
"memory-trial","56","311084","0.0-18.0-1.6","4467","approach_avoid_sv1","""event"",""trial"",""time""
""fullscreenenter"",""1"",""4494""
","
","
","""event"",""trial"",""time""
""fullscreenenter"",""1"",""4494""
","
","","","","","","1990.9000000022352","images/goat3.png","","","memory_trial","1","definitely_old",""
"html-keyboard-response","57","311585","0.0-18.0-0.7","4467","approach_avoid_sv1","""event"",""trial"",""time""
""fullscreenenter"",""1"",""4494""
","
","
","""event"",""trial"",""time""
""fullscreenenter"",""1"",""4494""
","
","","","","","","null","<div style=""font-size:60px;"">+</div>","null","","fixation","","",""
"memory-trial","58","314182","0.0-18.0-1.7","4467","approach_avoid_sv1","""event"",""trial"",""time""
""fullscreenenter"",""1"",""4494""
","
","
","""event"",""trial"",""time""
""fullscreenenter"",""1"",""4494""
","
","","","","","","1591.300000000745","images/apple1.png","","","memory_trial","1","definitely_old",""
"html-keyboard-response","59","314683","0.0-18.0-0.8","4467","approach_avoid_sv1","""event"",""trial"",""time""
""fullscreenenter"",""1"",""4494""
","
","
","""event"",""trial"",""time""
""fullscreenenter"",""1"",""4494""
","
","","","","","","null","<div style=""font-size:60px;"">+</div>","null","","fixation","","",""
"memory-trial","60","319569","0.0-18.0-1.8","4467","approach_avoid_sv1","""event"",""trial"",""time""
""fullscreenenter"",""1"",""4494""
","
","
","""event"",""trial"",""time""
""fullscreenenter"",""1"",""4494""
","
","","","","","","3883","images/dog3.png","","","memory_trial","4","definitely_new",""
"html-keyboard-response","61","320070","0.0-18.0-0.9","4467","approach_avoid_sv1","""event"",""trial"",""time""
""fullscreenenter"",""1"",""4494""
","
","
","""event"",""trial"",""time""
""fullscreenenter"",""1"",""4494""
","
","","","","","","null","<div style=""font-size:60px;"">+</div>","null","","fixation","","",""
"memory-trial","62","323211","0.0-18.0-1.9","4467","approach_avoid_sv1","""event"",""trial"",""time""
""fullscreenenter"",""1"",""4494""
","
","
","""event"",""trial"",""time""
""fullscreenenter"",""1"",""4494""
","
","","","","","","2134.2999999970198","images/plane6.png","","","memory_trial","1","definitely_old",""
"html-keyboard-response","63","323713","0.0-18.0-0.10","4467","approach_avoid_sv1","""event"",""trial"",""time""
""fullscreenenter"",""1"",""4494""
","
","
","""event"",""trial"",""time""
""fullscreenenter"",""1"",""4494""
","
","","","","","","null","<div style=""font-size:60px;"">+</div>","null","","fixation","","",""
"memory-trial","64","327211","0.0-18.0-1.10","4467","approach_avoid_sv1","""event"",""trial"",""time""
""fullscreenenter"",""1"",""4494""
","
","
","""event"",""trial"",""time""
""fullscreenenter"",""1"",""4494""
","
","","","","","","2494.199999999255","images/truck8.png","","","memory_trial","2","maybe_old",""
"html-keyboard-response","65","327712","0.0-18.0-0.11","4467","approach_avoid_sv1","""event"",""trial"",""time""
""fullscreenenter"",""1"",""4494""
","
","
","""event"",""trial"",""time""
""fullscreenenter"",""1"",""4494""
","
","","","","","","null","<div style=""font-size:60px;"">+</div>","null","","fixation","","",""
"memory-trial","66","330341","0.0-18.0-1.11","4467","approach_avoid_sv1","""event"",""trial"",""time""
""fullscreenenter"",""1"",""4494""
","
","
","""event"",""trial"",""time""
""fullscreenenter"",""1"",""4494""
","
","","","","","","1623.800000000745","images/bush2.png","","","memory_trial","1","definitely_old",""
"html-keyboard-response","67","330843","0.0-18.0-0.12","4467","approach_avoid_sv1","""event"",""trial"",""time""
""fullscreenenter"",""1"",""4494""
","
","
","""event"",""trial"",""time""
""fullscreenenter"",""1"",""4494""
","
","","","","","","null","<div style=""font-size:60px;"">+</div>","null","","fixation","","",""
"memory-trial","68","335008","0.0-18.0-1.12","4467","approach_avoid_sv1","""event"",""trial"",""time""
""fullscreenenter"",""1"",""4494""
","
","
","""event"",""trial"",""time""
""fullscreenenter"",""1"",""4494""
","
","","","","","","3161.800000000745","images/apple8.png","","","memory_trial","3","maybe_new",""
"html-keyboard-response","69","335512","0.0-18.0-0.13","4467","approach_avoid_sv1","""event"",""trial"",""time""
""fullscreenenter"",""1"",""4494""
","
","
","""event"",""trial"",""time""
""fullscreenenter"",""1"",""4494""
","
","","","","","","null","<div style=""font-size:60px;"">+</div>","null","","fixation","","",""
"memory-trial","70","338918","0.0-18.0-1.13","4467","approach_avoid_sv1","""event"",""trial"",""time""
""fullscreenenter"",""1"",""4494""
","
","
","""event"",""trial"",""time""
""fullscreenenter"",""1"",""4494""
","
","","","","","","2398.400000002235","images/flower7.png","","","memory_trial","1","definitely_old",""
"html-keyboard-response","71","339419","0.0-18.0-0.14","4467","approach_avoid_sv1","""event"",""trial"",""time""
""fullscreenenter"",""1"",""4494""
","
","
","""event"",""trial"",""time""
""fullscreenenter"",""1"",""4494""
","
","","","","","","null","<div style=""font-size:60px;"">+</div>","null","","fixation","","",""
"memory-trial","72","343515","0.0-18.0-1.14","4467","approach_avoid_sv1","""event"",""trial"",""time""
""fullscreenenter"",""1"",""4494""
","
","
","""event"",""trial"",""time""
""fullscreenenter"",""1"",""4494""
","
","","","","","","3091.199999999255","images/sofa5.png","","","memory_trial","4","definitely_new",""
"html-keyboard-response","73","344016","0.0-18.0-0.15","4467","approach_avoid_sv1","""event"",""trial"",""time""
""fullscreenenter"",""1"",""4494""
","
","
","""event"",""trial"",""time""
""fullscreenenter"",""1"",""4494""
","
","","","","","","null","<div style=""font-size:60px;"">+</div>","null","","fixation","","",""
"memory-trial","74","346203","0.0-18.0-1.15","4467","approach_avoid_sv1","""event"",""trial"",""time""
""fullscreenenter"",""1"",""4494""
","
","
","""event"",""trial"",""time""
""fullscreenenter"",""1"",""4494""
","
","","","","","","1181.3999999985099","images/orange2.png","","","memory_trial","4","definitely_new",""
"html-keyboard-response","75","346704","0.0-18.0-0.16","4467","approach_avoid_sv1","""event"",""trial"",""time""
""fullscreenenter"",""1"",""4494""
","
","
","""event"",""trial"",""time""
""fullscreenenter"",""1"",""4494""
","
","","","","","","null","<div style=""font-size:60px;"">+</div>","null","","fixation","","",""
"memory-trial","76","349563","0.0-18.0-1.16","4467","approach_avoid_sv1","""event"",""trial"",""time""
""fullscreenenter"",""1"",""4494""
","
","
","""event"",""trial"",""time""
""fullscreenenter"",""1"",""4494""
","
","","","","","","1852.199999999255","images/straw5.png","","","memory_trial","1","definitely_old",""
"html-keyboard-response","77","350064","0.0-18.0-0.17","4467","approach_avoid_sv1","""event"",""trial"",""time""
""fullscreenenter"",""1"",""4494""
","
","
","""event"",""trial"",""time""
""fullscreenenter"",""1"",""4494""
","
","","","","","","null","<div style=""font-size:60px;"">+</div>","null","","fixation","","",""
"memory-trial","78","352635","0.0-18.0-1.17","4467","approach_avoid_sv1","""event"",""trial"",""time""
""fullscreenenter"",""1"",""4494""
","
","
","""event"",""trial"",""time""
""fullscreenenter"",""1"",""4494""
","
","","","","","","1563.300000000745","images/horse2.png","","","memory_trial","1","definitely_old",""
"html-keyboard-response","79","353137","0.0-18.0-0.18","4467","approach_avoid_sv1","""event"",""trial"",""time""
""fullscreenenter"",""1"",""4494""
","
","
","""event"",""trial"",""time""
""fullscreenenter"",""1"",""4494""
","
","","","","","","null","<div style=""font-size:60px;"">+</div>","null","","fixation","","",""
"memory-trial","80","357819","0.0-18.0-1.18","4467","approach_avoid_sv1","""event"",""trial"",""time""
""fullscreenenter"",""1"",""4494""
","
","
","""event"",""trial"",""time""
""fullscreenenter"",""1"",""4494""
","
","","","","","","3674.800000000745","images/tree4.png","","","memory_trial","4","definitely_new",""
"html-keyboard-response","81","358320","0.0-18.0-0.19","4467","approach_avoid_sv1","""event"",""trial"",""time""
""fullscreenenter"",""1"",""4494""
","
","
","""event"",""trial"",""time""
""fullscreenenter"",""1"",""4494""
","
","","","","","","null","<div style=""font-size:60px;"">+</div>","null","","fixation","","",""
"memory-trial","82","362816","0.0-18.0-1.19","4467","approach_avoid_sv1","""event"",""trial"",""time""
""fullscreenenter"",""1"",""4494""
","
","
","""event"",""trial"",""time""
""fullscreenenter"",""1"",""4494""
","
","","","","","","3490.2000000029802","images/plane5.png","","","memory_trial","3","maybe_new",""
"html-keyboard-response","83","363317","0.0-18.0-0.20","4467","approach_avoid_sv1","""event"",""trial"",""time""
""fullscreenenter"",""1"",""4494""
","
","
","""event"",""trial"",""time""
""fullscreenenter"",""1"",""4494""
","
","","","","","","null","<div style=""font-size:60px;"">+</div>","null","","fixation","","",""
"memory-trial","84","369631","0.0-18.0-1.20","4467","approach_avoid_sv1","""event"",""trial"",""time""
""fullscreenenter"",""1"",""4494""
","
","
","""event"",""trial"",""time""
""fullscreenenter"",""1"",""4494""
","
","","","","","","5310.300000000745","images/bed7.png","","","memory_trial","2","maybe_old",""
"html-keyboard-response","85","370133","0.0-18.0-0.21","4467","approach_avoid_sv1","""event"",""trial"",""time""
""fullscreenenter"",""1"",""4494""
","
","
","""event"",""trial"",""time""
""fullscreenenter"",""1"",""4494""
","
","","","","","","null","<div style=""font-size:60px;"">+</div>","null","","fixation","","",""
"memory-trial","86","372778","0.0-18.0-1.21","4467","approach_avoid_sv1","""event"",""trial"",""time""
""fullscreenenter"",""1"",""4494""
","
","
","""event"",""trial"",""time""
""fullscreenenter"",""1"",""4494""
","
","","","","","","1641.6000000014901","images/flower5.png","","","memory_trial","1","definitely_old",""
"html-keyboard-response","87","373280","0.0-18.0-0.22","4467","approach_avoid_sv1","""event"",""trial"",""time""
""fullscreenenter"",""1"",""4494""
","
","
","""event"",""trial"",""time""
""fullscreenenter"",""1"",""4494""
","
","","","","","","null","<div style=""font-size:60px;"">+</div>","null","","fixation","","",""
"memory-trial","88","376373","0.0-18.0-1.22","4467","approach_avoid_sv1","""event"",""trial"",""time""
""fullscreenenter"",""1"",""4494""
","
","
","""event"",""trial"",""time""
""fullscreenenter"",""1"",""4494""
","
","","","","","","2087.599999997765","images/banana2.png","","","memory_trial","2","maybe_old",""
"html-keyboard-response","89","376879","0.0-18.0-0.23","4467","approach_avoid_sv1","""event"",""trial"",""time""
""fullscreenenter"",""1"",""4494""
","
","
","""event"",""trial"",""time""
""fullscreenenter"",""1"",""4494""
","
","","","","","","null","<div style=""font-size:60px;"">+</div>","null","","fixation","","",""
"memory-trial","90","382842","0.0-18.0-1.23","4467","approach_avoid_sv1","""event"",""trial"",""time""
""fullscreenenter"",""1"",""4494""
","
","
","""event"",""trial"",""time""
""fullscreenenter"",""1"",""4494""
","
","","","","","","4956.89999999851","images/rodent6.png","","","memory_trial","2","maybe_old",""
"html-keyboard-response","91","383343","0.0-18.0-0.24","4467","approach_avoid_sv1","""event"",""trial"",""time""
""fullscreenenter"",""1"",""4494""
","
","
","""event"",""trial"",""time""
""fullscreenenter"",""1"",""4494""
","
","","","","","","null","<div style=""font-size:60px;"">+</div>","null","","fixation","","",""
"memory-trial","92","387998","0.0-18.0-1.24","4467","approach_avoid_sv1","""event"",""trial"",""time""
""fullscreenenter"",""1"",""4494""
","
","
","""event"",""trial"",""time""
""fullscreenenter"",""1"",""4494""
","
","","","","","","3647","images/flower4.png","","","memory_trial","4","definitely_new",""
"html-keyboard-response","93","388500","0.0-18.0-0.25","4467","approach_avoid_sv1","""event"",""trial"",""time""
""fullscreenenter"",""1"",""4494""
","
","
","""event"",""trial"",""time""
""fullscreenenter"",""1"",""4494""
","
","","","","","","null","<div style=""font-size:60px;"">+</div>","null","","fixation","","",""
"memory-trial","94","392074","0.0-18.0-1.25","4467","approach_avoid_sv1","""event"",""trial"",""time""
""fullscreenenter"",""1"",""4494""
","
","
","""event"",""trial"",""time""
""fullscreenenter"",""1"",""4494""
","
","","","","","","2566.5","images/truck4.png","","","memory_trial","4","definitely_new",""
"html-keyboard-response","95","392575","0.0-18.0-0.26","4467","approach_avoid_sv1","""event"",""trial"",""time""
""fullscreenenter"",""1"",""4494""
","
","
","""event"",""trial"",""time""
""fullscreenenter"",""1"",""4494""
","
","","","","","","null","<div style=""font-size:60px;"">+</div>","null","","fixation","","",""
"memory-trial","96","394543","0.0-18.0-1.26","4467","approach_avoid_sv1","""event"",""trial"",""time""
""fullscreenenter"",""1"",""4494""
","
","
","""event"",""trial"",""time""
""fullscreenenter"",""1"",""4494""
","
","","","","","","965","images/tree2.png","","","memory_trial","4","definitely_new",""
"html-keyboard-response","97","395044","0.0-18.0-0.27","4467","approach_avoid_sv1","""event"",""trial"",""time""
""fullscreenenter"",""1"",""4494""
","
","
","""event"",""trial"",""time""
""fullscreenenter"",""1"",""4494""
","
","","","","","","null","<div style=""font-size:60px;"">+</div>","null","","fixation","","",""
"memory-trial","98","399949","0.0-18.0-1.27","4467","approach_avoid_sv1","""event"",""trial"",""time""
""fullscreenenter"",""1"",""4494""
","
","
","""event"",""trial"",""time""
""fullscreenenter"",""1"",""4494""
","
","","","","","","3897.699999999255","images/bed4.png","","","memory_trial","2","maybe_old",""
"html-keyboard-response","99","400452","0.0-18.0-0.28","4467","approach_avoid_sv1","""event"",""trial"",""time""
""fullscreenenter"",""1"",""4494""
","
","
","""event"",""trial"",""time""
""fullscreenenter"",""1"",""4494""
","
","","","","","","null","<div style=""font-size:60px;"">+</div>","null","","fixation","","",""
"memory-trial","100","403300","0.0-18.0-1.28","4467","approach_avoid_sv1","""event"",""trial"",""time""
""fullscreenenter"",""1"",""4494""
","
","
","""event"",""trial"",""time""
""fullscreenenter"",""1"",""4494""
","
","","","","","","1843.800000000745","images/sofa6.png","","","memory_trial","3","maybe_new",""
"html-keyboard-response","101","403801","0.0-18.0-0.29","4467","approach_avoid_sv1","""event"",""trial"",""time""
""fullscreenenter"",""1"",""4494""
","
","
","""event"",""trial"",""time""
""fullscreenenter"",""1"",""4494""
","
","","","","","","null","<div style=""font-size:60px;"">+</div>","null","","fixation","","",""
"memory-trial","102","408900","0.0-18.0-1.29","4467","approach_avoid_sv1","""event"",""trial"",""time""
""fullscreenenter"",""1"",""4494""
","
","
","""event"",""trial"",""time""
""fullscreenenter"",""1"",""4494""
","
","","","","","","4094.199999999255","images/rodent5.png","","","memory_trial","2","maybe_old",""
"html-keyboard-response","103","409401","0.0-18.0-0.30","4467","approach_avoid_sv1","""event"",""trial"",""time""
""fullscreenenter"",""1"",""4494""
","
","
","""event"",""trial"",""time""
""fullscreenenter"",""1"",""4494""
","
","","","","","","null","<div style=""font-size:60px;"">+</div>","null","","fixation","","",""
"memory-trial","104","412649","0.0-18.0-1.30","4467","approach_avoid_sv1","""event"",""trial"",""time""
""fullscreenenter"",""1"",""4494""
","
","
","""event"",""trial"",""time""
""fullscreenenter"",""1"",""4494""
","
","","","","","","2241.60000000149","images/plane1.png","","","memory_trial","4","definitely_new",""
"html-keyboard-response","105","413151","0.0-18.0-0.31","4467","approach_avoid_sv1","""event"",""trial"",""time""
""fullscreenenter"",""1"",""4494""
","
","
","""event"",""trial"",""time""
""fullscreenenter"",""1"",""4494""
","
","","","","","","null","<div style=""font-size:60px;"">+</div>","null","","fixation","","",""
"memory-trial","106","420649","0.0-18.0-1.31","4467","approach_avoid_sv1","""event"",""trial"",""time""
""fullscreenenter"",""1"",""4494""
","
","
","""event"",""trial"",""time""
""fullscreenenter"",""1"",""4494""
","
","","","","","","6492.60000000149","images/banana3.png","","","memory_trial","1","definitely_old",""
"html-keyboard-response","107","421151","0.0-18.0-0.32","4467","approach_avoid_sv1","""event"",""trial"",""time""
""fullscreenenter"",""1"",""4494""
","
","
","""event"",""trial"",""time""
""fullscreenenter"",""1"",""4494""
","
","","","","","","null","<div style=""font-size:60px;"">+</div>","null","","fixation","","",""
"memory-trial","108","425534","0.0-18.0-1.32","4467","approach_avoid_sv1","""event"",""trial"",""time""
""fullscreenenter"",""1"",""4494""
","
","
","""event"",""trial"",""time""
""fullscreenenter"",""1"",""4494""
","
","","","","","","3379.400000002235","images/rabbit6.png","","","memory_trial","2","maybe_old",""
"html-keyboard-response","109","426036","0.0-18.0-0.33","4467","approach_avoid_sv1","""event"",""trial"",""time""
""fullscreenenter"",""1"",""4494""
","
","
","""event"",""trial"",""time""
""fullscreenenter"",""1"",""4494""
","
","","","","","","null","<div style=""font-size:60px;"">+</div>","null","","fixation","","",""
"memory-trial","110","429555","0.0-18.0-1.33","4467","approach_avoid_sv1","""event"",""trial"",""time""
""fullscreenenter"",""1"",""4494""
","
","
","""event"",""trial"",""time""
""fullscreenenter"",""1"",""4494""
","
","","","","","","2513","images/sofa1.png","","","memory_trial","2","maybe_old",""
"html-keyboard-response","111","430057","0.0-18.0-0.34","4467","approach_avoid_sv1","""event"",""trial"",""time""
""fullscreenenter"",""1"",""4494""
","
","
","""event"",""trial"",""time""
""fullscreenenter"",""1"",""4494""
","
","","","","","","null","<div style=""font-size:60px;"">+</div>","null","","fixation","","",""
"memory-trial","112","435177","0.0-18.0-1.34","4467","approach_avoid_sv1","""event"",""trial"",""time""
""fullscreenenter"",""1"",""4494""
","
","
","""event"",""trial"",""time""
""fullscreenenter"",""1"",""4494""
","
","","","","","","4112.800000000745","images/dog2.png","","","memory_trial","3","maybe_new",""
"html-keyboard-response","113","435678","0.0-18.0-0.35","4467","approach_avoid_sv1","""event"",""trial"",""time""
""fullscreenenter"",""1"",""4494""
","
","
","""event"",""trial"",""time""
""fullscreenenter"",""1"",""4494""
","
","","","","","","null","<div style=""font-size:60px;"">+</div>","null","","fixation","","",""
"memory-trial","114","438755","0.0-18.0-1.35","4467","approach_avoid_sv1","""event"",""trial"",""time""
""fullscreenenter"",""1"",""4494""
","
","
","""event"",""trial"",""time""
""fullscreenenter"",""1"",""4494""
","
","","","","","","2072.2999999970198","images/dog1.png","","","memory_trial","1","definitely_old",""
"html-keyboard-response","115","439257","0.0-18.0-0.36","4467","approach_avoid_sv1","""event"",""trial"",""time""
""fullscreenenter"",""1"",""4494""
","
","
","""event"",""trial"",""time""
""fullscreenenter"",""1"",""4494""
","
","","","","","","null","<div style=""font-size:60px;"">+</div>","null","","fixation","","",""
"memory-trial","116","444120","0.0-18.0-1.36","4467","approach_avoid_sv1","""event"",""trial"",""time""
""fullscreenenter"",""1"",""4494""
","
","
","""event"",""trial"",""time""
""fullscreenenter"",""1"",""4494""
","
","","","","","","3856.699999999255","images/tree1.png","","","memory_trial","1","definitely_old",""
"html-keyboard-response","117","444622","0.0-18.0-0.37","4467","approach_avoid_sv1","""event"",""trial"",""time""
""fullscreenenter"",""1"",""4494""
","
","
","""event"",""trial"",""time""
""fullscreenenter"",""1"",""4494""
","
","","","","","","null","<div style=""font-size:60px;"">+</div>","null","","fixation","","",""
"memory-trial","118","447758","0.0-18.0-1.37","4467","approach_avoid_sv1","""event"",""trial"",""time""
""fullscreenenter"",""1"",""4494""
","
","
","""event"",""trial"",""time""
""fullscreenenter"",""1"",""4494""
","
","","","","","","2131.800000000745","images/chair4.png","","","memory_trial","4","definitely_new",""
"html-keyboard-response","119","448259","0.0-18.0-0.38","4467","approach_avoid_sv1","""event"",""trial"",""time""
""fullscreenenter"",""1"",""4494""
","
","
","""event"",""trial"",""time""
""fullscreenenter"",""1"",""4494""
","
","","","","","","null","<div style=""font-size:60px;"">+</div>","null","","fixation","","",""
"memory-trial","120","451641","0.0-18.0-1.38","4467","approach_avoid_sv1","""event"",""trial"",""time""
""fullscreenenter"",""1"",""4494""
","
","
","""event"",""trial"",""time""
""fullscreenenter"",""1"",""4494""
","
","","","","","","2375.099999997765","images/banana1.png","","","memory_trial","1","definitely_old",""
"html-keyboard-response","121","452142","0.0-18.0-0.39","4467","approach_avoid_sv1","""event"",""trial"",""time""
""fullscreenenter"",""1"",""4494""
","
","
","""event"",""trial"",""time""
""fullscreenenter"",""1"",""4494""
","
","","","","","","null","<div style=""font-size:60px;"">+</div>","null","","fixation","","",""
"memory-trial","122","457215","0.0-18.0-1.39","4467","approach_avoid_sv1","""event"",""trial"",""time""
""fullscreenenter"",""1"",""4494""
","
","
","""event"",""trial"",""time""
""fullscreenenter"",""1"",""4494""
","
","","","","","","4067.2999999970198","images/chair1.png","","","memory_trial","4","definitely_new",""
"html-keyboard-response","123","457720","0.0-18.0-0.40","4467","approach_avoid_sv1","""event"",""trial"",""time""
""fullscreenenter"",""1"",""4494""
","
","
","""event"",""trial"",""time""
""fullscreenenter"",""1"",""4494""
","
","","","","","","null","<div style=""font-size:60px;"">+</div>","null","","fixation","","",""
"memory-trial","124","461987","0.0-18.0-1.40","4467","approach_avoid_sv1","""event"",""trial"",""time""
""fullscreenenter"",""1"",""4494""
","
","
","""event"",""trial"",""time""
""fullscreenenter"",""1"",""4494""
","
","","","","","","3261.199999999255","images/plane8.png","","","memory_trial","2","maybe_old",""
"html-keyboard-response","125","462488","0.0-18.0-0.41","4467","approach_avoid_sv1","""event"",""trial"",""time""
""fullscreenenter"",""1"",""4494""
","
","
","""event"",""trial"",""time""
""fullscreenenter"",""1"",""4494""
","
","","","","","","null","<div style=""font-size:60px;"">+</div>","null","","fixation","","",""
"memory-trial","126","465630","0.0-18.0-1.41","4467","approach_avoid_sv1","""event"",""trial"",""time""
""fullscreenenter"",""1"",""4494""
","
","
","""event"",""trial"",""time""
""fullscreenenter"",""1"",""4494""
","
","","","","","","2137.199999999255","images/boat6.png","","","memory_trial","1","definitely_old",""
"html-button-response","127","467883","0.0-18.0-2.41-0.41","4467","approach_avoid_sv1","""event"",""trial"",""time""
""fullscreenenter"",""1"",""4494""
","
","
","""event"",""trial"",""time""
""fullscreenenter"",""1"",""4494""
","
","","","","","","2252.5","<p> Take a break! </p><p> Click the button to continue. </p>","0","","break","","",""
"html-keyboard-response","128","468387","0.0-18.0-0.42","4467","approach_avoid_sv1","""event"",""trial"",""time""
""fullscreenenter"",""1"",""4494""
","
","
","""event"",""trial"",""time""
""fullscreenenter"",""1"",""4494""
","
","","","","","","null","<div style=""font-size:60px;"">+</div>","null","","fixation","","",""
"memory-trial","129","471395","0.0-18.0-1.42","4467","approach_avoid_sv1","""event"",""trial"",""time""
""fullscreenenter"",""1"",""4494""
","
","
","""event"",""trial"",""time""
""fullscreenenter"",""1"",""4494""
","
","","","","","","2005.300000000745","images/apple5.png","","","memory_trial","4","definitely_new",""
"html-keyboard-response","130","471902","0.0-18.0-0.43","4467","approach_avoid_sv1","""event"",""trial"",""time""
""fullscreenenter"",""1"",""4494""
","
","
","""event"",""trial"",""time""
""fullscreenenter"",""1"",""4494""
","
","","","","","","null","<div style=""font-size:60px;"">+</div>","null","","fixation","","",""
"memory-trial","131","475266","0.0-18.0-1.43","4467","approach_avoid_sv1","""event"",""trial"",""time""
""fullscreenenter"",""1"",""4494""
","
","
","""event"",""trial"",""time""
""fullscreenenter"",""1"",""4494""
","
","","","","","","2360.89999999851","images/tree7.png","","","memory_trial","2","maybe_old",""
"html-keyboard-response","132","475768","0.0-18.0-0.44","4467","approach_avoid_sv1","""event"",""trial"",""time""
""fullscreenenter"",""1"",""4494""
","
","
","""event"",""trial"",""time""
""fullscreenenter"",""1"",""4494""
","
","","","","","","null","<div style=""font-size:60px;"">+</div>","null","","fixation","","",""
"memory-trial","133","478627","0.0-18.0-1.44","4467","approach_avoid_sv1","""event"",""trial"",""time""
""fullscreenenter"",""1"",""4494""
","
","
","""event"",""trial"",""time""
""fullscreenenter"",""1"",""4494""
","
","","","","","","1853.199999999255","images/cow5.png","","","memory_trial","1","definitely_old",""
"html-keyboard-response","134","479129","0.0-18.0-0.45","4467","approach_avoid_sv1","""event"",""trial"",""time""
""fullscreenenter"",""1"",""4494""
","
","
","""event"",""trial"",""time""
""fullscreenenter"",""1"",""4494""
","
","","","","","","null","<div style=""font-size:60px;"">+</div>","null","","fixation","","",""
"memory-trial","135","481608","0.0-18.0-1.45","4467","approach_avoid_sv1","""event"",""trial"",""time""
""fullscreenenter"",""1"",""4494""
","
","
","""event"",""trial"",""time""
""fullscreenenter"",""1"",""4494""
","
","","","","","","1473.3999999985099","images/banana4.png","","","memory_trial","1","definitely_old",""
"html-keyboard-response","136","482112","0.0-18.0-0.46","4467","approach_avoid_sv1","""event"",""trial"",""time""
""fullscreenenter"",""1"",""4494""
","
","
","""event"",""trial"",""time""
""fullscreenenter"",""1"",""4494""
","
","","","","","","null","<div style=""font-size:60px;"">+</div>","null","","fixation","","",""
"memory-trial","137","484088","0.0-18.0-1.46","4467","approach_avoid_sv1","""event"",""trial"",""time""
""fullscreenenter"",""1"",""4494""
","
","
","""event"",""trial"",""time""
""fullscreenenter"",""1"",""4494""
","
","","","","","","970.6000000014901","images/rodent1.png","","","memory_trial","1","definitely_old",""
"html-keyboard-response","138","484589","0.0-18.0-0.47","4467","approach_avoid_sv1","""event"",""trial"",""time""
""fullscreenenter"",""1"",""4494""
","
","
","""event"",""trial"",""time""
""fullscreenenter"",""1"",""4494""
","
","","","","","","null","<div style=""font-size:60px;"">+</div>","null","","fixation","","",""
"memory-trial","139","488573","0.0-18.0-1.47","4467","approach_avoid_sv1","""event"",""trial"",""time""
""fullscreenenter"",""1"",""4494""
","
","
","""event"",""trial"",""time""
""fullscreenenter"",""1"",""4494""
","
","","","","","","2977.5","images/horse7.png","","","memory_trial","4","definitely_new",""
"html-keyboard-response","140","489076","0.0-18.0-0.48","4467","approach_avoid_sv1","""event"",""trial"",""time""
""fullscreenenter"",""1"",""4494""
","
","
","""event"",""trial"",""time""
""fullscreenenter"",""1"",""4494""
","
","","","","","","null","<div style=""font-size:60px;"">+</div>","null","","fixation","","",""
"memory-trial","141","491592","0.0-18.0-1.48","4467","approach_avoid_sv1","""event"",""trial"",""time""
""fullscreenenter"",""1"",""4494""
","
","
","""event"",""trial"",""time""
""fullscreenenter"",""1"",""4494""
","
","","","","","","1509.699999999255","images/rabbit5.png","","","memory_trial","1","definitely_old",""
"html-keyboard-response","142","492095","0.0-18.0-0.49","4467","approach_avoid_sv1","""event"",""trial"",""time""
""fullscreenenter"",""1"",""4494""
","
","
","""event"",""trial"",""time""
""fullscreenenter"",""1"",""4494""
","
","","","","","","null","<div style=""font-size:60px;"">+</div>","null","","fixation","","",""
"memory-trial","143","493847","0.0-18.0-1.49","4467","approach_avoid_sv1","""event"",""trial"",""time""
""fullscreenenter"",""1"",""4494""
","
","
","""event"",""trial"",""time""
""fullscreenenter"",""1"",""4494""
","
","","","","","","749.1999999992549","images/rabbit3.png","","","memory_trial","1","definitely_old",""
"html-keyboard-response","144","494352","0.0-18.0-0.50","4467","approach_avoid_sv1","""event"",""trial"",""time""
""fullscreenenter"",""1"",""4494""
","
","
","""event"",""trial"",""time""
""fullscreenenter"",""1"",""4494""
","
","","","","","","null","<div style=""font-size:60px;"">+</div>","null","","fixation","","",""
"memory-trial","145","497378","0.0-18.0-1.50","4467","approach_avoid_sv1","""event"",""trial"",""time""
""fullscreenenter"",""1"",""4494""
","
","
","""event"",""trial"",""time""
""fullscreenenter"",""1"",""4494""
","
","","","","","","2020.4000000022352","images/table3.png","","","memory_trial","4","definitely_new",""
"html-keyboard-response","146","497879","0.0-18.0-0.51","4467","approach_avoid_sv1","""event"",""trial"",""time""
""fullscreenenter"",""1"",""4494""
","
","
","""event"",""trial"",""time""
""fullscreenenter"",""1"",""4494""
","
","","","","","","null","<div style=""font-size:60px;"">+</div>","null","","fixation","","",""
"memory-trial","147","500322","0.0-18.0-1.51","4467","approach_avoid_sv1","""event"",""trial"",""time""
""fullscreenenter"",""1"",""4494""
","
","
","""event"",""trial"",""time""
""fullscreenenter"",""1"",""4494""
","
","","","","","","1435","images/orange7.png","","","memory_trial","4","definitely_new",""
"html-keyboard-response","148","500823","0.0-18.0-0.52","4467","approach_avoid_sv1","""event"",""trial"",""time""
""fullscreenenter"",""1"",""4494""
","
","
","""event"",""trial"",""time""
""fullscreenenter"",""1"",""4494""
","
","","","","","","null","<div style=""font-size:60px;"">+</div>","null","","fixation","","",""
"memory-trial","149","504562","0.0-18.0-1.52","4467","approach_avoid_sv1","""event"",""trial"",""time""
""fullscreenenter"",""1"",""4494""
","
","
","""event"",""trial"",""time""
""fullscreenenter"",""1"",""4494""
","
","","","","","","2733.199999999255","images/bed5.png","","","memory_trial","2","maybe_old",""
"html-keyboard-response","150","505063","0.0-18.0-0.53","4467","approach_avoid_sv1","""event"",""trial"",""time""
""fullscreenenter"",""1"",""4494""
","
","
","""event"",""trial"",""time""
""fullscreenenter"",""1"",""4494""
","
","","","","","","null","<div style=""font-size:60px;"">+</div>","null","","fixation","","",""
"memory-trial","151","507869","0.0-18.0-1.53","4467","approach_avoid_sv1","""event"",""trial"",""time""
""fullscreenenter"",""1"",""4494""
","
","
","""event"",""trial"",""time""
""fullscreenenter"",""1"",""4494""
","
","","","","","","1797.6000000014901","images/boat4.png","","","memory_trial","1","definitely_old",""
"html-keyboard-response","152","508374","0.0-18.0-0.54","4467","approach_avoid_sv1","""event"",""trial"",""time""
""fullscreenenter"",""1"",""4494""
","
","
","""event"",""trial"",""time""
""fullscreenenter"",""1"",""4494""
","
","","","","","","null","<div style=""font-size:60px;"">+</div>","null","","fixation","","",""
"memory-trial","153","511599","0.0-18.0-1.54","4467","approach_avoid_sv1","""event"",""trial"",""time""
""fullscreenenter"",""1"",""4494""
","
","
","""event"",""trial"",""time""
""fullscreenenter"",""1"",""4494""
","
","","","","","","2222.39999999851","images/orange1.png","","","memory_trial","4","definitely_new",""
"html-keyboard-response","154","512103","0.0-18.0-0.55","4467","approach_avoid_sv1","""event"",""trial"",""time""
""fullscreenenter"",""1"",""4494""
","
","
","""event"",""trial"",""time""
""fullscreenenter"",""1"",""4494""
","
","","","","","","null","<div style=""font-size:60px;"">+</div>","null","","fixation","","",""
"memory-trial","155","518114","0.0-18.0-1.55","4467","approach_avoid_sv1","""event"",""trial"",""time""
""fullscreenenter"",""1"",""4494""
","
","
","""event"",""trial"",""time""
""fullscreenenter"",""1"",""4494""
","
","","","","","","5004.199999999255","images/plane7.png","","","memory_trial","2","maybe_old",""
"html-keyboard-response","156","518615","0.0-18.0-0.56","4467","approach_avoid_sv1","""event"",""trial"",""time""
""fullscreenenter"",""1"",""4494""
","
","
","""event"",""trial"",""time""
""fullscreenenter"",""1"",""4494""
","
","","","","","","null","<div style=""font-size:60px;"">+</div>","null","","fixation","","",""
"memory-trial","157","522642","0.0-18.0-1.56","4467","approach_avoid_sv1","""event"",""trial"",""time""
""fullscreenenter"",""1"",""4494""
","
","
","""event"",""trial"",""time""
""fullscreenenter"",""1"",""4494""
","
","","","","","","3022.300000000745","images/train4.png","","","memory_trial","4","definitely_new",""
"html-keyboard-response","158","523143","0.0-18.0-0.57","4467","approach_avoid_sv1","""event"",""trial"",""time""
""fullscreenenter"",""1"",""4494""
","
","
","""event"",""trial"",""time""
""fullscreenenter"",""1"",""4494""
","
","","","","","","null","<div style=""font-size:60px;"">+</div>","null","","fixation","","",""
"memory-trial","159","525724","0.0-18.0-1.57","4467","approach_avoid_sv1","""event"",""trial"",""time""
""fullscreenenter"",""1"",""4494""
","
","
","""event"",""trial"",""time""
""fullscreenenter"",""1"",""4494""
","
","","","","","","1574.199999999255","images/chair3.png","","","memory_trial","1","definitely_old",""
"html-keyboard-response","160","526226","0.0-18.0-0.58","4467","approach_avoid_sv1","""event"",""trial"",""time""
""fullscreenenter"",""1"",""4494""
","
","
","""event"",""trial"",""time""
""fullscreenenter"",""1"",""4494""
","
","","","","","","null","<div style=""font-size:60px;"">+</div>","null","","fixation","","",""
"memory-trial","161","528370","0.0-18.0-1.58","4467","approach_avoid_sv1","""event"",""trial"",""time""
""fullscreenenter"",""1"",""4494""
","
","
","""event"",""trial"",""time""
""fullscreenenter"",""1"",""4494""
","
","","","","","","1139.2000000029802","images/straw2.png","","","memory_trial","1","definitely_old",""
"html-keyboard-response","162","528871","0.0-18.0-0.59","4467","approach_avoid_sv1","""event"",""trial"",""time""
""fullscreenenter"",""1"",""4494""
","
","
","""event"",""trial"",""time""
""fullscreenenter"",""1"",""4494""
","
","","","","","","null","<div style=""font-size:60px;"">+</div>","null","","fixation","","",""
"memory-trial","163","531356","0.0-18.0-1.59","4467","approach_avoid_sv1","""event"",""trial"",""time""
""fullscreenenter"",""1"",""4494""
","
","
","""event"",""trial"",""time""
""fullscreenenter"",""1"",""4494""
","
","","","","","","1480.0999999977648","images/banana7.png","","","memory_trial","1","definitely_old",""
"html-keyboard-response","164","531857","0.0-18.0-0.60","4467","approach_avoid_sv1","""event"",""trial"",""time""
""fullscreenenter"",""1"",""4494""
","
","
","""event"",""trial"",""time""
""fullscreenenter"",""1"",""4494""
","
","","","","","","null","<div style=""font-size:60px;"">+</div>","null","","fixation","","",""
"memory-trial","165","534908","0.0-18.0-1.60","4467","approach_avoid_sv1","""event"",""trial"",""time""
""fullscreenenter"",""1"",""4494""
","
","
","""event"",""trial"",""time""
""fullscreenenter"",""1"",""4494""
","
","","","","","","2043.300000000745","images/rodent3.png","","","memory_trial","2","maybe_old",""
"html-keyboard-response","166","535410","0.0-18.0-0.61","4467","approach_avoid_sv1","""event"",""trial"",""time""
""fullscreenenter"",""1"",""4494""
","
","
","""event"",""trial"",""time""
""fullscreenenter"",""1"",""4494""
","
","","","","","","null","<div style=""font-size:60px;"">+</div>","null","","fixation","","",""
"memory-trial","167","539543","0.0-18.0-1.61","4467","approach_avoid_sv1","""event"",""trial"",""time""
""fullscreenenter"",""1"",""4494""
","
","
","""event"",""trial"",""time""
""fullscreenenter"",""1"",""4494""
","
","","","","","","3129","images/bed2.png","","","memory_trial","4","definitely_new",""
"html-keyboard-response","168","540047","0.0-18.0-0.62","4467","approach_avoid_sv1","""event"",""trial"",""time""
""fullscreenenter"",""1"",""4494""
","
","
","""event"",""trial"",""time""
""fullscreenenter"",""1"",""4494""
","
","","","","","","null","<div style=""font-size:60px;"">+</div>","null","","fixation","","",""
"memory-trial","169","543724","0.0-18.0-1.62","4467","approach_avoid_sv1","""event"",""trial"",""time""
""fullscreenenter"",""1"",""4494""
","
","
","""event"",""trial"",""time""
""fullscreenenter"",""1"",""4494""
","
","","","","","","2674","images/goat4.png","","","memory_trial","2","maybe_old",""
"html-keyboard-response","170","544225","0.0-18.0-0.63","4467","approach_avoid_sv1","""event"",""trial"",""time""
""fullscreenenter"",""1"",""4494""
","
","
","""event"",""trial"",""time""
""fullscreenenter"",""1"",""4494""
","
","","","","","","null","<div style=""font-size:60px;"">+</div>","null","","fixation","","",""
"memory-trial","171","548668","0.0-18.0-1.63","4467","approach_avoid_sv1","""event"",""trial"",""time""
""fullscreenenter"",""1"",""4494""
","
","
","""event"",""trial"",""time""
""fullscreenenter"",""1"",""4494""
","
","","","","","","3435.300000000745","images/banana8.png","","","memory_trial","4","definitely_new",""
"html-keyboard-response","172","549169","0.0-18.0-0.64","4467","approach_avoid_sv1","""event"",""trial"",""time""
""fullscreenenter"",""1"",""4494""
","
","
","""event"",""trial"",""time""
""fullscreenenter"",""1"",""4494""
","
","","","","","","null","<div style=""font-size:60px;"">+</div>","null","","fixation","","",""
"memory-trial","173","552561","0.0-18.0-1.64","4467","approach_avoid_sv1","""event"",""trial"",""time""
""fullscreenenter"",""1"",""4494""
","
","
","""event"",""trial"",""time""
""fullscreenenter"",""1"",""4494""
","
","","","","","","2384.900000002235","images/dog5.png","","","memory_trial","4","definitely_new",""
"html-keyboard-response","174","553062","0.0-18.0-0.65","4467","approach_avoid_sv1","""event"",""trial"",""time""
""fullscreenenter"",""1"",""4494""
","
","
","""event"",""trial"",""time""
""fullscreenenter"",""1"",""4494""
","
","","","","","","null","<div style=""font-size:60px;"">+</div>","null","","fixation","","",""
"memory-trial","175","556475","0.0-18.0-1.65","4467","approach_avoid_sv1","""event"",""trial"",""time""
""fullscreenenter"",""1"",""4494""
","
","
","""event"",""trial"",""time""
""fullscreenenter"",""1"",""4494""
","
","","","","","","2406.599999997765","images/sheep8.png","","","memory_trial","3","maybe_new",""
"html-keyboard-response","176","556977","0.0-18.0-0.66","4467","approach_avoid_sv1","""event"",""trial"",""time""
""fullscreenenter"",""1"",""4494""
","
","
","""event"",""trial"",""time""
""fullscreenenter"",""1"",""4494""
","
","","","","","","null","<div style=""font-size:60px;"">+</div>","null","","fixation","","",""
"memory-trial","177","560555","0.0-18.0-1.66","4467","approach_avoid_sv1","""event"",""trial"",""time""
""fullscreenenter"",""1"",""4494""
","
","
","""event"",""trial"",""time""
""fullscreenenter"",""1"",""4494""
","
","","","","","","2576","images/bed1.png","","","memory_trial","3","maybe_new",""
"html-keyboard-response","178","561057","0.0-18.0-0.67","4467","approach_avoid_sv1","""event"",""trial"",""time""
""fullscreenenter"",""1"",""4494""
","
","
","""event"",""trial"",""time""
""fullscreenenter"",""1"",""4494""
","
","","","","","","null","<div style=""font-size:60px;"">+</div>","null","","fixation","","",""
"memory-trial","179","563505","0.0-18.0-1.67","4467","approach_avoid_sv1","""event"",""trial"",""time""
""fullscreenenter"",""1"",""4494""
","
","
","""event"",""trial"",""time""
""fullscreenenter"",""1"",""4494""
","
","","","","","","1443.5","images/cow3.png","","","memory_trial","1","definitely_old",""
"html-keyboard-response","180","564006","0.0-18.0-0.68","4467","approach_avoid_sv1","""event"",""trial"",""time""
""fullscreenenter"",""1"",""4494""
","
","
","""event"",""trial"",""time""
""fullscreenenter"",""1"",""4494""
","
","","","","","","null","<div style=""font-size:60px;"">+</div>","null","","fixation","","",""
"memory-trial","181","566091","0.0-18.0-1.68","4467","approach_avoid_sv1","""event"",""trial"",""time""
""fullscreenenter"",""1"",""4494""
","
","
","""event"",""trial"",""time""
""fullscreenenter"",""1"",""4494""
","
","","","","","","1080.699999999255","images/rodent2.png","","","memory_trial","1","definitely_old",""
"html-keyboard-response","182","566592","0.0-18.0-0.69","4467","approach_avoid_sv1","""event"",""trial"",""time""
""fullscreenenter"",""1"",""4494""
","
","
","""event"",""trial"",""time""
""fullscreenenter"",""1"",""4494""
","
","","","","","","null","<div style=""font-size:60px;"">+</div>","null","","fixation","","",""
"memory-trial","183","568741","0.0-18.0-1.69","4467","approach_avoid_sv1","""event"",""trial"",""time""
""fullscreenenter"",""1"",""4494""
","
","
","""event"",""trial"",""time""
""fullscreenenter"",""1"",""4494""
","
","","","","","","1145.800000000745","images/sofa4.png","","","memory_trial","1","definitely_old",""
"html-keyboard-response","184","569247","0.0-18.0-0.70","4467","approach_avoid_sv1","""event"",""trial"",""time""
""fullscreenenter"",""1"",""4494""
","
","
","""event"",""trial"",""time""
""fullscreenenter"",""1"",""4494""
","
","","","","","","null","<div style=""font-size:60px;"">+</div>","null","","fixation","","",""
"memory-trial","185","574470","0.0-18.0-1.70","4467","approach_avoid_sv1","""event"",""trial"",""time""
""fullscreenenter"",""1"",""4494""
","
","
","""event"",""trial"",""time""
""fullscreenenter"",""1"",""4494""
","
","","","","","","4217.199999999255","images/bush1.png","","","memory_trial","4","definitely_new",""
"html-keyboard-response","186","574971","0.0-18.0-0.71","4467","approach_avoid_sv1","""event"",""trial"",""time""
""fullscreenenter"",""1"",""4494""
","
","
","""event"",""trial"",""time""
""fullscreenenter"",""1"",""4494""
","
","","","","","","null","<div style=""font-size:60px;"">+</div>","null","","fixation","","",""
"memory-trial","187","577445","0.0-18.0-1.71","4467","approach_avoid_sv1","""event"",""trial"",""time""
""fullscreenenter"",""1"",""4494""
","
","
","""event"",""trial"",""time""
""fullscreenenter"",""1"",""4494""
","
","","","","","","1470","images/cow8.png","","","memory_trial","1","definitely_old",""
"html-keyboard-response","188","577947","0.0-18.0-0.72","4467","approach_avoid_sv1","""event"",""trial"",""time""
""fullscreenenter"",""1"",""4494""
","
","
","""event"",""trial"",""time""
""fullscreenenter"",""1"",""4494""
","
","","","","","","null","<div style=""font-size:60px;"">+</div>","null","","fixation","","",""
"memory-trial","189","580795","0.0-18.0-1.72","4467","approach_avoid_sv1","""event"",""trial"",""time""
""fullscreenenter"",""1"",""4494""
","
","
","""event"",""trial"",""time""
""fullscreenenter"",""1"",""4494""
","
","","","","","","1841.199999999255","images/banana6.png","","","memory_trial","4","definitely_new",""
"html-keyboard-response","190","581300","0.0-18.0-0.73","4467","approach_avoid_sv1","""event"",""trial"",""time""
""fullscreenenter"",""1"",""4494""
","
","
","""event"",""trial"",""time""
""fullscreenenter"",""1"",""4494""
","
","","","","","","null","<div style=""font-size:60px;"">+</div>","null","","fixation","","",""
"memory-trial","191","584997","0.0-18.0-1.73","4467","approach_avoid_sv1","""event"",""trial"",""time""
""fullscreenenter"",""1"",""4494""
","
","
","""event"",""trial"",""time""
""fullscreenenter"",""1"",""4494""
","
","","","","","","2694.099999997765","images/bush3.png","","","memory_trial","3","maybe_new",""
"html-keyboard-response","192","585499","0.0-18.0-0.74","4467","approach_avoid_sv1","""event"",""trial"",""time""
""fullscreenenter"",""1"",""4494""
","
","
","""event"",""trial"",""time""
""fullscreenenter"",""1"",""4494""
","
","","","","","","null","<div style=""font-size:60px;"">+</div>","null","","fixation","","",""
"memory-trial","193","591664","0.0-18.0-1.74","4467","approach_avoid_sv1","""event"",""trial"",""time""
""fullscreenenter"",""1"",""4494""
","
","
","""event"",""trial"",""time""
""fullscreenenter"",""1"",""4494""
","
","","","","","","5162.800000000745","images/goat7.png","","","memory_trial","2","maybe_old",""
"html-keyboard-response","194","592165","0.0-18.0-0.75","4467","approach_avoid_sv1","""event"",""trial"",""time""
""fullscreenenter"",""1"",""4494""
","
","
","""event"",""trial"",""time""
""fullscreenenter"",""1"",""4494""
","
","","","","","","null","<div style=""font-size:60px;"">+</div>","null","","fixation","","",""
"memory-trial","195","594581","0.0-18.0-1.75","4467","approach_avoid_sv1","""event"",""trial"",""time""
""fullscreenenter"",""1"",""4494""
","
","
","""event"",""trial"",""time""
""fullscreenenter"",""1"",""4494""
","
","","","","","","1412","images/straw3.png","","","memory_trial","1","definitely_old",""
"html-keyboard-response","196","595082","0.0-18.0-0.76","4467","approach_avoid_sv1","""event"",""trial"",""time""
""fullscreenenter"",""1"",""4494""
","
","
","""event"",""trial"",""time""
""fullscreenenter"",""1"",""4494""
","
","","","","","","null","<div style=""font-size:60px;"">+</div>","null","","fixation","","",""
"memory-trial","197","598975","0.0-18.0-1.76","4467","approach_avoid_sv1","""event"",""trial"",""time""
""fullscreenenter"",""1"",""4494""
","
","
","""event"",""trial"",""time""
""fullscreenenter"",""1"",""4494""
","
","","","","","","2888.5","images/apple6.png","","","memory_trial","4","definitely_new",""
"html-keyboard-response","198","599477","0.0-18.0-0.77","4467","approach_avoid_sv1","""event"",""trial"",""time""
""fullscreenenter"",""1"",""4494""
","
","
","""event"",""trial"",""time""
""fullscreenenter"",""1"",""4494""
","
","","","","","","null","<div style=""font-size:60px;"">+</div>","null","","fixation","","",""
"memory-trial","199","602042","0.0-18.0-1.77","4467","approach_avoid_sv1","""event"",""trial"",""time""
""fullscreenenter"",""1"",""4494""
","
","
","""event"",""trial"",""time""
""fullscreenenter"",""1"",""4494""
","
","","","","","","1558.2999999970198","images/bush6.png","","","memory_trial","1","definitely_old",""
"html-keyboard-response","200","602544","0.0-18.0-0.78","4467","approach_avoid_sv1","""event"",""trial"",""time""
""fullscreenenter"",""1"",""4494""
","
","
","""event"",""trial"",""time""
""fullscreenenter"",""1"",""4494""
","
","","","","","","null","<div style=""font-size:60px;"">+</div>","null","","fixation","","",""
"memory-trial","201","605430","0.0-18.0-1.78","4467","approach_avoid_sv1","""event"",""trial"",""time""
""fullscreenenter"",""1"",""4494""
","
","
","""event"",""trial"",""time""
""fullscreenenter"",""1"",""4494""
","
","","","","","","1881.3999999985099","images/train1.png","","","memory_trial","4","definitely_new",""
"html-keyboard-response","202","605936","0.0-18.0-0.79","4467","approach_avoid_sv1","""event"",""trial"",""time""
""fullscreenenter"",""1"",""4494""
","
","
","""event"",""trial"",""time""
""fullscreenenter"",""1"",""4494""
","
","","","","","","null","<div style=""font-size:60px;"">+</div>","null","","fixation","","",""
"memory-trial","203","608560","0.0-18.0-1.79","4467","approach_avoid_sv1","""event"",""trial"",""time""
""fullscreenenter"",""1"",""4494""
","
","
","""event"",""trial"",""time""
""fullscreenenter"",""1"",""4494""
","
","","","","","","1618.300000000745","images/bed8.png","","","memory_trial","1","definitely_old",""
"html-keyboard-response","204","609065","0.0-18.0-0.80","4467","approach_avoid_sv1","""event"",""trial"",""time""
""fullscreenenter"",""1"",""4494""
","
","
","""event"",""trial"",""time""
""fullscreenenter"",""1"",""4494""
","
","","","","","","null","<div style=""font-size:60px;"">+</div>","null","","fixation","","",""
"memory-trial","205","612250","0.0-18.0-1.80","4467","approach_avoid_sv1","""event"",""trial"",""time""
""fullscreenenter"",""1"",""4494""
","
","
","""event"",""trial"",""time""
""fullscreenenter"",""1"",""4494""
","
","","","","","","2178.800000000745","images/train5.png","","","memory_trial","4","definitely_new",""
"html-keyboard-response","206","612752","0.0-18.0-0.81","4467","approach_avoid_sv1","""event"",""trial"",""time""
""fullscreenenter"",""1"",""4494""
","
","
","""event"",""trial"",""time""
""fullscreenenter"",""1"",""4494""
","
","","","","","","null","<div style=""font-size:60px;"">+</div>","null","","fixation","","",""
"memory-trial","207","615759","0.0-18.0-1.81","4467","approach_avoid_sv1","""event"",""trial"",""time""
""fullscreenenter"",""1"",""4494""
","
","
","""event"",""trial"",""time""
""fullscreenenter"",""1"",""4494""
","
","","","","","","2000.7999999970198","images/cactus6.png","","","memory_trial","4","definitely_new",""
"html-keyboard-response","208","616261","0.0-18.0-0.82","4467","approach_avoid_sv1","""event"",""trial"",""time""
""fullscreenenter"",""1"",""4494""
","
","
","""event"",""trial"",""time""
""fullscreenenter"",""1"",""4494""
","
","","","","","","null","<div style=""font-size:60px;"">+</div>","null","","fixation","","",""
"memory-trial","209","623013","0.0-18.0-1.82","4467","approach_avoid_sv1","""event"",""trial"",""time""
""fullscreenenter"",""1"",""4494""
","
","
","""event"",""trial"",""time""
""fullscreenenter"",""1"",""4494""
","
","","","","","","5744.60000000149","images/cow1.png","","","memory_trial","3","maybe_new",""
"html-keyboard-response","210","623516","0.0-18.0-0.83","4467","approach_avoid_sv1","""event"",""trial"",""time""
""fullscreenenter"",""1"",""4494""
","
","
","""event"",""trial"",""time""
""fullscreenenter"",""1"",""4494""
","
","","","","","","null","<div style=""font-size:60px;"">+</div>","null","","fixation","","",""
"memory-trial","211","629210","0.0-18.0-1.83","4467","approach_avoid_sv1","""event"",""trial"",""time""
""fullscreenenter"",""1"",""4494""
","
","
","""event"",""trial"",""time""
""fullscreenenter"",""1"",""4494""
","
","","","","","","4688.20000000298","images/horse1.png","","","memory_trial","2","maybe_old",""
"html-keyboard-response","212","629712","0.0-18.0-0.84","4467","approach_avoid_sv1","""event"",""trial"",""time""
""fullscreenenter"",""1"",""4494""
","
","
","""event"",""trial"",""time""
""fullscreenenter"",""1"",""4494""
","
","","","","","","null","<div style=""font-size:60px;"">+</div>","null","","fixation","","",""
"memory-trial","213","632180","0.0-18.0-1.84","4467","approach_avoid_sv1","""event"",""trial"",""time""
""fullscreenenter"",""1"",""4494""
","
","
","""event"",""trial"",""time""
""fullscreenenter"",""1"",""4494""
","
","","","","","","1464.2999999970198","images/goat5.png","","","memory_trial","1","definitely_old",""
"html-keyboard-response","214","632682","0.0-18.0-0.85","4467","approach_avoid_sv1","""event"",""trial"",""time""
""fullscreenenter"",""1"",""4494""
","
","
","""event"",""trial"",""time""
""fullscreenenter"",""1"",""4494""
","
","","","","","","null","<div style=""font-size:60px;"">+</div>","null","","fixation","","",""
"memory-trial","215","635753","0.0-18.0-1.85","4467","approach_avoid_sv1","""event"",""trial"",""time""
""fullscreenenter"",""1"",""4494""
","
","
","""event"",""trial"",""time""
""fullscreenenter"",""1"",""4494""
","
","","","","","","2066.5","images/sheep4.png","","","memory_trial","2","maybe_old",""
"html-keyboard-response","216","636255","0.0-18.0-0.86","4467","approach_avoid_sv1","""event"",""trial"",""time""
""fullscreenenter"",""1"",""4494""
","
","
","""event"",""trial"",""time""
""fullscreenenter"",""1"",""4494""
","
","","","","","","null","<div style=""font-size:60px;"">+</div>","null","","fixation","","",""
"memory-trial","217","638822","0.0-18.0-1.86","4467","approach_avoid_sv1","""event"",""trial"",""time""
""fullscreenenter"",""1"",""4494""
","
","
","""event"",""trial"",""time""
""fullscreenenter"",""1"",""4494""
","
","","","","","","1562.8999999985099","images/cactus4.png","","","memory_trial","4","definitely_new",""
"html-keyboard-response","218","639327","0.0-18.0-0.87","4467","approach_avoid_sv1","""event"",""trial"",""time""
""fullscreenenter"",""1"",""4494""
","
","
","""event"",""trial"",""time""
""fullscreenenter"",""1"",""4494""
","
","","","","","","null","<div style=""font-size:60px;"">+</div>","null","","fixation","","",""
"memory-trial","219","641753","0.0-18.0-1.87","4467","approach_avoid_sv1","""event"",""trial"",""time""
""fullscreenenter"",""1"",""4494""
","
","
","""event"",""trial"",""time""
""fullscreenenter"",""1"",""4494""
","
","","","","","","1419","images/straw6.png","","","memory_trial","1","definitely_old",""
"html-keyboard-response","220","642255","0.0-18.0-0.88","4467","approach_avoid_sv1","""event"",""trial"",""time""
""fullscreenenter"",""1"",""4494""
","
","
","""event"",""trial"",""time""
""fullscreenenter"",""1"",""4494""
","
","","","","","","null","<div style=""font-size:60px;"">+</div>","null","","fixation","","",""
"memory-trial","221","644468","0.0-18.0-1.88","4467","approach_avoid_sv1","""event"",""trial"",""time""
""fullscreenenter"",""1"",""4494""
","
","
","""event"",""trial"",""time""
""fullscreenenter"",""1"",""4494""
","
","","","","","","1208.8999999985099","images/boat2.png","","","memory_trial","1","definitely_old",""
"html-keyboard-response","222","644969","0.0-18.0-0.89","4467","approach_avoid_sv1","""event"",""trial"",""time""
""fullscreenenter"",""1"",""4494""
","
","
","""event"",""trial"",""time""
""fullscreenenter"",""1"",""4494""
","
","","","","","","null","<div style=""font-size:60px;"">+</div>","null","","fixation","","",""
"memory-trial","223","647300","0.0-18.0-1.89","4467","approach_avoid_sv1","""event"",""trial"",""time""
""fullscreenenter"",""1"",""4494""
","
","
","""event"",""trial"",""time""
""fullscreenenter"",""1"",""4494""
","
","","","","","","1326.199999999255","images/orange6.png","","","memory_trial","4","definitely_new",""
"html-keyboard-response","224","647801","0.0-18.0-0.90","4467","approach_avoid_sv1","""event"",""trial"",""time""
""fullscreenenter"",""1"",""4494""
","
","
","""event"",""trial"",""time""
""fullscreenenter"",""1"",""4494""
","
","","","","","","null","<div style=""font-size:60px;"">+</div>","null","","fixation","","",""
"memory-trial","225","650740","0.0-18.0-1.90","4467","approach_avoid_sv1","""event"",""trial"",""time""
""fullscreenenter"",""1"",""4494""
","
","
","""event"",""trial"",""time""
""fullscreenenter"",""1"",""4494""
","
","","","","","","1931.199999999255","images/boat8.png","","","memory_trial","3","maybe_new",""
"html-keyboard-response","226","651241","0.0-18.0-0.91","4467","approach_avoid_sv1","""event"",""trial"",""time""
""fullscreenenter"",""1"",""4494""
","
","
","""event"",""trial"",""time""
""fullscreenenter"",""1"",""4494""
","
","","","","","","null","<div style=""font-size:60px;"">+</div>","null","","fixation","","",""
"memory-trial","227","654911","0.0-18.0-1.91","4467","approach_avoid_sv1","""event"",""trial"",""time""
""fullscreenenter"",""1"",""4494""
","
","
","""event"",""trial"",""time""
""fullscreenenter"",""1"",""4494""
","
","","","","","","2664","images/truck3.png","","","memory_trial","2","maybe_old",""
"html-button-response","228","701319","0.0-18.0-2.91-0.91","4467","approach_avoid_sv1","""event"",""trial"",""time""
""fullscreenenter"",""1"",""4494""
","
","
","""event"",""trial"",""time""
""fullscreenenter"",""1"",""4494""
","
","","","","","","46408","<p> Take a break! </p><p> Click the button to continue. </p>","0","","break","","",""
"html-keyboard-response","229","701821","0.0-18.0-0.92","4467","approach_avoid_sv1","""event"",""trial"",""time""
""fullscreenenter"",""1"",""4494""
","
","
","""event"",""trial"",""time""
""fullscreenenter"",""1"",""4494""
","
","","","","","","null","<div style=""font-size:60px;"">+</div>","null","","fixation","","",""
"memory-trial","230","704813","0.0-18.0-1.92","4467","approach_avoid_sv1","""event"",""trial"",""time""
""fullscreenenter"",""1"",""4494""
","
","
","""event"",""trial"",""time""
""fullscreenenter"",""1"",""4494""
","
","","","","","","1985.1000000014901","images/table2.png","","","memory_trial","4","definitely_new",""
"html-keyboard-response","231","705315","0.0-18.0-0.93","4467","approach_avoid_sv1","""event"",""trial"",""time""
""fullscreenenter"",""1"",""4494""
","
","
","""event"",""trial"",""time""
""fullscreenenter"",""1"",""4494""
","
","","","","","","null","<div style=""font-size:60px;"">+</div>","null","","fixation","","",""
"memory-trial","232","707261","0.0-18.0-1.93","4467","approach_avoid_sv1","""event"",""trial"",""time""
""fullscreenenter"",""1"",""4494""
","
","
","""event"",""trial"",""time""
""fullscreenenter"",""1"",""4494""
","
","","","","","","943.5","images/straw8.png","","","memory_trial","1","definitely_old",""
"html-keyboard-response","233","707763","0.0-18.0-0.94","4467","approach_avoid_sv1","""event"",""trial"",""time""
""fullscreenenter"",""1"",""4494""
","
","
","""event"",""trial"",""time""
""fullscreenenter"",""1"",""4494""
","
","","","","","","null","<div style=""font-size:60px;"">+</div>","null","","fixation","","",""
"memory-trial","234","710931","0.0-18.0-1.94","4467","approach_avoid_sv1","""event"",""trial"",""time""
""fullscreenenter"",""1"",""4494""
","
","
","""event"",""trial"",""time""
""fullscreenenter"",""1"",""4494""
","
","","","","","","2162.099999997765","images/sheep5.png","","","memory_trial","3","maybe_new",""
"html-keyboard-response","235","711432","0.0-18.0-0.95","4467","approach_avoid_sv1","""event"",""trial"",""time""
""fullscreenenter"",""1"",""4494""
","
","
","""event"",""trial"",""time""
""fullscreenenter"",""1"",""4494""
","
","","","","","","null","<div style=""font-size:60px;"">+</div>","null","","fixation","","",""
"memory-trial","236","713677","0.0-18.0-1.95","4467","approach_avoid_sv1","""event"",""trial"",""time""
""fullscreenenter"",""1"",""4494""
","
","
","""event"",""trial"",""time""
""fullscreenenter"",""1"",""4494""
","
","","","","","","1240.199999999255","images/orange5.png","","","memory_trial","4","definitely_new",""
"html-keyboard-response","237","714178","0.0-18.0-0.96","4467","approach_avoid_sv1","""event"",""trial"",""time""
""fullscreenenter"",""1"",""4494""
","
","
","""event"",""trial"",""time""
""fullscreenenter"",""1"",""4494""
","
","","","","","","null","<div style=""font-size:60px;"">+</div>","null","","fixation","","",""
"memory-trial","238","717224","0.0-18.0-1.96","4467","approach_avoid_sv1","""event"",""trial"",""time""
""fullscreenenter"",""1"",""4494""
","
","
","""event"",""trial"",""time""
""fullscreenenter"",""1"",""4494""
","
","","","","","","2038.1000000014901","images/cat6.png","","","memory_trial","1","definitely_old",""
"html-keyboard-response","239","717725","0.0-18.0-0.97","4467","approach_avoid_sv1","""event"",""trial"",""time""
""fullscreenenter"",""1"",""4494""
","
","
","""event"",""trial"",""time""
""fullscreenenter"",""1"",""4494""
","
","","","","","","null","<div style=""font-size:60px;"">+</div>","null","","fixation","","",""
"memory-trial","240","720125","0.0-18.0-1.97","4467","approach_avoid_sv1","""event"",""trial"",""time""
""fullscreenenter"",""1"",""4494""
","
","
","""event"",""trial"",""time""
""fullscreenenter"",""1"",""4494""
","
","","","","","","1395.8999999985099","images/chair7.png","","","memory_trial","1","definitely_old",""
"html-keyboard-response","241","720626","0.0-18.0-0.98","4467","approach_avoid_sv1","""event"",""trial"",""time""
""fullscreenenter"",""1"",""4494""
","
","
","""event"",""trial"",""time""
""fullscreenenter"",""1"",""4494""
","
","","","","","","null","<div style=""font-size:60px;"">+</div>","null","","fixation","","",""
"memory-trial","242","722962","0.0-18.0-1.98","4467","approach_avoid_sv1","""event"",""trial"",""time""
""fullscreenenter"",""1"",""4494""
","
","
","""event"",""trial"",""time""
""fullscreenenter"",""1"",""4494""
","
","","","","","","1329.800000000745","images/cow2.png","","","memory_trial","1","definitely_old",""
"html-keyboard-response","243","723464","0.0-18.0-0.99","4467","approach_avoid_sv1","""event"",""trial"",""time""
""fullscreenenter"",""1"",""4494""
","
","
","""event"",""trial"",""time""
""fullscreenenter"",""1"",""4494""
","
","","","","","","null","<div style=""font-size:60px;"">+</div>","null","","fixation","","",""
"memory-trial","244","726386","0.0-18.0-1.99","4467","approach_avoid_sv1","""event"",""trial"",""time""
""fullscreenenter"",""1"",""4494""
","
","
","""event"",""trial"",""time""
""fullscreenenter"",""1"",""4494""
","
","","","","","","1918.6000000014901","images/banana5.png","","","memory_trial","1","definitely_old",""
"html-keyboard-response","245","726888","0.0-18.0-0.100","4467","approach_avoid_sv1","""event"",""trial"",""time""
""fullscreenenter"",""1"",""4494""
","
","
","""event"",""trial"",""time""
""fullscreenenter"",""1"",""4494""
","
","","","","","","null","<div style=""font-size:60px;"">+</div>","null","","fixation","","",""
"memory-trial","246","729682","0.0-18.0-1.100","4467","approach_avoid_sv1","""event"",""trial"",""time""
""fullscreenenter"",""1"",""4494""
","
","
","""event"",""trial"",""time""
""fullscreenenter"",""1"",""4494""
","
","","","","","","1789.5","images/horse3.png","","","memory_trial","2","maybe_old",""
"html-keyboard-response","247","730183","0.0-18.0-0.101","4467","approach_avoid_sv1","""event"",""trial"",""time""
""fullscreenenter"",""1"",""4494""
","
","
","""event"",""trial"",""time""
""fullscreenenter"",""1"",""4494""
","
","","","","","","null","<div style=""font-size:60px;"">+</div>","null","","fixation","","",""
"memory-trial","248","732231","0.0-18.0-1.101","4467","approach_avoid_sv1","""event"",""trial"",""time""
""fullscreenenter"",""1"",""4494""
","
","
","""event"",""trial"",""time""
""fullscreenenter"",""1"",""4494""
","
","","","","","","1041.1000000014901","images/orange8.png","","","memory_trial","3","maybe_new",""
"html-keyboard-response","249","732733","0.0-18.0-0.102","4467","approach_avoid_sv1","""event"",""trial"",""time""
""fullscreenenter"",""1"",""4494""
","
","
","""event"",""trial"",""time""
""fullscreenenter"",""1"",""4494""
","
","","","","","","null","<div style=""font-size:60px;"">+</div>","null","","fixation","","",""
"memory-trial","250","735570","0.0-18.0-1.102","4467","approach_avoid_sv1","""event"",""trial"",""time""
""fullscreenenter"",""1"",""4494""
","
","
","""event"",""trial"",""time""
""fullscreenenter"",""1"",""4494""
","
","","","","","","1832.699999999255","images/plane3.png","","","memory_trial","2","maybe_old",""
"html-keyboard-response","251","736071","0.0-18.0-0.103","4467","approach_avoid_sv1","""event"",""trial"",""time""
""fullscreenenter"",""1"",""4494""
","
","
","""event"",""trial"",""time""
""fullscreenenter"",""1"",""4494""
","
","","","","","","null","<div style=""font-size:60px;"">+</div>","null","","fixation","","",""
"memory-trial","252","738375","0.0-18.0-1.103","4467","approach_avoid_sv1","""event"",""trial"",""time""
""fullscreenenter"",""1"",""4494""
","
","
","""event"",""trial"",""time""
""fullscreenenter"",""1"",""4494""
","
","","","","","","1297.6000000014901","images/cat3.png","","","memory_trial","1","definitely_old",""
"html-keyboard-response","253","738876","0.0-18.0-0.104","4467","approach_avoid_sv1","""event"",""trial"",""time""
""fullscreenenter"",""1"",""4494""
","
","
","""event"",""trial"",""time""
""fullscreenenter"",""1"",""4494""
","
","","","","","","null","<div style=""font-size:60px;"">+</div>","null","","fixation","","",""
"memory-trial","254","741159","0.0-18.0-1.104","4467","approach_avoid_sv1","""event"",""trial"",""time""
""fullscreenenter"",""1"",""4494""
","
","
","""event"",""trial"",""time""
""fullscreenenter"",""1"",""4494""
","
","","","","","","1276.800000000745","images/goat6.png","","","memory_trial","1","definitely_old",""
"html-keyboard-response","255","741661","0.0-18.0-0.105","4467","approach_avoid_sv1","""event"",""trial"",""time""
""fullscreenenter"",""1"",""4494""
","
","
","""event"",""trial"",""time""
""fullscreenenter"",""1"",""4494""
","
","","","","","","null","<div style=""font-size:60px;"">+</div>","null","","fixation","","",""
"memory-trial","256","747959","0.0-18.0-1.105","4467","approach_avoid_sv1","""event"",""trial"",""time""
""fullscreenenter"",""1"",""4494""
","
","
","""event"",""trial"",""time""
""fullscreenenter"",""1"",""4494""
","
","","","","","","5293.900000002235","images/straw4.png","","","memory_trial","2","maybe_old",""
"html-keyboard-response","257","748461","0.0-18.0-0.106","4467","approach_avoid_sv1","""event"",""trial"",""time""
""fullscreenenter"",""1"",""4494""
","
","
","""event"",""trial"",""time""
""fullscreenenter"",""1"",""4494""
","
","","","","","","null","<div style=""font-size:60px;"">+</div>","null","","fixation","","",""
"memory-trial","258","750764","0.0-18.0-1.106","4467","approach_avoid_sv1","""event"",""trial"",""time""
""fullscreenenter"",""1"",""4494""
","
","
","""event"",""trial"",""time""
""fullscreenenter"",""1"",""4494""
","
","","","","","","1296.2000000029802","images/orange4.png","","","memory_trial","4","definitely_new",""
"html-keyboard-response","259","751266","0.0-18.0-0.107","4467","approach_avoid_sv1","""event"",""trial"",""time""
""fullscreenenter"",""1"",""4494""
","
","
","""event"",""trial"",""time""
""fullscreenenter"",""1"",""4494""
","
","","","","","","null","<div style=""font-size:60px;"">+</div>","null","","fixation","","",""
"memory-trial","260","755378","0.0-18.0-1.107","4467","approach_avoid_sv1","""event"",""trial"",""time""
""fullscreenenter"",""1"",""4494""
","
","
","""event"",""trial"",""time""
""fullscreenenter"",""1"",""4494""
","
","","","","","","3109.39999999851","images/rabbit4.png","","","memory_trial","1","definitely_old",""
"html-keyboard-response","261","755879","0.0-18.0-0.108","4467","approach_avoid_sv1","""event"",""trial"",""time""
""fullscreenenter"",""1"",""4494""
","
","
","""event"",""trial"",""time""
""fullscreenenter"",""1"",""4494""
","
","","","","","","null","<div style=""font-size:60px;"">+</div>","null","","fixation","","",""
"memory-trial","262","757885","0.0-18.0-1.108","4467","approach_avoid_sv1","""event"",""trial"",""time""
""fullscreenenter"",""1"",""4494""
","
","
","""event"",""trial"",""time""
""fullscreenenter"",""1"",""4494""
","
","","","","","","1003","images/rabbit1.png","","","memory_trial","1","definitely_old",""
"html-keyboard-response","263","758386","0.0-18.0-0.109","4467","approach_avoid_sv1","""event"",""trial"",""time""
""fullscreenenter"",""1"",""4494""
","
","
","""event"",""trial"",""time""
""fullscreenenter"",""1"",""4494""
","
","","","","","","null","<div style=""font-size:60px;"">+</div>","null","","fixation","","",""
"memory-trial","264","760295","0.0-18.0-1.109","4467","approach_avoid_sv1","""event"",""trial"",""time""
""fullscreenenter"",""1"",""4494""
","
","
","""event"",""trial"",""time""
""fullscreenenter"",""1"",""4494""
","
","","","","","","904.6000000014901","images/sofa8.png","","","memory_trial","1","definitely_old",""
"html-keyboard-response","265","760796","0.0-18.0-0.110","4467","approach_avoid_sv1","""event"",""trial"",""time""
""fullscreenenter"",""1"",""4494""
","
","
","""event"",""trial"",""time""
""fullscreenenter"",""1"",""4494""
","
","","","","","","null","<div style=""font-size:60px;"">+</div>","null","","fixation","","",""
"memory-trial","266","763852","0.0-18.0-1.110","4467","approach_avoid_sv1","""event"",""trial"",""time""
""fullscreenenter"",""1"",""4494""
","
","
","""event"",""trial"",""time""
""fullscreenenter"",""1"",""4494""
","
","","","","","","2050","images/cactus8.png","","","memory_trial","4","definitely_new",""
"html-keyboard-response","267","764353","0.0-18.0-0.111","4467","approach_avoid_sv1","""event"",""trial"",""time""
""fullscreenenter"",""1"",""4494""
","
","
","""event"",""trial"",""time""
""fullscreenenter"",""1"",""4494""
","
","","","","","","null","<div style=""font-size:60px;"">+</div>","null","","fixation","","",""
"memory-trial","268","767090","0.0-18.0-1.111","4467","approach_avoid_sv1","""event"",""trial"",""time""
""fullscreenenter"",""1"",""4494""
","
","
","""event"",""trial"",""time""
""fullscreenenter"",""1"",""4494""
","
","","","","","","1734","images/bush5.png","","","memory_trial","4","definitely_new",""
"html-keyboard-response","269","767592","0.0-18.0-0.112","4467","approach_avoid_sv1","""event"",""trial"",""time""
""fullscreenenter"",""1"",""4494""
","
","
","""event"",""trial"",""time""
""fullscreenenter"",""1"",""4494""
","
","","","","","","null","<div style=""font-size:60px;"">+</div>","null","","fixation","","",""
"memory-trial","270","771558","0.0-18.0-1.112","4467","approach_avoid_sv1","""event"",""trial"",""time""
""fullscreenenter"",""1"",""4494""
","
","
","""event"",""trial"",""time""
""fullscreenenter"",""1"",""4494""
","
","","","","","","2964","images/table6.png","","","memory_trial","2","maybe_old",""
"html-keyboard-response","271","772060","0.0-18.0-0.113","4467","approach_avoid_sv1","""event"",""trial"",""time""
""fullscreenenter"",""1"",""4494""
","
","
","""event"",""trial"",""time""
""fullscreenenter"",""1"",""4494""
","
","","","","","","null","<div style=""font-size:60px;"">+</div>","null","","fixation","","",""
"memory-trial","272","775836","0.0-18.0-1.113","4467","approach_avoid_sv1","""event"",""trial"",""time""
""fullscreenenter"",""1"",""4494""
","
","
","""event"",""trial"",""time""
""fullscreenenter"",""1"",""4494""
","
","","","","","","2770.699999999255","images/sofa7.png","","","memory_trial","4","definitely_new",""
"html-keyboard-response","273","776337","0.0-18.0-0.114","4467","approach_avoid_sv1","""event"",""trial"",""time""
""fullscreenenter"",""1"",""4494""
","
","
","""event"",""trial"",""time""
""fullscreenenter"",""1"",""4494""
","
","","","","","","null","<div style=""font-size:60px;"">+</div>","null","","fixation","","",""
"memory-trial","274","781196","0.0-18.0-1.114","4467","approach_avoid_sv1","""event"",""trial"",""time""
""fullscreenenter"",""1"",""4494""
","
","
","""event"",""trial"",""time""
""fullscreenenter"",""1"",""4494""
","
","","","","","","3851.10000000149","images/cat5.png","","","memory_trial","2","maybe_old",""
"html-keyboard-response","275","781697","0.0-18.0-0.115","4467","approach_avoid_sv1","""event"",""trial"",""time""
""fullscreenenter"",""1"",""4494""
","
","
","""event"",""trial"",""time""
""fullscreenenter"",""1"",""4494""
","
","","","","","","null","<div style=""font-size:60px;"">+</div>","null","","fixation","","",""
"memory-trial","276","785158","0.0-18.0-1.115","4467","approach_avoid_sv1","""event"",""trial"",""time""
""fullscreenenter"",""1"",""4494""
","
","
","""event"",""trial"",""time""
""fullscreenenter"",""1"",""4494""
","
","","","","","","2455.10000000149","images/cow6.png","","","memory_trial","2","maybe_old",""
"html-keyboard-response","277","785660","0.0-18.0-0.116","4467","approach_avoid_sv1","""event"",""trial"",""time""
""fullscreenenter"",""1"",""4494""
","
","
","""event"",""trial"",""time""
""fullscreenenter"",""1"",""4494""
","
","","","","","","null","<div style=""font-size:60px;"">+</div>","null","","fixation","","",""
"memory-trial","278","788438","0.0-18.0-1.116","4467","approach_avoid_sv1","""event"",""trial"",""time""
""fullscreenenter"",""1"",""4494""
","
","
","""event"",""trial"",""time""
""fullscreenenter"",""1"",""4494""
","
","","","","","","1771.3999999985099","images/cow7.png","","","memory_trial","1","definitely_old",""
"html-keyboard-response","279","788940","0.0-18.0-0.117","4467","approach_avoid_sv1","""event"",""trial"",""time""
""fullscreenenter"",""1"",""4494""
","
","
","""event"",""trial"",""time""
""fullscreenenter"",""1"",""4494""
","
","","","","","","null","<div style=""font-size:60px;"">+</div>","null","","fixation","","",""
"memory-trial","280","791940","0.0-18.0-1.117","4467","approach_avoid_sv1","""event"",""trial"",""time""
""fullscreenenter"",""1"",""4494""
","
","
","""event"",""trial"",""time""
""fullscreenenter"",""1"",""4494""
","
","","","","","","1996.4000000022352","images/dog7.png","","","memory_trial","3","maybe_new",""
"html-keyboard-response","281","792445","0.0-18.0-0.118","4467","approach_avoid_sv1","""event"",""trial"",""time""
""fullscreenenter"",""1"",""4494""
","
","
","""event"",""trial"",""time""
""fullscreenenter"",""1"",""4494""
","
","","","","","","null","<div style=""font-size:60px;"">+</div>","null","","fixation","","",""
"memory-trial","282","795473","0.0-18.0-1.118","4467","approach_avoid_sv1","""event"",""trial"",""time""
""fullscreenenter"",""1"",""4494""
","
","
","""event"",""trial"",""time""
""fullscreenenter"",""1"",""4494""
","
","","","","","","2024.0999999977648","images/bush8.png","","","memory_trial","1","definitely_old",""
"html-keyboard-response","283","795974","0.0-18.0-0.119","4467","approach_avoid_sv1","""event"",""trial"",""time""
""fullscreenenter"",""1"",""4494""
","
","
","""event"",""trial"",""time""
""fullscreenenter"",""1"",""4494""
","
","","","","","","null","<div style=""font-size:60px;"">+</div>","null","","fixation","","",""
"memory-trial","284","799366","0.0-18.0-1.119","4467","approach_avoid_sv1","""event"",""trial"",""time""
""fullscreenenter"",""1"",""4494""
","
","
","""event"",""trial"",""time""
""fullscreenenter"",""1"",""4494""
","
","","","","","","2385.800000000745","images/dog6.png","","","memory_trial","4","definitely_new",""
"html-keyboard-response","285","799867","0.0-18.0-0.120","4467","approach_avoid_sv1","""event"",""trial"",""time""
""fullscreenenter"",""1"",""4494""
","
","
","""event"",""trial"",""time""
""fullscreenenter"",""1"",""4494""
","
","","","","","","null","<div style=""font-size:60px;"">+</div>","null","","fixation","","",""
"memory-trial","286","805515","0.0-18.0-1.120","4467","approach_avoid_sv1","""event"",""trial"",""time""
""fullscreenenter"",""1"",""4494""
","
","
","""event"",""trial"",""time""
""fullscreenenter"",""1"",""4494""
","
","","","","","","4644.20000000298","images/flower6.png","","","memory_trial","2","maybe_old",""
"html-keyboard-response","287","806020","0.0-18.0-0.121","4467","approach_avoid_sv1","""event"",""trial"",""time""
""fullscreenenter"",""1"",""4494""
","
","
","""event"",""trial"",""time""
""fullscreenenter"",""1"",""4494""
","
","","","","","","null","<div style=""font-size:60px;"">+</div>","null","","fixation","","",""
"memory-trial","288","808427","0.0-18.0-1.121","4467","approach_avoid_sv1","""event"",""trial"",""time""
""fullscreenenter"",""1"",""4494""
","
","
","""event"",""trial"",""time""
""fullscreenenter"",""1"",""4494""
","
","","","","","","1401.0999999977648","images/cactus1.png","","","memory_trial","4","definitely_new",""
"html-keyboard-response","289","808928","0.0-18.0-0.122","4467","approach_avoid_sv1","""event"",""trial"",""time""
""fullscreenenter"",""1"",""4494""
","
","
","""event"",""trial"",""time""
""fullscreenenter"",""1"",""4494""
","
","","","","","","null","<div style=""font-size:60px;"">+</div>","null","","fixation","","",""
"memory-trial","290","811547","0.0-18.0-1.122","4467","approach_avoid_sv1","""event"",""trial"",""time""
""fullscreenenter"",""1"",""4494""
","
","
","""event"",""trial"",""time""
""fullscreenenter"",""1"",""4494""
","
","","","","","","1615.5","images/chair8.png","","","memory_trial","1","definitely_old",""
"html-keyboard-response","291","812048","0.0-18.0-0.123","4467","approach_avoid_sv1","""event"",""trial"",""time""
""fullscreenenter"",""1"",""4494""
","
","
","""event"",""trial"",""time""
""fullscreenenter"",""1"",""4494""
","
","","","","","","null","<div style=""font-size:60px;"">+</div>","null","","fixation","","",""
"memory-trial","292","815259","0.0-18.0-1.123","4467","approach_avoid_sv1","""event"",""trial"",""time""
""fullscreenenter"",""1"",""4494""
","
","
","""event"",""trial"",""time""
""fullscreenenter"",""1"",""4494""
","
","","","","","","2203.60000000149","images/table5.png","","","memory_trial","4","definitely_new",""
"html-keyboard-response","293","815760","0.0-18.0-0.124","4467","approach_avoid_sv1","""event"",""trial"",""time""
""fullscreenenter"",""1"",""4494""
","
","
","""event"",""trial"",""time""
""fullscreenenter"",""1"",""4494""
","
","","","","","","null","<div style=""font-size:60px;"">+</div>","null","","fixation","","",""
"memory-trial","294","818331","0.0-18.0-1.124","4467","approach_avoid_sv1","""event"",""trial"",""time""
""fullscreenenter"",""1"",""4494""
","
","
","""event"",""trial"",""time""
""fullscreenenter"",""1"",""4494""
","
","","","","","","1564.8999999985099","images/tree6.png","","","memory_trial","1","definitely_old",""
"html-keyboard-response","295","818832","0.0-18.0-0.125","4467","approach_avoid_sv1","""event"",""trial"",""time""
""fullscreenenter"",""1"",""4494""
","
","
","""event"",""trial"",""time""
""fullscreenenter"",""1"",""4494""
","
","","","","","","null","<div style=""font-size:60px;"">+</div>","null","","fixation","","",""
"memory-trial","296","821408","0.0-18.0-1.125","4467","approach_avoid_sv1","""event"",""trial"",""time""
""fullscreenenter"",""1"",""4494""
","
","
","""event"",""trial"",""time""
""fullscreenenter"",""1"",""4494""
","
","","","","","","1571.800000000745","images/chair2.png","","","memory_trial","2","maybe_old",""
"html-keyboard-response","297","821909","0.0-18.0-0.126","4467","approach_avoid_sv1","""event"",""trial"",""time""
""fullscreenenter"",""1"",""4494""
","
","
","""event"",""trial"",""time""
""fullscreenenter"",""1"",""4494""
","
