"trial_type","trial_index","time_elapsed","internal_node_id","subject_id","task_version","interactions","blur_events","focus_events","fullscreenenter_events","fullscreenexit_events","success","timeout","failed_images","failed_audio","failed_video","rt","stimulus","response","button_pressed","task_part","key_press","answer","correct"
"pavlovia","0","3","0.0-0.0","5577","approach_avoid_sv1","""event"",""trial"",""time""
""fullscreenenter"",""1"",""10757""
","
","
","""event"",""trial"",""time""
""fullscreenenter"",""1"",""10757""
","
","","","","","","","","","","","","",""
"fullscreen","1","11751","0.0-1.0","5577","approach_avoid_sv1","""event"",""trial"",""time""
""fullscreenenter"",""1"",""10757""
","
","
","""event"",""trial"",""time""
""fullscreenenter"",""1"",""10757""
","
","true","","","","","","","","","","","",""
"preload","2","14552","0.0-2.0","5577","approach_avoid_sv1","""event"",""trial"",""time""
""fullscreenenter"",""1"",""10757""
","
","
","""event"",""trial"",""time""
""fullscreenenter"",""1"",""10757""
","
","true","false","[]","[]","[]","","","","","","","",""
"preload","3","15400","0.0-3.0","5577","approach_avoid_sv1","""event"",""trial"",""time""
""fullscreenenter"",""1"",""10757""
","
","
","""event"",""trial"",""time""
""fullscreenenter"",""1"",""10757""
","
","true","false","[]","[]","[]","","","","","","","",""
"preload","4","15956","0.0-4.0","5577","approach_avoid_sv1","""event"",""trial"",""time""
""fullscreenenter"",""1"",""10757""
","
","
","""event"",""trial"",""time""
""fullscreenenter"",""1"",""10757""
","
","true","false","[]","[]","[]","","","","","","","",""
"audio-keyboard-response","5","18843","0.0-5.0","5577","approach_avoid_sv1","""event"",""trial"",""time""
""fullscreenenter"",""1"",""10757""
","
","
","""event"",""trial"",""time""
""fullscreenenter"",""1"",""10757""
","
","","","","","","2890.6666666666665","audio/beep_loop.wav","audiovolumeup","","","","",""
"audio-button-response","6","20947","0.0-6.0","5577","approach_avoid_sv1","""event"",""trial"",""time""
""fullscreenenter"",""1"",""10757""
","
","
","""event"",""trial"",""time""
""fullscreenenter"",""1"",""10757""
","
","","","","","","2101","audio/turtle.wav","3","","","","",""
"audio-button-response","7","23860","0.0-7.0","5577","approach_avoid_sv1","""event"",""trial"",""time""
""fullscreenenter"",""1"",""10757""
","
","
","""event"",""trial"",""time""
""fullscreenenter"",""1"",""10757""
","
","","","","","","1901","audio/shark.wav","2","","","","",""
"preload","8","27352","0.0-8.0","5577","approach_avoid_sv1","""event"",""trial"",""time""
""fullscreenenter"",""1"",""10757""
","
","
","""event"",""trial"",""time""
""fullscreenenter"",""1"",""10757""
","
","true","false","[]","[]","[]","","","","","","","",""
"learning-instructions","9","33633","0.0-9.0-0.0","5577","approach_avoid_sv1","""event"",""trial"",""time""
""fullscreenenter"",""1"",""10757""
","
","
","""event"",""trial"",""time""
""fullscreenenter"",""1"",""10757""
","
","","","","","","1800.6000001430511","<p> Welcome back! </p><p> Last week, you had to make choices about lots of different items.  </p>","","0","instructions","","",""
"learning-instructions","10","39195","0.0-9.0-0.1","5577","approach_avoid_sv1","""event"",""trial"",""time""
""fullscreenenter"",""1"",""10757""
","
","
","""event"",""trial"",""time""
""fullscreenenter"",""1"",""10757""
","
","","","","","","1451.5","<p> Today, we are going to ask you to try to remember all the items. </p>","","0","instructions","","",""
"learning-instructions","11","59720","0.0-9.0-0.2","5577","approach_avoid_sv1","""event"",""trial"",""time""
""fullscreenenter"",""1"",""10757""
","
","
","""event"",""trial"",""time""
""fullscreenenter"",""1"",""10757""
","
","","","","","","10382.100000143051","<p> On every trial, you will see an image. </p><p> The image may be an OLD image you saw during the games last week or it may be a NEW image that was not presented. </p>","","0","instructions","","",""
"learning-instructions","12","74189","0.0-9.0-0.3","5577","approach_avoid_sv1","""event"",""trial"",""time""
""fullscreenenter"",""1"",""10757""
","
","
","""event"",""trial"",""time""
""fullscreenenter"",""1"",""10757""
","
","","","","","","5959.099999904633","<p> You need to select whether the image is:  </p><p>  'Definitely old', 'Maybe old', 'Maybe new', or 'Definitely new.'  </p><div class=""mem-choice-instructions-grid""><div class=""choice-option"" id=""choice-option-1"" ><img src=""images/definitely_old_1.png"" id=""choice-option-img-1"" class=""choice-option-img"" stage=""1""></div><div class=""choice-option"" id=""choice-option-2"" ><img src=""images/maybe_old_1.png"" id=""choice-option-img-2"" class=""choice-option-img"" stage=""1""></div><div class=""choice-option"" id=""choice-option-3"" ><img src=""images/maybe_new_1.png"" id=""choice-option-img-3"" class=""choice-option-img"" stage=""1""></div><div class=""choice-option"" id=""choice-option-4"" > <img src=""images/definitely_new_1.png"" id=""choice-option-img-4"" class=""choice-option-img"" stage=""1""></div></div>","","0","instructions","","",""
"learning-instructions","13","83082","0.0-9.0-0.4","5577","approach_avoid_sv1","""event"",""trial"",""time""
""fullscreenenter"",""1"",""10757""
","
","
","""event"",""trial"",""time""
""fullscreenenter"",""1"",""10757""
","
","","","","","","2382.100000143051","<p> You should use the 1, 2, 3, and 4 keys to make your responses.  </p><div class=""mem-choice-instructions-grid""><div class=""choice-option"" id=""choice-option-1"" ><img src=""images/definitely_old.png"" id=""choice-option-img-1"" class=""choice-option-img"" stage=""1""></div><div class=""choice-option"" id=""choice-option-2"" ><img src=""images/maybe_old.png"" id=""choice-option-img-2"" class=""choice-option-img"" stage=""1""></div><div class=""choice-option"" id=""choice-option-3"" ><img src=""images/maybe_new.png"" id=""choice-option-img-3"" class=""choice-option-img"" stage=""1""></div><div class=""choice-option"" id=""choice-option-4"" > <img src=""images/definitely_new.png"" id=""choice-option-img-4"" class=""choice-option-img"" stage=""1""></div></div>","","0","instructions","","",""
"learning-instructions","14","90865","0.0-9.0-0.5","5577","approach_avoid_sv1","""event"",""trial"",""time""
""fullscreenenter"",""1"",""10757""
","
","
","""event"",""trial"",""time""
""fullscreenenter"",""1"",""10757""
","
","","","","","","1445.8999998569489","<p> You will have 10 seconds to make each response.  </p><p>  Make sure to respond before time runs out! </p>","","0","instructions","","",""
"learning-instructions","15","99004","0.0-9.0-0.6","5577","approach_avoid_sv1","""event"",""trial"",""time""
""fullscreenenter"",""1"",""10757""
","
","
","""event"",""trial"",""time""
""fullscreenenter"",""1"",""10757""
","
","","","","","","1065.3999998569489","<p> Today, you will see each image ONCE only.  </p><p>  That means none of the images will repeat. </p>","","0","instructions","","",""
"learning-instructions","16","114716","0.0-9.0-0.7","5577","approach_avoid_sv1","""event"",""trial"",""time""
""fullscreenenter"",""1"",""10757""
","
","
","""event"",""trial"",""time""
""fullscreenenter"",""1"",""10757""
","
","","","","","","3037.5999999046326","<p> Before you play the real game, it is time to practice. </p><p>  Just like in the real game, some of the images in the practice will be ones you have seen before. </p><p>  Others will be entirely new. </p>","","0","instructions","","",""
"html-button-response","17","119413","0.0-10.0","5577","approach_avoid_sv1","""event"",""trial"",""time""
""fullscreenenter"",""1"",""10757""
","
","
","""event"",""trial"",""time""
""fullscreenenter"",""1"",""10757""
","
","","","","","","4590","<p> Ready to practice? </p><p> Remember, use the 1, 2, 3, and 4 keys to make your responses. </p>","0","","instructions","","",""
"html-keyboard-response","18","120021","0.0-11.0-0.0","5577","approach_avoid_sv1","""event"",""trial"",""time""
""fullscreenenter"",""1"",""10757""
","
","
","""event"",""trial"",""time""
""fullscreenenter"",""1"",""10757""
","
","","","","","","null","<div style=""font-size:60px;"">+</div>","null","","fixation","","",""
"memory-trial","19","123814","0.0-11.0-1.0","5577","approach_avoid_sv1","""event"",""trial"",""time""
""fullscreenenter"",""1"",""10757""
","
","
","""event"",""trial"",""time""
""fullscreenenter"",""1"",""10757""
","
","","","","","","2780.7000000476837","images/racket5.png","","","practice","2","maybe_old",""
"html-keyboard-response","20","124316","0.0-11.0-0.1","5577","approach_avoid_sv1","""event"",""trial"",""time""
""fullscreenenter"",""1"",""10757""
","
","
","""event"",""trial"",""time""
""fullscreenenter"",""1"",""10757""
","
","","","","","","null","<div style=""font-size:60px;"">+</div>","null","","fixation","","",""
"memory-trial","21","126589","0.0-11.0-1.1","5577","approach_avoid_sv1","""event"",""trial"",""time""
""fullscreenenter"",""1"",""10757""
","
","
","""event"",""trial"",""time""
""fullscreenenter"",""1"",""10757""
","
","","","","","","1263.8999998569489","images/racket2.png","","","practice","2","maybe_old",""
"html-keyboard-response","22","127092","0.0-11.0-0.2","5577","approach_avoid_sv1","""event"",""trial"",""time""
""fullscreenenter"",""1"",""10757""
","
","
","""event"",""trial"",""time""
""fullscreenenter"",""1"",""10757""
","
","","","","","","null","<div style=""font-size:60px;"">+</div>","null","","fixation","","",""
"memory-trial","23","131085","0.0-11.0-1.2","5577","approach_avoid_sv1","""event"",""trial"",""time""
""fullscreenenter"",""1"",""10757""
","
","
","""event"",""trial"",""time""
""fullscreenenter"",""1"",""10757""
","
","","","","","","2982.899999856949","images/ball1.png","","","practice","2","maybe_old",""
"html-keyboard-response","24","131590","0.0-11.0-0.3","5577","approach_avoid_sv1","""event"",""trial"",""time""
""fullscreenenter"",""1"",""10757""
","
","
","""event"",""trial"",""time""
""fullscreenenter"",""1"",""10757""
","
","","","","","","null","<div style=""font-size:60px;"">+</div>","null","","fixation","","",""
"memory-trial","25","135101","0.0-11.0-1.3","5577","approach_avoid_sv1","""event"",""trial"",""time""
""fullscreenenter"",""1"",""10757""
","
","
","""event"",""trial"",""time""
""fullscreenenter"",""1"",""10757""
","
","","","","","","2500.5","images/racket3.png","","","practice","4","definitely_new",""
"html-keyboard-response","26","135605","0.0-11.0-0.4","5577","approach_avoid_sv1","""event"",""trial"",""time""
""fullscreenenter"",""1"",""10757""
","
","
","""event"",""trial"",""time""
""fullscreenenter"",""1"",""10757""
","
","","","","","","null","<div style=""font-size:60px;"">+</div>","null","","fixation","","",""
"memory-trial","27","139628","0.0-11.0-1.4","5577","approach_avoid_sv1","""event"",""trial"",""time""
""fullscreenenter"",""1"",""10757""
","
","
","""event"",""trial"",""time""
""fullscreenenter"",""1"",""10757""
","
","","","","","","3019.2000000476837","images/ball3.png","","","practice","3","maybe_new",""
"html-keyboard-response","28","140133","0.0-11.0-0.5","5577","approach_avoid_sv1","""event"",""trial"",""time""
""fullscreenenter"",""1"",""10757""
","
","
","""event"",""trial"",""time""
""fullscreenenter"",""1"",""10757""
","
","","","","","","null","<div style=""font-size:60px;"">+</div>","null","","fixation","","",""
"memory-trial","29","142247","0.0-11.0-1.5","5577","approach_avoid_sv1","""event"",""trial"",""time""
""fullscreenenter"",""1"",""10757""
","
","
","""event"",""trial"",""time""
""fullscreenenter"",""1"",""10757""
","
","","","","","","1105.8999998569489","images/racket1.png","","","practice","3","maybe_new",""
"html-keyboard-response","30","142759","0.0-11.0-0.6","5577","approach_avoid_sv1","""event"",""trial"",""time""
""fullscreenenter"",""1"",""10757""
","
","
","""event"",""trial"",""time""
""fullscreenenter"",""1"",""10757""
","
","","","","","","null","<div style=""font-size:60px;"">+</div>","null","","fixation","","",""
"memory-trial","31","145503","0.0-11.0-1.6","5577","approach_avoid_sv1","""event"",""trial"",""time""
""fullscreenenter"",""1"",""10757""
","
","
","""event"",""trial"",""time""
""fullscreenenter"",""1"",""10757""
","
","","","","","","1729.7000000476837","images/ball2.png","","","practice","2","maybe_old",""
"html-keyboard-response","32","146014","0.0-11.0-0.7","5577","approach_avoid_sv1","""event"",""trial"",""time""
""fullscreenenter"",""1"",""10757""
","
","
","""event"",""trial"",""time""
""fullscreenenter"",""1"",""10757""
","
","","","","","","null","<div style=""font-size:60px;"">+</div>","null","","fixation","","",""
"memory-trial","33","149391","0.0-11.0-1.7","5577","approach_avoid_sv1","""event"",""trial"",""time""
""fullscreenenter"",""1"",""10757""
","
","
","""event"",""trial"",""time""
""fullscreenenter"",""1"",""10757""
","
","","","","","","2370.5","images/ball5.png","","","practice","2","maybe_old",""
"learning-instructions","34","159262","0.0-12.0-0.0","5577","approach_avoid_sv1","""event"",""trial"",""time""
""fullscreenenter"",""1"",""10757""
","
","
","""event"",""trial"",""time""
""fullscreenenter"",""1"",""10757""
","
","","","","","","2507.5","<p> Great! You have completed the practice. </p><p> Before you start, we're going to ask you a few questions about how the game works.  </p>","","0","instructions","","",""
"preload","35","161370","0.0-13.0","5577","approach_avoid_sv1","""event"",""trial"",""time""
""fullscreenenter"",""1"",""10757""
","
","
","""event"",""trial"",""time""
""fullscreenenter"",""1"",""10757""
","
","true","false","[]","[]","[]","","","","","","","",""
"comp-q","36","168012","0.0-14.0-0.0","5577","approach_avoid_sv1","""event"",""trial"",""time""
""fullscreenenter"",""1"",""10757""
","
","
","""event"",""trial"",""time""
""fullscreenenter"",""1"",""10757""
","
","","","","","","818.4000000953674","<p> <b> True or False? </b> </p><p> In this game, you will only see each image once. </p>","","0","comp_question","","","true"
"comp-q","37","179144","0.0-14.0-1.0","5577","approach_avoid_sv1","""event"",""trial"",""time""
""fullscreenenter"",""1"",""10757""
","
","
","""event"",""trial"",""time""
""fullscreenenter"",""1"",""10757""
","
","","","","","","4788.699999809265","<p> <b> That's right! </b> You will see many different images <i> one time each </i> in this game. </p>","","0","comp_answer","","",""
"comp-q","38","187429","0.0-15.0-0.0","5577","approach_avoid_sv1","""event"",""trial"",""time""
""fullscreenenter"",""1"",""10757""
","
","
","""event"",""trial"",""time""
""fullscreenenter"",""1"",""10757""
","
","","","","","","3274.2999999523163","<p> <b> True or False? </b> </p><p> You should use the mouse and click to make your response. </p>","","1","comp_question","","","true"
"comp-q","39","199378","0.0-15.0-1.0","5577","approach_avoid_sv1","""event"",""trial"",""time""
""fullscreenenter"",""1"",""10757""
","
","
","""event"",""trial"",""time""
""fullscreenenter"",""1"",""10757""
","
","","","","","","5443.200000047684","<p><b> That's right! </b> You should use the '1', '2', '3', and '4' keys to make your response. </p>","","0","comp_answer","","",""
"comp-q","40","207766","0.0-16.0-0.0","5577","approach_avoid_sv1","""event"",""trial"",""time""
""fullscreenenter"",""1"",""10757""
","
","
","""event"",""trial"",""time""
""fullscreenenter"",""1"",""10757""
","
","","","","","","2711.5","<p> <b> True or False? </b> </p><p> You will have as much time as you want to make each choice. </p>","","1","comp_question","","","true"
"comp-q","41","213678","0.0-16.0-1.0","5577","approach_avoid_sv1","""event"",""trial"",""time""
""fullscreenenter"",""1"",""10757""
","
","
","""event"",""trial"",""time""
""fullscreenenter"",""1"",""10757""
","
","","","","","","1223.2999999523163","<p> <b> That's right! </b> You will only have 10 seconds to make each choice. </p>","","0","comp_answer","","",""
"learning-instructions","42","223988","0.0-17.0","5577","approach_avoid_sv1","""event"",""trial"",""time""
""fullscreenenter"",""1"",""10757""
","
","
","""event"",""trial"",""time""
""fullscreenenter"",""1"",""10757""
","
","","","","","","1633","<p> Great! You are now ready to begin the game. </p><p> Remember, use the 1, 2, 3, and 4 keys to make your responses. </p>","","0","instructions","","",""
"html-keyboard-response","43","224597","0.0-18.0-0.0","5577","approach_avoid_sv1","""event"",""trial"",""time""
""fullscreenenter"",""1"",""10757""
","
","
","""event"",""trial"",""time""
""fullscreenenter"",""1"",""10757""
","
","","","","","","null","<div style=""font-size:60px;"">+</div>","null","","fixation","","",""
"memory-trial","44","228095","0.0-18.0-1.0","5577","approach_avoid_sv1","""event"",""trial"",""time""
""fullscreenenter"",""1"",""10757""
","
","
","""event"",""trial"",""time""
""fullscreenenter"",""1"",""10757""
","
","","","","","","2486.4000000953674","images/bed6.png","","","memory_trial","4","definitely_new",""
"html-keyboard-response","45","228605","0.0-18.0-0.1","5577","approach_avoid_sv1","""event"",""trial"",""time""
""fullscreenenter"",""1"",""10757""
","
","
","""event"",""trial"",""time""
""fullscreenenter"",""1"",""10757""
","
","","","","","","null","<div style=""font-size:60px;"">+</div>","null","","fixation","","",""
"memory-trial","46","234598","0.0-18.0-1.1","5577","approach_avoid_sv1","""event"",""trial"",""time""
""fullscreenenter"",""1"",""10757""
","
","
","""event"",""trial"",""time""
""fullscreenenter"",""1"",""10757""
","
","","","","","","4987.799999952316","images/orange2.png","","","memory_trial","2","maybe_old",""
"html-keyboard-response","47","235103","0.0-18.0-0.2","5577","approach_avoid_sv1","""event"",""trial"",""time""
""fullscreenenter"",""1"",""10757""
","
","
","""event"",""trial"",""time""
""fullscreenenter"",""1"",""10757""
","
","","","","","","null","<div style=""font-size:60px;"">+</div>","null","","fixation","","",""
"memory-trial","48","237957","0.0-18.0-1.2","5577","approach_avoid_sv1","""event"",""trial"",""time""
""fullscreenenter"",""1"",""10757""
","
","
","""event"",""trial"",""time""
""fullscreenenter"",""1"",""10757""
","
","","","","","","1844.8999998569489","images/rabbit6.png","","","memory_trial","2","maybe_old",""
"html-keyboard-response","49","238463","0.0-18.0-0.3","5577","approach_avoid_sv1","""event"",""trial"",""time""
""fullscreenenter"",""1"",""10757""
","
","
","""event"",""trial"",""time""
""fullscreenenter"",""1"",""10757""
","
","","","","","","null","<div style=""font-size:60px;"">+</div>","null","","fixation","","",""
"memory-trial","50","241588","0.0-18.0-1.3","5577","approach_avoid_sv1","""event"",""trial"",""time""
""fullscreenenter"",""1"",""10757""
","
","
","""event"",""trial"",""time""
""fullscreenenter"",""1"",""10757""
","
","","","","","","2119.5","images/plane5.png","","","memory_trial","3","maybe_new",""
"html-keyboard-response","51","242091","0.0-18.0-0.4","5577","approach_avoid_sv1","""event"",""trial"",""time""
""fullscreenenter"",""1"",""10757""
","
","
","""event"",""trial"",""time""
""fullscreenenter"",""1"",""10757""
","
","","","","","","null","<div style=""font-size:60px;"">+</div>","null","","fixation","","",""
"memory-trial","52","244260","0.0-18.0-1.4","5577","approach_avoid_sv1","""event"",""trial"",""time""
""fullscreenenter"",""1"",""10757""
","
","
","""event"",""trial"",""time""
""fullscreenenter"",""1"",""10757""
","
","","","","","","1158.5","images/straw5.png","","","memory_trial","4","definitely_new",""
"html-keyboard-response","53","244763","0.0-18.0-0.5","5577","approach_avoid_sv1","""event"",""trial"",""time""
""fullscreenenter"",""1"",""10757""
","
","
","""event"",""trial"",""time""
""fullscreenenter"",""1"",""10757""
","
","","","","","","null","<div style=""font-size:60px;"">+</div>","null","","fixation","","",""
"memory-trial","54","248621","0.0-18.0-1.5","5577","approach_avoid_sv1","""event"",""trial"",""time""
""fullscreenenter"",""1"",""10757""
","
","
","""event"",""trial"",""time""
""fullscreenenter"",""1"",""10757""
","
","","","","","","2846.7999999523163","images/bed3.png","","","memory_trial","3","maybe_new",""
"html-keyboard-response","55","249124","0.0-18.0-0.6","5577","approach_avoid_sv1","""event"",""trial"",""time""
""fullscreenenter"",""1"",""10757""
","
","
","""event"",""trial"",""time""
""fullscreenenter"",""1"",""10757""
","
","","","","","","null","<div style=""font-size:60px;"">+</div>","null","","fixation","","",""
"memory-trial","56","251883","0.0-18.0-1.6","5577","approach_avoid_sv1","""event"",""trial"",""time""
""fullscreenenter"",""1"",""10757""
","
","
","""event"",""trial"",""time""
""fullscreenenter"",""1"",""10757""
","
","","","","","","1750.2000000476837","images/plane2.png","","","memory_trial","1","definitely_old",""
"html-keyboard-response","57","252388","0.0-18.0-0.7","5577","approach_avoid_sv1","""event"",""trial"",""time""
""fullscreenenter"",""1"",""10757""
","
","
","""event"",""trial"",""time""
""fullscreenenter"",""1"",""10757""
","
","","","","","","null","<div style=""font-size:60px;"">+</div>","null","","fixation","","",""
"memory-trial","58","254319","0.0-18.0-1.7","5577","approach_avoid_sv1","""event"",""trial"",""time""
""fullscreenenter"",""1"",""10757""
","
","
","""event"",""trial"",""time""
""fullscreenenter"",""1"",""10757""
","
","","","","","","922.5999999046326","images/truck8.png","","","memory_trial","1","definitely_old",""
"html-keyboard-response","59","254837","0.0-18.0-0.8","5577","approach_avoid_sv1","""event"",""trial"",""time""
""fullscreenenter"",""1"",""10757""
","
","
","""event"",""trial"",""time""
""fullscreenenter"",""1"",""10757""
","
","","","","","","null","<div style=""font-size:60px;"">+</div>","null","","fixation","","",""
"memory-trial","60","257279","0.0-18.0-1.8","5577","approach_avoid_sv1","""event"",""trial"",""time""
""fullscreenenter"",""1"",""10757""
","
","
","""event"",""trial"",""time""
""fullscreenenter"",""1"",""10757""
","
","","","","","","1434.7000000476837","images/tree7.png","","","memory_trial","2","maybe_old",""
"html-keyboard-response","61","257795","0.0-18.0-0.9","5577","approach_avoid_sv1","""event"",""trial"",""time""
""fullscreenenter"",""1"",""10757""
","
","
","""event"",""trial"",""time""
""fullscreenenter"",""1"",""10757""
","
","","","","","","null","<div style=""font-size:60px;"">+</div>","null","","fixation","","",""
"memory-trial","62","260797","0.0-18.0-1.9","5577","approach_avoid_sv1","""event"",""trial"",""time""
""fullscreenenter"",""1"",""10757""
","
","
","""event"",""trial"",""time""
""fullscreenenter"",""1"",""10757""
","
","","","","","","1984","images/cow4.png","","","memory_trial","3","maybe_new",""
"html-keyboard-response","63","261301","0.0-18.0-0.10","5577","approach_avoid_sv1","""event"",""trial"",""time""
""fullscreenenter"",""1"",""10757""
","
","
","""event"",""trial"",""time""
""fullscreenenter"",""1"",""10757""
","
","","","","","","null","<div style=""font-size:60px;"">+</div>","null","","fixation","","",""
"memory-trial","64","263947","0.0-18.0-1.10","5577","approach_avoid_sv1","""event"",""trial"",""time""
""fullscreenenter"",""1"",""10757""
","
","
","""event"",""trial"",""time""
""fullscreenenter"",""1"",""10757""
","
","","","","","","1633.2999999523163","images/train3.png","","","memory_trial","2","maybe_old",""
"html-keyboard-response","65","264455","0.0-18.0-0.11","5577","approach_avoid_sv1","""event"",""trial"",""time""
""fullscreenenter"",""1"",""10757""
","
","
","""event"",""trial"",""time""
""fullscreenenter"",""1"",""10757""
","
","","","","","","null","<div style=""font-size:60px;"">+</div>","null","","fixation","","",""
"memory-trial","66","268010","0.0-18.0-1.11","5577","approach_avoid_sv1","""event"",""trial"",""time""
""fullscreenenter"",""1"",""10757""
","
","
","""event"",""trial"",""time""
""fullscreenenter"",""1"",""10757""
","
","","","","","","2540.300000190735","images/straw7.png","","","memory_trial","4","definitely_new",""
"html-keyboard-response","67","268517","0.0-18.0-0.12","5577","approach_avoid_sv1","""event"",""trial"",""time""
""fullscreenenter"",""1"",""10757""
","
","
","""event"",""trial"",""time""
""fullscreenenter"",""1"",""10757""
","
","","","","","","null","<div style=""font-size:60px;"">+</div>","null","","fixation","","",""
"memory-trial","68","271038","0.0-18.0-1.12","5577","approach_avoid_sv1","""event"",""trial"",""time""
""fullscreenenter"",""1"",""10757""
","
","
","""event"",""trial"",""time""
""fullscreenenter"",""1"",""10757""
","
","","","","","","1511.0999999046326","images/train8.png","","","memory_trial","1","definitely_old",""
"html-keyboard-response","69","271554","0.0-18.0-0.13","5577","approach_avoid_sv1","""event"",""trial"",""time""
""fullscreenenter"",""1"",""10757""
","
","
","""event"",""trial"",""time""
""fullscreenenter"",""1"",""10757""
","
","","","","","","null","<div style=""font-size:60px;"">+</div>","null","","fixation","","",""
"memory-trial","70","274211","0.0-18.0-1.13","5577","approach_avoid_sv1","""event"",""trial"",""time""
""fullscreenenter"",""1"",""10757""
","
","
","""event"",""trial"",""time""
""fullscreenenter"",""1"",""10757""
","
","","","","","","1647.5","images/bed4.png","","","memory_trial","2","maybe_old",""
"html-keyboard-response","71","274721","0.0-18.0-0.14","5577","approach_avoid_sv1","""event"",""trial"",""time""
""fullscreenenter"",""1"",""10757""
","
","
","""event"",""trial"",""time""
""fullscreenenter"",""1"",""10757""
","
","","","","","","null","<div style=""font-size:60px;"">+</div>","null","","fixation","","",""
"memory-trial","72","276753","0.0-18.0-1.14","5577","approach_avoid_sv1","""event"",""trial"",""time""
""fullscreenenter"",""1"",""10757""
","
","
","""event"",""trial"",""time""
""fullscreenenter"",""1"",""10757""
","
","","","","","","1015.7999999523163","images/cow6.png","","","memory_trial","3","maybe_new",""
"html-keyboard-response","73","277269","0.0-18.0-0.15","5577","approach_avoid_sv1","""event"",""trial"",""time""
""fullscreenenter"",""1"",""10757""
","
","
","""event"",""trial"",""time""
""fullscreenenter"",""1"",""10757""
","
","","","","","","null","<div style=""font-size:60px;"">+</div>","null","","fixation","","",""
"memory-trial","74","279729","0.0-18.0-1.15","5577","approach_avoid_sv1","""event"",""trial"",""time""
""fullscreenenter"",""1"",""10757""
","
","
","""event"",""trial"",""time""
""fullscreenenter"",""1"",""10757""
","
","","","","","","1449.5999999046326","images/flower2.png","","","memory_trial","1","definitely_old",""
"html-keyboard-response","75","280243","0.0-18.0-0.16","5577","approach_avoid_sv1","""event"",""trial"",""time""
""fullscreenenter"",""1"",""10757""
","
","
","""event"",""trial"",""time""
""fullscreenenter"",""1"",""10757""
","
","","","","","","null","<div style=""font-size:60px;"">+</div>","null","","fixation","","",""
"memory-trial","76","282487","0.0-18.0-1.16","5577","approach_avoid_sv1","""event"",""trial"",""time""
""fullscreenenter"",""1"",""10757""
","
","
","""event"",""trial"",""time""
""fullscreenenter"",""1"",""10757""
","
","","","","","","1233.7999999523163","images/orange8.png","","","memory_trial","1","definitely_old",""
"html-keyboard-response","77","282999","0.0-18.0-0.17","5577","approach_avoid_sv1","""event"",""trial"",""time""
""fullscreenenter"",""1"",""10757""
","
","
","""event"",""trial"",""time""
""fullscreenenter"",""1"",""10757""
","
","","","","","","null","<div style=""font-size:60px;"">+</div>","null","","fixation","","",""
"memory-trial","78","285660","0.0-18.0-1.17","5577","approach_avoid_sv1","""event"",""trial"",""time""
""fullscreenenter"",""1"",""10757""
","
","
","""event"",""trial"",""time""
""fullscreenenter"",""1"",""10757""
","
","","","","","","1655","images/cow8.png","","","memory_trial","3","maybe_new",""
"html-keyboard-response","79","286178","0.0-18.0-0.18","5577","approach_avoid_sv1","""event"",""trial"",""time""
""fullscreenenter"",""1"",""10757""
","
","
","""event"",""trial"",""time""
""fullscreenenter"",""1"",""10757""
","
","","","","","","null","<div style=""font-size:60px;"">+</div>","null","","fixation","","",""
"memory-trial","80","288831","0.0-18.0-1.18","5577","approach_avoid_sv1","""event"",""trial"",""time""
""fullscreenenter"",""1"",""10757""
","
","
","""event"",""trial"",""time""
""fullscreenenter"",""1"",""10757""
","
","","","","","","1642.5","images/rodent4.png","","","memory_trial","1","definitely_old",""
"html-keyboard-response","81","289352","0.0-18.0-0.19","5577","approach_avoid_sv1","""event"",""trial"",""time""
""fullscreenenter"",""1"",""10757""
","
","
","""event"",""trial"",""time""
""fullscreenenter"",""1"",""10757""
","
","","","","","","null","<div style=""font-size:60px;"">+</div>","null","","fixation","","",""
"memory-trial","82","297821","0.0-18.0-1.19","5577","approach_avoid_sv1","""event"",""trial"",""time""
""fullscreenenter"",""1"",""10757""
","
","
","""event"",""trial"",""time""
""fullscreenenter"",""1"",""10757""
","
","","","","","","7463.299999952316","images/bush6.png","","","memory_trial","3","maybe_new",""
"html-keyboard-response","83","298334","0.0-18.0-0.20","5577","approach_avoid_sv1","""event"",""trial"",""time""
""fullscreenenter"",""1"",""10757""
","
","
","""event"",""trial"",""time""
""fullscreenenter"",""1"",""10757""
","
","","","","","","null","<div style=""font-size:60px;"">+</div>","null","","fixation","","",""
"memory-trial","84","300832","0.0-18.0-1.20","5577","approach_avoid_sv1","""event"",""trial"",""time""
""fullscreenenter"",""1"",""10757""
","
","
","""event"",""trial"",""time""
""fullscreenenter"",""1"",""10757""
","
","","","","","","1487.3999998569489","images/table3.png","","","memory_trial","4","definitely_new",""
"html-keyboard-response","85","301342","0.0-18.0-0.21","5577","approach_avoid_sv1","""event"",""trial"",""time""
""fullscreenenter"",""1"",""10757""
","
","
","""event"",""trial"",""time""
""fullscreenenter"",""1"",""10757""
","
","","","","","","null","<div style=""font-size:60px;"">+</div>","null","","fixation","","",""
"memory-trial","86","303336","0.0-18.0-1.21","5577","approach_avoid_sv1","""event"",""trial"",""time""
""fullscreenenter"",""1"",""10757""
","
","
","""event"",""trial"",""time""
""fullscreenenter"",""1"",""10757""
","
","","","","","","975","images/straw8.png","","","memory_trial","4","definitely_new",""
"html-keyboard-response","87","303845","0.0-18.0-0.22","5577","approach_avoid_sv1","""event"",""trial"",""time""
""fullscreenenter"",""1"",""10757""
","
","
","""event"",""trial"",""time""
""fullscreenenter"",""1"",""10757""
","
","","","","","","null","<div style=""font-size:60px;"">+</div>","null","","fixation","","",""
"memory-trial","88","307657","0.0-18.0-1.22","5577","approach_avoid_sv1","""event"",""trial"",""time""
""fullscreenenter"",""1"",""10757""
","
","
","""event"",""trial"",""time""
""fullscreenenter"",""1"",""10757""
","
","","","","","","2797.7000000476837","images/sheep1.png","","","memory_trial","3","maybe_new",""
"html-keyboard-response","89","308164","0.0-18.0-0.23","5577","approach_avoid_sv1","""event"",""trial"",""time""
""fullscreenenter"",""1"",""10757""
","
","
","""event"",""trial"",""time""
""fullscreenenter"",""1"",""10757""
","
","","","","","","null","<div style=""font-size:60px;"">+</div>","null","","fixation","","",""
"memory-trial","90","310204","0.0-18.0-1.23","5577","approach_avoid_sv1","""event"",""trial"",""time""
""fullscreenenter"",""1"",""10757""
","
","
","""event"",""trial"",""time""
""fullscreenenter"",""1"",""10757""
","
","","","","","","1025","images/bed7.png","","","memory_trial","3","maybe_new",""
"html-keyboard-response","91","310710","0.0-18.0-0.24","5577","approach_avoid_sv1","""event"",""trial"",""time""
""fullscreenenter"",""1"",""10757""
","
","
","""event"",""trial"",""time""
""fullscreenenter"",""1"",""10757""
","
","","","","","","null","<div style=""font-size:60px;"">+</div>","null","","fixation","","",""
"memory-trial","92","315268","0.0-18.0-1.24","5577","approach_avoid_sv1","""event"",""trial"",""time""
""fullscreenenter"",""1"",""10757""
","
","
","""event"",""trial"",""time""
""fullscreenenter"",""1"",""10757""
","
","","","","","","3544.4000000953674","images/table1.png","","","memory_trial","3","maybe_new",""
"html-keyboard-response","93","315777","0.0-18.0-0.25","5577","approach_avoid_sv1","""event"",""trial"",""time""
""fullscreenenter"",""1"",""10757""
","
","
","""event"",""trial"",""time""
""fullscreenenter"",""1"",""10757""
","
","","","","","","null","<div style=""font-size:60px;"">+</div>","null","","fixation","","",""
"memory-trial","94","320024","0.0-18.0-1.25","5577","approach_avoid_sv1","""event"",""trial"",""time""
""fullscreenenter"",""1"",""10757""
","
","
","""event"",""trial"",""time""
""fullscreenenter"",""1"",""10757""
","
","","","","","","3237.5","images/dog7.png","","","memory_trial","3","maybe_new",""
"html-keyboard-response","95","320533","0.0-18.0-0.26","5577","approach_avoid_sv1","""event"",""trial"",""time""
""fullscreenenter"",""1"",""10757""
","
","
","""event"",""trial"",""time""
""fullscreenenter"",""1"",""10757""
","
","","","","","","null","<div style=""font-size:60px;"">+</div>","null","","fixation","","",""
"memory-trial","96","322574","0.0-18.0-1.26","5577","approach_avoid_sv1","""event"",""trial"",""time""
""fullscreenenter"",""1"",""10757""
","
","
","""event"",""trial"",""time""
""fullscreenenter"",""1"",""10757""
","
","","","","","","1033.4000000953674","images/truck3.png","","","memory_trial","4","definitely_new",""
"html-keyboard-response","97","323080","0.0-18.0-0.27","5577","approach_avoid_sv1","""event"",""trial"",""time""
""fullscreenenter"",""1"",""10757""
","
","
","""event"",""trial"",""time""
""fullscreenenter"",""1"",""10757""
","
","","","","","","null","<div style=""font-size:60px;"">+</div>","null","","fixation","","",""
"memory-trial","98","324973","0.0-18.0-1.27","5577","approach_avoid_sv1","""event"",""trial"",""time""
""fullscreenenter"",""1"",""10757""
","
","
","""event"",""trial"",""time""
""fullscreenenter"",""1"",""10757""
","
","","","","","","885.7000000476837","images/boat2.png","","","memory_trial","4","definitely_new",""
"html-keyboard-response","99","325481","0.0-18.0-0.28","5577","approach_avoid_sv1","""event"",""trial"",""time""
""fullscreenenter"",""1"",""10757""
","
","
","""event"",""trial"",""time""
""fullscreenenter"",""1"",""10757""
","
","","","","","","null","<div style=""font-size:60px;"">+</div>","null","","fixation","","",""
"memory-trial","100","327707","0.0-18.0-1.28","5577","approach_avoid_sv1","""event"",""trial"",""time""
""fullscreenenter"",""1"",""10757""
","
","
","""event"",""trial"",""time""
""fullscreenenter"",""1"",""10757""
","
","","","","","","1215.7000000476837","images/chair5.png","","","memory_trial","2","maybe_old",""
"html-keyboard-response","101","328223","0.0-18.0-0.29","5577","approach_avoid_sv1","""event"",""trial"",""time""
""fullscreenenter"",""1"",""10757""
","
","
","""event"",""trial"",""time""
""fullscreenenter"",""1"",""10757""
","
","","","","","","null","<div style=""font-size:60px;"">+</div>","null","","fixation","","",""
"memory-trial","102","330344","0.0-18.0-1.29","5577","approach_avoid_sv1","""event"",""trial"",""time""
""fullscreenenter"",""1"",""10757""
","
","
","""event"",""trial"",""time""
""fullscreenenter"",""1"",""10757""
","
","","","","","","1109.5999999046326","images/flower5.png","","","memory_trial","2","maybe_old",""
"html-keyboard-response","103","330854","0.0-18.0-0.30","5577","approach_avoid_sv1","""event"",""trial"",""time""
""fullscreenenter"",""1"",""10757""
","
","
","""event"",""trial"",""time""
""fullscreenenter"",""1"",""10757""
","
","","","","","","null","<div style=""font-size:60px;"">+</div>","null","","fixation","","",""
"memory-trial","104","333203","0.0-18.0-1.30","5577","approach_avoid_sv1","""event"",""trial"",""time""
""fullscreenenter"",""1"",""10757""
","
","
","""event"",""trial"",""time""
""fullscreenenter"",""1"",""10757""
","
","","","","","","1335.5","images/sheep7.png","","","memory_trial","1","definitely_old",""
"html-keyboard-response","105","333719","0.0-18.0-0.31","5577","approach_avoid_sv1","""event"",""trial"",""time""
""fullscreenenter"",""1"",""10757""
","
","
","""event"",""trial"",""time""
""fullscreenenter"",""1"",""10757""
","
","","","","","","null","<div style=""font-size:60px;"">+</div>","null","","fixation","","",""
"memory-trial","106","335727","0.0-18.0-1.31","5577","approach_avoid_sv1","""event"",""trial"",""time""
""fullscreenenter"",""1"",""10757""
","
","
","""event"",""trial"",""time""
""fullscreenenter"",""1"",""10757""
","
","","","","","","991.3999998569489","images/apple5.png","","","memory_trial","4","definitely_new",""
"html-keyboard-response","107","336243","0.0-18.0-0.32","5577","approach_avoid_sv1","""event"",""trial"",""time""
""fullscreenenter"",""1"",""10757""
","
","
","""event"",""trial"",""time""
""fullscreenenter"",""1"",""10757""
","
","","","","","","null","<div style=""font-size:60px;"">+</div>","null","","fixation","","",""
"memory-trial","108","338299","0.0-18.0-1.32","5577","approach_avoid_sv1","""event"",""trial"",""time""
""fullscreenenter"",""1"",""10757""
","
","
","""event"",""trial"",""time""
""fullscreenenter"",""1"",""10757""
","
","","","","","","1039.5","images/sofa4.png","","","memory_trial","4","definitely_new",""
"html-keyboard-response","109","338805","0.0-18.0-0.33","5577","approach_avoid_sv1","""event"",""trial"",""time""
""fullscreenenter"",""1"",""10757""
","
","
","""event"",""trial"",""time""
""fullscreenenter"",""1"",""10757""
","
","","","","","","null","<div style=""font-size:60px;"">+</div>","null","","fixation","","",""
"memory-trial","110","340862","0.0-18.0-1.33","5577","approach_avoid_sv1","""event"",""trial"",""time""
""fullscreenenter"",""1"",""10757""
","
","
","""event"",""trial"",""time""
""fullscreenenter"",""1"",""10757""
","
","","","","","","1040.2000000476837","images/truck1.png","","","memory_trial","3","maybe_new",""
"html-keyboard-response","111","341370","0.0-18.0-0.34","5577","approach_avoid_sv1","""event"",""trial"",""time""
""fullscreenenter"",""1"",""10757""
","
","
","""event"",""trial"",""time""
""fullscreenenter"",""1"",""10757""
","
","","","","","","null","<div style=""font-size:60px;"">+</div>","null","","fixation","","",""
"memory-trial","112","343320","0.0-18.0-1.34","5577","approach_avoid_sv1","""event"",""trial"",""time""
""fullscreenenter"",""1"",""10757""
","
","
","""event"",""trial"",""time""
""fullscreenenter"",""1"",""10757""
","
","","","","","","937.5","images/straw1.png","","","memory_trial","3","maybe_new",""
"html-keyboard-response","113","343837","0.0-18.0-0.35","5577","approach_avoid_sv1","""event"",""trial"",""time""
""fullscreenenter"",""1"",""10757""
","
","
","""event"",""trial"",""time""
""fullscreenenter"",""1"",""10757""
","
","","","","","","null","<div style=""font-size:60px;"">+</div>","null","","fixation","","",""
"memory-trial","114","346251","0.0-18.0-1.35","5577","approach_avoid_sv1","""event"",""trial"",""time""
""fullscreenenter"",""1"",""10757""
","
","
","""event"",""trial"",""time""
""fullscreenenter"",""1"",""10757""
","
","","","","","","1400.8000001907349","images/rodent6.png","","","memory_trial","2","maybe_old",""
"html-keyboard-response","115","346756","0.0-18.0-0.36","5577","approach_avoid_sv1","""event"",""trial"",""time""
""fullscreenenter"",""1"",""10757""
","
","
","""event"",""trial"",""time""
""fullscreenenter"",""1"",""10757""
","
","","","","","","null","<div style=""font-size:60px;"">+</div>","null","","fixation","","",""
"memory-trial","116","349129","0.0-18.0-1.36","5577","approach_avoid_sv1","""event"",""trial"",""time""
""fullscreenenter"",""1"",""10757""
","
","
","""event"",""trial"",""time""
""fullscreenenter"",""1"",""10757""
","
","","","","","","1359.3999998569489","images/orange6.png","","","memory_trial","2","maybe_old",""
"html-keyboard-response","117","349644","0.0-18.0-0.37","5577","approach_avoid_sv1","""event"",""trial"",""time""
""fullscreenenter"",""1"",""10757""
","
","
","""event"",""trial"",""time""
""fullscreenenter"",""1"",""10757""
","
","","","","","","null","<div style=""font-size:60px;"">+</div>","null","","fixation","","",""
"memory-trial","118","351564","0.0-18.0-1.37","5577","approach_avoid_sv1","""event"",""trial"",""time""
""fullscreenenter"",""1"",""10757""
","
","
","""event"",""trial"",""time""
""fullscreenenter"",""1"",""10757""
","
","","","","","","907.1000001430511","images/sofa5.png","","","memory_trial","3","maybe_new",""
"html-keyboard-response","119","352070","0.0-18.0-0.38","5577","approach_avoid_sv1","""event"",""trial"",""time""
""fullscreenenter"",""1"",""10757""
","
","
","""event"",""trial"",""time""
""fullscreenenter"",""1"",""10757""
","
","","","","","","null","<div style=""font-size:60px;"">+</div>","null","","fixation","","",""
"memory-trial","120","353757","0.0-18.0-1.38","5577","approach_avoid_sv1","""event"",""trial"",""time""
""fullscreenenter"",""1"",""10757""
","
","
","""event"",""trial"",""time""
""fullscreenenter"",""1"",""10757""
","
","","","","","","684.8999998569489","images/cow7.png","","","memory_trial","3","maybe_new",""
"html-keyboard-response","121","354267","0.0-18.0-0.39","5577","approach_avoid_sv1","""event"",""trial"",""time""
""fullscreenenter"",""1"",""10757""
","
","
","""event"",""trial"",""time""
""fullscreenenter"",""1"",""10757""
","
","","","","","","null","<div style=""font-size:60px;"">+</div>","null","","fixation","","",""
"memory-trial","122","356186","0.0-18.0-1.39","5577","approach_avoid_sv1","""event"",""trial"",""time""
""fullscreenenter"",""1"",""10757""
","
","
","""event"",""trial"",""time""
""fullscreenenter"",""1"",""10757""
","
","","","","","","909","images/rabbit1.png","","","memory_trial","2","maybe_old",""
"html-keyboard-response","123","356702","0.0-18.0-0.40","5577","approach_avoid_sv1","""event"",""trial"",""time""
""fullscreenenter"",""1"",""10757""
","
","
","""event"",""trial"",""time""
""fullscreenenter"",""1"",""10757""
","
","","","","","","null","<div style=""font-size:60px;"">+</div>","null","","fixation","","",""
"memory-trial","124","358987","0.0-18.0-1.40","5577","approach_avoid_sv1","""event"",""trial"",""time""
""fullscreenenter"",""1"",""10757""
","
","
","""event"",""trial"",""time""
""fullscreenenter"",""1"",""10757""
","
","","","","","","1275.1000001430511","images/cow3.png","","","memory_trial","3","maybe_new",""
"html-keyboard-response","125","359495","0.0-18.0-0.41","5577","approach_avoid_sv1","""event"",""trial"",""time""
""fullscreenenter"",""1"",""10757""
","
","
","""event"",""trial"",""time""
""fullscreenenter"",""1"",""10757""
","
","","","","","","null","<div style=""font-size:60px;"">+</div>","null","","fixation","","",""
"memory-trial","126","361569","0.0-18.0-1.41","5577","approach_avoid_sv1","""event"",""trial"",""time""
""fullscreenenter"",""1"",""10757""
","
","
","""event"",""trial"",""time""
""fullscreenenter"",""1"",""10757""
","
","","","","","","1055.6999998092651","images/train6.png","","","memory_trial","2","maybe_old",""
"html-button-response","127","436008","0.0-18.0-2.41-0.41","5577","approach_avoid_sv1","""event"",""trial"",""time""
""fullscreenenter"",""1"",""10757""
","
","
","""event"",""trial"",""time""
""fullscreenenter"",""1"",""10757""
","
","","","","","","74440.60000014305","<p> Take a break! </p><p> Click the button to continue. </p>","0","","break","","",""
"html-keyboard-response","128","436518","0.0-18.0-0.42","5577","approach_avoid_sv1","""event"",""trial"",""time""
""fullscreenenter"",""1"",""10757""
","
","
","""event"",""trial"",""time""
""fullscreenenter"",""1"",""10757""
","
","","","","","","null","<div style=""font-size:60px;"">+</div>","null","","fixation","","",""
"memory-trial","129","440985","0.0-18.0-1.42","5577","approach_avoid_sv1","""event"",""trial"",""time""
""fullscreenenter"",""1"",""10757""
","
","
","""event"",""trial"",""time""
""fullscreenenter"",""1"",""10757""
","
","","","","","","3452.9000000953674","images/goat2.png","","","memory_trial","2","maybe_old",""
"html-keyboard-response","130","441503","0.0-18.0-0.43","5577","approach_avoid_sv1","""event"",""trial"",""time""
""fullscreenenter"",""1"",""10757""
","
","
","""event"",""trial"",""time""
""fullscreenenter"",""1"",""10757""
","
","","","","","","null","<div style=""font-size:60px;"">+</div>","null","","fixation","","",""
"memory-trial","131","443781","0.0-18.0-1.43","5577","approach_avoid_sv1","""event"",""trial"",""time""
""fullscreenenter"",""1"",""10757""
","
","
","""event"",""trial"",""time""
""fullscreenenter"",""1"",""10757""
","
","","","","","","1265.4000000953674","images/flower7.png","","","memory_trial","4","definitely_new",""
"html-keyboard-response","132","444294","0.0-18.0-0.44","5577","approach_avoid_sv1","""event"",""trial"",""time""
""fullscreenenter"",""1"",""10757""
","
","
","""event"",""trial"",""time""
""fullscreenenter"",""1"",""10757""
","
","","","","","","null","<div style=""font-size:60px;"">+</div>","null","","fixation","","",""
"memory-trial","133","446566","0.0-18.0-1.44","5577","approach_avoid_sv1","""event"",""trial"",""time""
""fullscreenenter"",""1"",""10757""
","
","
","""event"",""trial"",""time""
""fullscreenenter"",""1"",""10757""
","
","","","","","","1265.3999998569489","images/boat8.png","","","memory_trial","4","definitely_new",""
"html-keyboard-response","134","447077","0.0-18.0-0.45","5577","approach_avoid_sv1","""event"",""trial"",""time""
""fullscreenenter"",""1"",""10757""
","
","
","""event"",""trial"",""time""
""fullscreenenter"",""1"",""10757""
","
","","","","","","null","<div style=""font-size:60px;"">+</div>","null","","fixation","","",""
"memory-trial","135","449260","0.0-18.0-1.45","5577","approach_avoid_sv1","""event"",""trial"",""time""
""fullscreenenter"",""1"",""10757""
","
","
","""event"",""trial"",""time""
""fullscreenenter"",""1"",""10757""
","
","","","","","","1171.7999999523163","images/cow5.png","","","memory_trial","3","maybe_new",""
"html-keyboard-response","136","449768","0.0-18.0-0.46","5577","approach_avoid_sv1","""event"",""trial"",""time""
""fullscreenenter"",""1"",""10757""
","
","
","""event"",""trial"",""time""
""fullscreenenter"",""1"",""10757""
","
","","","","","","null","<div style=""font-size:60px;"">+</div>","null","","fixation","","",""
"memory-trial","137","451474","0.0-18.0-1.46","5577","approach_avoid_sv1","""event"",""trial"",""time""
""fullscreenenter"",""1"",""10757""
","
","
","""event"",""trial"",""time""
""fullscreenenter"",""1"",""10757""
","
","","","","","","679.8999998569489","images/truck5.png","","","memory_trial","3","maybe_new",""
"html-keyboard-response","138","451984","0.0-18.0-0.47","5577","approach_avoid_sv1","""event"",""trial"",""time""
""fullscreenenter"",""1"",""10757""
","
","
","""event"",""trial"",""time""
""fullscreenenter"",""1"",""10757""
","
","","","","","","null","<div style=""font-size:60px;"">+</div>","null","","fixation","","",""
"memory-trial","139","455152","0.0-18.0-1.47","5577","approach_avoid_sv1","""event"",""trial"",""time""
""fullscreenenter"",""1"",""10757""
","
","
","""event"",""trial"",""time""
""fullscreenenter"",""1"",""10757""
","
","","","","","","2154.100000143051","images/train2.png","","","memory_trial","1","definitely_old",""
"html-keyboard-response","140","455671","0.0-18.0-0.48","5577","approach_avoid_sv1","""event"",""trial"",""time""
""fullscreenenter"",""1"",""10757""
","
","
","""event"",""trial"",""time""
""fullscreenenter"",""1"",""10757""
","
","","","","","","null","<div style=""font-size:60px;"">+</div>","null","","fixation","","",""
"memory-trial","141","457961","0.0-18.0-1.48","5577","approach_avoid_sv1","""event"",""trial"",""time""
""fullscreenenter"",""1"",""10757""
","
","
","""event"",""trial"",""time""
""fullscreenenter"",""1"",""10757""
","
","","","","","","1277.4000000953674","images/orange7.png","","","memory_trial","3","maybe_new",""
"html-keyboard-response","142","458472","0.0-18.0-0.49","5577","approach_avoid_sv1","""event"",""trial"",""time""
""fullscreenenter"",""1"",""10757""
","
","
","""event"",""trial"",""time""
""fullscreenenter"",""1"",""10757""
","
","","","","","","null","<div style=""font-size:60px;"">+</div>","null","","fixation","","",""
"memory-trial","143","460613","0.0-18.0-1.49","5577","approach_avoid_sv1","""event"",""trial"",""time""
""fullscreenenter"",""1"",""10757""
","
","
","""event"",""trial"",""time""
""fullscreenenter"",""1"",""10757""
","
","","","","","","1131.4000000953674","images/cactus1.png","","","memory_trial","4","definitely_new",""
"html-keyboard-response","144","461128","0.0-18.0-0.50","5577","approach_avoid_sv1","""event"",""trial"",""time""
""fullscreenenter"",""1"",""10757""
","
","
","""event"",""trial"",""time""
""fullscreenenter"",""1"",""10757""
","
","","","","","","null","<div style=""font-size:60px;"">+</div>","null","","fixation","","",""
"memory-trial","145","464120","0.0-18.0-1.50","5577","approach_avoid_sv1","""event"",""trial"",""time""
""fullscreenenter"",""1"",""10757""
","
","
","""event"",""trial"",""time""
""fullscreenenter"",""1"",""10757""
","
","","","","","","1969.5999999046326","images/train7.png","","","memory_trial","3","maybe_new",""
"html-keyboard-response","146","464629","0.0-18.0-0.51","5577","approach_avoid_sv1","""event"",""trial"",""time""
""fullscreenenter"",""1"",""10757""
","
","
","""event"",""trial"",""time""
""fullscreenenter"",""1"",""10757""
","
","","","","","","null","<div style=""font-size:60px;"">+</div>","null","","fixation","","",""
"memory-trial","147","466434","0.0-18.0-1.51","5577","approach_avoid_sv1","""event"",""trial"",""time""
""fullscreenenter"",""1"",""10757""
","
","
","""event"",""trial"",""time""
""fullscreenenter"",""1"",""10757""
","
","","","","","","800.5999999046326","images/chair4.png","","","memory_trial","3","maybe_new",""
"html-keyboard-response","148","466944","0.0-18.0-0.52","5577","approach_avoid_sv1","""event"",""trial"",""time""
""fullscreenenter"",""1"",""10757""
","
","
","""event"",""trial"",""time""
""fullscreenenter"",""1"",""10757""
","
","","","","","","null","<div style=""font-size:60px;"">+</div>","null","","fixation","","",""
"memory-trial","149","468878","0.0-18.0-1.52","5577","approach_avoid_sv1","""event"",""trial"",""time""
""fullscreenenter"",""1"",""10757""
","
","
","""event"",""trial"",""time""
""fullscreenenter"",""1"",""10757""
","
","","","","","","921","images/rabbit8.png","","","memory_trial","2","maybe_old",""
"html-keyboard-response","150","469393","0.0-18.0-0.53","5577","approach_avoid_sv1","""event"",""trial"",""time""
""fullscreenenter"",""1"",""10757""
","
","
","""event"",""trial"",""time""
""fullscreenenter"",""1"",""10757""
","
","","","","","","null","<div style=""font-size:60px;"">+</div>","null","","fixation","","",""
"memory-trial","151","472980","0.0-18.0-1.53","5577","approach_avoid_sv1","""event"",""trial"",""time""
""fullscreenenter"",""1"",""10757""
","
","
","""event"",""trial"",""time""
""fullscreenenter"",""1"",""10757""
","
","","","","","","2573.399999856949","images/sheep4.png","","","memory_trial","2","maybe_old",""
"html-keyboard-response","152","473491","0.0-18.0-0.54","5577","approach_avoid_sv1","""event"",""trial"",""time""
""fullscreenenter"",""1"",""10757""
","
","
","""event"",""trial"",""time""
""fullscreenenter"",""1"",""10757""
","
","","","","","","null","<div style=""font-size:60px;"">+</div>","null","","fixation","","",""
"memory-trial","153","477241","0.0-18.0-1.54","5577","approach_avoid_sv1","""event"",""trial"",""time""
""fullscreenenter"",""1"",""10757""
","
","
","""event"",""trial"",""time""
""fullscreenenter"",""1"",""10757""
","
","","","","","","2725.5999999046326","images/table4.png","","","memory_trial","2","maybe_old",""
"html-keyboard-response","154","477754","0.0-18.0-0.55","5577","approach_avoid_sv1","""event"",""trial"",""time""
""fullscreenenter"",""1"",""10757""
","
","
","""event"",""trial"",""time""
""fullscreenenter"",""1"",""10757""
","
","","","","","","null","<div style=""font-size:60px;"">+</div>","null","","fixation","","",""
"memory-trial","155","480354","0.0-18.0-1.55","5577","approach_avoid_sv1","""event"",""trial"",""time""
""fullscreenenter"",""1"",""10757""
","
","
","""event"",""trial"",""time""
""fullscreenenter"",""1"",""10757""
","
","","","","","","1584.1000001430511","images/plane3.png","","","memory_trial","2","maybe_old",""
"html-keyboard-response","156","480863","0.0-18.0-0.56","5577","approach_avoid_sv1","""event"",""trial"",""time""
""fullscreenenter"",""1"",""10757""
","
","
","""event"",""trial"",""time""
""fullscreenenter"",""1"",""10757""
","
","","","","","","null","<div style=""font-size:60px;"">+</div>","null","","fixation","","",""
"memory-trial","157","483034","0.0-18.0-1.56","5577","approach_avoid_sv1","""event"",""trial"",""time""
""fullscreenenter"",""1"",""10757""
","
","
","""event"",""trial"",""time""
""fullscreenenter"",""1"",""10757""
","
","","","","","","1163.3999998569489","images/chair3.png","","","memory_trial","4","definitely_new",""
"html-keyboard-response","158","483544","0.0-18.0-0.57","5577","approach_avoid_sv1","""event"",""trial"",""time""
""fullscreenenter"",""1"",""10757""
","
","
","""event"",""trial"",""time""
""fullscreenenter"",""1"",""10757""
","
","","","","","","null","<div style=""font-size:60px;"">+</div>","null","","fixation","","",""
"memory-trial","159","486638","0.0-18.0-1.57","5577","approach_avoid_sv1","""event"",""trial"",""time""
""fullscreenenter"",""1"",""10757""
","
","
","""event"",""trial"",""time""
""fullscreenenter"",""1"",""10757""
","
","","","","","","2084","images/rabbit7.png","","","memory_trial","3","maybe_new",""
"html-keyboard-response","160","487150","0.0-18.0-0.58","5577","approach_avoid_sv1","""event"",""trial"",""time""
""fullscreenenter"",""1"",""10757""
","
","
","""event"",""trial"",""time""
""fullscreenenter"",""1"",""10757""
","
","","","","","","null","<div style=""font-size:60px;"">+</div>","null","","fixation","","",""
"memory-trial","161","490489","0.0-18.0-1.58","5577","approach_avoid_sv1","""event"",""trial"",""time""
""fullscreenenter"",""1"",""10757""
","
","
","""event"",""trial"",""time""
""fullscreenenter"",""1"",""10757""
","
","","","","","","2325.5","images/tree8.png","","","memory_trial","2","maybe_old",""
"html-keyboard-response","162","491000","0.0-18.0-0.59","5577","approach_avoid_sv1","""event"",""trial"",""time""
""fullscreenenter"",""1"",""10757""
","
","
","""event"",""trial"",""time""
""fullscreenenter"",""1"",""10757""
","
","","","","","","null","<div style=""font-size:60px;"">+</div>","null","","fixation","","",""
"memory-trial","163","493383","0.0-18.0-1.59","5577","approach_avoid_sv1","""event"",""trial"",""time""
""fullscreenenter"",""1"",""10757""
","
","
","""event"",""trial"",""time""
""fullscreenenter"",""1"",""10757""
","
","","","","","","1367","images/goat3.png","","","memory_trial","3","maybe_new",""
"html-keyboard-response","164","493898","0.0-18.0-0.60","5577","approach_avoid_sv1","""event"",""trial"",""time""
""fullscreenenter"",""1"",""10757""
","
","
","""event"",""trial"",""time""
""fullscreenenter"",""1"",""10757""
","
","","","","","","null","<div style=""font-size:60px;"">+</div>","null","","fixation","","",""
"memory-trial","165","495792","0.0-18.0-1.60","5577","approach_avoid_sv1","""event"",""trial"",""time""
""fullscreenenter"",""1"",""10757""
","
","
","""event"",""trial"",""time""
""fullscreenenter"",""1"",""10757""
","
","","","","","","879.6000001430511","images/sofa3.png","","","memory_trial","3","maybe_new",""
"html-keyboard-response","166","496307","0.0-18.0-0.61","5577","approach_avoid_sv1","""event"",""trial"",""time""
""fullscreenenter"",""1"",""10757""
","
","
","""event"",""trial"",""time""
""fullscreenenter"",""1"",""10757""
","
","","","","","","null","<div style=""font-size:60px;"">+</div>","null","","fixation","","",""
"memory-trial","167","499193","0.0-18.0-1.61","5577","approach_avoid_sv1","""event"",""trial"",""time""
""fullscreenenter"",""1"",""10757""
","
","
","""event"",""trial"",""time""
""fullscreenenter"",""1"",""10757""
","
","","","","","","1874.2999999523163","images/cat4.png","","","memory_trial","2","maybe_old",""
"html-keyboard-response","168","499703","0.0-18.0-0.62","5577","approach_avoid_sv1","""event"",""trial"",""time""
""fullscreenenter"",""1"",""10757""
","
","
","""event"",""trial"",""time""
""fullscreenenter"",""1"",""10757""
","
","","","","","","null","<div style=""font-size:60px;"">+</div>","null","","fixation","","",""
"memory-trial","169","502923","0.0-18.0-1.62","5577","approach_avoid_sv1","""event"",""trial"",""time""
""fullscreenenter"",""1"",""10757""
","
","
","""event"",""trial"",""time""
""fullscreenenter"",""1"",""10757""
","
","","","","","","2205.800000190735","images/tree3.png","","","memory_trial","4","definitely_new",""
"html-keyboard-response","170","503431","0.0-18.0-0.63","5577","approach_avoid_sv1","""event"",""trial"",""time""
""fullscreenenter"",""1"",""10757""
","
","
","""event"",""trial"",""time""
""fullscreenenter"",""1"",""10757""
","
","","","","","","null","<div style=""font-size:60px;"">+</div>","null","","fixation","","",""
"memory-trial","171","505905","0.0-18.0-1.63","5577","approach_avoid_sv1","""event"",""trial"",""time""
""fullscreenenter"",""1"",""10757""
","
","
","""event"",""trial"",""time""
""fullscreenenter"",""1"",""10757""
","
","","","","","","1458.5999999046326","images/rodent8.png","","","memory_trial","3","maybe_new",""
"html-keyboard-response","172","506415","0.0-18.0-0.64","5577","approach_avoid_sv1","""event"",""trial"",""time""
""fullscreenenter"",""1"",""10757""
","
","
","""event"",""trial"",""time""
""fullscreenenter"",""1"",""10757""
","
","","","","","","null","<div style=""font-size:60px;"">+</div>","null","","fixation","","",""
"memory-trial","173","508384","0.0-18.0-1.64","5577","approach_avoid_sv1","""event"",""trial"",""time""
""fullscreenenter"",""1"",""10757""
","
","
","""event"",""trial"",""time""
""fullscreenenter"",""1"",""10757""
","
","","","","","","957.5999999046326","images/rabbit3.png","","","memory_trial","3","maybe_new",""
"html-keyboard-response","174","508898","0.0-18.0-0.65","5577","approach_avoid_sv1","""event"",""trial"",""time""
""fullscreenenter"",""1"",""10757""
","
","
","""event"",""trial"",""time""
""fullscreenenter"",""1"",""10757""
","
","","","","","","null","<div style=""font-size:60px;"">+</div>","null","","fixation","","",""
"memory-trial","175","511477","0.0-18.0-1.65","5577","approach_avoid_sv1","""event"",""trial"",""time""
""fullscreenenter"",""1"",""10757""
","
","
","""event"",""trial"",""time""
""fullscreenenter"",""1"",""10757""
","
","","","","","","1569.0999999046326","images/dog3.png","","","memory_trial","3","maybe_new",""
"html-keyboard-response","176","511988","0.0-18.0-0.66","5577","approach_avoid_sv1","""event"",""trial"",""time""
""fullscreenenter"",""1"",""10757""
","
","
","""event"",""trial"",""time""
""fullscreenenter"",""1"",""10757""
","
","","","","","","null","<div style=""font-size:60px;"">+</div>","null","","fixation","","",""
"memory-trial","177","513746","0.0-18.0-1.66","5577","approach_avoid_sv1","""event"",""trial"",""time""
""fullscreenenter"",""1"",""10757""
","
","
","""event"",""trial"",""time""
""fullscreenenter"",""1"",""10757""
","
","","","","","","748.5999999046326","images/apple2.png","","","memory_trial","3","maybe_new",""
"html-keyboard-response","178","514258","0.0-18.0-0.67","5577","approach_avoid_sv1","""event"",""trial"",""time""
""fullscreenenter"",""1"",""10757""
","
","
","""event"",""trial"",""time""
""fullscreenenter"",""1"",""10757""
","
","","","","","","null","<div style=""font-size:60px;"">+</div>","null","","fixation","","",""
"memory-trial","179","515895","0.0-18.0-1.67","5577","approach_avoid_sv1","""event"",""trial"",""time""
""fullscreenenter"",""1"",""10757""
","
","
","""event"",""trial"",""time""
""fullscreenenter"",""1"",""10757""
","
","","","","","","627.2000000476837","images/chair7.png","","","memory_trial","3","maybe_new",""
"html-keyboard-response","180","516406","0.0-18.0-0.68","5577","approach_avoid_sv1","""event"",""trial"",""time""
""fullscreenenter"",""1"",""10757""
","
","
","""event"",""trial"",""time""
""fullscreenenter"",""1"",""10757""
","
","","","","","","null","<div style=""font-size:60px;"">+</div>","null","","fixation","","",""
"memory-trial","181","518615","0.0-18.0-1.68","5577","approach_avoid_sv1","""event"",""trial"",""time""
""fullscreenenter"",""1"",""10757""
","
","
","""event"",""trial"",""time""
""fullscreenenter"",""1"",""10757""
","
","","","","","","1198.4000000953674","images/tree6.png","","","memory_trial","2","maybe_old",""
"html-keyboard-response","182","519126","0.0-18.0-0.69","5577","approach_avoid_sv1","""event"",""trial"",""time""
""fullscreenenter"",""1"",""10757""
","
","
","""event"",""trial"",""time""
""fullscreenenter"",""1"",""10757""
","
","","","","","","null","<div style=""font-size:60px;"">+</div>","null","","fixation","","",""
"memory-trial","183","521007","0.0-18.0-1.69","5577","approach_avoid_sv1","""event"",""trial"",""time""
""fullscreenenter"",""1"",""10757""
","
","
","""event"",""trial"",""time""
""fullscreenenter"",""1"",""10757""
","
","","","","","","866.0999999046326","images/straw4.png","","","memory_trial","3","maybe_new",""
"html-keyboard-response","184","521514","0.0-18.0-0.70","5577","approach_avoid_sv1","""event"",""trial"",""time""
""fullscreenenter"",""1"",""10757""
","
","
","""event"",""trial"",""time""
""fullscreenenter"",""1"",""10757""
","
","","","","","","null","<div style=""font-size:60px;"">+</div>","null","","fixation","","",""
"memory-trial","185","523737","0.0-18.0-1.70","5577","approach_avoid_sv1","""event"",""trial"",""time""
""fullscreenenter"",""1"",""10757""
","
","
","""event"",""trial"",""time""
""fullscreenenter"",""1"",""10757""
","
","","","","","","1209.8000001907349","images/bush7.png","","","memory_trial","3","maybe_new",""
"html-keyboard-response","186","524253","0.0-18.0-0.71","5577","approach_avoid_sv1","""event"",""trial"",""time""
""fullscreenenter"",""1"",""10757""
","
","
","""event"",""trial"",""time""
""fullscreenenter"",""1"",""10757""
","
","","","","","","null","<div style=""font-size:60px;"">+</div>","null","","fixation","","",""
"memory-trial","187","526283","0.0-18.0-1.71","5577","approach_avoid_sv1","""event"",""trial"",""time""
""fullscreenenter"",""1"",""10757""
","
","
","""event"",""trial"",""time""
""fullscreenenter"",""1"",""10757""
","
","","","","","","1013.7999999523163","images/rodent3.png","","","memory_trial","2","maybe_old",""
"html-keyboard-response","188","526796","0.0-18.0-0.72","5577","approach_avoid_sv1","""event"",""trial"",""time""
""fullscreenenter"",""1"",""10757""
","
","
","""event"",""trial"",""time""
""fullscreenenter"",""1"",""10757""
","
","","","","","","null","<div style=""font-size:60px;"">+</div>","null","","fixation","","",""
"memory-trial","189","528930","0.0-18.0-1.72","5577","approach_avoid_sv1","""event"",""trial"",""time""
""fullscreenenter"",""1"",""10757""
","
","
","""event"",""trial"",""time""
""fullscreenenter"",""1"",""10757""
","
","","","","","","1119.2000000476837","images/horse8.png","","","memory_trial","2","maybe_old",""
"html-keyboard-response","190","529445","0.0-18.0-0.73","5577","approach_avoid_sv1","""event"",""trial"",""time""
""fullscreenenter"",""1"",""10757""
","
","
","""event"",""trial"",""time""
""fullscreenenter"",""1"",""10757""
","
","","","","","","null","<div style=""font-size:60px;"">+</div>","null","","fixation","","",""
"memory-trial","191","531392","0.0-18.0-1.73","5577","approach_avoid_sv1","""event"",""trial"",""time""
""fullscreenenter"",""1"",""10757""
","
","
","""event"",""trial"",""time""
""fullscreenenter"",""1"",""10757""
","
","","","","","","931.3000001907349","images/bush8.png","","","memory_trial","3","maybe_new",""
"html-keyboard-response","192","531902","0.0-18.0-0.74","5577","approach_avoid_sv1","""event"",""trial"",""time""
""fullscreenenter"",""1"",""10757""
","
","
","""event"",""trial"",""time""
""fullscreenenter"",""1"",""10757""
","
","","","","","","null","<div style=""font-size:60px;"">+</div>","null","","fixation","","",""
"memory-trial","193","534605","0.0-18.0-1.74","5577","approach_avoid_sv1","""event"",""trial"",""time""
""fullscreenenter"",""1"",""10757""
","
","
","""event"",""trial"",""time""
""fullscreenenter"",""1"",""10757""
","
","","","","","","1694.9000000953674","images/plane1.png","","","memory_trial","3","maybe_new",""
"html-keyboard-response","194","535120","0.0-18.0-0.75","5577","approach_avoid_sv1","""event"",""trial"",""time""
""fullscreenenter"",""1"",""10757""
","
","
","""event"",""trial"",""time""
""fullscreenenter"",""1"",""10757""
","
","","","","","","null","<div style=""font-size:60px;"">+</div>","null","","fixation","","",""
"memory-trial","195","537528","0.0-18.0-1.75","5577","approach_avoid_sv1","""event"",""trial"",""time""
""fullscreenenter"",""1"",""10757""
","
","
","""event"",""trial"",""time""
""fullscreenenter"",""1"",""10757""
","
","","","","","","1399.4000000953674","images/chair2.png","","","memory_trial","3","maybe_new",""
"html-keyboard-response","196","538042","0.0-18.0-0.76","5577","approach_avoid_sv1","""event"",""trial"",""time""
""fullscreenenter"",""1"",""10757""
","
","
","""event"",""trial"",""time""
""fullscreenenter"",""1"",""10757""
","
","","","","","","null","<div style=""font-size:60px;"">+</div>","null","","fixation","","",""
"memory-trial","197","541088","0.0-18.0-1.76","5577","approach_avoid_sv1","""event"",""trial"",""time""
""fullscreenenter"",""1"",""10757""
","
","
","""event"",""trial"",""time""
""fullscreenenter"",""1"",""10757""
","
","","","","","","2036.2000000476837","images/plane6.png","","","memory_trial","1","definitely_old",""
"html-keyboard-response","198","541606","0.0-18.0-0.77","5577","approach_avoid_sv1","""event"",""trial"",""time""
""fullscreenenter"",""1"",""10757""
","
","
","""event"",""trial"",""time""
""fullscreenenter"",""1"",""10757""
","
","","","","","","null","<div style=""font-size:60px;"">+</div>","null","","fixation","","",""
"memory-trial","199","543760","0.0-18.0-1.77","5577","approach_avoid_sv1","""event"",""trial"",""time""
""fullscreenenter"",""1"",""10757""
","
","
","""event"",""trial"",""time""
""fullscreenenter"",""1"",""10757""
","
","","","","","","1138.0999999046326","images/boat4.png","","","memory_trial","4","definitely_new",""
"html-keyboard-response","200","544276","0.0-18.0-0.78","5577","approach_avoid_sv1","""event"",""trial"",""time""
""fullscreenenter"",""1"",""10757""
","
","
","""event"",""trial"",""time""
""fullscreenenter"",""1"",""10757""
","
","","","","","","null","<div style=""font-size:60px;"">+</div>","null","","fixation","","",""
"memory-trial","201","546064","0.0-18.0-1.78","5577","approach_avoid_sv1","""event"",""trial"",""time""
""fullscreenenter"",""1"",""10757""
","
","
","""event"",""trial"",""time""
""fullscreenenter"",""1"",""10757""
","
","","","","","","778.2999999523163","images/tree1.png","","","memory_trial","3","maybe_new",""
"html-keyboard-response","202","546578","0.0-18.0-0.79","5577","approach_avoid_sv1","""event"",""trial"",""time""
""fullscreenenter"",""1"",""10757""
","
","
","""event"",""trial"",""time""
""fullscreenenter"",""1"",""10757""
","
","","","","","","null","<div style=""font-size:60px;"">+</div>","null","","fixation","","",""
"memory-trial","203","550177","0.0-18.0-1.79","5577","approach_avoid_sv1","""event"",""trial"",""time""
""fullscreenenter"",""1"",""10757""
","
","
","""event"",""trial"",""time""
""fullscreenenter"",""1"",""10757""
","
","","","","","","2584.5","images/rodent2.png","","","memory_trial","2","maybe_old",""
"html-keyboard-response","204","550684","0.0-18.0-0.80","5577","approach_avoid_sv1","""event"",""trial"",""time""
""fullscreenenter"",""1"",""10757""
","
","
","""event"",""trial"",""time""
""fullscreenenter"",""1"",""10757""
","
","","","","","","null","<div style=""font-size:60px;"">+</div>","null","","fixation","","",""
"memory-trial","205","558235","0.0-18.0-1.80","5577","approach_avoid_sv1","""event"",""trial"",""time""
""fullscreenenter"",""1"",""10757""
","
","
","""event"",""trial"",""time""
""fullscreenenter"",""1"",""10757""
","
","","","","","","6542.399999856949","images/rodent5.png","","","memory_trial","2","maybe_old",""
"html-keyboard-response","206","558752","0.0-18.0-0.81","5577","approach_avoid_sv1","""event"",""trial"",""time""
""fullscreenenter"",""1"",""10757""
","
","
","""event"",""trial"",""time""
""fullscreenenter"",""1"",""10757""
","
","","","","","","null","<div style=""font-size:60px;"">+</div>","null","","fixation","","",""
"memory-trial","207","560641","0.0-18.0-1.81","5577","approach_avoid_sv1","""event"",""trial"",""time""
""fullscreenenter"",""1"",""10757""
","
","
","""event"",""trial"",""time""
""fullscreenenter"",""1"",""10757""
","
","","","","","","878.0999999046326","images/apple1.png","","","memory_trial","3","maybe_new",""
"html-keyboard-response","208","561151","0.0-18.0-0.82","5577","approach_avoid_sv1","""event"",""trial"",""time""
""fullscreenenter"",""1"",""10757""
","
","
","""event"",""trial"",""time""
""fullscreenenter"",""1"",""10757""
","
","","","","","","null","<div style=""font-size:60px;"">+</div>","null","","fixation","","",""
"memory-trial","209","566187","0.0-18.0-1.82","5577","approach_avoid_sv1","""event"",""trial"",""time""
""fullscreenenter"",""1"",""10757""
","
","
","""event"",""trial"",""time""
""fullscreenenter"",""1"",""10757""
","
","","","","","","4021.9000000953674","images/banana3.png","","","memory_trial","4","definitely_new",""
"html-keyboard-response","210","566698","0.0-18.0-0.83","5577","approach_avoid_sv1","""event"",""trial"",""time""
""fullscreenenter"",""1"",""10757""
","
","
","""event"",""trial"",""time""
""fullscreenenter"",""1"",""10757""
","
","","","","","","null","<div style=""font-size:60px;"">+</div>","null","","fixation","","",""
"memory-trial","211","569169","0.0-18.0-1.83","5577","approach_avoid_sv1","""event"",""trial"",""time""
""fullscreenenter"",""1"",""10757""
","
","
","""event"",""trial"",""time""
""fullscreenenter"",""1"",""10757""
","
","","","","","","1452.5","images/tree4.png","","","memory_trial","1","definitely_old",""
"html-keyboard-response","212","569682","0.0-18.0-0.84","5577","approach_avoid_sv1","""event"",""trial"",""time""
""fullscreenenter"",""1"",""10757""
","
","
","""event"",""trial"",""time""
""fullscreenenter"",""1"",""10757""
","
","","","","","","null","<div style=""font-size:60px;"">+</div>","null","","fixation","","",""
"memory-trial","213","577075","0.0-18.0-1.84","5577","approach_avoid_sv1","""event"",""trial"",""time""
""fullscreenenter"",""1"",""10757""
","
","
","""event"",""trial"",""time""
""fullscreenenter"",""1"",""10757""
","
","","","","","","6381.399999856949","images/table2.png","","","memory_trial","1","definitely_old",""
"html-keyboard-response","214","577580","0.0-18.0-0.85","5577","approach_avoid_sv1","""event"",""trial"",""time""
""fullscreenenter"",""1"",""10757""
","
","
","""event"",""trial"",""time""
""fullscreenenter"",""1"",""10757""
","
","","","","","","null","<div style=""font-size:60px;"">+</div>","null","","fixation","","",""
"memory-trial","215","579548","0.0-18.0-1.85","5577","approach_avoid_sv1","""event"",""trial"",""time""
""fullscreenenter"",""1"",""10757""
","
","
","""event"",""trial"",""time""
""fullscreenenter"",""1"",""10757""
","
","","","","","","956.5","images/banana2.png","","","memory_trial","3","maybe_new",""
"html-keyboard-response","216","580061","0.0-18.0-0.86","5577","approach_avoid_sv1","""event"",""trial"",""time""
""fullscreenenter"",""1"",""10757""
","
","
","""event"",""trial"",""time""
""fullscreenenter"",""1"",""10757""
","
","","","","","","null","<div style=""font-size:60px;"">+</div>","null","","fixation","","",""
"memory-trial","217","584565","0.0-18.0-1.86","5577","approach_avoid_sv1","""event"",""trial"",""time""
""fullscreenenter"",""1"",""10757""
","
","
","""event"",""trial"",""time""
""fullscreenenter"",""1"",""10757""
","
","","","","","","3499.800000190735","images/dog1.png","","","memory_trial","4","definitely_new",""
"html-keyboard-response","218","585070","0.0-18.0-0.87","5577","approach_avoid_sv1","""event"",""trial"",""time""
""fullscreenenter"",""1"",""10757""
","
","
","""event"",""trial"",""time""
""fullscreenenter"",""1"",""10757""
","
","","","","","","null","<div style=""font-size:60px;"">+</div>","null","","fixation","","",""
"memory-trial","219","586930","0.0-18.0-1.87","5577","approach_avoid_sv1","""event"",""trial"",""time""
""fullscreenenter"",""1"",""10757""
","
","
","""event"",""trial"",""time""
""fullscreenenter"",""1"",""10757""
","
","","","","","","848.3999998569489","images/chair8.png","","","memory_trial","3","maybe_new",""
"html-keyboard-response","220","587438","0.0-18.0-0.88","5577","approach_avoid_sv1","""event"",""trial"",""time""
""fullscreenenter"",""1"",""10757""
","
","
","""event"",""trial"",""time""
""fullscreenenter"",""1"",""10757""
","
","","","","","","null","<div style=""font-size:60px;"">+</div>","null","","fixation","","",""
"memory-trial","221","591530","0.0-18.0-1.88","5577","approach_avoid_sv1","""event"",""trial"",""time""
""fullscreenenter"",""1"",""10757""
","
","
","""event"",""trial"",""time""
""fullscreenenter"",""1"",""10757""
","
","","","","","","3073.0999999046326","images/horse1.png","","","memory_trial","3","maybe_new",""
"html-keyboard-response","222","592045","0.0-18.0-0.89","5577","approach_avoid_sv1","""event"",""trial"",""time""
""fullscreenenter"",""1"",""10757""
","
","
","""event"",""trial"",""time""
""fullscreenenter"",""1"",""10757""
","
","","","","","","null","<div style=""font-size:60px;"">+</div>","null","","fixation","","",""
"memory-trial","223","594301","0.0-18.0-1.89","5577","approach_avoid_sv1","""event"",""trial"",""time""
""fullscreenenter"",""1"",""10757""
","
","
","""event"",""trial"",""time""
""fullscreenenter"",""1"",""10757""
","
","","","","","","1239.9000000953674","images/apple3.png","","","memory_trial","3","maybe_new",""
"html-keyboard-response","224","594813","0.0-18.0-0.90","5577","approach_avoid_sv1","""event"",""trial"",""time""
""fullscreenenter"",""1"",""10757""
","
","
","""event"",""trial"",""time""
""fullscreenenter"",""1"",""10757""
","
","","","","","","null","<div style=""font-size:60px;"">+</div>","null","","fixation","","",""
"memory-trial","225","597009","0.0-18.0-1.90","5577","approach_avoid_sv1","""event"",""trial"",""time""
""fullscreenenter"",""1"",""10757""
","
","
","""event"",""trial"",""time""
""fullscreenenter"",""1"",""10757""
","
","","","","","","1188","images/goat8.png","","","memory_trial","1","definitely_old",""
"html-keyboard-response","226","597530","0.0-18.0-0.91","5577","approach_avoid_sv1","""event"",""trial"",""time""
""fullscreenenter"",""1"",""10757""
","
","
","""event"",""trial"",""time""
""fullscreenenter"",""1"",""10757""
","
","","","","","","null","<div style=""font-size:60px;"">+</div>","null","","fixation","","",""
"memory-trial","227","599576","0.0-18.0-1.91","5577","approach_avoid_sv1","""event"",""trial"",""time""
""fullscreenenter"",""1"",""10757""
","
","
","""event"",""trial"",""time""
""fullscreenenter"",""1"",""10757""
","
","","","","","","1038.4000000953674","images/cow2.png","","","memory_trial","4","definitely_new",""
"html-button-response","228","641037","0.0-18.0-2.91-0.91","5577","approach_avoid_sv1","""event"",""trial"",""time""
""fullscreenenter"",""1"",""10757""
","
","
","""event"",""trial"",""time""
""fullscreenenter"",""1"",""10757""
","
","","","","","","41458.200000047684","<p> Take a break! </p><p> Click the button to continue. </p>","0","","break","","",""
"html-keyboard-response","229","641554","0.0-18.0-0.92","5577","approach_avoid_sv1","""event"",""trial"",""time""
""fullscreenenter"",""1"",""10757""
","
","
","""event"",""trial"",""time""
""fullscreenenter"",""1"",""10757""
","
","","","","","","null","<div style=""font-size:60px;"">+</div>","null","","fixation","","",""
"memory-trial","230","645025","0.0-18.0-1.92","5577","approach_avoid_sv1","""event"",""trial"",""time""
""fullscreenenter"",""1"",""10757""
","
","
","""event"",""trial"",""time""
""fullscreenenter"",""1"",""10757""
","
","","","","","","2455","images/cat6.png","","","memory_trial","4","definitely_new",""
"html-keyboard-response","231","645534","0.0-18.0-0.93","5577","approach_avoid_sv1","""event"",""trial"",""time""
""fullscreenenter"",""1"",""10757""
","
","
","""event"",""trial"",""time""
""fullscreenenter"",""1"",""10757""
","
","","","","","","null","<div style=""font-size:60px;"">+</div>","null","","fixation","","",""
"memory-trial","232","647521","0.0-18.0-1.93","5577","approach_avoid_sv1","""event"",""trial"",""time""
""fullscreenenter"",""1"",""10757""
","
","
","""event"",""trial"",""time""
""fullscreenenter"",""1"",""10757""
","
","","","","","","964.3000001907349","images/dog4.png","","","memory_trial","4","definitely_new",""
"html-keyboard-response","233","648031","0.0-18.0-0.94","5577","approach_avoid_sv1","""event"",""trial"",""time""
""fullscreenenter"",""1"",""10757""
","
","
","""event"",""trial"",""time""
""fullscreenenter"",""1"",""10757""
","
","","","","","","null","<div style=""font-size:60px;"">+</div>","null","","fixation","","",""
"memory-trial","234","650133","0.0-18.0-1.94","5577","approach_avoid_sv1","""event"",""trial"",""time""
""fullscreenenter"",""1"",""10757""
","
","
","""event"",""trial"",""time""
""fullscreenenter"",""1"",""10757""
","
","","","","","","1091.5","images/train5.png","","","memory_trial","2","maybe_old",""
"html-keyboard-response","235","650639","0.0-18.0-0.95","5577","approach_avoid_sv1","""event"",""trial"",""time""
""fullscreenenter"",""1"",""10757""
","
","
","""event"",""trial"",""time""
""fullscreenenter"",""1"",""10757""
","
","","","","","","null","<div style=""font-size:60px;"">+</div>","null","","fixation","","",""
"memory-trial","236","652648","0.0-18.0-1.95","5577","approach_avoid_sv1","""event"",""trial"",""time""
""fullscreenenter"",""1"",""10757""
","
","
","""event"",""trial"",""time""
""fullscreenenter"",""1"",""10757""
","
","","","","","","989.5999999046326","images/cat7.png","","","memory_trial","4","definitely_new",""
"html-keyboard-response","237","653164","0.0-18.0-0.96","5577","approach_avoid_sv1","""event"",""trial"",""time""
""fullscreenenter"",""1"",""10757""
","
","
","""event"",""trial"",""time""
""fullscreenenter"",""1"",""10757""
","
","","","","","","null","<div style=""font-size:60px;"">+</div>","null","","fixation","","",""
"memory-trial","238","654861","0.0-18.0-1.96","5577","approach_avoid_sv1","""event"",""trial"",""time""
""fullscreenenter"",""1"",""10757""
","
","
","""event"",""trial"",""time""
""fullscreenenter"",""1"",""10757""
","
","","","","","","689.3000001907349","images/sofa7.png","","","memory_trial","4","definitely_new",""
"html-keyboard-response","239","655373","0.0-18.0-0.97","5577","approach_avoid_sv1","""event"",""trial"",""time""
""fullscreenenter"",""1"",""10757""
","
","
","""event"",""trial"",""time""
""fullscreenenter"",""1"",""10757""
","
","","","","","","null","<div style=""font-size:60px;"">+</div>","null","","fixation","","",""
"memory-trial","240","658318","0.0-18.0-1.97","5577","approach_avoid_sv1","""event"",""trial"",""time""
""fullscreenenter"",""1"",""10757""
","
","
","""event"",""trial"",""time""
""fullscreenenter"",""1"",""10757""
","
","","","","","","1937.2000000476837","images/truck2.png","","","memory_trial","4","definitely_new",""
"html-keyboard-response","241","658829","0.0-18.0-0.98","5577","approach_avoid_sv1","""event"",""trial"",""time""
""fullscreenenter"",""1"",""10757""
","
","
","""event"",""trial"",""time""
""fullscreenenter"",""1"",""10757""
","
","","","","","","null","<div style=""font-size:60px;"">+</div>","null","","fixation","","",""
"memory-trial","242","661075","0.0-18.0-1.98","5577","approach_avoid_sv1","""event"",""trial"",""time""
""fullscreenenter"",""1"",""10757""
","
","
","""event"",""trial"",""time""
""fullscreenenter"",""1"",""10757""
","
","","","","","","1234.1000001430511","images/sofa1.png","","","memory_trial","4","definitely_new",""
"html-keyboard-response","243","661588","0.0-18.0-0.99","5577","approach_avoid_sv1","""event"",""trial"",""time""
""fullscreenenter"",""1"",""10757""
","
","
","""event"",""trial"",""time""
""fullscreenenter"",""1"",""10757""
","
","","","","","","null","<div style=""font-size:60px;"">+</div>","null","","fixation","","",""
"memory-trial","244","663536","0.0-18.0-1.99","5577","approach_avoid_sv1","""event"",""trial"",""time""
""fullscreenenter"",""1"",""10757""
","
","
","""event"",""trial"",""time""
""fullscreenenter"",""1"",""10757""
","
","","","","","","940.2000000476837","images/horse6.png","","","memory_trial","2","maybe_old",""
"html-keyboard-response","245","664052","0.0-18.0-0.100","5577","approach_avoid_sv1","""event"",""trial"",""time""
""fullscreenenter"",""1"",""10757""
","
","
","""event"",""trial"",""time""
""fullscreenenter"",""1"",""10757""
","
","","","","","","null","<div style=""font-size:60px;"">+</div>","null","","fixation","","",""
"memory-trial","246","665996","0.0-18.0-1.100","5577","approach_avoid_sv1","""event"",""trial"",""time""
""fullscreenenter"",""1"",""10757""
","
","
","""event"",""trial"",""time""
""fullscreenenter"",""1"",""10757""
","
","","","","","","928.2000000476837","images/table5.png","","","memory_trial","3","maybe_new",""
"html-keyboard-response","247","666505","0.0-18.0-0.101","5577","approach_avoid_sv1","""event"",""trial"",""time""
""fullscreenenter"",""1"",""10757""
","
","
","""event"",""trial"",""time""
""fullscreenenter"",""1"",""10757""
","
","","","","","","null","<div style=""font-size:60px;"">+</div>","null","","fixation","","",""
"memory-trial","248","668897","0.0-18.0-1.101","5577","approach_avoid_sv1","""event"",""trial"",""time""
""fullscreenenter"",""1"",""10757""
","
","
","""event"",""trial"",""time""
""fullscreenenter"",""1"",""10757""
","
","","","","","","1375.7000000476837","images/bush2.png","","","memory_trial","2","maybe_old",""
"html-keyboard-response","249","669412","0.0-18.0-0.102","5577","approach_avoid_sv1","""event"",""trial"",""time""
""fullscreenenter"",""1"",""10757""
","
","
","""event"",""trial"",""time""
""fullscreenenter"",""1"",""10757""
","
","","","","","","null","<div style=""font-size:60px;"">+</div>","null","","fixation","","",""
"memory-trial","250","672676","0.0-18.0-1.102","5577","approach_avoid_sv1","""event"",""trial"",""time""
""fullscreenenter"",""1"",""10757""
","
","
","""event"",""trial"",""time""
""fullscreenenter"",""1"",""10757""
","
","","","","","","2249.5","images/flower8.png","","","memory_trial","2","maybe_old",""
"html-keyboard-response","251","673188","0.0-18.0-0.103","5577","approach_avoid_sv1","""event"",""trial"",""time""
""fullscreenenter"",""1"",""10757""
","
","
","""event"",""trial"",""time""
""fullscreenenter"",""1"",""10757""
","
","","","","","","null","<div style=""font-size:60px;"">+</div>","null","","fixation","","",""
"memory-trial","252","675720","0.0-18.0-1.103","5577","approach_avoid_sv1","""event"",""trial"",""time""
""fullscreenenter"",""1"",""10757""
","
","
","""event"",""trial"",""time""
""fullscreenenter"",""1"",""10757""
","
","","","","","","1524.2000000476837","images/orange1.png","","","memory_trial","3","maybe_new",""
"html-keyboard-response","253","676242","0.0-18.0-0.104","5577","approach_avoid_sv1","""event"",""trial"",""time""
""fullscreenenter"",""1"",""10757""
","
","
","""event"",""trial"",""time""
""fullscreenenter"",""1"",""10757""
","
","","","","","","null","<div style=""font-size:60px;"">+</div>","null","","fixation","","",""
"memory-trial","254","678267","0.0-18.0-1.104","5577","approach_avoid_sv1","""event"",""trial"",""time""
""fullscreenenter"",""1"",""10757""
","
","
","""event"",""trial"",""time""
""fullscreenenter"",""1"",""10757""
","
","","","","","","1006.4000000953674","images/cat5.png","","","memory_trial","4","definitely_new",""
"html-keyboard-response","255","678773","0.0-18.0-0.105","5577","approach_avoid_sv1","""event"",""trial"",""time""
""fullscreenenter"",""1"",""10757""
","
","
","""event"",""trial"",""time""
""fullscreenenter"",""1"",""10757""
","
","","","","","","null","<div style=""font-size:60px;"">+</div>","null","","fixation","","",""
"memory-trial","256","680974","0.0-18.0-1.105","5577","approach_avoid_sv1","""event"",""trial"",""time""
""fullscreenenter"",""1"",""10757""
","
","
","""event"",""trial"",""time""
""fullscreenenter"",""1"",""10757""
","
","","","","","","1194.7999999523163","images/bush4.png","","","memory_trial","3","maybe_new",""
"html-keyboard-response","257","681490","0.0-18.0-0.106","5577","approach_avoid_sv1","""event"",""trial"",""time""
""fullscreenenter"",""1"",""10757""
","
","
","""event"",""trial"",""time""
""fullscreenenter"",""1"",""10757""
","
","","","","","","null","<div style=""font-size:60px;"">+</div>","null","","fixation","","",""
"memory-trial","258","685393","0.0-18.0-1.106","5577","approach_avoid_sv1","""event"",""trial"",""time""
""fullscreenenter"",""1"",""10757""
","
","
","""event"",""trial"",""time""
""fullscreenenter"",""1"",""10757""
","
","","","","","","2892.7000000476837","images/bush1.png","","","memory_trial","4","definitely_new",""
"html-keyboard-response","259","685908","0.0-18.0-0.107","5577","approach_avoid_sv1","""event"",""trial"",""time""
""fullscreenenter"",""1"",""10757""
","
","
","""event"",""trial"",""time""
""fullscreenenter"",""1"",""10757""
","
","","","","","","null","<div style=""font-size:60px;"">+</div>","null","","fixation","","",""
"memory-trial","260","688000","0.0-18.0-1.107","5577","approach_avoid_sv1","""event"",""trial"",""time""
""fullscreenenter"",""1"",""10757""
","
","
","""event"",""trial"",""time""
""fullscreenenter"",""1"",""10757""
","
","","","","","","1079.6999998092651","images/rodent7.png","","","memory_trial","2","maybe_old",""
"html-keyboard-response","261","688514","0.0-18.0-0.108","5577","approach_avoid_sv1","""event"",""trial"",""time""
""fullscreenenter"",""1"",""10757""
","
","
","""event"",""trial"",""time""
""fullscreenenter"",""1"",""10757""
","
","","","","","","null","<div style=""font-size:60px;"">+</div>","null","","fixation","","",""
"memory-trial","262","690336","0.0-18.0-1.108","5577","approach_avoid_sv1","""event"",""trial"",""time""
""fullscreenenter"",""1"",""10757""
","
","
","""event"",""trial"",""time""
""fullscreenenter"",""1"",""10757""
","
","","","","","","799.4000000953674","images/apple6.png","","","memory_trial","3","maybe_new",""
"html-keyboard-response","263","690847","0.0-18.0-0.109","5577","approach_avoid_sv1","""event"",""trial"",""time""
""fullscreenenter"",""1"",""10757""
","
","
","""event"",""trial"",""time""
""fullscreenenter"",""1"",""10757""
","
","","","","","","null","<div style=""font-size:60px;"">+</div>","null","","fixation","","",""
"memory-trial","264","692508","0.0-18.0-1.109","5577","approach_avoid_sv1","""event"",""trial"",""time""
""fullscreenenter"",""1"",""10757""
","
","
","""event"",""trial"",""time""
""fullscreenenter"",""1"",""10757""
","
","","","","","","647.1000001430511","images/bush3.png","","","memory_trial","3","maybe_new",""
"html-keyboard-response","265","693017","0.0-18.0-0.110","5577","approach_avoid_sv1","""event"",""trial"",""time""
""fullscreenenter"",""1"",""10757""
","
","
","""event"",""trial"",""time""
""fullscreenenter"",""1"",""10757""
","
","","","","","","null","<div style=""font-size:60px;"">+</div>","null","","fixation","","",""
"memory-trial","266","695199","0.0-18.0-1.110","5577","approach_avoid_sv1","""event"",""trial"",""time""
""fullscreenenter"",""1"",""10757""
","
","
","""event"",""trial"",""time""
""fullscreenenter"",""1"",""10757""
","
","","","","","","1175.5","images/cat8.png","","","memory_trial","4","definitely_new",""
"html-keyboard-response","267","695712","0.0-18.0-0.111","5577","approach_avoid_sv1","""event"",""trial"",""time""
""fullscreenenter"",""1"",""10757""
","
","
","""event"",""trial"",""time""
""fullscreenenter"",""1"",""10757""
","
","","","","","","null","<div style=""font-size:60px;"">+</div>","null","","fixation","","",""
"memory-trial","268","697709","0.0-18.0-1.111","5577","approach_avoid_sv1","""event"",""trial"",""time""
""fullscreenenter"",""1"",""10757""
","
","
","""event"",""trial"",""time""
""fullscreenenter"",""1"",""10757""
","
","","","","","","981.5","images/bed1.png","","","memory_trial","1","definitely_old",""
"html-keyboard-response","269","698218","0.0-18.0-0.112","5577","approach_avoid_sv1","""event"",""trial"",""time""
""fullscreenenter"",""1"",""10757""
","
","
","""event"",""trial"",""time""
""fullscreenenter"",""1"",""10757""
","
","","","","","","null","<div style=""font-size:60px;"">+</div>","null","","fixation","","",""
"memory-trial","270","699991","0.0-18.0-1.112","5577","approach_avoid_sv1","""event"",""trial"",""time""
""fullscreenenter"",""1"",""10757""
","
","
","""event"",""trial"",""time""
""fullscreenenter"",""1"",""10757""
","
","","","","","","765.0999999046326","images/rodent1.png","","","memory_trial","1","definitely_old",""
"html-keyboard-response","271","700502","0.0-18.0-0.113","5577","approach_avoid_sv1","""event"",""trial"",""time""
""fullscreenenter"",""1"",""10757""
","
","
","""event"",""trial"",""time""
""fullscreenenter"",""1"",""10757""
","
","","","","","","null","<div style=""font-size:60px;"">+</div>","null","","fixation","","",""
"memory-trial","272","710514","0.0-18.0-1.113","5577","approach_avoid_sv1","""event"",""trial"",""time""
""fullscreenenter"",""1"",""10757""
","
","
","""event"",""trial"",""time""
""fullscreenenter"",""1"",""10757""
","
","","","","","","null","images/bush5.png","","","memory_trial","null","null",""
"html-keyboard-response","273","711027","0.0-18.0-0.114","5577","approach_avoid_sv1","""event"",""trial"",""time""
""fullscreenenter"",""1"",""10757""
","
","
","""event"",""trial"",""time""
""fullscreenenter"",""1"",""10757""
","
","","","","","","null","<div style=""font-size:60px;"">+</div>","null","","fixation","","",""
"memory-trial","274","714793","0.0-18.0-1.114","5577","approach_avoid_sv1","""event"",""trial"",""time""
""fullscreenenter"",""1"",""10757""
","
","
","""event"",""trial"",""time""
""fullscreenenter"",""1"",""10757""
","
","","","","","","2754.2999999523163","images/cactus8.png","","","memory_trial","4","definitely_new",""
"html-keyboard-response","275","715306","0.0-18.0-0.115","5577","approach_avoid_sv1","""event"",""trial"",""time""
""fullscreenenter"",""1"",""10757""
","
","
","""event"",""trial"",""time""
""fullscreenenter"",""1"",""10757""
","
","","","","","","null","<div style=""font-size:60px;"">+</div>","null","","fixation","","",""
"memory-trial","276","717340","0.0-18.0-1.115","5577","approach_avoid_sv1","""event"",""trial"",""time""
""fullscreenenter"",""1"",""10757""
","
","
","""event"",""trial"",""time""
""fullscreenenter"",""1"",""10757""
","
","","","","","","1019.2000000476837","images/cactus5.png","","","memory_trial","3","maybe_new",""
"html-keyboard-response","277","717849","0.0-18.0-0.116","5577","approach_avoid_sv1","""event"",""trial"",""time""
""fullscreenenter"",""1"",""10757""
","
","
","""event"",""trial"",""time""
""fullscreenenter"",""1"",""10757""
","
","","","","","","null","<div style=""font-size:60px;"">+</div>","null","","fixation","","",""
"memory-trial","278","720139","0.0-18.0-1.116","5577","approach_avoid_sv1","""event"",""trial"",""time""
""fullscreenenter"",""1"",""10757""
","
","
","""event"",""trial"",""time""
""fullscreenenter"",""1"",""10757""
","
","","","","","","1278.9000000953674","images/cat2.png","","","memory_trial","4","definitely_new",""
"html-keyboard-response","279","720657","0.0-18.0-0.117","5577","approach_avoid_sv1","""event"",""trial"",""time""
""fullscreenenter"",""1"",""10757""
","
","
","""event"",""trial"",""time""
""fullscreenenter"",""1"",""10757""
","
","","","","","","null","<div style=""font-size:60px;"">+</div>","null","","fixation","","",""
"memory-trial","280","722539","0.0-18.0-1.117","5577","approach_avoid_sv1","""event"",""trial"",""time""
""fullscreenenter"",""1"",""10757""
","
","
","""event"",""trial"",""time""
""fullscreenenter"",""1"",""10757""
","
","","","","","","870.2000000476837","images/dog2.png","","","memory_trial","4","definitely_new",""
"html-keyboard-response","281","723057","0.0-18.0-0.118","5577","approach_avoid_sv1","""event"",""trial"",""time""
""fullscreenenter"",""1"",""10757""
","
","
","""event"",""trial"",""time""
""fullscreenenter"",""1"",""10757""
","
","","","","","","null","<div style=""font-size:60px;"">+</div>","null","","fixation","","",""
"memory-trial","282","726083","0.0-18.0-1.118","5577","approach_avoid_sv1","""event"",""trial"",""time""
""fullscreenenter"",""1"",""10757""
","
","
","""event"",""trial"",""time""
""fullscreenenter"",""1"",""10757""
","
","","","","","","2013.5","images/straw2.png","","","memory_trial","4","definitely_new",""
"html-keyboard-response","283","726594","0.0-18.0-0.119","5577","approach_avoid_sv1","""event"",""trial"",""time""
""fullscreenenter"",""1"",""10757""
","
","
","""event"",""trial"",""time""
""fullscreenenter"",""1"",""10757""
","
","","","","","","null","<div style=""font-size:60px;"">+</div>","null","","fixation","","",""
"memory-trial","284","728356","0.0-18.0-1.119","5577","approach_avoid_sv1","""event"",""trial"",""time""
""fullscreenenter"",""1"",""10757""
","
","
","""event"",""trial"",""time""
""fullscreenenter"",""1"",""10757""
","
","","","","","","748.6000001430511","images/cow1.png","","","memory_trial","4","definitely_new",""
"html-keyboard-response","285","728864","0.0-18.0-0.120","5577","approach_avoid_sv1","""event"",""trial"",""time""
""fullscreenenter"",""1"",""10757""
","
","
","""event"",""trial"",""time""
""fullscreenenter"",""1"",""10757""
","
","","","","","","null","<div style=""font-size:60px;"">+</div>","null","","fixation","","",""
"memory-trial","286","730839","0.0-18.0-1.120","5577","approach_avoid_sv1","""event"",""trial"",""time""
""fullscreenenter"",""1"",""10757""
","
","
","""event"",""trial"",""time""
""fullscreenenter"",""1"",""10757""
","
","","","","","","967.2000000476837","images/cactus6.png","","","memory_trial","4","definitely_new",""
"html-keyboard-response","287","731354","0.0-18.0-0.121","5577","approach_avoid_sv1","""event"",""trial"",""time""
""fullscreenenter"",""1"",""10757""
","
","
","""event"",""trial"",""time""
""fullscreenenter"",""1"",""10757""
","
","","","","","","null","<div style=""font-size:60px;"">+</div>","null","","fixation","","",""
"memory-trial","288","733836","0.0-18.0-1.121","5577","approach_avoid_sv1","""event"",""trial"",""time""
""fullscreenenter"",""1"",""10757""
","
","
","""event"",""trial"",""time""
""fullscreenenter"",""1"",""10757""
","
","","","","","","1460.5999999046326","images/goat7.png","","","memory_trial","1","definitely_old",""
"html-keyboard-response","289","734345","0.0-18.0-0.122","5577","approach_avoid_sv1","""event"",""trial"",""time""
""fullscreenenter"",""1"",""10757""
","
","
","""event"",""trial"",""time""
""fullscreenenter"",""1"",""10757""
","
","","","","","","null","<div style=""font-size:60px;"">+</div>","null","","fixation","","",""
"memory-trial","290","737429","0.0-18.0-1.122","5577","approach_avoid_sv1","""event"",""trial"",""time""
""fullscreenenter"",""1"",""10757""
","
","
","""event"",""trial"",""time""
""fullscreenenter"",""1"",""10757""
","
","","","","","","2074.7999999523163","images/straw3.png","","","memory_trial","4","definitely_new",""
"html-keyboard-response","291","737945","0.0-18.0-0.123","5577","approach_avoid_sv1","""event"",""trial"",""time""
""fullscreenenter"",""1"",""10757""
","
","
","""event"",""trial"",""time""
""fullscreenenter"",""1"",""10757""
","
","","","","","","null","<div style=""font-size:60px;"">+</div>","null","","fixation","","",""
"memory-trial","292","739881","0.0-18.0-1.123","5577","approach_avoid_sv1","""event"",""trial"",""time""
""fullscreenenter"",""1"",""10757""
","
","
","""event"",""trial"",""time""
""fullscreenenter"",""1"",""10757""
","
","","","","","","920.7999999523163","images/goat4.png","","","memory_trial","3","maybe_new",""
"html-keyboard-response","293","740395","0.0-18.0-0.124","5577","approach_avoid_sv1","""event"",""trial"",""time""
""fullscreenenter"",""1"",""10757""
","
","
","""event"",""trial"",""time""
""fullscreenenter"",""1"",""10757""
","
","","","","","","null","<div style=""font-size:60px;"">+</div>","null","","fixation","","",""
"memory-trial","294","742574","0.0-18.0-1.124","5577","approach_avoid_sv1","""event"",""trial"",""time""
""fullscreenenter"",""1"",""10757""
","
","
","""event"",""trial"",""time""
""fullscreenenter"",""1"",""10757""
","
","","","","","","1168.1000001430511","images/apple7.png","","","memory_trial","4","definitely_new",""
"html-keyboard-response","295","743079","0.0-18.0-0.125","5577","approach_avoid_sv1","""event"",""trial"",""time""
""fullscreenenter"",""1"",""10757""
","
","
","""event"",""trial"",""time""
""fullscreenenter"",""1"",""10757""
","
","","","","","","null","<div style=""font-size:60px;"">+</div>","null","","fixation","","",""
"memory-trial","296","745905","0.0-18.0-1.125","5577","approach_avoid_sv1","""event"",""trial"",""time""
""fullscreenenter"",""1"",""10757""
","
","