"trial_type","trial_index","time_elapsed","internal_node_id","subject_id","task_version","interactions","blur_events","focus_events","fullscreenenter_events","fullscreenexit_events","success","timeout","failed_images","failed_audio","failed_video","rt","stimulus","response","button_pressed","task_part","key_press","answer","correct"
"pavlovia","0","5","0.0-0.0","6420","approach_avoid_sv1","""event"",""trial"",""time""
""fullscreenenter"",""1"",""8157""
","
","
","""event"",""trial"",""time""
""fullscreenenter"",""1"",""8157""
","
","","","","","","","","","","","","",""
"fullscreen","1","9157","0.0-1.0","6420","approach_avoid_sv1","""event"",""trial"",""time""
""fullscreenenter"",""1"",""8157""
","
","
","""event"",""trial"",""time""
""fullscreenenter"",""1"",""8157""
","
","true","","","","","","","","","","","",""
"preload","2","15123","0.0-2.0","6420","approach_avoid_sv1","""event"",""trial"",""time""
""fullscreenenter"",""1"",""8157""
","
","
","""event"",""trial"",""time""
""fullscreenenter"",""1"",""8157""
","
","true","false","[]","[]","[]","","","","","","","",""
"preload","3","19011","0.0-3.0","6420","approach_avoid_sv1","""event"",""trial"",""time""
""fullscreenenter"",""1"",""8157""
","
","
","""event"",""trial"",""time""
""fullscreenenter"",""1"",""8157""
","
","true","false","[]","[]","[]","","","","","","","",""
"preload","4","19847","0.0-4.0","6420","approach_avoid_sv1","""event"",""trial"",""time""
""fullscreenenter"",""1"",""8157""
","
","
","""event"",""trial"",""time""
""fullscreenenter"",""1"",""8157""
","
","true","false","[]","[]","[]","","","","","","","",""
"audio-keyboard-response","5","24747","0.0-5.0","6420","approach_avoid_sv1","""event"",""trial"",""time""
""fullscreenenter"",""1"",""8157""
","
","
","""event"",""trial"",""time""
""fullscreenenter"",""1"",""8157""
","
","","","","","","4901.333333333334","audio/beep_loop.wav"," ","","","","",""
"audio-button-response","6","27428","0.0-6.0","6420","approach_avoid_sv1","""event"",""trial"",""time""
""fullscreenenter"",""1"",""8157""
","
","
","""event"",""trial"",""time""
""fullscreenenter"",""1"",""8157""
","
","","","","","","2680","audio/turtle.wav","3","","","","",""
"audio-button-response","7","31699","0.0-7.0","6420","approach_avoid_sv1","""event"",""trial"",""time""
""fullscreenenter"",""1"",""8157""
","
","
","""event"",""trial"",""time""
""fullscreenenter"",""1"",""8157""
","
","","","","","","3261","audio/shark.wav","2","","","","",""
"preload","8","49967","0.0-8.0","6420","approach_avoid_sv1","""event"",""trial"",""time""
""fullscreenenter"",""1"",""8157""
","
","
","""event"",""trial"",""time""
""fullscreenenter"",""1"",""8157""
","
","true","false","[]","[]","[]","","","","","","","",""
"learning-instructions","9","59602","0.0-9.0-0.0","6420","approach_avoid_sv1","""event"",""trial"",""time""
""fullscreenenter"",""1"",""8157""
","
","
","""event"",""trial"",""time""
""fullscreenenter"",""1"",""8157""
","
","","","","","","5160.099999904633","<p> Welcome back! </p><p> Last week, you had to make choices about lots of different items.  </p>","","0","instructions","","",""
"learning-instructions","10","68482","0.0-9.0-0.1","6420","approach_avoid_sv1","""event"",""trial"",""time""
""fullscreenenter"",""1"",""8157""
","
","
","""event"",""trial"",""time""
""fullscreenenter"",""1"",""8157""
","
","","","","","","4759.899999976158","<p> Today, we are going to ask you to try to remember all the items. </p>","","0","instructions","","",""
"learning-instructions","11","80986","0.0-9.0-0.2","6420","approach_avoid_sv1","""event"",""trial"",""time""
""fullscreenenter"",""1"",""8157""
","
","
","""event"",""trial"",""time""
""fullscreenenter"",""1"",""8157""
","
","","","","","","2364.899999976158","<p> On every trial, you will see an image. </p><p> The image may be an OLD image you saw during the games last week or it may be a NEW image that was not presented. </p>","","0","instructions","","",""
"learning-instructions","12","95238","0.0-9.0-0.3","6420","approach_avoid_sv1","""event"",""trial"",""time""
""fullscreenenter"",""1"",""8157""
","
","
","""event"",""trial"",""time""
""fullscreenenter"",""1"",""8157""
","
","","","","","","5746.200000047684","<p> You need to select whether the image is:  </p><p>  'Definitely old', 'Maybe old', 'Maybe new', or 'Definitely new.'  </p><div class=""mem-choice-instructions-grid""><div class=""choice-option"" id=""choice-option-1"" ><img src=""images/definitely_old_1.png"" id=""choice-option-img-1"" class=""choice-option-img"" stage=""1""></div><div class=""choice-option"" id=""choice-option-2"" ><img src=""images/maybe_old_1.png"" id=""choice-option-img-2"" class=""choice-option-img"" stage=""1""></div><div class=""choice-option"" id=""choice-option-3"" ><img src=""images/maybe_new_1.png"" id=""choice-option-img-3"" class=""choice-option-img"" stage=""1""></div><div class=""choice-option"" id=""choice-option-4"" > <img src=""images/definitely_new_1.png"" id=""choice-option-img-4"" class=""choice-option-img"" stage=""1""></div></div>","","0","instructions","","",""
"learning-instructions","13","103462","0.0-9.0-0.4","6420","approach_avoid_sv1","""event"",""trial"",""time""
""fullscreenenter"",""1"",""8157""
","
","
","""event"",""trial"",""time""
""fullscreenenter"",""1"",""8157""
","
","","","","","","1690.2000000476837","<p> You should use the 1, 2, 3, and 4 keys to make your responses.  </p><div class=""mem-choice-instructions-grid""><div class=""choice-option"" id=""choice-option-1"" ><img src=""images/definitely_old.png"" id=""choice-option-img-1"" class=""choice-option-img"" stage=""1""></div><div class=""choice-option"" id=""choice-option-2"" ><img src=""images/maybe_old.png"" id=""choice-option-img-2"" class=""choice-option-img"" stage=""1""></div><div class=""choice-option"" id=""choice-option-3"" ><img src=""images/maybe_new.png"" id=""choice-option-img-3"" class=""choice-option-img"" stage=""1""></div><div class=""choice-option"" id=""choice-option-4"" > <img src=""images/definitely_new.png"" id=""choice-option-img-4"" class=""choice-option-img"" stage=""1""></div></div>","","0","instructions","","",""
"learning-instructions","14","172768","0.0-9.0-0.5","6420","approach_avoid_sv1","""event"",""trial"",""time""
""fullscreenenter"",""1"",""8157""
","
","
","""event"",""trial"",""time""
""fullscreenenter"",""1"",""8157""
","
","","","","","","62957.39999997616","<p> You will have 10 seconds to make each response.  </p><p>  Make sure to respond before time runs out! </p>","","0","instructions","","",""
"learning-instructions","15","198617","0.0-9.0-0.6","6420","approach_avoid_sv1","""event"",""trial"",""time""
""fullscreenenter"",""1"",""8157""
","
","
","""event"",""trial"",""time""
""fullscreenenter"",""1"",""8157""
","
","","","","","","18760","<p> Today, you will see each image ONCE only.  </p><p>  That means none of the images will repeat. </p>","","0","instructions","","",""
"learning-instructions","16","213557","0.0-9.0-0.7","6420","approach_avoid_sv1","""event"",""trial"",""time""
""fullscreenenter"",""1"",""8157""
","
","
","""event"",""trial"",""time""
""fullscreenenter"",""1"",""8157""
","
","","","","","","2260.6999999284744","<p> Before you play the real game, it is time to practice. </p><p>  Just like in the real game, some of the images in the practice will be ones you have seen before. </p><p>  Others will be entirely new. </p>","","0","instructions","","",""
"html-button-response","17","216450","0.0-10.0","6420","approach_avoid_sv1","""event"",""trial"",""time""
""fullscreenenter"",""1"",""8157""
","
","
","""event"",""trial"",""time""
""fullscreenenter"",""1"",""8157""
","
","","","","","","2785.7000000476837","<p> Ready to practice? </p><p> Remember, use the 1, 2, 3, and 4 keys to make your responses. </p>","0","","instructions","","",""
"html-keyboard-response","18","217095","0.0-11.0-0.0","6420","approach_avoid_sv1","""event"",""trial"",""time""
""fullscreenenter"",""1"",""8157""
","
","
","""event"",""trial"",""time""
""fullscreenenter"",""1"",""8157""
","
","","","","","","null","<div style=""font-size:60px;"">+</div>","null","","fixation","","",""
"memory-trial","19","221795","0.0-11.0-1.0","6420","approach_avoid_sv1","""event"",""trial"",""time""
""fullscreenenter"",""1"",""8157""
","
","
","""event"",""trial"",""time""
""fullscreenenter"",""1"",""8157""
","
","","","","","","3682.600000023842","images/ball3.png","","","practice","1","definitely_old",""
"html-keyboard-response","20","222315","0.0-11.0-0.1","6420","approach_avoid_sv1","""event"",""trial"",""time""
""fullscreenenter"",""1"",""8157""
","
","
","""event"",""trial"",""time""
""fullscreenenter"",""1"",""8157""
","
","","","","","","null","<div style=""font-size:60px;"">+</div>","null","","fixation","","",""
"memory-trial","21","228935","0.0-11.0-1.1","6420","approach_avoid_sv1","""event"",""trial"",""time""
""fullscreenenter"",""1"",""8157""
","
","
","""event"",""trial"",""time""
""fullscreenenter"",""1"",""8157""
","
","","","","","","5596.300000071526","images/ball1.png","","","practice","1","definitely_old",""
"html-keyboard-response","22","229445","0.0-11.0-0.2","6420","approach_avoid_sv1","""event"",""trial"",""time""
""fullscreenenter"",""1"",""8157""
","
","
","""event"",""trial"",""time""
""fullscreenenter"",""1"",""8157""
","
","","","","","","null","<div style=""font-size:60px;"">+</div>","null","","fixation","","",""
"memory-trial","23","232894","0.0-11.0-1.2","6420","approach_avoid_sv1","""event"",""trial"",""time""
""fullscreenenter"",""1"",""8157""
","
","
","""event"",""trial"",""time""
""fullscreenenter"",""1"",""8157""
","
","","","","","","2426.2000000476837","images/racket3.png","","","practice","1","definitely_old",""
"html-keyboard-response","24","233414","0.0-11.0-0.3","6420","approach_avoid_sv1","""event"",""trial"",""time""
""fullscreenenter"",""1"",""8157""
","
","
","""event"",""trial"",""time""
""fullscreenenter"",""1"",""8157""
","
","","","","","","null","<div style=""font-size:60px;"">+</div>","null","","fixation","","",""
"memory-trial","25","235774","0.0-11.0-1.3","6420","approach_avoid_sv1","""event"",""trial"",""time""
""fullscreenenter"",""1"",""8157""
","
","
","""event"",""trial"",""time""
""fullscreenenter"",""1"",""8157""
","
","","","","","","1351.3000000715256","images/racket2.png","","","practice","1","definitely_old",""
"html-keyboard-response","26","236282","0.0-11.0-0.4","6420","approach_avoid_sv1","""event"",""trial"",""time""
""fullscreenenter"",""1"",""8157""
","
","
","""event"",""trial"",""time""
""fullscreenenter"",""1"",""8157""
","
","","","","","","null","<div style=""font-size:60px;"">+</div>","null","","fixation","","",""
"memory-trial","27","239115","0.0-11.0-1.4","6420","approach_avoid_sv1","""event"",""trial"",""time""
""fullscreenenter"",""1"",""8157""
","
","
","""event"",""trial"",""time""
""fullscreenenter"",""1"",""8157""
","
","","","","","","1807.6000000238419","images/ball2.png","","","practice","1","definitely_old",""
"html-keyboard-response","28","239634","0.0-11.0-0.5","6420","approach_avoid_sv1","""event"",""trial"",""time""
""fullscreenenter"",""1"",""8157""
","
","
","""event"",""trial"",""time""
""fullscreenenter"",""1"",""8157""
","
","","","","","","null","<div style=""font-size:60px;"">+</div>","null","","fixation","","",""
"memory-trial","29","241774","0.0-11.0-1.5","6420","approach_avoid_sv1","""event"",""trial"",""time""
""fullscreenenter"",""1"",""8157""
","
","
","""event"",""trial"",""time""
""fullscreenenter"",""1"",""8157""
","
","","","","","","1133","images/racket1.png","","","practice","1","definitely_old",""
"html-keyboard-response","30","242278","0.0-11.0-0.6","6420","approach_avoid_sv1","""event"",""trial"",""time""
""fullscreenenter"",""1"",""8157""
","
","
","""event"",""trial"",""time""
""fullscreenenter"",""1"",""8157""
","
","","","","","","null","<div style=""font-size:60px;"">+</div>","null","","fixation","","",""
"memory-trial","31","246607","0.0-11.0-1.6","6420","approach_avoid_sv1","""event"",""trial"",""time""
""fullscreenenter"",""1"",""8157""
","
","
","""event"",""trial"",""time""
""fullscreenenter"",""1"",""8157""
","
","","","","","","3319.3000000715256","images/ball5.png","","","practice","3","maybe_new",""
"html-keyboard-response","32","247110","0.0-11.0-0.7","6420","approach_avoid_sv1","""event"",""trial"",""time""
""fullscreenenter"",""1"",""8157""
","
","
","""event"",""trial"",""time""
""fullscreenenter"",""1"",""8157""
","
","","","","","","null","<div style=""font-size:60px;"">+</div>","null","","fixation","","",""
"memory-trial","33","251775","0.0-11.0-1.7","6420","approach_avoid_sv1","""event"",""trial"",""time""
""fullscreenenter"",""1"",""8157""
","
","
","""event"",""trial"",""time""
""fullscreenenter"",""1"",""8157""
","
","","","","","","3655.600000023842","images/racket5.png","","","practice","3","maybe_new",""
"learning-instructions","34","262618","0.0-12.0-0.0","6420","approach_avoid_sv1","""event"",""trial"",""time""
""fullscreenenter"",""1"",""8157""
","
","
","""event"",""trial"",""time""
""fullscreenenter"",""1"",""8157""
","
","","","","","","3520.4000000953674","<p> Great! You have completed the practice. </p><p> Before you start, we're going to ask you a few questions about how the game works.  </p>","","0","instructions","","",""
"preload","35","286952","0.0-13.0","6420","approach_avoid_sv1","""event"",""trial"",""time""
""fullscreenenter"",""1"",""8157""
","
","
","""event"",""trial"",""time""
""fullscreenenter"",""1"",""8157""
","
","true","false","[]","[]","[]","","","","","","","",""
"comp-q","36","294519","0.0-14.0-0.0","6420","approach_avoid_sv1","""event"",""trial"",""time""
""fullscreenenter"",""1"",""8157""
","
","
","""event"",""trial"",""time""
""fullscreenenter"",""1"",""8157""
","
","","","","","","1741.1000000238419","<p> <b> True or False? </b> </p><p> In this game, you will only see each image once. </p>","","0","comp_question","","","true"
"comp-q","37","304122","0.0-14.0-1.0","6420","approach_avoid_sv1","""event"",""trial"",""time""
""fullscreenenter"",""1"",""8157""
","
","
","""event"",""trial"",""time""
""fullscreenenter"",""1"",""8157""
","
","","","","","","3254.600000023842","<p> <b> That's right! </b> You will see many different images <i> one time each </i> in this game. </p>","","0","comp_answer","","",""
"comp-q","38","310366","0.0-15.0-0.0","6420","approach_avoid_sv1","""event"",""trial"",""time""
""fullscreenenter"",""1"",""8157""
","
","
","""event"",""trial"",""time""
""fullscreenenter"",""1"",""8157""
","
","","","","","","1228.5","<p> <b> True or False? </b> </p><p> You should use the mouse and click to make your response. </p>","","1","comp_question","","","true"
"comp-q","39","319507","0.0-15.0-1.0","6420","approach_avoid_sv1","""event"",""trial"",""time""
""fullscreenenter"",""1"",""8157""
","
","
","""event"",""trial"",""time""
""fullscreenenter"",""1"",""8157""
","
","","","","","","2630","<p><b> That's right! </b> You should use the '1', '2', '3', and '4' keys to make your response. </p>","","0","comp_answer","","",""
"comp-q","40","330524","0.0-16.0-0.0","6420","approach_avoid_sv1","""event"",""trial"",""time""
""fullscreenenter"",""1"",""8157""
","
","
","""event"",""trial"",""time""
""fullscreenenter"",""1"",""8157""
","
","","","","","","5317","<p> <b> True or False? </b> </p><p> You will have as much time as you want to make each choice. </p>","","1","comp_question","","","true"
"comp-q","41","338960","0.0-16.0-1.0","6420","approach_avoid_sv1","""event"",""trial"",""time""
""fullscreenenter"",""1"",""8157""
","
","
","""event"",""trial"",""time""
""fullscreenenter"",""1"",""8157""
","
","","","","","","3732.899999976158","<p> <b> That's right! </b> You will only have 10 seconds to make each choice. </p>","","0","comp_answer","","",""
"learning-instructions","42","391850","0.0-17.0","6420","approach_avoid_sv1","""event"",""trial"",""time""
""fullscreenenter"",""1"",""8157""
","
","
","""event"",""trial"",""time""
""fullscreenenter"",""1"",""8157""
","
","","","","","","44212.799999952316","<p> Great! You are now ready to begin the game. </p><p> Remember, use the 1, 2, 3, and 4 keys to make your responses. </p>","","0","instructions","","",""
"html-keyboard-response","43","392455","0.0-18.0-0.0","6420","approach_avoid_sv1","""event"",""trial"",""time""
""fullscreenenter"",""1"",""8157""
","
","
","""event"",""trial"",""time""
""fullscreenenter"",""1"",""8157""
","
","","","","","","null","<div style=""font-size:60px;"">+</div>","null","","fixation","","",""
"memory-trial","44","396200","0.0-18.0-1.0","6420","approach_avoid_sv1","""event"",""trial"",""time""
""fullscreenenter"",""1"",""8157""
","
","
","""event"",""trial"",""time""
""fullscreenenter"",""1"",""8157""
","
","","","","","","2739.100000023842","images/table1.png","","","memory_trial","1","definitely_old",""
"html-keyboard-response","45","396702","0.0-18.0-0.1","6420","approach_avoid_sv1","""event"",""trial"",""time""
""fullscreenenter"",""1"",""8157""
","
","
","""event"",""trial"",""time""
""fullscreenenter"",""1"",""8157""
","
","","","","","","null","<div style=""font-size:60px;"">+</div>","null","","fixation","","",""
"memory-trial","46","399271","0.0-18.0-1.1","6420","approach_avoid_sv1","""event"",""trial"",""time""
""fullscreenenter"",""1"",""8157""
","
","
","""event"",""trial"",""time""
""fullscreenenter"",""1"",""8157""
","
","","","","","","1562.1000000238419","images/chair5.png","","","memory_trial","1","definitely_old",""
"html-keyboard-response","47","399774","0.0-18.0-0.2","6420","approach_avoid_sv1","""event"",""trial"",""time""
""fullscreenenter"",""1"",""8157""
","
","
","""event"",""trial"",""time""
""fullscreenenter"",""1"",""8157""
","
","","","","","","null","<div style=""font-size:60px;"">+</div>","null","","fixation","","",""
"memory-trial","48","403822","0.0-18.0-1.2","6420","approach_avoid_sv1","""event"",""trial"",""time""
""fullscreenenter"",""1"",""8157""
","
","
","""event"",""trial"",""time""
""fullscreenenter"",""1"",""8157""
","
","","","","","","3045.7000000476837","images/tree7.png","","","memory_trial","1","definitely_old",""
"html-keyboard-response","49","404327","0.0-18.0-0.3","6420","approach_avoid_sv1","""event"",""trial"",""time""
""fullscreenenter"",""1"",""8157""
","
","
","""event"",""trial"",""time""
""fullscreenenter"",""1"",""8157""
","
","","","","","","null","<div style=""font-size:60px;"">+</div>","null","","fixation","","",""
"memory-trial","50","406759","0.0-18.0-1.3","6420","approach_avoid_sv1","""event"",""trial"",""time""
""fullscreenenter"",""1"",""8157""
","
","
","""event"",""trial"",""time""
""fullscreenenter"",""1"",""8157""
","
","","","","","","1426.6000000238419","images/horse2.png","","","memory_trial","1","definitely_old",""
"html-keyboard-response","51","407263","0.0-18.0-0.4","6420","approach_avoid_sv1","""event"",""trial"",""time""
""fullscreenenter"",""1"",""8157""
","
","
","""event"",""trial"",""time""
""fullscreenenter"",""1"",""8157""
","
","","","","","","null","<div style=""font-size:60px;"">+</div>","null","","fixation","","",""
"memory-trial","52","411222","0.0-18.0-1.4","6420","approach_avoid_sv1","""event"",""trial"",""time""
""fullscreenenter"",""1"",""8157""
","
","
","""event"",""trial"",""time""
""fullscreenenter"",""1"",""8157""
","
","","","","","","2957.899999976158","images/apple5.png","","","memory_trial","4","definitely_new",""
"html-keyboard-response","53","411726","0.0-18.0-0.5","6420","approach_avoid_sv1","""event"",""trial"",""time""
""fullscreenenter"",""1"",""8157""
","
","
","""event"",""trial"",""time""
""fullscreenenter"",""1"",""8157""
","
","","","","","","null","<div style=""font-size:60px;"">+</div>","null","","fixation","","",""
"memory-trial","54","414926","0.0-18.0-1.5","6420","approach_avoid_sv1","""event"",""trial"",""time""
""fullscreenenter"",""1"",""8157""
","
","
","""event"",""trial"",""time""
""fullscreenenter"",""1"",""8157""
","
","","","","","","2193.2000000476837","images/sheep4.png","","","memory_trial","1","definitely_old",""
"html-keyboard-response","55","415431","0.0-18.0-0.6","6420","approach_avoid_sv1","""event"",""trial"",""time""
""fullscreenenter"",""1"",""8157""
","
","
","""event"",""trial"",""time""
""fullscreenenter"",""1"",""8157""
","
","","","","","","null","<div style=""font-size:60px;"">+</div>","null","","fixation","","",""
"memory-trial","56","420999","0.0-18.0-1.6","6420","approach_avoid_sv1","""event"",""trial"",""time""
""fullscreenenter"",""1"",""8157""
","
","
","""event"",""trial"",""time""
""fullscreenenter"",""1"",""8157""
","
","","","","","","4559.400000095367","images/apple8.png","","","memory_trial","3","maybe_new",""
"html-keyboard-response","57","421502","0.0-18.0-0.7","6420","approach_avoid_sv1","""event"",""trial"",""time""
""fullscreenenter"",""1"",""8157""
","
","
","""event"",""trial"",""time""
""fullscreenenter"",""1"",""8157""
","
","","","","","","null","<div style=""font-size:60px;"">+</div>","null","","fixation","","",""
"memory-trial","58","424735","0.0-18.0-1.7","6420","approach_avoid_sv1","""event"",""trial"",""time""
""fullscreenenter"",""1"",""8157""
","
","
","""event"",""trial"",""time""
""fullscreenenter"",""1"",""8157""
","
","","","","","","2225","images/truck1.png","","","memory_trial","1","definitely_old",""
"html-keyboard-response","59","425239","0.0-18.0-0.8","6420","approach_avoid_sv1","""event"",""trial"",""time""
""fullscreenenter"",""1"",""8157""
","
","
","""event"",""trial"",""time""
""fullscreenenter"",""1"",""8157""
","
","","","","","","null","<div style=""font-size:60px;"">+</div>","null","","fixation","","",""
"memory-trial","60","429695","0.0-18.0-1.8","6420","approach_avoid_sv1","""event"",""trial"",""time""
""fullscreenenter"",""1"",""8157""
","
","
","""event"",""trial"",""time""
""fullscreenenter"",""1"",""8157""
","
","","","","","","3449.5","images/boat8.png","","","memory_trial","4","definitely_new",""
"html-keyboard-response","61","430199","0.0-18.0-0.9","6420","approach_avoid_sv1","""event"",""trial"",""time""
""fullscreenenter"",""1"",""8157""
","
","
","""event"",""trial"",""time""
""fullscreenenter"",""1"",""8157""
","
","","","","","","null","<div style=""font-size:60px;"">+</div>","null","","fixation","","",""
"memory-trial","62","433719","0.0-18.0-1.9","6420","approach_avoid_sv1","""event"",""trial"",""time""
""fullscreenenter"",""1"",""8157""
","
","
","""event"",""trial"",""time""
""fullscreenenter"",""1"",""8157""
","
","","","","","","2513.100000023842","images/tree5.png","","","memory_trial","4","definitely_new",""
"html-keyboard-response","63","434223","0.0-18.0-0.10","6420","approach_avoid_sv1","""event"",""trial"",""time""
""fullscreenenter"",""1"",""8157""
","
","
","""event"",""trial"",""time""
""fullscreenenter"",""1"",""8157""
","
","","","","","","null","<div style=""font-size:60px;"">+</div>","null","","fixation","","",""
"memory-trial","64","437591","0.0-18.0-1.10","6420","approach_avoid_sv1","""event"",""trial"",""time""
""fullscreenenter"",""1"",""8157""
","
","
","""event"",""trial"",""time""
""fullscreenenter"",""1"",""8157""
","
","","","","","","2363.899999976158","images/flower6.png","","","memory_trial","4","definitely_new",""
"html-keyboard-response","65","438095","0.0-18.0-0.11","6420","approach_avoid_sv1","""event"",""trial"",""time""
""fullscreenenter"",""1"",""8157""
","
","
","""event"",""trial"",""time""
""fullscreenenter"",""1"",""8157""
","
","","","","","","null","<div style=""font-size:60px;"">+</div>","null","","fixation","","",""
"memory-trial","66","442520","0.0-18.0-1.11","6420","approach_avoid_sv1","""event"",""trial"",""time""
""fullscreenenter"",""1"",""8157""
","
","
","""event"",""trial"",""time""
""fullscreenenter"",""1"",""8157""
","
","","","","","","3414.5","images/bush8.png","","","memory_trial","2","maybe_old",""
"html-keyboard-response","67","443023","0.0-18.0-0.12","6420","approach_avoid_sv1","""event"",""trial"",""time""
""fullscreenenter"",""1"",""8157""
","
","
","""event"",""trial"",""time""
""fullscreenenter"",""1"",""8157""
","
","","","","","","null","<div style=""font-size:60px;"">+</div>","null","","fixation","","",""
"memory-trial","68","446863","0.0-18.0-1.12","6420","approach_avoid_sv1","""event"",""trial"",""time""
""fullscreenenter"",""1"",""8157""
","
","
","""event"",""trial"",""time""
""fullscreenenter"",""1"",""8157""
","
","","","","","","2830.2000000476837","images/straw5.png","","","memory_trial","4","definitely_new",""
"html-keyboard-response","69","447367","0.0-18.0-0.13","6420","approach_avoid_sv1","""event"",""trial"",""time""
""fullscreenenter"",""1"",""8157""
","
","
","""event"",""trial"",""time""
""fullscreenenter"",""1"",""8157""
","
","","","","","","null","<div style=""font-size:60px;"">+</div>","null","","fixation","","",""
"memory-trial","70","452822","0.0-18.0-1.13","6420","approach_avoid_sv1","""event"",""trial"",""time""
""fullscreenenter"",""1"",""8157""
","
","
","""event"",""trial"",""time""
""fullscreenenter"",""1"",""8157""
","
","","","","","","4448.899999976158","images/rabbit5.png","","","memory_trial","2","maybe_old",""
"html-keyboard-response","71","453326","0.0-18.0-0.14","6420","approach_avoid_sv1","""event"",""trial"",""time""
""fullscreenenter"",""1"",""8157""
","
","
","""event"",""trial"",""time""
""fullscreenenter"",""1"",""8157""
","
","","","","","","null","<div style=""font-size:60px;"">+</div>","null","","fixation","","",""
"memory-trial","72","455934","0.0-18.0-1.14","6420","approach_avoid_sv1","""event"",""trial"",""time""
""fullscreenenter"",""1"",""8157""
","
","
","""event"",""trial"",""time""
""fullscreenenter"",""1"",""8157""
","
","","","","","","1601","images/truck7.png","","","memory_trial","1","definitely_old",""
"html-keyboard-response","73","456438","0.0-18.0-0.15","6420","approach_avoid_sv1","""event"",""trial"",""time""
""fullscreenenter"",""1"",""8157""
","
","
","""event"",""trial"",""time""
""fullscreenenter"",""1"",""8157""
","
","","","","","","null","<div style=""font-size:60px;"">+</div>","null","","fixation","","",""
"memory-trial","74","460807","0.0-18.0-1.15","6420","approach_avoid_sv1","""event"",""trial"",""time""
""fullscreenenter"",""1"",""8157""
","
","
","""event"",""trial"",""time""
""fullscreenenter"",""1"",""8157""
","
","","","","","","3359.3000000715256","images/truck4.png","","","memory_trial","4","definitely_new",""
"html-keyboard-response","75","461310","0.0-18.0-0.16","6420","approach_avoid_sv1","""event"",""trial"",""time""
""fullscreenenter"",""1"",""8157""
","
","
","""event"",""trial"",""time""
""fullscreenenter"",""1"",""8157""
","
","","","","","","null","<div style=""font-size:60px;"">+</div>","null","","fixation","","",""
"memory-trial","76","465478","0.0-18.0-1.16","6420","approach_avoid_sv1","""event"",""trial"",""time""
""fullscreenenter"",""1"",""8157""
","
","
","""event"",""trial"",""time""
""fullscreenenter"",""1"",""8157""
","
","","","","","","3164.899999976158","images/orange3.png","","","memory_trial","2","maybe_old",""
"html-keyboard-response","77","465982","0.0-18.0-0.17","6420","approach_avoid_sv1","""event"",""trial"",""time""
""fullscreenenter"",""1"",""8157""
","
","
","""event"",""trial"",""time""
""fullscreenenter"",""1"",""8157""
","
","","","","","","null","<div style=""font-size:60px;"">+</div>","null","","fixation","","",""
"memory-trial","78","469030","0.0-18.0-1.17","6420","approach_avoid_sv1","""event"",""trial"",""time""
""fullscreenenter"",""1"",""8157""
","
","
","""event"",""trial"",""time""
""fullscreenenter"",""1"",""8157""
","
","","","","","","2042.5","images/bed4.png","","","memory_trial","1","definitely_old",""
"html-keyboard-response","79","469535","0.0-18.0-0.18","6420","approach_avoid_sv1","""event"",""trial"",""time""
""fullscreenenter"",""1"",""8157""
","
","
","""event"",""trial"",""time""
""fullscreenenter"",""1"",""8157""
","
","","","","","","null","<div style=""font-size:60px;"">+</div>","null","","fixation","","",""
"memory-trial","80","475407","0.0-18.0-1.18","6420","approach_avoid_sv1","""event"",""trial"",""time""
""fullscreenenter"",""1"",""8157""
","
","
","""event"",""trial"",""time""
""fullscreenenter"",""1"",""8157""
","
","","","","","","4862.199999928474","images/table8.png","","","memory_trial","3","maybe_new",""
"html-keyboard-response","81","475911","0.0-18.0-0.19","6420","approach_avoid_sv1","""event"",""trial"",""time""
""fullscreenenter"",""1"",""8157""
","
","
","""event"",""trial"",""time""
""fullscreenenter"",""1"",""8157""
","
","","","","","","null","<div style=""font-size:60px;"">+</div>","null","","fixation","","",""
"memory-trial","82","480846","0.0-18.0-1.19","6420","approach_avoid_sv1","""event"",""trial"",""time""
""fullscreenenter"",""1"",""8157""
","
","
","""event"",""trial"",""time""
""fullscreenenter"",""1"",""8157""
","
","","","","","","3926.8000000715256","images/bush2.png","","","memory_trial","4","definitely_new",""
"html-keyboard-response","83","481350","0.0-18.0-0.20","6420","approach_avoid_sv1","""event"",""trial"",""time""
""fullscreenenter"",""1"",""8157""
","
","
","""event"",""trial"",""time""
""fullscreenenter"",""1"",""8157""
","
","","","","","","null","<div style=""font-size:60px;"">+</div>","null","","fixation","","",""
"memory-trial","84","486614","0.0-18.0-1.20","6420","approach_avoid_sv1","""event"",""trial"",""time""
""fullscreenenter"",""1"",""8157""
","
","
","""event"",""trial"",""time""
""fullscreenenter"",""1"",""8157""
","
","","","","","","4257.299999952316","images/straw8.png","","","memory_trial","3","maybe_new",""
"html-keyboard-response","85","487119","0.0-18.0-0.21","6420","approach_avoid_sv1","""event"",""trial"",""time""
""fullscreenenter"",""1"",""8157""
","
","
","""event"",""trial"",""time""
""fullscreenenter"",""1"",""8157""
","
","","","","","","null","<div style=""font-size:60px;"">+</div>","null","","fixation","","",""
"memory-trial","86","492431","0.0-18.0-1.21","6420","approach_avoid_sv1","""event"",""trial"",""time""
""fullscreenenter"",""1"",""8157""
","
","
","""event"",""trial"",""time""
""fullscreenenter"",""1"",""8157""
","
","","","","","","4301.600000023842","images/train8.png","","","memory_trial","3","maybe_new",""
"html-keyboard-response","87","492934","0.0-18.0-0.22","6420","approach_avoid_sv1","""event"",""trial"",""time""
""fullscreenenter"",""1"",""8157""
","
","
","""event"",""trial"",""time""
""fullscreenenter"",""1"",""8157""
","
","","","","","","null","<div style=""font-size:60px;"">+</div>","null","","fixation","","",""
"memory-trial","88","496198","0.0-18.0-1.22","6420","approach_avoid_sv1","""event"",""trial"",""time""
""fullscreenenter"",""1"",""8157""
","
","
","""event"",""trial"",""time""
""fullscreenenter"",""1"",""8157""
","
","","","","","","2254.899999976158","images/apple6.png","","","memory_trial","4","definitely_new",""
"html-keyboard-response","89","496702","0.0-18.0-0.23","6420","approach_avoid_sv1","""event"",""trial"",""time""
""fullscreenenter"",""1"",""8157""
","
","
","""event"",""trial"",""time""
""fullscreenenter"",""1"",""8157""
","
","","","","","","null","<div style=""font-size:60px;"">+</div>","null","","fixation","","",""
"memory-trial","90","501302","0.0-18.0-1.23","6420","approach_avoid_sv1","""event"",""trial"",""time""
""fullscreenenter"",""1"",""8157""
","
","
","""event"",""trial"",""time""
""fullscreenenter"",""1"",""8157""
","
","","","","","","3594.3000000715256","images/plane7.png","","","memory_trial","3","maybe_new",""
"html-keyboard-response","91","501806","0.0-18.0-0.24","6420","approach_avoid_sv1","""event"",""trial"",""time""
""fullscreenenter"",""1"",""8157""
","
","
","""event"",""trial"",""time""
""fullscreenenter"",""1"",""8157""
","
","","","","","","null","<div style=""font-size:60px;"">+</div>","null","","fixation","","",""
"memory-trial","92","509982","0.0-18.0-1.24","6420","approach_avoid_sv1","""event"",""trial"",""time""
""fullscreenenter"",""1"",""8157""
","
","
","""event"",""trial"",""time""
""fullscreenenter"",""1"",""8157""
","
","","","","","","7169.199999928474","images/boat2.png","","","memory_trial","3","maybe_new",""
"html-keyboard-response","93","510486","0.0-18.0-0.25","6420","approach_avoid_sv1","""event"",""trial"",""time""
""fullscreenenter"",""1"",""8157""
","
","
","""event"",""trial"",""time""
""fullscreenenter"",""1"",""8157""
","
","","","","","","null","<div style=""font-size:60px;"">+</div>","null","","fixation","","",""
"memory-trial","94","513072","0.0-18.0-1.25","6420","approach_avoid_sv1","""event"",""trial"",""time""
""fullscreenenter"",""1"",""8157""
","
","
","""event"",""trial"",""time""
""fullscreenenter"",""1"",""8157""
","
","","","","","","1580.2999999523163","images/cactus6.png","","","memory_trial","1","definitely_old",""
"html-keyboard-response","95","513575","0.0-18.0-0.26","6420","approach_avoid_sv1","""event"",""trial"",""time""
""fullscreenenter"",""1"",""8157""
","
","
","""event"",""trial"",""time""
""fullscreenenter"",""1"",""8157""
","
","","","","","","null","<div style=""font-size:60px;"">+</div>","null","","fixation","","",""
"memory-trial","96","520632","0.0-18.0-1.26","6420","approach_avoid_sv1","""event"",""trial"",""time""
""fullscreenenter"",""1"",""8157""
","
","
","""event"",""trial"",""time""
""fullscreenenter"",""1"",""8157""
","
","","","","","","6049.899999976158","images/horse3.png","","","memory_trial","3","maybe_new",""
"html-keyboard-response","97","521135","0.0-18.0-0.27","6420","approach_avoid_sv1","""event"",""trial"",""time""
""fullscreenenter"",""1"",""8157""
","
","
","""event"",""trial"",""time""
""fullscreenenter"",""1"",""8157""
","
","","","","","","null","<div style=""font-size:60px;"">+</div>","null","","fixation","","",""
"memory-trial","98","527431","0.0-18.0-1.27","6420","approach_avoid_sv1","""event"",""trial"",""time""
""fullscreenenter"",""1"",""8157""
","
","
","""event"",""trial"",""time""
""fullscreenenter"",""1"",""8157""
","
","","","","","","5292.600000023842","images/cat3.png","","","memory_trial","2","maybe_old",""
"html-keyboard-response","99","527935","0.0-18.0-0.28","6420","approach_avoid_sv1","""event"",""trial"",""time""
""fullscreenenter"",""1"",""8157""
","
","
","""event"",""trial"",""time""
""fullscreenenter"",""1"",""8157""
","
","","","","","","null","<div style=""font-size:60px;"">+</div>","null","","fixation","","",""
"memory-trial","100","530879","0.0-18.0-1.28","6420","approach_avoid_sv1","""event"",""trial"",""time""
""fullscreenenter"",""1"",""8157""
","
","
","""event"",""trial"",""time""
""fullscreenenter"",""1"",""8157""
","
","","","","","","1939.2000000476837","images/cat5.png","","","memory_trial","1","definitely_old",""
"html-keyboard-response","101","531383","0.0-18.0-0.29","6420","approach_avoid_sv1","""event"",""trial"",""time""
""fullscreenenter"",""1"",""8157""
","
","
","""event"",""trial"",""time""
""fullscreenenter"",""1"",""8157""
","
","","","","","","null","<div style=""font-size:60px;"">+</div>","null","","fixation","","",""
"memory-trial","102","536663","0.0-18.0-1.29","6420","approach_avoid_sv1","""event"",""trial"",""time""
""fullscreenenter"",""1"",""8157""
","
","
","""event"",""trial"",""time""
""fullscreenenter"",""1"",""8157""
","
","","","","","","4271.600000023842","images/boat7.png","","","memory_trial","3","maybe_new",""
"html-keyboard-response","103","537167","0.0-18.0-0.30","6420","approach_avoid_sv1","""event"",""trial"",""time""
""fullscreenenter"",""1"",""8157""
","
","
","""event"",""trial"",""time""
""fullscreenenter"",""1"",""8157""
","
","","","","","","null","<div style=""font-size:60px;"">+</div>","null","","fixation","","",""
"memory-trial","104","540615","0.0-18.0-1.30","6420","approach_avoid_sv1","""event"",""trial"",""time""
""fullscreenenter"",""1"",""8157""
","
","
","""event"",""trial"",""time""
""fullscreenenter"",""1"",""8157""
","
","","","","","","2440","images/truck6.png","","","memory_trial","4","definitely_new",""
"html-keyboard-response","105","541119","0.0-18.0-0.31","6420","approach_avoid_sv1","""event"",""trial"",""time""
""fullscreenenter"",""1"",""8157""
","
","
","""event"",""trial"",""time""
""fullscreenenter"",""1"",""8157""
","
","","","","","","null","<div style=""font-size:60px;"">+</div>","null","","fixation","","",""
"memory-trial","106","545615","0.0-18.0-1.31","6420","approach_avoid_sv1","""event"",""trial"",""time""
""fullscreenenter"",""1"",""8157""
","
","
","""event"",""trial"",""time""
""fullscreenenter"",""1"",""8157""
","
","","","","","","3487.6999999284744","images/sheep3.png","","","memory_trial","3","maybe_new",""
"html-keyboard-response","107","546119","0.0-18.0-0.32","6420","approach_avoid_sv1","""event"",""trial"",""time""
""fullscreenenter"",""1"",""8157""
","
","
","""event"",""trial"",""time""
""fullscreenenter"",""1"",""8157""
","
","","","","","","null","<div style=""font-size:60px;"">+</div>","null","","fixation","","",""
"memory-trial","108","549175","0.0-18.0-1.32","6420","approach_avoid_sv1","""event"",""trial"",""time""
""fullscreenenter"",""1"",""8157""
","
","
","""event"",""trial"",""time""
""fullscreenenter"",""1"",""8157""
","
","","","","","","2049.899999976158","images/rabbit8.png","","","memory_trial","1","definitely_old",""
"html-keyboard-response","109","549679","0.0-18.0-0.33","6420","approach_avoid_sv1","""event"",""trial"",""time""
""fullscreenenter"",""1"",""8157""
","
","
","""event"",""trial"",""time""
""fullscreenenter"",""1"",""8157""
","
","","","","","","null","<div style=""font-size:60px;"">+</div>","null","","fixation","","",""
"memory-trial","110","551968","0.0-18.0-1.33","6420","approach_avoid_sv1","""event"",""trial"",""time""
""fullscreenenter"",""1"",""8157""
","
","
","""event"",""trial"",""time""
""fullscreenenter"",""1"",""8157""
","
","","","","","","1285.3000000715256","images/rabbit7.png","","","memory_trial","1","definitely_old",""
"html-keyboard-response","111","552471","0.0-18.0-0.34","6420","approach_avoid_sv1","""event"",""trial"",""time""
""fullscreenenter"",""1"",""8157""
","
","
","""event"",""trial"",""time""
""fullscreenenter"",""1"",""8157""
","
","","","","","","null","<div style=""font-size:60px;"">+</div>","null","","fixation","","",""
"memory-trial","112","556119","0.0-18.0-1.34","6420","approach_avoid_sv1","""event"",""trial"",""time""
""fullscreenenter"",""1"",""8157""
","
","
","""event"",""trial"",""time""
""fullscreenenter"",""1"",""8157""
","
","","","","","","2641","images/goat7.png","","","memory_trial","3","maybe_new",""
"html-keyboard-response","113","556623","0.0-18.0-0.35","6420","approach_avoid_sv1","""event"",""trial"",""time""
""fullscreenenter"",""1"",""8157""
","
","
","""event"",""trial"",""time""
""fullscreenenter"",""1"",""8157""
","
","","","","","","null","<div style=""font-size:60px;"">+</div>","null","","fixation","","",""
"memory-trial","114","559103","0.0-18.0-1.35","6420","approach_avoid_sv1","""event"",""trial"",""time""
""fullscreenenter"",""1"",""8157""
","
","
","""event"",""trial"",""time""
""fullscreenenter"",""1"",""8157""
","
","","","","","","1471.5999999046326","images/cactus2.png","","","memory_trial","1","definitely_old",""
"html-keyboard-response","115","559607","0.0-18.0-0.36","6420","approach_avoid_sv1","""event"",""trial"",""time""
""fullscreenenter"",""1"",""8157""
","
","
","""event"",""trial"",""time""
""fullscreenenter"",""1"",""8157""
","
","","","","","","null","<div style=""font-size:60px;"">+</div>","null","","fixation","","",""
"memory-trial","116","561623","0.0-18.0-1.36","6420","approach_avoid_sv1","""event"",""trial"",""time""
""fullscreenenter"",""1"",""8157""
","
","
","""event"",""trial"",""time""
""fullscreenenter"",""1"",""8157""
","
","","","","","","1009","images/table4.png","","","memory_trial","1","definitely_old",""
"html-keyboard-response","117","562127","0.0-18.0-0.37","6420","approach_avoid_sv1","""event"",""trial"",""time""
""fullscreenenter"",""1"",""8157""
","
","
","""event"",""trial"",""time""
""fullscreenenter"",""1"",""8157""
","
","","","","","","null","<div style=""font-size:60px;"">+</div>","null","","fixation","","",""
"memory-trial","118","566016","0.0-18.0-1.37","6420","approach_avoid_sv1","""event"",""trial"",""time""
""fullscreenenter"",""1"",""8157""
","
","
","""event"",""trial"",""time""
""fullscreenenter"",""1"",""8157""
","
","","","","","","2882.7000000476837","images/train1.png","","","memory_trial","3","maybe_new",""
"html-keyboard-response","119","566519","0.0-18.0-0.38","6420","approach_avoid_sv1","""event"",""trial"",""time""
""fullscreenenter"",""1"",""8157""
","
","
","""event"",""trial"",""time""
""fullscreenenter"",""1"",""8157""
","
","","","","","","null","<div style=""font-size:60px;"">+</div>","null","","fixation","","",""
"memory-trial","120","571199","0.0-18.0-1.38","6420","approach_avoid_sv1","""event"",""trial"",""time""
""fullscreenenter"",""1"",""8157""
","
","
","""event"",""trial"",""time""
""fullscreenenter"",""1"",""8157""
","
","","","","","","3670.2000000476837","images/orange8.png","","","memory_trial","3","maybe_new",""
"html-keyboard-response","121","571703","0.0-18.0-0.39","6420","approach_avoid_sv1","""event"",""trial"",""time""
""fullscreenenter"",""1"",""8157""
","
","
","""event"",""trial"",""time""
""fullscreenenter"",""1"",""8157""
","
","","","","","","null","<div style=""font-size:60px;"">+</div>","null","","fixation","","",""
"memory-trial","122","576046","0.0-18.0-1.39","6420","approach_avoid_sv1","""event"",""trial"",""time""
""fullscreenenter"",""1"",""8157""
","
","
","""event"",""trial"",""time""
""fullscreenenter"",""1"",""8157""
","
","","","","","","3336.1999999284744","images/cat2.png","","","memory_trial","2","maybe_old",""
"html-keyboard-response","123","576550","0.0-18.0-0.40","6420","approach_avoid_sv1","""event"",""trial"",""time""
""fullscreenenter"",""1"",""8157""
","
","
","""event"",""trial"",""time""
""fullscreenenter"",""1"",""8157""
","
","","","","","","null","<div style=""font-size:60px;"">+</div>","null","","fixation","","",""
"memory-trial","124","582878","0.0-18.0-1.40","6420","approach_avoid_sv1","""event"",""trial"",""time""
""fullscreenenter"",""1"",""8157""
","
","
","""event"",""trial"",""time""
""fullscreenenter"",""1"",""8157""
","
","","","","","","5322.199999928474","images/sofa5.png","","","memory_trial","3","maybe_new",""
"html-keyboard-response","125","583382","0.0-18.0-0.41","6420","approach_avoid_sv1","""event"",""trial"",""time""
""fullscreenenter"",""1"",""8157""
","
","
","""event"",""trial"",""time""
""fullscreenenter"",""1"",""8157""
","
","","","","","","null","<div style=""font-size:60px;"">+</div>","null","","fixation","","",""
"memory-trial","126","587607","0.0-18.0-1.41","6420","approach_avoid_sv1","""event"",""trial"",""time""
""fullscreenenter"",""1"",""8157""
","
","
","""event"",""trial"",""time""
""fullscreenenter"",""1"",""8157""
","
","","","","","","3217.1999999284744","images/rabbit6.png","","","memory_trial","3","maybe_new",""
"html-button-response","127","616321","0.0-18.0-2.41-0.41","6420","approach_avoid_sv1","""event"",""trial"",""time""
""fullscreenenter"",""1"",""8157""
","
","
","""event"",""trial"",""time""
""fullscreenenter"",""1"",""8157""
","
","","","","","","28712.700000047684","<p> Take a break! </p><p> Click the button to continue. </p>","0","","break","","",""
"html-keyboard-response","128","616822","0.0-18.0-0.42","6420","approach_avoid_sv1","""event"",""trial"",""time""
""fullscreenenter"",""1"",""8157""
","
","
","""event"",""trial"",""time""
""fullscreenenter"",""1"",""8157""
","
","","","","","","null","<div style=""font-size:60px;"">+</div>","null","","fixation","","",""
"memory-trial","129","620070","0.0-18.0-1.42","6420","approach_avoid_sv1","""event"",""trial"",""time""
""fullscreenenter"",""1"",""8157""
","
","
","""event"",""trial"",""time""
""fullscreenenter"",""1"",""8157""
","
","","","","","","2242.100000023842","images/flower4.png","","","memory_trial","4","definitely_new",""
"html-keyboard-response","130","620574","0.0-18.0-0.43","6420","approach_avoid_sv1","""event"",""trial"",""time""
""fullscreenenter"",""1"",""8157""
","
","
","""event"",""trial"",""time""
""fullscreenenter"",""1"",""8157""
","
","","","","","","null","<div style=""font-size:60px;"">+</div>","null","","fixation","","",""
"memory-trial","131","623039","0.0-18.0-1.43","6420","approach_avoid_sv1","""event"",""trial"",""time""
""fullscreenenter"",""1"",""8157""
","
","
","""event"",""trial"",""time""
""fullscreenenter"",""1"",""8157""
","
","","","","","","1458.7999999523163","images/cow6.png","","","memory_trial","1","definitely_old",""
"html-keyboard-response","132","623542","0.0-18.0-0.44","6420","approach_avoid_sv1","""event"",""trial"",""time""
""fullscreenenter"",""1"",""8157""
","
","
","""event"",""trial"",""time""
""fullscreenenter"",""1"",""8157""
","
","","","","","","null","<div style=""font-size:60px;"">+</div>","null","","fixation","","",""
"memory-trial","133","625886","0.0-18.0-1.44","6420","approach_avoid_sv1","""event"",""trial"",""time""
""fullscreenenter"",""1"",""8157""
","
","
","""event"",""trial"",""time""
""fullscreenenter"",""1"",""8157""
","
","","","","","","1334.1000000238419","images/orange6.png","","","memory_trial","1","definitely_old",""
"html-keyboard-response","134","626390","0.0-18.0-0.45","6420","approach_avoid_sv1","""event"",""trial"",""time""
""fullscreenenter"",""1"",""8157""
","
","
","""event"",""trial"",""time""
""fullscreenenter"",""1"",""8157""
","
","","","","","","null","<div style=""font-size:60px;"">+</div>","null","","fixation","","",""
"memory-trial","135","628486","0.0-18.0-1.45","6420","approach_avoid_sv1","""event"",""trial"",""time""
""fullscreenenter"",""1"",""8157""
","
","
","""event"",""trial"",""time""
""fullscreenenter"",""1"",""8157""
","
","","","","","","1091.5","images/table5.png","","","memory_trial","1","definitely_old",""
"html-keyboard-response","136","628990","0.0-18.0-0.46","6420","approach_avoid_sv1","""event"",""trial"",""time""
""fullscreenenter"",""1"",""8157""
","
","
","""event"",""trial"",""time""
""fullscreenenter"",""1"",""8157""
","
","","","","","","null","<div style=""font-size:60px;"">+</div>","null","","fixation","","",""
"memory-trial","137","633927","0.0-18.0-1.46","6420","approach_avoid_sv1","""event"",""trial"",""time""
""fullscreenenter"",""1"",""8157""
","
","
","""event"",""trial"",""time""
""fullscreenenter"",""1"",""8157""
","
","","","","","","3929.899999976158","images/bush6.png","","","memory_trial","2","maybe_old",""
"html-keyboard-response","138","634431","0.0-18.0-0.47","6420","approach_avoid_sv1","""event"",""trial"",""time""
""fullscreenenter"",""1"",""8157""
","
","
","""event"",""trial"",""time""
""fullscreenenter"",""1"",""8157""
","
","","","","","","null","<div style=""font-size:60px;"">+</div>","null","","fixation","","",""
"memory-trial","139","638455","0.0-18.0-1.47","6420","approach_avoid_sv1","""event"",""trial"",""time""
""fullscreenenter"",""1"",""8157""
","
","
","""event"",""trial"",""time""
""fullscreenenter"",""1"",""8157""
","
","","","","","","3020.6999999284744","images/truck8.png","","","memory_trial","1","definitely_old",""
"html-keyboard-response","140","638960","0.0-18.0-0.48","6420","approach_avoid_sv1","""event"",""trial"",""time""
""fullscreenenter"",""1"",""8157""
","
","
","""event"",""trial"",""time""
""fullscreenenter"",""1"",""8157""
","
","","","","","","null","<div style=""font-size:60px;"">+</div>","null","","fixation","","",""
"memory-trial","141","641335","0.0-18.0-1.48","6420","approach_avoid_sv1","""event"",""trial"",""time""
""fullscreenenter"",""1"",""8157""
","
","
","""event"",""trial"",""time""
""fullscreenenter"",""1"",""8157""
","
","","","","","","1369.1000000238419","images/bed6.png","","","memory_trial","1","definitely_old",""
"html-keyboard-response","142","641838","0.0-18.0-0.49","6420","approach_avoid_sv1","""event"",""trial"",""time""
""fullscreenenter"",""1"",""8157""
","
","
","""event"",""trial"",""time""
""fullscreenenter"",""1"",""8157""
","
","","","","","","null","<div style=""font-size:60px;"">+</div>","null","","fixation","","",""
"memory-trial","143","645175","0.0-18.0-1.49","6420","approach_avoid_sv1","""event"",""trial"",""time""
""fullscreenenter"",""1"",""8157""
","
","
","""event"",""trial"",""time""
""fullscreenenter"",""1"",""8157""
","
","","","","","","2331","images/boat4.png","","","memory_trial","4","definitely_new",""
"html-keyboard-response","144","645679","0.0-18.0-0.50","6420","approach_avoid_sv1","""event"",""trial"",""time""
""fullscreenenter"",""1"",""8157""
","
","
","""event"",""trial"",""time""
""fullscreenenter"",""1"",""8157""
","
","","","","","","null","<div style=""font-size:60px;"">+</div>","null","","fixation","","",""
"memory-trial","145","648560","0.0-18.0-1.50","6420","approach_avoid_sv1","""event"",""trial"",""time""
""fullscreenenter"",""1"",""8157""
","
","
","""event"",""trial"",""time""
""fullscreenenter"",""1"",""8157""
","
","","","","","","1874.8999999761581","images/cow3.png","","","memory_trial","1","definitely_old",""
"html-keyboard-response","146","649062","0.0-18.0-0.51","6420","approach_avoid_sv1","""event"",""trial"",""time""
""fullscreenenter"",""1"",""8157""
","
","
","""event"",""trial"",""time""
""fullscreenenter"",""1"",""8157""
","
","","","","","","null","<div style=""font-size:60px;"">+</div>","null","","fixation","","",""
"memory-trial","147","655951","0.0-18.0-1.51","6420","approach_avoid_sv1","""event"",""trial"",""time""
""fullscreenenter"",""1"",""8157""
","
","
","""event"",""trial"",""time""
""fullscreenenter"",""1"",""8157""
","
","","","","","","5881.600000023842","images/boat1.png","","","memory_trial","3","maybe_new",""
"html-keyboard-response","148","656454","0.0-18.0-0.52","6420","approach_avoid_sv1","""event"",""trial"",""time""
""fullscreenenter"",""1"",""8157""
","
","
","""event"",""trial"",""time""
""fullscreenenter"",""1"",""8157""
","
","","","","","","null","<div style=""font-size:60px;"">+</div>","null","","fixation","","",""
"memory-trial","149","664952","0.0-18.0-1.52","6420","approach_avoid_sv1","""event"",""trial"",""time""
""fullscreenenter"",""1"",""8157""
","
","
","""event"",""trial"",""time""
""fullscreenenter"",""1"",""8157""
","
","","","","","","7490.899999976158","images/plane5.png","","","memory_trial","2","maybe_old",""
"html-keyboard-response","150","665454","0.0-18.0-0.53","6420","approach_avoid_sv1","""event"",""trial"",""time""
""fullscreenenter"",""1"",""8157""
","
","
","""event"",""trial"",""time""
""fullscreenenter"",""1"",""8157""
","
","","","","","","null","<div style=""font-size:60px;"">+</div>","null","","fixation","","",""
"memory-trial","151","670424","0.0-18.0-1.53","6420","approach_avoid_sv1","""event"",""trial"",""time""
""fullscreenenter"",""1"",""8157""
","
","
","""event"",""trial"",""time""
""fullscreenenter"",""1"",""8157""
","
","","","","","","3960.2000000476837","images/horse4.png","","","memory_trial","2","maybe_old",""
"html-keyboard-response","152","670926","0.0-18.0-0.54","6420","approach_avoid_sv1","""event"",""trial"",""time""
""fullscreenenter"",""1"",""8157""
","
","
","""event"",""trial"",""time""
""fullscreenenter"",""1"",""8157""
","
","","","","","","null","<div style=""font-size:60px;"">+</div>","null","","fixation","","",""
"memory-trial","153","676639","0.0-18.0-1.54","6420","approach_avoid_sv1","""event"",""trial"",""time""
""fullscreenenter"",""1"",""8157""
","
","
","""event"",""trial"",""time""
""fullscreenenter"",""1"",""8157""
","
","","","","","","4705.800000071526","images/straw2.png","","","memory_trial","2","maybe_old",""
"html-keyboard-response","154","677143","0.0-18.0-0.55","6420","approach_avoid_sv1","""event"",""trial"",""time""
""fullscreenenter"",""1"",""8157""
","
","
","""event"",""trial"",""time""
""fullscreenenter"",""1"",""8157""
","
","","","","","","null","<div style=""font-size:60px;"">+</div>","null","","fixation","","",""
"memory-trial","155","681654","0.0-18.0-1.55","6420","approach_avoid_sv1","""event"",""trial"",""time""
""fullscreenenter"",""1"",""8157""
","
","
","""event"",""trial"",""time""
""fullscreenenter"",""1"",""8157""
","
","","","","","","3508.8000000715256","images/orange1.png","","","memory_trial","1","definitely_old",""
"html-keyboard-response","156","682159","0.0-18.0-0.56","6420","approach_avoid_sv1","""event"",""trial"",""time""
""fullscreenenter"",""1"",""8157""
","
","
","""event"",""trial"",""time""
""fullscreenenter"",""1"",""8157""
","
","","","","","","null","<div style=""font-size:60px;"">+</div>","null","","fixation","","",""
"memory-trial","157","686839","0.0-18.0-1.56","6420","approach_avoid_sv1","""event"",""trial"",""time""
""fullscreenenter"",""1"",""8157""
","
","
","""event"",""trial"",""time""
""fullscreenenter"",""1"",""8157""
","
","","","","","","3676.2999999523163","images/sheep6.png","","","memory_trial","1","definitely_old",""
"html-keyboard-response","158","687343","0.0-18.0-0.57","6420","approach_avoid_sv1","""event"",""trial"",""time""
""fullscreenenter"",""1"",""8157""
","
","
","""event"",""trial"",""time""
""fullscreenenter"",""1"",""8157""
","
","","","","","","null","<div style=""font-size:60px;"">+</div>","null","","fixation","","",""
"memory-trial","159","692463","0.0-18.0-1.57","6420","approach_avoid_sv1","""event"",""trial"",""time""
""fullscreenenter"",""1"",""8157""
","
","
","""event"",""trial"",""time""
""fullscreenenter"",""1"",""8157""
","
","","","","","","4115.5","images/cactus7.png","","","memory_trial","3","maybe_new",""
"html-keyboard-response","160","692966","0.0-18.0-0.58","6420","approach_avoid_sv1","""event"",""trial"",""time""
""fullscreenenter"",""1"",""8157""
","
","
","""event"",""trial"",""time""
""fullscreenenter"",""1"",""8157""
","
","","","","","","null","<div style=""font-size:60px;"">+</div>","null","","fixation","","",""
"memory-trial","161","696536","0.0-18.0-1.58","6420","approach_avoid_sv1","""event"",""trial"",""time""
""fullscreenenter"",""1"",""8157""
","
","
","""event"",""trial"",""time""
""fullscreenenter"",""1"",""8157""
","
","","","","","","2560.6999999284744","images/banana1.png","","","memory_trial","1","definitely_old",""
"html-keyboard-response","162","697039","0.0-18.0-0.59","6420","approach_avoid_sv1","""event"",""trial"",""time""
""fullscreenenter"",""1"",""8157""
","
","
","""event"",""trial"",""time""
""fullscreenenter"",""1"",""8157""
","
","","","","","","null","<div style=""font-size:60px;"">+</div>","null","","fixation","","",""
"memory-trial","163","699279","0.0-18.0-1.59","6420","approach_avoid_sv1","""event"",""trial"",""time""
""fullscreenenter"",""1"",""8157""
","
","
","""event"",""trial"",""time""
""fullscreenenter"",""1"",""8157""
","
","","","","","","1237.6000000238419","images/train6.png","","","memory_trial","1","definitely_old",""
"html-keyboard-response","164","699783","0.0-18.0-0.60","6420","approach_avoid_sv1","""event"",""trial"",""time""
""fullscreenenter"",""1"",""8157""
","
","
","""event"",""trial"",""time""
""fullscreenenter"",""1"",""8157""
","
","","","","","","null","<div style=""font-size:60px;"">+</div>","null","","fixation","","",""
"memory-trial","165","703780","0.0-18.0-1.60","6420","approach_avoid_sv1","""event"",""trial"",""time""
""fullscreenenter"",""1"",""8157""
","
","
","""event"",""trial"",""time""
""fullscreenenter"",""1"",""8157""
","
","","","","","","2987.600000023842","images/cactus8.png","","","memory_trial","1","definitely_old",""
"html-keyboard-response","166","704287","0.0-18.0-0.61","6420","approach_avoid_sv1","""event"",""trial"",""time""
""fullscreenenter"",""1"",""8157""
","
","
","""event"",""trial"",""time""
""fullscreenenter"",""1"",""8157""
","
","","","","","","null","<div style=""font-size:60px;"">+</div>","null","","fixation","","",""
"memory-trial","167","708664","0.0-18.0-1.61","6420","approach_avoid_sv1","""event"",""trial"",""time""
""fullscreenenter"",""1"",""8157""
","
","
","""event"",""trial"",""time""
""fullscreenenter"",""1"",""8157""
","
","","","","","","3372.8000000715256","images/chair8.png","","","memory_trial","1","definitely_old",""
"html-keyboard-response","168","709167","0.0-18.0-0.62","6420","approach_avoid_sv1","""event"",""trial"",""time""
""fullscreenenter"",""1"",""8157""
","
","
","""event"",""trial"",""time""
""fullscreenenter"",""1"",""8157""
","
","","","","","","null","<div style=""font-size:60px;"">+</div>","null","","fixation","","",""
"memory-trial","169","711720","0.0-18.0-1.62","6420","approach_avoid_sv1","""event"",""trial"",""time""
""fullscreenenter"",""1"",""8157""
","
","
","""event"",""trial"",""time""
""fullscreenenter"",""1"",""8157""
","
","","","","","","1547.1999999284744","images/flower7.png","","","memory_trial","4","definitely_new",""
"html-keyboard-response","170","712223","0.0-18.0-0.63","6420","approach_avoid_sv1","""event"",""trial"",""time""
""fullscreenenter"",""1"",""8157""
","
","
","""event"",""trial"",""time""
""fullscreenenter"",""1"",""8157""
","
","","","","","","null","<div style=""font-size:60px;"">+</div>","null","","fixation","","",""
"memory-trial","171","716215","0.0-18.0-1.63","6420","approach_avoid_sv1","""event"",""trial"",""time""
""fullscreenenter"",""1"",""8157""
","
","
","""event"",""trial"",""time""
""fullscreenenter"",""1"",""8157""
","
","","","","","","2987.399999976158","images/cat7.png","","","memory_trial","1","definitely_old",""
"html-keyboard-response","172","716719","0.0-18.0-0.64","6420","approach_avoid_sv1","""event"",""trial"",""time""
""fullscreenenter"",""1"",""8157""
","
","
","""event"",""trial"",""time""
""fullscreenenter"",""1"",""8157""
","
","","","","","","null","<div style=""font-size:60px;"">+</div>","null","","fixation","","",""
"memory-trial","173","725120","0.0-18.0-1.64","6420","approach_avoid_sv1","""event"",""trial"",""time""
""fullscreenenter"",""1"",""8157""
","
","
","""event"",""trial"",""time""
""fullscreenenter"",""1"",""8157""
","
","","","","","","7390.299999952316","images/table7.png","","","memory_trial","1","definitely_old",""
"html-keyboard-response","174","725622","0.0-18.0-0.65","6420","approach_avoid_sv1","""event"",""trial"",""time""
""fullscreenenter"",""1"",""8157""
","
","
","""event"",""trial"",""time""
""fullscreenenter"",""1"",""8157""
","
","","","","","","null","<div style=""font-size:60px;"">+</div>","null","","fixation","","",""
"memory-trial","175","729015","0.0-18.0-1.65","6420","approach_avoid_sv1","""event"",""trial"",""time""
""fullscreenenter"",""1"",""8157""
","
","
","""event"",""trial"",""time""
""fullscreenenter"",""1"",""8157""
","
","","","","","","2389.5","images/horse5.png","","","memory_trial","4","definitely_new",""
"html-keyboard-response","176","729519","0.0-18.0-0.66","6420","approach_avoid_sv1","""event"",""trial"",""time""
""fullscreenenter"",""1"",""8157""
","
","
","""event"",""trial"",""time""
""fullscreenenter"",""1"",""8157""
","
","","","","","","null","<div style=""font-size:60px;"">+</div>","null","","fixation","","",""
"memory-trial","177","734534","0.0-18.0-1.66","6420","approach_avoid_sv1","""event"",""trial"",""time""
""fullscreenenter"",""1"",""8157""
","
","
","""event"",""trial"",""time""
""fullscreenenter"",""1"",""8157""
","
","","","","","","4012.600000023842","images/plane6.png","","","memory_trial","2","maybe_old",""
"html-keyboard-response","178","735039","0.0-18.0-0.67","6420","approach_avoid_sv1","""event"",""trial"",""time""
""fullscreenenter"",""1"",""8157""
","
","
","""event"",""trial"",""time""
""fullscreenenter"",""1"",""8157""
","
","","","","","","null","<div style=""font-size:60px;"">+</div>","null","","fixation","","",""
"memory-trial","179","740615","0.0-18.0-1.67","6420","approach_avoid_sv1","""event"",""trial"",""time""
""fullscreenenter"",""1"",""8157""
","
","
","""event"",""trial"",""time""
""fullscreenenter"",""1"",""8157""
","
","","","","","","4572.400000095367","images/dog3.png","","","memory_trial","3","maybe_new",""
"html-keyboard-response","180","741119","0.0-18.0-0.68","6420","approach_avoid_sv1","""event"",""trial"",""time""
""fullscreenenter"",""1"",""8157""
","
","
","""event"",""trial"",""time""
""fullscreenenter"",""1"",""8157""
","
","","","","","","null","<div style=""font-size:60px;"">+</div>","null","","fixation","","",""
"memory-trial","181","743239","0.0-18.0-1.68","6420","approach_avoid_sv1","""event"",""trial"",""time""
""fullscreenenter"",""1"",""8157""
","
","
","""event"",""trial"",""time""
""fullscreenenter"",""1"",""8157""
","
","","","","","","1116.7999999523163","images/boat5.png","","","memory_trial","3","maybe_new",""
"html-keyboard-response","182","743743","0.0-18.0-0.69","6420","approach_avoid_sv1","""event"",""trial"",""time""
""fullscreenenter"",""1"",""8157""
","
","
","""event"",""trial"",""time""
""fullscreenenter"",""1"",""8157""
","
","","","","","","null","<div style=""font-size:60px;"">+</div>","null","","fixation","","",""
"memory-trial","183","746599","0.0-18.0-1.69","6420","approach_avoid_sv1","""event"",""trial"",""time""
""fullscreenenter"",""1"",""8157""
","
","
","""event"",""trial"",""time""
""fullscreenenter"",""1"",""8157""
","
","","","","","","1853.5","images/straw6.png","","","memory_trial","2","maybe_old",""
"html-keyboard-response","184","747102","0.0-18.0-0.70","6420","approach_avoid_sv1","""event"",""trial"",""time""
""fullscreenenter"",""1"",""8157""
","
","
","""event"",""trial"",""time""
""fullscreenenter"",""1"",""8157""
","
","","","","","","null","<div style=""font-size:60px;"">+</div>","null","","fixation","","",""
"memory-trial","185","753455","0.0-18.0-1.70","6420","approach_avoid_sv1","""event"",""trial"",""time""
""fullscreenenter"",""1"",""8157""
","
","
","""event"",""trial"",""time""
""fullscreenenter"",""1"",""8157""
","
","","","","","","5345.100000023842","images/cat8.png","","","memory_trial","3","maybe_new",""
"html-keyboard-response","186","753959","0.0-18.0-0.71","6420","approach_avoid_sv1","""event"",""trial"",""time""
""fullscreenenter"",""1"",""8157""
","
","
","""event"",""trial"",""time""
""fullscreenenter"",""1"",""8157""
","
","","","","","","null","<div style=""font-size:60px;"">+</div>","null","","fixation","","",""
"memory-trial","187","756991","0.0-18.0-1.71","6420","approach_avoid_sv1","""event"",""trial"",""time""
""fullscreenenter"",""1"",""8157""
","
","
","""event"",""trial"",""time""
""fullscreenenter"",""1"",""8157""
","
","","","","","","2024.6999999284744","images/tree2.png","","","memory_trial","4","definitely_new",""
"html-keyboard-response","188","757496","0.0-18.0-0.72","6420","approach_avoid_sv1","""event"",""trial"",""time""
""fullscreenenter"",""1"",""8157""
","
","
","""event"",""trial"",""time""
""fullscreenenter"",""1"",""8157""
","
","","","","","","null","<div style=""font-size:60px;"">+</div>","null","","fixation","","",""
"memory-trial","189","762239","0.0-18.0-1.72","6420","approach_avoid_sv1","""event"",""trial"",""time""
""fullscreenenter"",""1"",""8157""
","
","
","""event"",""trial"",""time""
""fullscreenenter"",""1"",""8157""
","
","","","","","","3741.5","images/cat1.png","","","memory_trial","1","definitely_old",""
"html-keyboard-response","190","762742","0.0-18.0-0.73","6420","approach_avoid_sv1","""event"",""trial"",""time""
""fullscreenenter"",""1"",""8157""
","
","
","""event"",""trial"",""time""
""fullscreenenter"",""1"",""8157""
","
","","","","","","null","<div style=""font-size:60px;"">+</div>","null","","fixation","","",""
"memory-trial","191","765078","0.0-18.0-1.73","6420","approach_avoid_sv1","""event"",""trial"",""time""
""fullscreenenter"",""1"",""8157""
","
","
","""event"",""trial"",""time""
""fullscreenenter"",""1"",""8157""
","
","","","","","","1333.3999999761581","images/flower2.png","","","memory_trial","4","definitely_new",""
"html-keyboard-response","192","765582","0.0-18.0-0.74","6420","approach_avoid_sv1","""event"",""trial"",""time""
""fullscreenenter"",""1"",""8157""
","
","
","""event"",""trial"",""time""
""fullscreenenter"",""1"",""8157""
","
","","","","","","null","<div style=""font-size:60px;"">+</div>","null","","fixation","","",""
"memory-trial","193","770703","0.0-18.0-1.74","6420","approach_avoid_sv1","""event"",""trial"",""time""
""fullscreenenter"",""1"",""8157""
","
","
","""event"",""trial"",""time""
""fullscreenenter"",""1"",""8157""
","
","","","","","","4115.799999952316","images/sofa6.png","","","memory_trial","4","definitely_new",""
"html-keyboard-response","194","771206","0.0-18.0-0.75","6420","approach_avoid_sv1","""event"",""trial"",""time""
""fullscreenenter"",""1"",""8157""
","
","
","""event"",""trial"",""time""
""fullscreenenter"",""1"",""8157""
","
","","","","","","null","<div style=""font-size:60px;"">+</div>","null","","fixation","","",""
"memory-trial","195","776343","0.0-18.0-1.75","6420","approach_avoid_sv1","""event"",""trial"",""time""
""fullscreenenter"",""1"",""8157""
","
","
","""event"",""trial"",""time""
""fullscreenenter"",""1"",""8157""
","
","","","","","","4128.399999976158","images/dog7.png","","","memory_trial","2","maybe_old",""
"html-keyboard-response","196","776846","0.0-18.0-0.76","6420","approach_avoid_sv1","""event"",""trial"",""time""
""fullscreenenter"",""1"",""8157""
","
","
","""event"",""trial"",""time""
""fullscreenenter"",""1"",""8157""
","
","","","","","","null","<div style=""font-size:60px;"">+</div>","null","","fixation","","",""
"memory-trial","197","779583","0.0-18.0-1.76","6420","approach_avoid_sv1","""event"",""trial"",""time""
""fullscreenenter"",""1"",""8157""
","
","
","""event"",""trial"",""time""
""fullscreenenter"",""1"",""8157""
","
","","","","","","1732.1000000238419","images/orange2.png","","","memory_trial","3","maybe_new",""
"html-keyboard-response","198","780087","0.0-18.0-0.77","6420","approach_avoid_sv1","""event"",""trial"",""time""
""fullscreenenter"",""1"",""8157""
","
","
","""event"",""trial"",""time""
""fullscreenenter"",""1"",""8157""
","
","","","","","","null","<div style=""font-size:60px;"">+</div>","null","","fixation","","",""
"memory-trial","199","786394","0.0-18.0-1.77","6420","approach_avoid_sv1","""event"",""trial"",""time""
""fullscreenenter"",""1"",""8157""
","
","
","""event"",""trial"",""time""
""fullscreenenter"",""1"",""8157""
","
","","","","","","5288.600000023842","images/horse7.png","","","memory_trial","2","maybe_old",""
"html-keyboard-response","200","786903","0.0-18.0-0.78","6420","approach_avoid_sv1","""event"",""trial"",""time""
""fullscreenenter"",""1"",""8157""
","
","
","""event"",""trial"",""time""
""fullscreenenter"",""1"",""8157""
","
","","","","","","null","<div style=""font-size:60px;"">+</div>","null","","fixation","","",""
"memory-trial","201","789510","0.0-18.0-1.78","6420","approach_avoid_sv1","""event"",""trial"",""time""
""fullscreenenter"",""1"",""8157""
","
","
","""event"",""trial"",""time""
""fullscreenenter"",""1"",""8157""
","
","","","","","","1597.9000000953674","images/truck3.png","","","memory_trial","1","definitely_old",""
"html-keyboard-response","202","790015","0.0-18.0-0.79","6420","approach_avoid_sv1","""event"",""trial"",""time""
""fullscreenenter"",""1"",""8157""
","
","
","""event"",""trial"",""time""
""fullscreenenter"",""1"",""8157""
","
","","","","","","null","<div style=""font-size:60px;"">+</div>","null","","fixation","","",""
"memory-trial","203","792790","0.0-18.0-1.79","6420","approach_avoid_sv1","""event"",""trial"",""time""
""fullscreenenter"",""1"",""8157""
","
","
","""event"",""trial"",""time""
""fullscreenenter"",""1"",""8157""
","
","","","","","","1766.0999999046326","images/sofa8.png","","","memory_trial","4","definitely_new",""
"html-keyboard-response","204","793294","0.0-18.0-0.80","6420","approach_avoid_sv1","""event"",""trial"",""time""
""fullscreenenter"",""1"",""8157""
","
","
","""event"",""trial"",""time""
""fullscreenenter"",""1"",""8157""
","
","","","","","","null","<div style=""font-size:60px;"">+</div>","null","","fixation","","",""
"memory-trial","205","797126","0.0-18.0-1.80","6420","approach_avoid_sv1","""event"",""trial"",""time""
""fullscreenenter"",""1"",""8157""
","
","
","""event"",""trial"",""time""
""fullscreenenter"",""1"",""8157""
","
","","","","","","2828.5","images/banana8.png","","","memory_trial","3","maybe_new",""
"html-keyboard-response","206","797630","0.0-18.0-0.81","6420","approach_avoid_sv1","""event"",""trial"",""time""
""fullscreenenter"",""1"",""8157""
","
","
","""event"",""trial"",""time""
""fullscreenenter"",""1"",""8157""
","
","","","","","","null","<div style=""font-size:60px;"">+</div>","null","","fixation","","",""
"memory-trial","207","799967","0.0-18.0-1.81","6420","approach_avoid_sv1","""event"",""trial"",""time""
""fullscreenenter"",""1"",""8157""
","
","
","""event"",""trial"",""time""
""fullscreenenter"",""1"",""8157""
","
","","","","","","1327.1000000238419","images/rodent3.png","","","memory_trial","4","definitely_new",""
"html-keyboard-response","208","800470","0.0-18.0-0.82","6420","approach_avoid_sv1","""event"",""trial"",""time""
""fullscreenenter"",""1"",""8157""
","
","
","""event"",""trial"",""time""
""fullscreenenter"",""1"",""8157""
","
","","","","","","null","<div style=""font-size:60px;"">+</div>","null","","fixation","","",""
"memory-trial","209","803070","0.0-18.0-1.82","6420","approach_avoid_sv1","""event"",""trial"",""time""
""fullscreenenter"",""1"",""8157""
","
","
","""event"",""trial"",""time""
""fullscreenenter"",""1"",""8157""
","
","","","","","","1590.1000000238419","images/truck5.png","","","memory_trial","2","maybe_old",""
"html-keyboard-response","210","803574","0.0-18.0-0.83","6420","approach_avoid_sv1","""event"",""trial"",""time""
""fullscreenenter"",""1"",""8157""
","
","
","""event"",""trial"",""time""
""fullscreenenter"",""1"",""8157""
","
","","","","","","null","<div style=""font-size:60px;"">+</div>","null","","fixation","","",""
"memory-trial","211","805350","0.0-18.0-1.83","6420","approach_avoid_sv1","""event"",""trial"",""time""
""fullscreenenter"",""1"",""8157""
","
","
","""event"",""trial"",""time""
""fullscreenenter"",""1"",""8157""
","
","","","","","","769.1999999284744","images/flower5.png","","","memory_trial","4","definitely_new",""
"html-keyboard-response","212","805854","0.0-18.0-0.84","6420","approach_avoid_sv1","""event"",""trial"",""time""
""fullscreenenter"",""1"",""8157""
","
","
","""event"",""trial"",""time""
""fullscreenenter"",""1"",""8157""
","
","","","","","","null","<div style=""font-size:60px;"">+</div>","null","","fixation","","",""
"memory-trial","213","810630","0.0-18.0-1.84","6420","approach_avoid_sv1","""event"",""trial"",""time""
""fullscreenenter"",""1"",""8157""
","
","
","""event"",""trial"",""time""
""fullscreenenter"",""1"",""8157""
","
","","","","","","3772.3000000715256","images/dog2.png","","","memory_trial","3","maybe_new",""
"html-keyboard-response","214","811134","0.0-18.0-0.85","6420","approach_avoid_sv1","""event"",""trial"",""time""
""fullscreenenter"",""1"",""8157""
","
","
","""event"",""trial"",""time""
""fullscreenenter"",""1"",""8157""
","
","","","","","","null","<div style=""font-size:60px;"">+</div>","null","","fixation","","",""
"memory-trial","215","815390","0.0-18.0-1.85","6420","approach_avoid_sv1","""event"",""trial"",""time""
""fullscreenenter"",""1"",""8157""
","
","
","""event"",""trial"",""time""
""fullscreenenter"",""1"",""8157""
","
","","","","","","3252.5999999046326","images/orange4.png","","","memory_trial","2","maybe_old",""
"html-keyboard-response","216","815895","0.0-18.0-0.86","6420","approach_avoid_sv1","""event"",""trial"",""time""
""fullscreenenter"",""1"",""8157""
","
","
","""event"",""trial"",""time""
""fullscreenenter"",""1"",""8157""
","
","","","","","","null","<div style=""font-size:60px;"">+</div>","null","","fixation","","",""
"memory-trial","217","820119","0.0-18.0-1.86","6420","approach_avoid_sv1","""event"",""trial"",""time""
""fullscreenenter"",""1"",""8157""
","
","
","""event"",""trial"",""time""
""fullscreenenter"",""1"",""8157""
","
","","","","","","3216.5","images/train4.png","","","memory_trial","1","definitely_old",""
"html-keyboard-response","218","820623","0.0-18.0-0.87","6420","approach_avoid_sv1","""event"",""trial"",""time""
""fullscreenenter"",""1"",""8157""
","
","
","""event"",""trial"",""time""
""fullscreenenter"",""1"",""8157""
","
","","","","","","null","<div style=""font-size:60px;"">+</div>","null","","fixation","","",""
"memory-trial","219","825735","0.0-18.0-1.87","6420","approach_avoid_sv1","""event"",""trial"",""time""
""fullscreenenter"",""1"",""8157""
","
","
","""event"",""trial"",""time""
""fullscreenenter"",""1"",""8157""
","
","","","","","","4108.300000071526","images/horse8.png","","","memory_trial","2","maybe_old",""
"html-keyboard-response","220","826239","0.0-18.0-0.88","6420","approach_avoid_sv1","""event"",""trial"",""time""
""fullscreenenter"",""1"",""8157""
","
","
","""event"",""trial"",""time""
""fullscreenenter"",""1"",""8157""
","
","","","","","","null","<div style=""font-size:60px;"">+</div>","null","","fixation","","",""
"memory-trial","221","831295","0.0-18.0-1.88","6420","approach_avoid_sv1","""event"",""trial"",""time""
""fullscreenenter"",""1"",""8157""
","
","
","""event"",""trial"",""time""
""fullscreenenter"",""1"",""8157""
","
","","","","","","4050.899999976158","images/dog5.png","","","memory_trial","4","definitely_new",""
"html-keyboard-response","222","831799","0.0-18.0-0.89","6420","approach_avoid_sv1","""event"",""trial"",""time""
""fullscreenenter"",""1"",""8157""
","
","
","""event"",""trial"",""time""
""fullscreenenter"",""1"",""8157""
","
","","","","","","null","<div style=""font-size:60px;"">+</div>","null","","fixation","","",""
"memory-trial","223","835415","0.0-18.0-1.89","6420","approach_avoid_sv1","""event"",""trial"",""time""
""fullscreenenter"",""1"",""8157""
","
","
","""event"",""trial"",""time""
""fullscreenenter"",""1"",""8157""
","
","","","","","","2612.899999976158","images/bush4.png","","","memory_trial","1","definitely_old",""
"html-keyboard-response","224","835919","0.0-18.0-0.90","6420","approach_avoid_sv1","""event"",""trial"",""time""
""fullscreenenter"",""1"",""8157""
","
","
","""event"",""trial"",""time""
""fullscreenenter"",""1"",""8157""
","
","","","","","","null","<div style=""font-size:60px;"">+</div>","null","","fixation","","",""
"memory-trial","225","838231","0.0-18.0-1.90","6420","approach_avoid_sv1","""event"",""trial"",""time""
""fullscreenenter"",""1"",""8157""
","
","
","""event"",""trial"",""time""
""fullscreenenter"",""1"",""8157""
","
","","","","","","1306.7999999523163","images/rodent1.png","","","memory_trial","4","definitely_new",""
"html-keyboard-response","226","838734","0.0-18.0-0.91","6420","approach_avoid_sv1","""event"",""trial"",""time""
""fullscreenenter"",""1"",""8157""
","
","
","""event"",""trial"",""time""
""fullscreenenter"",""1"",""8157""
","
","","","","","","null","<div style=""font-size:60px;"">+</div>","null","","fixation","","",""
"memory-trial","227","847054","0.0-18.0-1.91","6420","approach_avoid_sv1","""event"",""trial"",""time""
""fullscreenenter"",""1"",""8157""
","
","
","""event"",""trial"",""time""
""fullscreenenter"",""1"",""8157""
","
","","","","","","7317.800000071526","images/bed1.png","","","memory_trial","3","maybe_new",""
"html-button-response","228","895763","0.0-18.0-2.91-0.91","6420","approach_avoid_sv1","""event"",""trial"",""time""
""fullscreenenter"",""1"",""8157""
","
","
","""event"",""trial"",""time""
""fullscreenenter"",""1"",""8157""
","
","","","","","","48708.200000047684","<p> Take a break! </p><p> Click the button to continue. </p>","0","","break","","",""
"html-keyboard-response","229","896270","0.0-18.0-0.92","6420","approach_avoid_sv1","""event"",""trial"",""time""
""fullscreenenter"",""1"",""8157""
","
","
","""event"",""trial"",""time""
""fullscreenenter"",""1"",""8157""
","
","","","","","","null","<div style=""font-size:60px;"">+</div>","null","","fixation","","",""
"memory-trial","230","899528","0.0-18.0-1.92","6420","approach_avoid_sv1","""event"",""trial"",""time""
""fullscreenenter"",""1"",""8157""
","
","
","""event"",""trial"",""time""
""fullscreenenter"",""1"",""8157""
","
","","","","","","2252.5999999046326","images/sheep5.png","","","memory_trial","4","definitely_new",""
"html-keyboard-response","231","900030","0.0-18.0-0.93","6420","approach_avoid_sv1","""event"",""trial"",""time""
""fullscreenenter"",""1"",""8157""
","
","
","""event"",""trial"",""time""
""fullscreenenter"",""1"",""8157""
","
","","","","","","null","<div style=""font-size:60px;"">+</div>","null","","fixation","","",""
"memory-trial","232","904055","0.0-18.0-1.93","6420","approach_avoid_sv1","""event"",""trial"",""time""
""fullscreenenter"",""1"",""8157""
","
","
","""event"",""trial"",""time""
""fullscreenenter"",""1"",""8157""
","
","","","","","","3018.5","images/cactus3.png","","","memory_trial","3","maybe_new",""
"html-keyboard-response","233","904558","0.0-18.0-0.94","6420","approach_avoid_sv1","""event"",""trial"",""time""
""fullscreenenter"",""1"",""8157""
","
","
","""event"",""trial"",""time""
""fullscreenenter"",""1"",""8157""
","
","","","","","","null","<div style=""font-size:60px;"">+</div>","null","","fixation","","",""
"memory-trial","234","906775","0.0-18.0-1.94","6420","approach_avoid_sv1","""event"",""trial"",""time""
""fullscreenenter"",""1"",""8157""
","
","
","""event"",""trial"",""time""
""fullscreenenter"",""1"",""8157""
","
","","","","","","1207.8999999761581","images/sofa7.png","","","memory_trial","4","definitely_new",""
"html-keyboard-response","235","907278","0.0-18.0-0.95","6420","approach_avoid_sv1","""event"",""trial"",""time""
""fullscreenenter"",""1"",""8157""
","
","
","""event"",""trial"",""time""
""fullscreenenter"",""1"",""8157""
","
","","","","","","null","<div style=""font-size:60px;"">+</div>","null","","fixation","","",""
"memory-trial","236","910070","0.0-18.0-1.95","6420","approach_avoid_sv1","""event"",""trial"",""time""
""fullscreenenter"",""1"",""8157""
","
","
","""event"",""trial"",""time""
""fullscreenenter"",""1"",""8157""
","
","","","","","","1789.5","images/orange7.png","","","memory_trial","2","maybe_old",""
"html-keyboard-response","237","910574","0.0-18.0-0.96","6420","approach_avoid_sv1","""event"",""trial"",""time""
""fullscreenenter"",""1"",""8157""
","
","
","""event"",""trial"",""time""
""fullscreenenter"",""1"",""8157""
","
","","","","","","null","<div style=""font-size:60px;"">+</div>","null","","fixation","","",""
"memory-trial","238","913999","0.0-18.0-1.96","6420","approach_avoid_sv1","""event"",""trial"",""time""
""fullscreenenter"",""1"",""8157""
","
","
","""event"",""trial"",""time""
""fullscreenenter"",""1"",""8157""
","
","","","","","","2418.899999976158","images/plane4.png","","","memory_trial","3","maybe_new",""
"html-keyboard-response","239","914502","0.0-18.0-0.97","6420","approach_avoid_sv1","""event"",""trial"",""time""
""fullscreenenter"",""1"",""8157""
","
","
","""event"",""trial"",""time""
""fullscreenenter"",""1"",""8157""
","
","","","","","","null","<div style=""font-size:60px;"">+</div>","null","","fixation","","",""
"memory-trial","240","916759","0.0-18.0-1.97","6420","approach_avoid_sv1","""event"",""trial"",""time""
""fullscreenenter"",""1"",""8157""
","
","
","""event"",""trial"",""time""
""fullscreenenter"",""1"",""8157""
","
","","","","","","1253.1000000238419","images/table3.png","","","memory_trial","4","definitely_new",""
"html-keyboard-response","241","917263","0.0-18.0-0.98","6420","approach_avoid_sv1","""event"",""trial"",""time""
""fullscreenenter"",""1"",""8157""
","
","
","""event"",""trial"",""time""
""fullscreenenter"",""1"",""8157""
","
","","","","","","null","<div style=""font-size:60px;"">+</div>","null","","fixation","","",""
"memory-trial","242","919823","0.0-18.0-1.98","6420","approach_avoid_sv1","""event"",""trial"",""time""
""fullscreenenter"",""1"",""8157""
","
","
","""event"",""trial"",""time""
""fullscreenenter"",""1"",""8157""
","
","","","","","","1556","images/banana3.png","","","memory_trial","1","definitely_old",""
"html-keyboard-response","243","920326","0.0-18.0-0.99","6420","approach_avoid_sv1","""event"",""trial"",""time""
""fullscreenenter"",""1"",""8157""
","
","
","""event"",""trial"",""time""
""fullscreenenter"",""1"",""8157""
","
","","","","","","null","<div style=""font-size:60px;"">+</div>","null","","fixation","","",""
"memory-trial","244","922798","0.0-18.0-1.99","6420","approach_avoid_sv1","""event"",""trial"",""time""
""fullscreenenter"",""1"",""8157""
","
","
","""event"",""trial"",""time""
""fullscreenenter"",""1"",""8157""
","
","","","","","","1464.1000000238419","images/banana2.png","","","memory_trial","1","definitely_old",""
"html-keyboard-response","245","923302","0.0-18.0-0.100","6420","approach_avoid_sv1","""event"",""trial"",""time""
""fullscreenenter"",""1"",""8157""
","
","
","""event"",""trial"",""time""
""fullscreenenter"",""1"",""8157""
","
","","","","","","null","<div style=""font-size:60px;"">+</div>","null","","fixation","","",""
"memory-trial","246","925647","0.0-18.0-1.100","6420","approach_avoid_sv1","""event"",""trial"",""time""
""fullscreenenter"",""1"",""8157""
","
","
","""event"",""trial"",""time""
""fullscreenenter"",""1"",""8157""
","
","","","","","","1341.3000000715256","images/boat3.png","","","memory_trial","4","definitely_new",""
"html-keyboard-response","247","926151","0.0-18.0-0.101","6420","approach_avoid_sv1","""event"",""trial"",""time""
""fullscreenenter"",""1"",""8157""
","
","
","""event"",""trial"",""time""
""fullscreenenter"",""1"",""8157""
","
","","","","","","null","<div style=""font-size:60px;"">+</div>","null","","fixation","","",""
"memory-trial","248","928935","0.0-18.0-1.101","6420","approach_avoid_sv1","""event"",""trial"",""time""
""fullscreenenter"",""1"",""8157""
","
","
","""event"",""trial"",""time""
""fullscreenenter"",""1"",""8157""
","
","","","","","","1776.6999999284744","images/sheep2.png","","","memory_trial","2","maybe_old",""
"html-keyboard-response","249","929439","0.0-18.0-0.102","6420","approach_avoid_sv1","""event"",""trial"",""time""
""fullscreenenter"",""1"",""8157""
","
","
","""event"",""trial"",""time""
""fullscreenenter"",""1"",""8157""
","
","","","","","","null","<div style=""font-size:60px;"">+</div>","null","","fixation","","",""
"memory-trial","250","933143","0.0-18.0-1.102","6420","approach_avoid_sv1","""event"",""trial"",""time""
""fullscreenenter"",""1"",""8157""
","
","
","""event"",""trial"",""time""
""fullscreenenter"",""1"",""8157""
","
","","","","","","2697.7999999523163","images/goat2.png","","","memory_trial","3","maybe_new",""
"html-keyboard-response","251","933648","0.0-18.0-0.103","6420","approach_avoid_sv1","""event"",""trial"",""time""
""fullscreenenter"",""1"",""8157""
","
","
","""event"",""trial"",""time""
""fullscreenenter"",""1"",""8157""
","
","","","","","","null","<div style=""font-size:60px;"">+</div>","null","","fixation","","",""
"memory-trial","252","936518","0.0-18.0-1.103","6420","approach_avoid_sv1","""event"",""trial"",""time""
""fullscreenenter"",""1"",""8157""
","
","
","""event"",""trial"",""time""
""fullscreenenter"",""1"",""8157""
","
","","","","","","1867.2999999523163","images/plane8.png","","","memory_trial","2","maybe_old",""
"html-keyboard-response","253","937022","0.0-18.0-0.104","6420","approach_avoid_sv1","""event"",""trial"",""time""
""fullscreenenter"",""1"",""8157""
","
","
","""event"",""trial"",""time""
""fullscreenenter"",""1"",""8157""
","
","","","","","","null","<div style=""font-size:60px;"">+</div>","null","","fixation","","",""
"memory-trial","254","941687","0.0-18.0-1.104","6420","approach_avoid_sv1","""event"",""trial"",""time""
""fullscreenenter"",""1"",""8157""
","
","
","""event"",""trial"",""time""
""fullscreenenter"",""1"",""8157""
","
","","","","","","3657.8000000715256","images/chair1.png","","","memory_trial","2","maybe_old",""
"html-keyboard-response","255","942191","0.0-18.0-0.105","6420","approach_avoid_sv1","""event"",""trial"",""time""
""fullscreenenter"",""1"",""8157""
","
","
","""event"",""trial"",""time""
""fullscreenenter"",""1"",""8157""
","
","","","","","","null","<div style=""font-size:60px;"">+</div>","null","","fixation","","",""
"memory-trial","256","946006","0.0-18.0-1.105","6420","approach_avoid_sv1","""event"",""trial"",""time""
""fullscreenenter"",""1"",""8157""
","
","
","""event"",""trial"",""time""
""fullscreenenter"",""1"",""8157""
","
","","","","","","2811.2000000476837","images/cactus1.png","","","memory_trial","4","definitely_new",""
"html-keyboard-response","257","946511","0.0-18.0-0.106","6420","approach_avoid_sv1","""event"",""trial"",""time""
""fullscreenenter"",""1"",""8157""
","
","
","""event"",""trial"",""time""
""fullscreenenter"",""1"",""8157""
","
","","","","","","null","<div style=""font-size:60px;"">+</div>","null","","fixation","","",""
"memory-trial","258","950463","0.0-18.0-1.106","6420","approach_avoid_sv1","""event"",""trial"",""time""
""fullscreenenter"",""1"",""8157""
","
","
","""event"",""trial"",""time""
""fullscreenenter"",""1"",""8157""
","
","","","","","","2949.399999976158","images/train5.png","","","memory_trial","2","maybe_old",""
"html-keyboard-response","259","950966","0.0-18.0-0.107","6420","approach_avoid_sv1","""event"",""trial"",""time""
""fullscreenenter"",""1"",""8157""
","
","
","""event"",""trial"",""time""
""fullscreenenter"",""1"",""8157""
","
","","","","","","null","<div style=""font-size:60px;"">+</div>","null","","fixation","","",""
"memory-trial","260","953694","0.0-18.0-1.107","6420","approach_avoid_sv1","""event"",""trial"",""time""
""fullscreenenter"",""1"",""8157""
","
","
","""event"",""trial"",""time""
""fullscreenenter"",""1"",""8157""
","
","","","","","","1721.5","images/bush7.png","","","memory_trial","1","definitely_old",""
"html-keyboard-response","261","954198","0.0-18.0-0.108","6420","approach_avoid_sv1","""event"",""trial"",""time""
""fullscreenenter"",""1"",""8157""
","
","
","""event"",""trial"",""time""
""fullscreenenter"",""1"",""8157""
","
","","","","","","null","<div style=""font-size:60px;"">+</div>","null","","fixation","","",""
"memory-trial","262","957070","0.0-18.0-1.108","6420","approach_avoid_sv1","""event"",""trial"",""time""
""fullscreenenter"",""1"",""8157""
","
","
","""event"",""trial"",""time""
""fullscreenenter"",""1"",""8157""
","
","","","","","","1863.4000000953674","images/sheep1.png","","","memory_trial","3","maybe_new",""
"html-keyboard-response","263","957574","0.0-18.0-0.109","6420","approach_avoid_sv1","""event"",""trial"",""time""
""fullscreenenter"",""1"",""8157""
","
","
","""event"",""trial"",""time""
""fullscreenenter"",""1"",""8157""
","
","","","","","","null","<div style=""font-size:60px;"">+</div>","null","","fixation","","",""
"memory-trial","264","960671","0.0-18.0-1.109","6420","approach_avoid_sv1","""event"",""trial"",""time""
""fullscreenenter"",""1"",""8157""
","
","
","""event"",""trial"",""time""
""fullscreenenter"",""1"",""8157""
","
","","","","","","2088.6999999284744","images/bed7.png","","","memory_trial","1","definitely_old",""
"html-keyboard-response","265","961174","0.0-18.0-0.110","6420","approach_avoid_sv1","""event"",""trial"",""time""
""fullscreenenter"",""1"",""8157""
","
","
","""event"",""trial"",""time""
""fullscreenenter"",""1"",""8157""
","
","","","","","","null","<div style=""font-size:60px;"">+</div>","null","","fixation","","",""
"memory-trial","266","963422","0.0-18.0-1.110","6420","approach_avoid_sv1","""event"",""trial"",""time""
""fullscreenenter"",""1"",""8157""
","
","
","""event"",""trial"",""time""
""fullscreenenter"",""1"",""8157""
","
","","","","","","1239.6999999284744","images/rodent7.png","","","memory_trial","4","definitely_new",""
"html-keyboard-response","267","963928","0.0-18.0-0.111","6420","approach_avoid_sv1","""event"",""trial"",""time""
""fullscreenenter"",""1"",""8157""
","
","
","""event"",""trial"",""time""
""fullscreenenter"",""1"",""8157""
","
","","","","","","null","<div style=""font-size:60px;"">+</div>","null","","fixation","","",""
"memory-trial","268","966758","0.0-18.0-1.111","6420","approach_avoid_sv1","""event"",""trial"",""time""
""fullscreenenter"",""1"",""8157""
","
","
","""event"",""trial"",""time""
""fullscreenenter"",""1"",""8157""
","
","","","","","","1820.8999999761581","images/tree3.png","","","memory_trial","1","definitely_old",""
"html-keyboard-response","269","967262","0.0-18.0-0.112","6420","approach_avoid_sv1","""event"",""trial"",""time""
""fullscreenenter"",""1"",""8157""
","
","
","""event"",""trial"",""time""
""fullscreenenter"",""1"",""8157""
","
","","","","","","null","<div style=""font-size:60px;"">+</div>","null","","fixation","","",""
"memory-trial","270","969606","0.0-18.0-1.112","6420","approach_avoid_sv1","""event"",""trial"",""time""
""fullscreenenter"",""1"",""8157""
","
","
","""event"",""trial"",""time""
""fullscreenenter"",""1"",""8157""
","
","","","","","","1336.1999999284744","images/bed5.png","","","memory_trial","1","definitely_old",""
"html-keyboard-response","271","970110","0.0-18.0-0.113","6420","approach_avoid_sv1","""event"",""trial"",""time""
""fullscreenenter"",""1"",""8157""
","
","
","""event"",""trial"",""time""
""fullscreenenter"",""1"",""8157""
","
","","","","","","null","<div style=""font-size:60px;"">+</div>","null","","fixation","","",""
"memory-trial","272","972686","0.0-18.0-1.113","6420","approach_avoid_sv1","""event"",""trial"",""time""
""fullscreenenter"",""1"",""8157""
","
","
","""event"",""trial"",""time""
""fullscreenenter"",""1"",""8157""
","
","","","","","","1571.1000000238419","images/apple3.png","","","memory_trial","4","definitely_new",""
"html-keyboard-response","273","973190","0.0-18.0-0.114","6420","approach_avoid_sv1","""event"",""trial"",""time""
""fullscreenenter"",""1"",""8157""
","
","
","""event"",""trial"",""time""
""fullscreenenter"",""1"",""8157""
","
","","","","","","null","<div style=""font-size:60px;"">+</div>","null","","fixation","","",""
"memory-trial","274","974999","0.0-18.0-1.114","6420","approach_avoid_sv1","""event"",""trial"",""time""
""fullscreenenter"",""1"",""8157""
","
","
","""event"",""trial"",""time""
""fullscreenenter"",""1"",""8157""
","
","","","","","","804.2000000476837","images/sofa3.png","","","memory_trial","4","definitely_new",""
"html-keyboard-response","275","975502","0.0-18.0-0.115","6420","approach_avoid_sv1","""event"",""trial"",""time""
""fullscreenenter"",""1"",""8157""
","
","
","""event"",""trial"",""time""
""fullscreenenter"",""1"",""8157""
","
","","","","","","null","<div style=""font-size:60px;"">+</div>","null","","fixation","","",""
"memory-trial","276","977510","0.0-18.0-1.115","6420","approach_avoid_sv1","""event"",""trial"",""time""
""fullscreenenter"",""1"",""8157""
","
","
","""event"",""trial"",""time""
""fullscreenenter"",""1"",""8157""
","
","","","","","","1005","images/straw3.png","","","memory_trial","4","definitely_new",""
"html-keyboard-response","277","978014","0.0-18.0-0.116","6420","approach_avoid_sv1","""event"",""trial"",""time""
""fullscreenenter"",""1"",""8157""
","
","
","""event"",""trial"",""time""
""fullscreenenter"",""1"",""8157""
","
","","","","","","null","<div style=""font-size:60px;"">+</div>","null","","fixation","","",""
"memory-trial","278","979790","0.0-18.0-1.116","6420","approach_avoid_sv1","""event"",""trial"",""time""
""fullscreenenter"",""1"",""8157""
","
","
","""event"",""trial"",""time""
""fullscreenenter"",""1"",""8157""
","
","","","","","","767.7000000476837","images/chair7.png","","","memory_trial","4","definitely_new",""
"html-keyboard-response","279","980294","0.0-18.0-0.117","6420","approach_avoid_sv1","""event"",""trial"",""time""
""fullscreenenter"",""1"",""8157""
","
","
","""event"",""trial"",""time""
""fullscreenenter"",""1"",""8157""
","
","","","","","","null","<div style=""font-size:60px;"">+</div>","null","","fixation","","",""
"memory-trial","280","983830","0.0-18.0-1.117","6420","approach_avoid_sv1","""event"",""trial"",""time""
""fullscreenenter"",""1"",""8157""
","
","
","""event"",""trial"",""time""
""fullscreenenter"",""1"",""8157""
","
","","","","","","2534.399999976158","images/straw4.png","","","memory_trial","3","maybe_new",""
"html-keyboard-response","281","984334","0.0-18.0-0.118","6420","approach_avoid_sv1","""event"",""trial"",""time""
""fullscreenenter"",""1"",""8157""
","
","
","""event"",""trial"",""time""
""fullscreenenter"",""1"",""8157""
","
","","","","","","null","<div style=""font-size:60px;"">+</div>","null","","fixation","","",""
"memory-trial","282","986222","0.0-18.0-1.118","6420","approach_avoid_sv1","""event"",""trial"",""time""
""fullscreenenter"",""1"",""8157""
","
","
","""event"",""trial"",""time""
""fullscreenenter"",""1"",""8157""
","
","","","","","","880.2999999523163","images/apple7.png","","","memory_trial","4","definitely_new",""
"html-keyboard-response","283","986726","0.0-18.0-0.119","6420","approach_avoid_sv1","""event"",""trial"",""time""
""fullscreenenter"",""1"",""8157""
","
","
","""event"",""trial"",""time""
""fullscreenenter"",""1"",""8157""
","
","","","","","","null","<div style=""font-size:60px;"">+</div>","null","","fixation","","",""
"memory-trial","284","988374","0.0-18.0-1.119","6420","approach_avoid_sv1","""event"",""trial"",""time""
""fullscreenenter"",""1"",""8157""
","
","
","""event"",""trial"",""time""
""fullscreenenter"",""1"",""8157""
","
","","","","","","646.2999999523163","images/rodent4.png","","","memory_trial","4","definitely_new",""
"html-keyboard-response","285","988878","0.0-18.0-0.120","6420","approach_avoid_sv1","""event"",""trial"",""time""
""fullscreenenter"",""1"",""8157""
","
","
","""event"",""trial"",""time""
""fullscreenenter"",""1"",""8157""
","
","","","","","","null","<div style=""font-size:60px;"">+</div>","null","","fixation","","",""
"memory-trial","286","991534","0.0-18.0-1.120","6420","approach_avoid_sv1","""event"",""trial"",""time""
""fullscreenenter"",""1"",""8157""
","
","
","""event"",""trial"",""time""
""fullscreenenter"",""1"",""8157""
","
","","","","","","1649.5","images/cat6.png","","","memory_trial","1","definitely_old",""
"html-keyboard-response","287","992038","0.0-18.0-0.121","6420","approach_avoid_sv1","""event"",""trial"",""time""
""fullscreenenter"",""1"",""8157""
","
","
","""event"",""trial"",""time""
""fullscreenenter"",""1"",""8157""
","
","","","","","","null","<div style=""font-size:60px;"">+</div>","null","","fixation","","",""
"memory-trial","288","993710","0.0-18.0-1.121","6420","approach_avoid_sv1","""event"",""trial"",""time""
""fullscreenenter"",""1"",""8157""
","
","
","""event"",""trial"",""time""
""fullscreenenter"",""1"",""8157""
","
","","","","","","667.3000000715256","images/flower3.png","","","memory_trial","4","definitely_new",""
"html-keyboard-response","289","994214","0.0-18.0-0.122","6420","approach_avoid_sv1","""event"",""trial"",""time""
""fullscreenenter"",""1"",""8157""
","
","
","""event"",""trial"",""time""
""fullscreenenter"",""1"",""8157""
","
","","","","","","null","<div style=""font-size:60px;"">+</div>","null","","fixation","","",""
"memory-trial","290","997463","0.0-18.0-1.122","6420","approach_avoid_sv1","""event"",""trial"",""time""
""fullscreenenter"",""1"",""8157""
","
","
","""event"",""trial"",""time""
""fullscreenenter"",""1"",""8157""
","
","","","","","","2245","images/apple2.png","","","memory_trial","4","definitely_new",""
"html-keyboard-response","291","997966","0.0-18.0-0.123","6420","approach_avoid_sv1","""event"",""trial"",""time""
""fullscreenenter"",""1"",""8157""
","
","
","""event"",""trial"",""time""
""fullscreenenter"",""1"",""8157""
","
","","","","","","null","<div style=""font-size:60px;"">+</div>","null","","fixation","","",""
"memory-trial","292","1000710","0.0-18.0-1.123","6420","approach_avoid_sv1","""event"",""trial"",""time""
""fullscreenenter"",""1"",""8157""
","
","
","""event"",""trial"",""time""
""fullscreenenter"",""1"",""8157""
","
","","","","","","1736.8999999761581","images/cow4.png","","","memory_trial","2","maybe_old",""
"html-keyboard-response","293","1001215","0.0-18.0-0.124","6420","approach_avoid_sv1","""event"",""trial"",""time""
""fullscreenenter"",""1"",""8157""
","
","
","""event"",""trial"",""time""
""fullscreenenter"",""1"",""8157""
","
","","","","","","null","<div style=""font-size:60px;"">+</div>","null","","fixation","","",""
"memory-trial","294","1005734","0.0-18.0-1.124","6420","approach_avoid_sv1","""event"",""trial"",""time""
""fullscreenenter"",""1"",""8157""
","
","
","""event"",""trial"",""time""
""fullscreenenter"",""1"",""8157""
","
","","","","","","3513.2999999523163","images/banana7.png","","","memory_trial","3","maybe_new",""
"html-keyboard-response","295","1006239","0.0-18.0-0.125","6420","approach_avoid_sv1","""event"",""trial"",""time""
""fullscreenenter"",""1"",""8157""
","
","
","""event"",""trial"",""time""
""fullscreenenter"",""1"",""8157""
","
","","","","","","null","<div style=""font-size:60px;"">+</div>","null","","fixation","","",""
"memory-trial","296","1011918","0.0-18.0-1.125","6420","approach_avoid_sv1","""event"",""trial"",""time""
""fullscreenenter"",""1"",""8157""
","
","
","""event"",""trial"",""time""
""fullscreenenter"",""1"",""8157""
","
","","","","","","4670.100000023842","images/bush3.png","","","memory_trial","2","maybe_old",""
"html-keyboard-response","297","1012422","0.0-18.0-0.126","6420","approach_avoid_sv1","""event"",""trial"",""time""
""fullscreenenter"",""1"",""8157""
","
","
