"trial_type","trial_index","time_elapsed","internal_node_id","subject_id","task_version","interactions","blur_events","focus_events","fullscreenenter_events","fullscreenexit_events","success","timeout","failed_images","failed_audio","failed_video","rt","stimulus","response","button_pressed","task_part","key_press","answer","correct"
"pavlovia","0","2","0.0-0.0","7593","approach_avoid_sv1","""event"",""trial"",""time""
""fullscreenenter"",""1"",""1626""
","
","
","""event"",""trial"",""time""
""fullscreenenter"",""1"",""1626""
","
","","","","","","","","","","","","",""
"fullscreen","1","2613","0.0-1.0","7593","approach_avoid_sv1","""event"",""trial"",""time""
""fullscreenenter"",""1"",""1626""
","
","
","""event"",""trial"",""time""
""fullscreenenter"",""1"",""1626""
","
","true","","","","","","","","","","","",""
"preload","2","9362","0.0-2.0","7593","approach_avoid_sv1","""event"",""trial"",""time""
""fullscreenenter"",""1"",""1626""
","
","
","""event"",""trial"",""time""
""fullscreenenter"",""1"",""1626""
","
","true","false","[]","[]","[]","","","","","","","",""
"preload","3","15153","0.0-3.0","7593","approach_avoid_sv1","""event"",""trial"",""time""
""fullscreenenter"",""1"",""1626""
","
","
","""event"",""trial"",""time""
""fullscreenenter"",""1"",""1626""
","
","true","false","[]","[]","[]","","","","","","","",""
"preload","4","15488","0.0-4.0","7593","approach_avoid_sv1","""event"",""trial"",""time""
""fullscreenenter"",""1"",""1626""
","
","
","""event"",""trial"",""time""
""fullscreenenter"",""1"",""1626""
","
","true","false","[]","[]","[]","","","","","","","",""
"audio-keyboard-response","5","17749","0.0-5.0","7593","approach_avoid_sv1","""event"",""trial"",""time""
""fullscreenenter"",""1"",""1626""
","
","
","""event"",""trial"",""time""
""fullscreenenter"",""1"",""1626""
","
","","","","","","2200","audio/beep_loop.wav"," ","","","","",""
"audio-button-response","6","22493","0.0-6.0","7593","approach_avoid_sv1","""event"",""trial"",""time""
""fullscreenenter"",""1"",""1626""
","
","
","""event"",""trial"",""time""
""fullscreenenter"",""1"",""1626""
","
","","","","","","4739","audio/turtle.wav","0","","","","",""
"audio-button-response","7","24644","0.0-7.0","7593","approach_avoid_sv1","""event"",""trial"",""time""
""fullscreenenter"",""1"",""1626""
","
","
","""event"",""trial"",""time""
""fullscreenenter"",""1"",""1626""
","
","","","","","","1141","audio/shark.wav","2","","","","",""
"preload","8","30878","0.0-8.0","7593","approach_avoid_sv1","""event"",""trial"",""time""
""fullscreenenter"",""1"",""1626""
","
","
","""event"",""trial"",""time""
""fullscreenenter"",""1"",""1626""
","
","true","false","[]","[]","[]","","","","","","","",""
"learning-instructions","9","37597","0.0-9.0-0.0","7593","approach_avoid_sv1","""event"",""trial"",""time""
""fullscreenenter"",""1"",""1626""
","
","
","""event"",""trial"",""time""
""fullscreenenter"",""1"",""1626""
","
","","","","","","2245.900000035763","<p> Welcome back! </p><p> Last week, you had to make choices about lots of different items.  </p>","","0","instructions","","",""
"learning-instructions","10","42717","0.0-9.0-0.1","7593","approach_avoid_sv1","""event"",""trial"",""time""
""fullscreenenter"",""1"",""1626""
","
","
","""event"",""trial"",""time""
""fullscreenenter"",""1"",""1626""
","
","","","","","","1015.3000000119209","<p> Today, we are going to ask you to try to remember all the items. </p>","","0","instructions","","",""
"learning-instructions","11","54093","0.0-9.0-0.2","7593","approach_avoid_sv1","""event"",""trial"",""time""
""fullscreenenter"",""1"",""1626""
","
","
","""event"",""trial"",""time""
""fullscreenenter"",""1"",""1626""
","
","","","","","","1241.5","<p> On every trial, you will see an image. </p><p> The image may be an OLD image you saw during the games last week or it may be a NEW image that was not presented. </p>","","0","instructions","","",""
"learning-instructions","12","63389","0.0-9.0-0.3","7593","approach_avoid_sv1","""event"",""trial"",""time""
""fullscreenenter"",""1"",""1626""
","
","
","""event"",""trial"",""time""
""fullscreenenter"",""1"",""1626""
","
","","","","","","797.7000000476837","<p> You need to select whether the image is:  </p><p>  'Definitely old', 'Maybe old', 'Maybe new', or 'Definitely new.'  </p><div class=""mem-choice-instructions-grid""><div class=""choice-option"" id=""choice-option-1"" ><img src=""images/definitely_old_1.png"" id=""choice-option-img-1"" class=""choice-option-img"" stage=""1""></div><div class=""choice-option"" id=""choice-option-2"" ><img src=""images/maybe_old_1.png"" id=""choice-option-img-2"" class=""choice-option-img"" stage=""1""></div><div class=""choice-option"" id=""choice-option-3"" ><img src=""images/maybe_new_1.png"" id=""choice-option-img-3"" class=""choice-option-img"" stage=""1""></div><div class=""choice-option"" id=""choice-option-4"" > <img src=""images/definitely_new_1.png"" id=""choice-option-img-4"" class=""choice-option-img"" stage=""1""></div></div>","","0","instructions","","",""
"learning-instructions","13","70429","0.0-9.0-0.4","7593","approach_avoid_sv1","""event"",""trial"",""time""
""fullscreenenter"",""1"",""1626""
","
","
","""event"",""trial"",""time""
""fullscreenenter"",""1"",""1626""
","
","","","","","","515.8000000119209","<p> You should use the 1, 2, 3, and 4 keys to make your responses.  </p><div class=""mem-choice-instructions-grid""><div class=""choice-option"" id=""choice-option-1"" ><img src=""images/definitely_old.png"" id=""choice-option-img-1"" class=""choice-option-img"" stage=""1""></div><div class=""choice-option"" id=""choice-option-2"" ><img src=""images/maybe_old.png"" id=""choice-option-img-2"" class=""choice-option-img"" stage=""1""></div><div class=""choice-option"" id=""choice-option-3"" ><img src=""images/maybe_new.png"" id=""choice-option-img-3"" class=""choice-option-img"" stage=""1""></div><div class=""choice-option"" id=""choice-option-4"" > <img src=""images/definitely_new.png"" id=""choice-option-img-4"" class=""choice-option-img"" stage=""1""></div></div>","","0","instructions","","",""
"learning-instructions","14","77149","0.0-9.0-0.5","7593","approach_avoid_sv1","""event"",""trial"",""time""
""fullscreenenter"",""1"",""1626""
","
","
","""event"",""trial"",""time""
""fullscreenenter"",""1"",""1626""
","
","","","","","","368.10000002384186","<p> You will have 10 seconds to make each response.  </p><p>  Make sure to respond before time runs out! </p>","","0","instructions","","",""
"learning-instructions","15","84645","0.0-9.0-0.6","7593","approach_avoid_sv1","""event"",""trial"",""time""
""fullscreenenter"",""1"",""1626""
","
","
","""event"",""trial"",""time""
""fullscreenenter"",""1"",""1626""
","
","","","","","","422.39999997615814","<p> Today, you will see each image ONCE only.  </p><p>  That means none of the images will repeat. </p>","","0","instructions","","",""
"learning-instructions","16","97773","0.0-9.0-0.7","7593","approach_avoid_sv1","""event"",""trial"",""time""
""fullscreenenter"",""1"",""1626""
","
","
","""event"",""trial"",""time""
""fullscreenenter"",""1"",""1626""
","
","","","","","","451.80000001192093","<p> Before you play the real game, it is time to practice. </p><p>  Just like in the real game, some of the images in the practice will be ones you have seen before. </p><p>  Others will be entirely new. </p>","","0","instructions","","",""
"html-button-response","17","99278","0.0-10.0","7593","approach_avoid_sv1","""event"",""trial"",""time""
""fullscreenenter"",""1"",""1626""
","
","
","""event"",""trial"",""time""
""fullscreenenter"",""1"",""1626""
","
","","","","","","1395.800000011921","<p> Ready to practice? </p><p> Remember, use the 1, 2, 3, and 4 keys to make your responses. </p>","0","","instructions","","",""
"html-keyboard-response","18","99920","0.0-11.0-0.0","7593","approach_avoid_sv1","""event"",""trial"",""time""
""fullscreenenter"",""1"",""1626""
","
","
","""event"",""trial"",""time""
""fullscreenenter"",""1"",""1626""
","
","","","","","","null","<div style=""font-size:60px;"">+</div>","null","","fixation","","",""
"memory-trial","19","102583","0.0-11.0-1.0","7593","approach_avoid_sv1","""event"",""trial"",""time""
""fullscreenenter"",""1"",""1626""
","
","
","""event"",""trial"",""time""
""fullscreenenter"",""1"",""1626""
","
","","","","","","1649.699999988079","images/racket2.png","","","practice","4","definitely_new",""
"html-keyboard-response","20","103100","0.0-11.0-0.1","7593","approach_avoid_sv1","""event"",""trial"",""time""
""fullscreenenter"",""1"",""1626""
","
","
","""event"",""trial"",""time""
""fullscreenenter"",""1"",""1626""
","
","","","","","","null","<div style=""font-size:60px;"">+</div>","null","","fixation","","",""
"memory-trial","21","105140","0.0-11.0-1.1","7593","approach_avoid_sv1","""event"",""trial"",""time""
""fullscreenenter"",""1"",""1626""
","
","
","""event"",""trial"",""time""
""fullscreenenter"",""1"",""1626""
","
","","","","","","1030.9000000357628","images/ball3.png","","","practice","4","definitely_new",""
"html-keyboard-response","22","105650","0.0-11.0-0.2","7593","approach_avoid_sv1","""event"",""trial"",""time""
""fullscreenenter"",""1"",""1626""
","
","
","""event"",""trial"",""time""
""fullscreenenter"",""1"",""1626""
","
","","","","","","null","<div style=""font-size:60px;"">+</div>","null","","fixation","","",""
"memory-trial","23","108261","0.0-11.0-1.2","7593","approach_avoid_sv1","""event"",""trial"",""time""
""fullscreenenter"",""1"",""1626""
","
","
","""event"",""trial"",""time""
""fullscreenenter"",""1"",""1626""
","
","","","","","","1600.699999988079","images/ball1.png","","","practice","2","maybe_old",""
"html-keyboard-response","24","108769","0.0-11.0-0.3","7593","approach_avoid_sv1","""event"",""trial"",""time""
""fullscreenenter"",""1"",""1626""
","
","
","""event"",""trial"",""time""
""fullscreenenter"",""1"",""1626""
","
","","","","","","null","<div style=""font-size:60px;"">+</div>","null","","fixation","","",""
"memory-trial","25","110765","0.0-11.0-1.3","7593","approach_avoid_sv1","""event"",""trial"",""time""
""fullscreenenter"",""1"",""1626""
","
","
","""event"",""trial"",""time""
""fullscreenenter"",""1"",""1626""
","
","","","","","","978.6000000238419","images/ball2.png","","","practice","1","definitely_old",""
"html-keyboard-response","26","111270","0.0-11.0-0.4","7593","approach_avoid_sv1","""event"",""trial"",""time""
""fullscreenenter"",""1"",""1626""
","
","
","""event"",""trial"",""time""
""fullscreenenter"",""1"",""1626""
","
","","","","","","null","<div style=""font-size:60px;"">+</div>","null","","fixation","","",""
"memory-trial","27","113320","0.0-11.0-1.4","7593","approach_avoid_sv1","""event"",""trial"",""time""
""fullscreenenter"",""1"",""1626""
","
","
","""event"",""trial"",""time""
""fullscreenenter"",""1"",""1626""
","
","","","","","","1037.800000011921","images/racket3.png","","","practice","1","definitely_old",""
"html-keyboard-response","28","113827","0.0-11.0-0.5","7593","approach_avoid_sv1","""event"",""trial"",""time""
""fullscreenenter"",""1"",""1626""
","
","
","""event"",""trial"",""time""
""fullscreenenter"",""1"",""1626""
","
","","","","","","null","<div style=""font-size:60px;"">+</div>","null","","fixation","","",""
"memory-trial","29","115810","0.0-11.0-1.5","7593","approach_avoid_sv1","""event"",""trial"",""time""
""fullscreenenter"",""1"",""1626""
","
","
","""event"",""trial"",""time""
""fullscreenenter"",""1"",""1626""
","
","","","","","","978.1999999880791","images/racket1.png","","","practice","1","definitely_old",""
"html-keyboard-response","30","116320","0.0-11.0-0.6","7593","approach_avoid_sv1","""event"",""trial"",""time""
""fullscreenenter"",""1"",""1626""
","
","
","""event"",""trial"",""time""
""fullscreenenter"",""1"",""1626""
","
","","","","","","null","<div style=""font-size:60px;"">+</div>","null","","fixation","","",""
"memory-trial","31","118775","0.0-11.0-1.6","7593","approach_avoid_sv1","""event"",""trial"",""time""
""fullscreenenter"",""1"",""1626""
","
","
","""event"",""trial"",""time""
""fullscreenenter"",""1"",""1626""
","
","","","","","","1442","images/ball5.png","","","practice","4","definitely_new",""
"html-keyboard-response","32","119280","0.0-11.0-0.7","7593","approach_avoid_sv1","""event"",""trial"",""time""
""fullscreenenter"",""1"",""1626""
","
","
","""event"",""trial"",""time""
""fullscreenenter"",""1"",""1626""
","
","","","","","","null","<div style=""font-size:60px;"">+</div>","null","","fixation","","",""
"memory-trial","33","121120","0.0-11.0-1.7","7593","approach_avoid_sv1","""event"",""trial"",""time""
""fullscreenenter"",""1"",""1626""
","
","
","""event"",""trial"",""time""
""fullscreenenter"",""1"",""1626""
","
","","","","","","836.4000000357628","images/racket5.png","","","practice","4","definitely_new",""
"learning-instructions","34","129325","0.0-12.0-0.0","7593","approach_avoid_sv1","""event"",""trial"",""time""
""fullscreenenter"",""1"",""1626""
","
","
","""event"",""trial"",""time""
""fullscreenenter"",""1"",""1626""
","
","","","","","","892.9000000357628","<p> Great! You have completed the practice. </p><p> Before you start, we're going to ask you a few questions about how the game works.  </p>","","0","instructions","","",""
"preload","35","135521","0.0-13.0","7593","approach_avoid_sv1","""event"",""trial"",""time""
""fullscreenenter"",""1"",""1626""
","
","
","""event"",""trial"",""time""
""fullscreenenter"",""1"",""1626""
","
","true","false","[]","[]","[]","","","","","","","",""
"comp-q","36","142069","0.0-14.0-0.0","7593","approach_avoid_sv1","""event"",""trial"",""time""
""fullscreenenter"",""1"",""1626""
","
","
","""event"",""trial"",""time""
""fullscreenenter"",""1"",""1626""
","
","","","","","","717.6999999880791","<p> <b> True or False? </b> </p><p> In this game, you will only see each image once. </p>","","0","comp_question","","","true"
"comp-q","37","149181","0.0-14.0-1.0","7593","approach_avoid_sv1","""event"",""trial"",""time""
""fullscreenenter"",""1"",""1626""
","
","
","""event"",""trial"",""time""
""fullscreenenter"",""1"",""1626""
","
","","","","","","749.3999999761581","<p> <b> That's right! </b> You will see many different images <i> one time each </i> in this game. </p>","","0","comp_answer","","",""
"comp-q","38","154989","0.0-15.0-0.0","7593","approach_avoid_sv1","""event"",""trial"",""time""
""fullscreenenter"",""1"",""1626""
","
","
","""event"",""trial"",""time""
""fullscreenenter"",""1"",""1626""
","
","","","","","","787.6000000238419","<p> <b> True or False? </b> </p><p> You should use the mouse and click to make your response. </p>","","1","comp_question","","","true"
"comp-q","39","162325","0.0-15.0-1.0","7593","approach_avoid_sv1","""event"",""trial"",""time""
""fullscreenenter"",""1"",""1626""
","
","
","""event"",""trial"",""time""
""fullscreenenter"",""1"",""1626""
","
","","","","","","823","<p><b> That's right! </b> You should use the '1', '2', '3', and '4' keys to make your response. </p>","","0","comp_answer","","",""
"comp-q","40","168605","0.0-16.0-0.0","7593","approach_avoid_sv1","""event"",""trial"",""time""
""fullscreenenter"",""1"",""1626""
","
","
","""event"",""trial"",""time""
""fullscreenenter"",""1"",""1626""
","
","","","","","","604","<p> <b> True or False? </b> </p><p> You will have as much time as you want to make each choice. </p>","","1","comp_question","","","true"
"comp-q","41","174341","0.0-16.0-1.0","7593","approach_avoid_sv1","""event"",""trial"",""time""
""fullscreenenter"",""1"",""1626""
","
","
","""event"",""trial"",""time""
""fullscreenenter"",""1"",""1626""
","
","","","","","","1028.8999999761581","<p> <b> That's right! </b> You will only have 10 seconds to make each choice. </p>","","0","comp_answer","","",""
"learning-instructions","42","185390","0.0-17.0","7593","approach_avoid_sv1","""event"",""trial"",""time""
""fullscreenenter"",""1"",""1626""
","
","
","""event"",""trial"",""time""
""fullscreenenter"",""1"",""1626""
","
","","","","","","2377","<p> Great! You are now ready to begin the game. </p><p> Remember, use the 1, 2, 3, and 4 keys to make your responses. </p>","","0","instructions","","",""
"html-keyboard-response","43","186020","0.0-18.0-0.0","7593","approach_avoid_sv1","""event"",""trial"",""time""
""fullscreenenter"",""1"",""1626""
","
","
","""event"",""trial"",""time""
""fullscreenenter"",""1"",""1626""
","
","","","","","","null","<div style=""font-size:60px;"">+</div>","null","","fixation","","",""
"memory-trial","44","188640","0.0-18.0-1.0","7593","approach_avoid_sv1","""event"",""trial"",""time""
""fullscreenenter"",""1"",""1626""
","
","
","""event"",""trial"",""time""
""fullscreenenter"",""1"",""1626""
","
","","","","","","1612.9000000357628","images/rodent5.png","","","memory_trial","2","maybe_old",""
"html-keyboard-response","45","189145","0.0-18.0-0.1","7593","approach_avoid_sv1","""event"",""trial"",""time""
""fullscreenenter"",""1"",""1626""
","
","
","""event"",""trial"",""time""
""fullscreenenter"",""1"",""1626""
","
","","","","","","null","<div style=""font-size:60px;"">+</div>","null","","fixation","","",""
"memory-trial","46","191230","0.0-18.0-1.1","7593","approach_avoid_sv1","""event"",""trial"",""time""
""fullscreenenter"",""1"",""1626""
","
","
","""event"",""trial"",""time""
""fullscreenenter"",""1"",""1626""
","
","","","","","","1067.5","images/sheep8.png","","","memory_trial","1","definitely_old",""
"html-keyboard-response","47","191740","0.0-18.0-0.2","7593","approach_avoid_sv1","""event"",""trial"",""time""
""fullscreenenter"",""1"",""1626""
","
","
","""event"",""trial"",""time""
""fullscreenenter"",""1"",""1626""
","
","","","","","","null","<div style=""font-size:60px;"">+</div>","null","","fixation","","",""
"memory-trial","48","193540","0.0-18.0-1.2","7593","approach_avoid_sv1","""event"",""trial"",""time""
""fullscreenenter"",""1"",""1626""
","
","
","""event"",""trial"",""time""
""fullscreenenter"",""1"",""1626""
","
","","","","","","791.7999999523163","images/train4.png","","","memory_trial","1","definitely_old",""
"html-keyboard-response","49","194044","0.0-18.0-0.3","7593","approach_avoid_sv1","""event"",""trial"",""time""
""fullscreenenter"",""1"",""1626""
","
","
","""event"",""trial"",""time""
""fullscreenenter"",""1"",""1626""
","
","","","","","","null","<div style=""font-size:60px;"">+</div>","null","","fixation","","",""
"memory-trial","50","195761","0.0-18.0-1.3","7593","approach_avoid_sv1","""event"",""trial"",""time""
""fullscreenenter"",""1"",""1626""
","
","
","""event"",""trial"",""time""
""fullscreenenter"",""1"",""1626""
","
","","","","","","712.8999999761581","images/rabbit2.png","","","memory_trial","1","definitely_old",""
"html-keyboard-response","51","196280","0.0-18.0-0.4","7593","approach_avoid_sv1","""event"",""trial"",""time""
""fullscreenenter"",""1"",""1626""
","
","
","""event"",""trial"",""time""
""fullscreenenter"",""1"",""1626""
","
","","","","","","null","<div style=""font-size:60px;"">+</div>","null","","fixation","","",""
"memory-trial","52","198201","0.0-18.0-1.4","7593","approach_avoid_sv1","""event"",""trial"",""time""
""fullscreenenter"",""1"",""1626""
","
","
","""event"",""trial"",""time""
""fullscreenenter"",""1"",""1626""
","
","","","","","","908.4000000357628","images/plane2.png","","","memory_trial","4","definitely_new",""
"html-keyboard-response","53","198711","0.0-18.0-0.5","7593","approach_avoid_sv1","""event"",""trial"",""time""
""fullscreenenter"",""1"",""1626""
","
","
","""event"",""trial"",""time""
""fullscreenenter"",""1"",""1626""
","
","","","","","","null","<div style=""font-size:60px;"">+</div>","null","","fixation","","",""
"memory-trial","54","200730","0.0-18.0-1.5","7593","approach_avoid_sv1","""event"",""trial"",""time""
""fullscreenenter"",""1"",""1626""
","
","
","""event"",""trial"",""time""
""fullscreenenter"",""1"",""1626""
","
","","","","","","1005.3999999761581","images/sheep3.png","","","memory_trial","3","maybe_new",""
"html-keyboard-response","55","201241","0.0-18.0-0.6","7593","approach_avoid_sv1","""event"",""trial"",""time""
""fullscreenenter"",""1"",""1626""
","
","
","""event"",""trial"",""time""
""fullscreenenter"",""1"",""1626""
","
","","","","","","null","<div style=""font-size:60px;"">+</div>","null","","fixation","","",""
"memory-trial","56","203120","0.0-18.0-1.6","7593","approach_avoid_sv1","""event"",""trial"",""time""
""fullscreenenter"",""1"",""1626""
","
","
","""event"",""trial"",""time""
""fullscreenenter"",""1"",""1626""
","
","","","","","","861","images/horse6.png","","","memory_trial","4","definitely_new",""
"html-keyboard-response","57","203631","0.0-18.0-0.7","7593","approach_avoid_sv1","""event"",""trial"",""time""
""fullscreenenter"",""1"",""1626""
","
","
","""event"",""trial"",""time""
""fullscreenenter"",""1"",""1626""
","
","","","","","","null","<div style=""font-size:60px;"">+</div>","null","","fixation","","",""
"memory-trial","58","205830","0.0-18.0-1.7","7593","approach_avoid_sv1","""event"",""trial"",""time""
""fullscreenenter"",""1"",""1626""
","
","
","""event"",""trial"",""time""
""fullscreenenter"",""1"",""1626""
","
","","","","","","1191.8999999761581","images/cow1.png","","","memory_trial","1","definitely_old",""
"html-keyboard-response","59","206350","0.0-18.0-0.8","7593","approach_avoid_sv1","""event"",""trial"",""time""
""fullscreenenter"",""1"",""1626""
","
","
","""event"",""trial"",""time""
""fullscreenenter"",""1"",""1626""
","
","","","","","","null","<div style=""font-size:60px;"">+</div>","null","","fixation","","",""
"memory-trial","60","208050","0.0-18.0-1.8","7593","approach_avoid_sv1","""event"",""trial"",""time""
""fullscreenenter"",""1"",""1626""
","
","
","""event"",""trial"",""time""
""fullscreenenter"",""1"",""1626""
","
","","","","","","695.0999999642372","images/horse2.png","","","memory_trial","4","definitely_new",""
"html-keyboard-response","61","208561","0.0-18.0-0.9","7593","approach_avoid_sv1","""event"",""trial"",""time""
""fullscreenenter"",""1"",""1626""
","
","
","""event"",""trial"",""time""
""fullscreenenter"",""1"",""1626""
","
","","","","","","null","<div style=""font-size:60px;"">+</div>","null","","fixation","","",""
"memory-trial","62","211032","0.0-18.0-1.9","7593","approach_avoid_sv1","""event"",""trial"",""time""
""fullscreenenter"",""1"",""1626""
","
","
","""event"",""trial"",""time""
""fullscreenenter"",""1"",""1626""
","
","","","","","","1461.699999988079","images/train6.png","","","memory_trial","4","definitely_new",""
"html-keyboard-response","63","211540","0.0-18.0-0.10","7593","approach_avoid_sv1","""event"",""trial"",""time""
""fullscreenenter"",""1"",""1626""
","
","
","""event"",""trial"",""time""
""fullscreenenter"",""1"",""1626""
","
","","","","","","null","<div style=""font-size:60px;"">+</div>","null","","fixation","","",""
"memory-trial","64","213470","0.0-18.0-1.10","7593","approach_avoid_sv1","""event"",""trial"",""time""
""fullscreenenter"",""1"",""1626""
","
","
","""event"",""trial"",""time""
""fullscreenenter"",""1"",""1626""
","
","","","","","","926.3999999761581","images/sofa3.png","","","memory_trial","4","definitely_new",""
"html-keyboard-response","65","213971","0.0-18.0-0.11","7593","approach_avoid_sv1","""event"",""trial"",""time""
""fullscreenenter"",""1"",""1626""
","
","
","""event"",""trial"",""time""
""fullscreenenter"",""1"",""1626""
","
","","","","","","null","<div style=""font-size:60px;"">+</div>","null","","fixation","","",""
"memory-trial","66","216306","0.0-18.0-1.11","7593","approach_avoid_sv1","""event"",""trial"",""time""
""fullscreenenter"",""1"",""1626""
","
","
","""event"",""trial"",""time""
""fullscreenenter"",""1"",""1626""
","
","","","","","","1331.699999988079","images/banana8.png","","","memory_trial","1","definitely_old",""
"html-keyboard-response","67","216807","0.0-18.0-0.12","7593","approach_avoid_sv1","""event"",""trial"",""time""
""fullscreenenter"",""1"",""1626""
","
","
","""event"",""trial"",""time""
""fullscreenenter"",""1"",""1626""
","
","","","","","","null","<div style=""font-size:60px;"">+</div>","null","","fixation","","",""
"memory-trial","68","218480","0.0-18.0-1.12","7593","approach_avoid_sv1","""event"",""trial"",""time""
""fullscreenenter"",""1"",""1626""
","
","
","""event"",""trial"",""time""
""fullscreenenter"",""1"",""1626""
","
","","","","","","670.8000000119209","images/orange8.png","","","memory_trial","1","definitely_old",""
"html-keyboard-response","69","218982","0.0-18.0-0.13","7593","approach_avoid_sv1","""event"",""trial"",""time""
""fullscreenenter"",""1"",""1626""
","
","
","""event"",""trial"",""time""
""fullscreenenter"",""1"",""1626""
","
","","","","","","null","<div style=""font-size:60px;"">+</div>","null","","fixation","","",""
"memory-trial","70","221107","0.0-18.0-1.13","7593","approach_avoid_sv1","""event"",""trial"",""time""
""fullscreenenter"",""1"",""1626""
","
","
","""event"",""trial"",""time""
""fullscreenenter"",""1"",""1626""
","
","","","","","","1121.5","images/cat7.png","","","memory_trial","2","maybe_old",""
"html-keyboard-response","71","221609","0.0-18.0-0.14","7593","approach_avoid_sv1","""event"",""trial"",""time""
""fullscreenenter"",""1"",""1626""
","
","
","""event"",""trial"",""time""
""fullscreenenter"",""1"",""1626""
","
","","","","","","null","<div style=""font-size:60px;"">+</div>","null","","fixation","","",""
"memory-trial","72","223454","0.0-18.0-1.14","7593","approach_avoid_sv1","""event"",""trial"",""time""
""fullscreenenter"",""1"",""1626""
","
","
","""event"",""trial"",""time""
""fullscreenenter"",""1"",""1626""
","
","","","","","","843.3000000119209","images/rodent1.png","","","memory_trial","1","definitely_old",""
"html-keyboard-response","73","223955","0.0-18.0-0.15","7593","approach_avoid_sv1","""event"",""trial"",""time""
""fullscreenenter"",""1"",""1626""
","
","
","""event"",""trial"",""time""
""fullscreenenter"",""1"",""1626""
","
","","","","","","null","<div style=""font-size:60px;"">+</div>","null","","fixation","","",""
"memory-trial","74","225534","0.0-18.0-1.15","7593","approach_avoid_sv1","""event"",""trial"",""time""
""fullscreenenter"",""1"",""1626""
","
","
","""event"",""trial"",""time""
""fullscreenenter"",""1"",""1626""
","
","","","","","","575.8999999761581","images/banana3.png","","","memory_trial","1","definitely_old",""
"html-keyboard-response","75","226035","0.0-18.0-0.16","7593","approach_avoid_sv1","""event"",""trial"",""time""
""fullscreenenter"",""1"",""1626""
","
","
","""event"",""trial"",""time""
""fullscreenenter"",""1"",""1626""
","
","","","","","","null","<div style=""font-size:60px;"">+</div>","null","","fixation","","",""
"memory-trial","76","227807","0.0-18.0-1.16","7593","approach_avoid_sv1","""event"",""trial"",""time""
""fullscreenenter"",""1"",""1626""
","
","
","""event"",""trial"",""time""
""fullscreenenter"",""1"",""1626""
","
","","","","","","770.8000000119209","images/tree8.png","","","memory_trial","4","definitely_new",""
"html-keyboard-response","77","228308","0.0-18.0-0.17","7593","approach_avoid_sv1","""event"",""trial"",""time""
""fullscreenenter"",""1"",""1626""
","
","
","""event"",""trial"",""time""
""fullscreenenter"",""1"",""1626""
","
","","","","","","null","<div style=""font-size:60px;"">+</div>","null","","fixation","","",""
"memory-trial","78","230944","0.0-18.0-1.17","7593","approach_avoid_sv1","""event"",""trial"",""time""
""fullscreenenter"",""1"",""1626""
","
","
","""event"",""trial"",""time""
""fullscreenenter"",""1"",""1626""
","
","","","","","","1633.1000000238419","images/bed5.png","","","memory_trial","1","definitely_old",""
"html-keyboard-response","79","231446","0.0-18.0-0.18","7593","approach_avoid_sv1","""event"",""trial"",""time""
""fullscreenenter"",""1"",""1626""
","
","
","""event"",""trial"",""time""
""fullscreenenter"",""1"",""1626""
","
","","","","","","null","<div style=""font-size:60px;"">+</div>","null","","fixation","","",""
"memory-trial","80","233857","0.0-18.0-1.18","7593","approach_avoid_sv1","""event"",""trial"",""time""
""fullscreenenter"",""1"",""1626""
","
","
","""event"",""trial"",""time""
""fullscreenenter"",""1"",""1626""
","
","","","","","","1407.699999988079","images/apple2.png","","","memory_trial","2","maybe_old",""
"html-keyboard-response","81","234358","0.0-18.0-0.19","7593","approach_avoid_sv1","""event"",""trial"",""time""
""fullscreenenter"",""1"",""1626""
","
","
","""event"",""trial"",""time""
""fullscreenenter"",""1"",""1626""
","
","","","","","","null","<div style=""font-size:60px;"">+</div>","null","","fixation","","",""
"memory-trial","82","236320","0.0-18.0-1.19","7593","approach_avoid_sv1","""event"",""trial"",""time""
""fullscreenenter"",""1"",""1626""
","
","
","""event"",""trial"",""time""
""fullscreenenter"",""1"",""1626""
","
","","","","","","956.8000000119209","images/straw4.png","","","memory_trial","4","definitely_new",""
"html-keyboard-response","83","236821","0.0-18.0-0.20","7593","approach_avoid_sv1","""event"",""trial"",""time""
""fullscreenenter"",""1"",""1626""
","
","
","""event"",""trial"",""time""
""fullscreenenter"",""1"",""1626""
","
","","","","","","null","<div style=""font-size:60px;"">+</div>","null","","fixation","","",""
"memory-trial","84","238800","0.0-18.0-1.20","7593","approach_avoid_sv1","""event"",""trial"",""time""
""fullscreenenter"",""1"",""1626""
","
","
","""event"",""trial"",""time""
""fullscreenenter"",""1"",""1626""
","
","","","","","","977.6999999880791","images/rabbit4.png","","","memory_trial","4","definitely_new",""
"html-keyboard-response","85","239313","0.0-18.0-0.21","7593","approach_avoid_sv1","""event"",""trial"",""time""
""fullscreenenter"",""1"",""1626""
","
","
","""event"",""trial"",""time""
""fullscreenenter"",""1"",""1626""
","
","","","","","","null","<div style=""font-size:60px;"">+</div>","null","","fixation","","",""
"memory-trial","86","241360","0.0-18.0-1.21","7593","approach_avoid_sv1","""event"",""trial"",""time""
""fullscreenenter"",""1"",""1626""
","
","
","""event"",""trial"",""time""
""fullscreenenter"",""1"",""1626""
","
","","","","","","1043.8999999761581","images/bush1.png","","","memory_trial","1","definitely_old",""
"html-keyboard-response","87","241862","0.0-18.0-0.22","7593","approach_avoid_sv1","""event"",""trial"",""time""
""fullscreenenter"",""1"",""1626""
","
","
","""event"",""trial"",""time""
""fullscreenenter"",""1"",""1626""
","
","","","","","","null","<div style=""font-size:60px;"">+</div>","null","","fixation","","",""
"memory-trial","88","244000","0.0-18.0-1.22","7593","approach_avoid_sv1","""event"",""trial"",""time""
""fullscreenenter"",""1"",""1626""
","
","
","""event"",""trial"",""time""
""fullscreenenter"",""1"",""1626""
","
","","","","","","1134.8999999761581","images/truck7.png","","","memory_trial","2","maybe_old",""
"html-keyboard-response","89","244501","0.0-18.0-0.23","7593","approach_avoid_sv1","""event"",""trial"",""time""
""fullscreenenter"",""1"",""1626""
","
","
","""event"",""trial"",""time""
""fullscreenenter"",""1"",""1626""
","
","","","","","","null","<div style=""font-size:60px;"">+</div>","null","","fixation","","",""
"memory-trial","90","246386","0.0-18.0-1.23","7593","approach_avoid_sv1","""event"",""trial"",""time""
""fullscreenenter"",""1"",""1626""
","
","
","""event"",""trial"",""time""
""fullscreenenter"",""1"",""1626""
","
","","","","","","880.5","images/boat6.png","","","memory_trial","4","definitely_new",""
"html-keyboard-response","91","246888","0.0-18.0-0.24","7593","approach_avoid_sv1","""event"",""trial"",""time""
""fullscreenenter"",""1"",""1626""
","
","
","""event"",""trial"",""time""
""fullscreenenter"",""1"",""1626""
","
","","","","","","null","<div style=""font-size:60px;"">+</div>","null","","fixation","","",""
"memory-trial","92","249120","0.0-18.0-1.24","7593","approach_avoid_sv1","""event"",""trial"",""time""
""fullscreenenter"",""1"",""1626""
","
","
","""event"",""trial"",""time""
""fullscreenenter"",""1"",""1626""
","
","","","","","","1230.5","images/bush6.png","","","memory_trial","4","definitely_new",""
"html-keyboard-response","93","249621","0.0-18.0-0.25","7593","approach_avoid_sv1","""event"",""trial"",""time""
""fullscreenenter"",""1"",""1626""
","
","
","""event"",""trial"",""time""
""fullscreenenter"",""1"",""1626""
","
","","","","","","null","<div style=""font-size:60px;"">+</div>","null","","fixation","","",""
"memory-trial","94","251263","0.0-18.0-1.25","7593","approach_avoid_sv1","""event"",""trial"",""time""
""fullscreenenter"",""1"",""1626""
","
","
","""event"",""trial"",""time""
""fullscreenenter"",""1"",""1626""
","
","","","","","","641","images/apple7.png","","","memory_trial","1","definitely_old",""
"html-keyboard-response","95","251765","0.0-18.0-0.26","7593","approach_avoid_sv1","""event"",""trial"",""time""
""fullscreenenter"",""1"",""1626""
","
","
","""event"",""trial"",""time""
""fullscreenenter"",""1"",""1626""
","
","","","","","","null","<div style=""font-size:60px;"">+</div>","null","","fixation","","",""
"memory-trial","96","254032","0.0-18.0-1.26","7593","approach_avoid_sv1","""event"",""trial"",""time""
""fullscreenenter"",""1"",""1626""
","
","
","""event"",""trial"",""time""
""fullscreenenter"",""1"",""1626""
","
","","","","","","1265.199999988079","images/plane6.png","","","memory_trial","3","maybe_new",""
"html-keyboard-response","97","254533","0.0-18.0-0.27","7593","approach_avoid_sv1","""event"",""trial"",""time""
""fullscreenenter"",""1"",""1626""
","
","
","""event"",""trial"",""time""
""fullscreenenter"",""1"",""1626""
","
","","","","","","null","<div style=""font-size:60px;"">+</div>","null","","fixation","","",""
"memory-trial","98","256704","0.0-18.0-1.27","7593","approach_avoid_sv1","""event"",""trial"",""time""
""fullscreenenter"",""1"",""1626""
","
","
","""event"",""trial"",""time""
""fullscreenenter"",""1"",""1626""
","
","","","","","","1166.5","images/rodent8.png","","","memory_trial","2","maybe_old",""
"html-keyboard-response","99","257205","0.0-18.0-0.28","7593","approach_avoid_sv1","""event"",""trial"",""time""
""fullscreenenter"",""1"",""1626""
","
","
","""event"",""trial"",""time""
""fullscreenenter"",""1"",""1626""
","
","","","","","","null","<div style=""font-size:60px;"">+</div>","null","","fixation","","",""
"memory-trial","100","259008","0.0-18.0-1.28","7593","approach_avoid_sv1","""event"",""trial"",""time""
""fullscreenenter"",""1"",""1626""
","
","
","""event"",""trial"",""time""
""fullscreenenter"",""1"",""1626""
","
","","","","","","800.6000000238419","images/train2.png","","","memory_trial","2","maybe_old",""
"html-keyboard-response","101","259510","0.0-18.0-0.29","7593","approach_avoid_sv1","""event"",""trial"",""time""
""fullscreenenter"",""1"",""1626""
","
","
","""event"",""trial"",""time""
""fullscreenenter"",""1"",""1626""
","
","","","","","","null","<div style=""font-size:60px;"">+</div>","null","","fixation","","",""
"memory-trial","102","261201","0.0-18.0-1.29","7593","approach_avoid_sv1","""event"",""trial"",""time""
""fullscreenenter"",""1"",""1626""
","
","
","""event"",""trial"",""time""
""fullscreenenter"",""1"",""1626""
","
","","","","","","689.8000000119209","images/plane1.png","","","memory_trial","4","definitely_new",""
"html-keyboard-response","103","261702","0.0-18.0-0.30","7593","approach_avoid_sv1","""event"",""trial"",""time""
""fullscreenenter"",""1"",""1626""
","
","
","""event"",""trial"",""time""
""fullscreenenter"",""1"",""1626""
","
","","","","","","null","<div style=""font-size:60px;"">+</div>","null","","fixation","","",""
"memory-trial","104","263648","0.0-18.0-1.30","7593","approach_avoid_sv1","""event"",""trial"",""time""
""fullscreenenter"",""1"",""1626""
","
","
","""event"",""trial"",""time""
""fullscreenenter"",""1"",""1626""
","
","","","","","","944.6000000238419","images/apple1.png","","","memory_trial","1","definitely_old",""
"html-keyboard-response","105","264150","0.0-18.0-0.31","7593","approach_avoid_sv1","""event"",""trial"",""time""
""fullscreenenter"",""1"",""1626""
","
","
","""event"",""trial"",""time""
""fullscreenenter"",""1"",""1626""
","
","","","","","","null","<div style=""font-size:60px;"">+</div>","null","","fixation","","",""
"memory-trial","106","266208","0.0-18.0-1.31","7593","approach_avoid_sv1","""event"",""trial"",""time""
""fullscreenenter"",""1"",""1626""
","
","
","""event"",""trial"",""time""
""fullscreenenter"",""1"",""1626""
","
","","","","","","1056.9000000357628","images/truck4.png","","","memory_trial","4","definitely_new",""
"html-keyboard-response","107","266709","0.0-18.0-0.32","7593","approach_avoid_sv1","""event"",""trial"",""time""
""fullscreenenter"",""1"",""1626""
","
","
","""event"",""trial"",""time""
""fullscreenenter"",""1"",""1626""
","
","","","","","","null","<div style=""font-size:60px;"">+</div>","null","","fixation","","",""
"memory-trial","108","268624","0.0-18.0-1.32","7593","approach_avoid_sv1","""event"",""trial"",""time""
""fullscreenenter"",""1"",""1626""
","
","
","""event"",""trial"",""time""
""fullscreenenter"",""1"",""1626""
","
","","","","","","912","images/straw8.png","","","memory_trial","4","definitely_new",""
"html-keyboard-response","109","269125","0.0-18.0-0.33","7593","approach_avoid_sv1","""event"",""trial"",""time""
""fullscreenenter"",""1"",""1626""
","
","
","""event"",""trial"",""time""
""fullscreenenter"",""1"",""1626""
","
","","","","","","null","<div style=""font-size:60px;"">+</div>","null","","fixation","","",""
"memory-trial","110","271232","0.0-18.0-1.33","7593","approach_avoid_sv1","""event"",""trial"",""time""
""fullscreenenter"",""1"",""1626""
","
","
","""event"",""trial"",""time""
""fullscreenenter"",""1"",""1626""
","
","","","","","","1104.3999999761581","images/bed7.png","","","memory_trial","4","definitely_new",""
"html-keyboard-response","111","271733","0.0-18.0-0.34","7593","approach_avoid_sv1","""event"",""trial"",""time""
""fullscreenenter"",""1"",""1626""
","
","
","""event"",""trial"",""time""
""fullscreenenter"",""1"",""1626""
","
","","","","","","null","<div style=""font-size:60px;"">+</div>","null","","fixation","","",""
"memory-trial","112","274384","0.0-18.0-1.34","7593","approach_avoid_sv1","""event"",""trial"",""time""
""fullscreenenter"",""1"",""1626""
","
","
","""event"",""trial"",""time""
""fullscreenenter"",""1"",""1626""
","
","","","","","","1649.3999999761581","images/straw3.png","","","memory_trial","4","definitely_new",""
"html-keyboard-response","113","274886","0.0-18.0-0.35","7593","approach_avoid_sv1","""event"",""trial"",""time""
""fullscreenenter"",""1"",""1626""
","
","
","""event"",""trial"",""time""
""fullscreenenter"",""1"",""1626""
","
","","","","","","null","<div style=""font-size:60px;"">+</div>","null","","fixation","","",""
"memory-trial","114","276755","0.0-18.0-1.35","7593","approach_avoid_sv1","""event"",""trial"",""time""
""fullscreenenter"",""1"",""1626""
","
","
","""event"",""trial"",""time""
""fullscreenenter"",""1"",""1626""
","
","","","","","","866.6000000238419","images/table8.png","","","memory_trial","1","definitely_old",""
"html-keyboard-response","115","277256","0.0-18.0-0.36","7593","approach_avoid_sv1","""event"",""trial"",""time""
""fullscreenenter"",""1"",""1626""
","
","
","""event"",""trial"",""time""
""fullscreenenter"",""1"",""1626""
","
","","","","","","null","<div style=""font-size:60px;"">+</div>","null","","fixation","","",""
"memory-trial","116","279409","0.0-18.0-1.36","7593","approach_avoid_sv1","""event"",""trial"",""time""
""fullscreenenter"",""1"",""1626""
","
","
","""event"",""trial"",""time""
""fullscreenenter"",""1"",""1626""
","
","","","","","","1151.300000011921","images/cat8.png","","","memory_trial","4","definitely_new",""
"html-keyboard-response","117","279911","0.0-18.0-0.37","7593","approach_avoid_sv1","""event"",""trial"",""time""
""fullscreenenter"",""1"",""1626""
","
","
","""event"",""trial"",""time""
""fullscreenenter"",""1"",""1626""
","
","","","","","","null","<div style=""font-size:60px;"">+</div>","null","","fixation","","",""
"memory-trial","118","281904","0.0-18.0-1.37","7593","approach_avoid_sv1","""event"",""trial"",""time""
""fullscreenenter"",""1"",""1626""
","
","
","""event"",""trial"",""time""
""fullscreenenter"",""1"",""1626""
","
","","","","","","991.3999999761581","images/straw2.png","","","memory_trial","4","definitely_new",""
"html-keyboard-response","119","282405","0.0-18.0-0.38","7593","approach_avoid_sv1","""event"",""trial"",""time""
""fullscreenenter"",""1"",""1626""
","
","
","""event"",""trial"",""time""
""fullscreenenter"",""1"",""1626""
","
","","","","","","null","<div style=""font-size:60px;"">+</div>","null","","fixation","","",""
"memory-trial","120","284592","0.0-18.0-1.38","7593","approach_avoid_sv1","""event"",""trial"",""time""
""fullscreenenter"",""1"",""1626""
","
","
","""event"",""trial"",""time""
""fullscreenenter"",""1"",""1626""
","
","","","","","","1182.800000011921","images/bed8.png","","","memory_trial","3","maybe_new",""
"html-keyboard-response","121","285093","0.0-18.0-0.39","7593","approach_avoid_sv1","""event"",""trial"",""time""
""fullscreenenter"",""1"",""1626""
","
","
","""event"",""trial"",""time""
""fullscreenenter"",""1"",""1626""
","
","","","","","","null","<div style=""font-size:60px;"">+</div>","null","","fixation","","",""
"memory-trial","122","286883","0.0-18.0-1.39","7593","approach_avoid_sv1","""event"",""trial"",""time""
""fullscreenenter"",""1"",""1626""
","
","
","""event"",""trial"",""time""
""fullscreenenter"",""1"",""1626""
","
","","","","","","786.3999999761581","images/dog8.png","","","memory_trial","4","definitely_new",""
"html-keyboard-response","123","287384","0.0-18.0-0.40","7593","approach_avoid_sv1","""event"",""trial"",""time""
""fullscreenenter"",""1"",""1626""
","
","
","""event"",""trial"",""time""
""fullscreenenter"",""1"",""1626""
","
","","","","","","null","<div style=""font-size:60px;"">+</div>","null","","fixation","","",""
"memory-trial","124","289009","0.0-18.0-1.40","7593","approach_avoid_sv1","""event"",""trial"",""time""
""fullscreenenter"",""1"",""1626""
","
","
","""event"",""trial"",""time""
""fullscreenenter"",""1"",""1626""
","
","","","","","","622.3000000119209","images/dog5.png","","","memory_trial","4","definitely_new",""
"html-keyboard-response","125","289510","0.0-18.0-0.41","7593","approach_avoid_sv1","""event"",""trial"",""time""
""fullscreenenter"",""1"",""1626""
","
","
","""event"",""trial"",""time""
""fullscreenenter"",""1"",""1626""
","
","","","","","","null","<div style=""font-size:60px;"">+</div>","null","","fixation","","",""
"memory-trial","126","291617","0.0-18.0-1.41","7593","approach_avoid_sv1","""event"",""trial"",""time""
""fullscreenenter"",""1"",""1626""
","
","
","""event"",""trial"",""time""
""fullscreenenter"",""1"",""1626""
","
","","","","","","1106","images/bush5.png","","","memory_trial","2","maybe_old",""
"html-button-response","127","297807","0.0-18.0-2.41-0.41","7593","approach_avoid_sv1","""event"",""trial"",""time""
""fullscreenenter"",""1"",""1626""
","
","
","""event"",""trial"",""time""
""fullscreenenter"",""1"",""1626""
","
","","","","","","6188.399999976158","<p> Take a break! </p><p> Click the button to continue. </p>","0","","break","","",""
"html-keyboard-response","128","298308","0.0-18.0-0.42","7593","approach_avoid_sv1","""event"",""trial"",""time""
""fullscreenenter"",""1"",""1626""
","
","
","""event"",""trial"",""time""
""fullscreenenter"",""1"",""1626""
","
","","","","","","null","<div style=""font-size:60px;"">+</div>","null","","fixation","","",""
"memory-trial","129","300465","0.0-18.0-1.42","7593","approach_avoid_sv1","""event"",""trial"",""time""
""fullscreenenter"",""1"",""1626""
","
","
","""event"",""trial"",""time""
""fullscreenenter"",""1"",""1626""
","
","","","","","","1154","images/rabbit8.png","","","memory_trial","1","definitely_old",""
"html-keyboard-response","130","300966","0.0-18.0-0.43","7593","approach_avoid_sv1","""event"",""trial"",""time""
""fullscreenenter"",""1"",""1626""
","
","
","""event"",""trial"",""time""
""fullscreenenter"",""1"",""1626""
","
","","","","","","null","<div style=""font-size:60px;"">+</div>","null","","fixation","","",""
"memory-trial","131","302673","0.0-18.0-1.43","7593","approach_avoid_sv1","""event"",""trial"",""time""
""fullscreenenter"",""1"",""1626""
","
","
","""event"",""trial"",""time""
""fullscreenenter"",""1"",""1626""
","
","","","","","","704.8000000119209","images/orange5.png","","","memory_trial","1","definitely_old",""
"html-keyboard-response","132","303175","0.0-18.0-0.44","7593","approach_avoid_sv1","""event"",""trial"",""time""
""fullscreenenter"",""1"",""1626""
","
","
","""event"",""trial"",""time""
""fullscreenenter"",""1"",""1626""
","
","","","","","","null","<div style=""font-size:60px;"">+</div>","null","","fixation","","",""
"memory-trial","133","305457","0.0-18.0-1.44","7593","approach_avoid_sv1","""event"",""trial"",""time""
""fullscreenenter"",""1"",""1626""
","
","
","""event"",""trial"",""time""
""fullscreenenter"",""1"",""1626""
","
","","","","","","1278.0999999642372","images/apple5.png","","","memory_trial","4","definitely_new",""
"html-keyboard-response","134","305959","0.0-18.0-0.45","7593","approach_avoid_sv1","""event"",""trial"",""time""
""fullscreenenter"",""1"",""1626""
","
","
","""event"",""trial"",""time""
""fullscreenenter"",""1"",""1626""
","
","","","","","","null","<div style=""font-size:60px;"">+</div>","null","","fixation","","",""
"memory-trial","135","307889","0.0-18.0-1.45","7593","approach_avoid_sv1","""event"",""trial"",""time""
""fullscreenenter"",""1"",""1626""
","
","
","""event"",""trial"",""time""
""fullscreenenter"",""1"",""1626""
","
","","","","","","927","images/tree5.png","","","memory_trial","4","definitely_new",""
"html-keyboard-response","136","308390","0.0-18.0-0.46","7593","approach_avoid_sv1","""event"",""trial"",""time""
""fullscreenenter"",""1"",""1626""
","
","
","""event"",""trial"",""time""
""fullscreenenter"",""1"",""1626""
","
","","","","","","null","<div style=""font-size:60px;"">+</div>","null","","fixation","","",""
"memory-trial","137","310899","0.0-18.0-1.46","7593","approach_avoid_sv1","""event"",""trial"",""time""
""fullscreenenter"",""1"",""1626""
","
","
","""event"",""trial"",""time""
""fullscreenenter"",""1"",""1626""
","
","","","","","","1506.6000000238419","images/goat5.png","","","memory_trial","3","maybe_new",""
"html-keyboard-response","138","311399","0.0-18.0-0.47","7593","approach_avoid_sv1","""event"",""trial"",""time""
""fullscreenenter"",""1"",""1626""
","
","
","""event"",""trial"",""time""
""fullscreenenter"",""1"",""1626""
","
","","","","","","null","<div style=""font-size:60px;"">+</div>","null","","fixation","","",""
"memory-trial","139","313923","0.0-18.0-1.47","7593","approach_avoid_sv1","""event"",""trial"",""time""
""fullscreenenter"",""1"",""1626""
","
","
","""event"",""trial"",""time""
""fullscreenenter"",""1"",""1626""
","
","","","","","","1521.2000000476837","images/bed1.png","","","memory_trial","3","maybe_new",""
"html-keyboard-response","140","314424","0.0-18.0-0.48","7593","approach_avoid_sv1","""event"",""trial"",""time""
""fullscreenenter"",""1"",""1626""
","
","
","""event"",""trial"",""time""
""fullscreenenter"",""1"",""1626""
","
","","","","","","null","<div style=""font-size:60px;"">+</div>","null","","fixation","","",""
"memory-trial","141","316117","0.0-18.0-1.48","7593","approach_avoid_sv1","""event"",""trial"",""time""
""fullscreenenter"",""1"",""1626""
","
","
","""event"",""trial"",""time""
""fullscreenenter"",""1"",""1626""
","
","","","","","","686.3999999761581","images/cactus5.png","","","memory_trial","1","definitely_old",""
"html-keyboard-response","142","316619","0.0-18.0-0.49","7593","approach_avoid_sv1","""event"",""trial"",""time""
""fullscreenenter"",""1"",""1626""
","
","
","""event"",""trial"",""time""
""fullscreenenter"",""1"",""1626""
","
","","","","","","null","<div style=""font-size:60px;"">+</div>","null","","fixation","","",""
"memory-trial","143","318050","0.0-18.0-1.49","7593","approach_avoid_sv1","""event"",""trial"",""time""
""fullscreenenter"",""1"",""1626""
","
","
","""event"",""trial"",""time""
""fullscreenenter"",""1"",""1626""
","
","","","","","","429.0999999642372","images/cactus1.png","","","memory_trial","1","definitely_old",""
"html-keyboard-response","144","318551","0.0-18.0-0.50","7593","approach_avoid_sv1","""event"",""trial"",""time""
""fullscreenenter"",""1"",""1626""
","
","
","""event"",""trial"",""time""
""fullscreenenter"",""1"",""1626""
","
","","","","","","null","<div style=""font-size:60px;"">+</div>","null","","fixation","","",""
"memory-trial","145","320689","0.0-18.0-1.50","7593","approach_avoid_sv1","""event"",""trial"",""time""
""fullscreenenter"",""1"",""1626""
","
","
","""event"",""trial"",""time""
""fullscreenenter"",""1"",""1626""
","
","","","","","","1135.1000000238419","images/plane3.png","","","memory_trial","2","maybe_old",""
"html-keyboard-response","146","321190","0.0-18.0-0.51","7593","approach_avoid_sv1","""event"",""trial"",""time""
""fullscreenenter"",""1"",""1626""
","
","
","""event"",""trial"",""time""
""fullscreenenter"",""1"",""1626""
","
","","","","","","null","<div style=""font-size:60px;"">+</div>","null","","fixation","","",""
"memory-trial","147","323137","0.0-18.0-1.51","7593","approach_avoid_sv1","""event"",""trial"",""time""
""fullscreenenter"",""1"",""1626""
","
","
","""event"",""trial"",""time""
""fullscreenenter"",""1"",""1626""
","
","","","","","","944.1999999880791","images/chair6.png","","","memory_trial","1","definitely_old",""
"html-keyboard-response","148","323639","0.0-18.0-0.52","7593","approach_avoid_sv1","""event"",""trial"",""time""
""fullscreenenter"",""1"",""1626""
","
","
","""event"",""trial"",""time""
""fullscreenenter"",""1"",""1626""
","
","","","","","","null","<div style=""font-size:60px;"">+</div>","null","","fixation","","",""
"memory-trial","149","325953","0.0-18.0-1.52","7593","approach_avoid_sv1","""event"",""trial"",""time""
""fullscreenenter"",""1"",""1626""
","
","
","""event"",""trial"",""time""
""fullscreenenter"",""1"",""1626""
","
","","","","","","1312.800000011921","images/truck3.png","","","memory_trial","2","maybe_old",""
"html-keyboard-response","150","326454","0.0-18.0-0.53","7593","approach_avoid_sv1","""event"",""trial"",""time""
""fullscreenenter"",""1"",""1626""
","
","
","""event"",""trial"",""time""
""fullscreenenter"",""1"",""1626""
","
","","","","","","null","<div style=""font-size:60px;"">+</div>","null","","fixation","","",""
"memory-trial","151","328786","0.0-18.0-1.53","7593","approach_avoid_sv1","""event"",""trial"",""time""
""fullscreenenter"",""1"",""1626""
","
","
","""event"",""trial"",""time""
""fullscreenenter"",""1"",""1626""
","
","","","","","","1327.2000000476837","images/table6.png","","","memory_trial","3","maybe_new",""
"html-keyboard-response","152","329287","0.0-18.0-0.54","7593","approach_avoid_sv1","""event"",""trial"",""time""
""fullscreenenter"",""1"",""1626""
","
","
","""event"",""trial"",""time""
""fullscreenenter"",""1"",""1626""
","
","","","","","","null","<div style=""font-size:60px;"">+</div>","null","","fixation","","",""
"memory-trial","153","331202","0.0-18.0-1.54","7593","approach_avoid_sv1","""event"",""trial"",""time""
""fullscreenenter"",""1"",""1626""
","
","
","""event"",""trial"",""time""
""fullscreenenter"",""1"",""1626""
","
","","","","","","910.5","images/bush2.png","","","memory_trial","4","definitely_new",""
"html-keyboard-response","154","331704","0.0-18.0-0.55","7593","approach_avoid_sv1","""event"",""trial"",""time""
""fullscreenenter"",""1"",""1626""
","
","
","""event"",""trial"",""time""
""fullscreenenter"",""1"",""1626""
","
","","","","","","null","<div style=""font-size:60px;"">+</div>","null","","fixation","","",""
"memory-trial","155","333315","0.0-18.0-1.55","7593","approach_avoid_sv1","""event"",""trial"",""time""
""fullscreenenter"",""1"",""1626""
","
","
","""event"",""trial"",""time""
""fullscreenenter"",""1"",""1626""
","
","","","","","","608","images/sofa1.png","","","memory_trial","4","definitely_new",""
"html-keyboard-response","156","333817","0.0-18.0-0.56","7593","approach_avoid_sv1","""event"",""trial"",""time""
""fullscreenenter"",""1"",""1626""
","
","
","""event"",""trial"",""time""
""fullscreenenter"",""1"",""1626""
","
","","","","","","null","<div style=""font-size:60px;"">+</div>","null","","fixation","","",""
"memory-trial","157","335713","0.0-18.0-1.56","7593","approach_avoid_sv1","""event"",""trial"",""time""
""fullscreenenter"",""1"",""1626""
","
","
","""event"",""trial"",""time""
""fullscreenenter"",""1"",""1626""
","
","","","","","","894","images/straw7.png","","","memory_trial","4","definitely_new",""
"html-keyboard-response","158","336216","0.0-18.0-0.57","7593","approach_avoid_sv1","""event"",""trial"",""time""
""fullscreenenter"",""1"",""1626""
","
","
","""event"",""trial"",""time""
""fullscreenenter"",""1"",""1626""
","
","","","","","","null","<div style=""font-size:60px;"">+</div>","null","","fixation","","",""
"memory-trial","159","338145","0.0-18.0-1.57","7593","approach_avoid_sv1","""event"",""trial"",""time""
""fullscreenenter"",""1"",""1626""
","
","
","""event"",""trial"",""time""
""fullscreenenter"",""1"",""1626""
","
","","","","","","926.7000000476837","images/truck5.png","","","memory_trial","4","definitely_new",""
"html-keyboard-response","160","338647","0.0-18.0-0.58","7593","approach_avoid_sv1","""event"",""trial"",""time""
""fullscreenenter"",""1"",""1626""
","
","
","""event"",""trial"",""time""
""fullscreenenter"",""1"",""1626""
","
","","","","","","null","<div style=""font-size:60px;"">+</div>","null","","fixation","","",""
"memory-trial","161","340819","0.0-18.0-1.58","7593","approach_avoid_sv1","""event"",""trial"",""time""
""fullscreenenter"",""1"",""1626""
","
","
","""event"",""trial"",""time""
""fullscreenenter"",""1"",""1626""
","
","","","","","","1169.300000011921","images/train7.png","","","memory_trial","1","definitely_old",""
"html-keyboard-response","162","341321","0.0-18.0-0.59","7593","approach_avoid_sv1","""event"",""trial"",""time""
""fullscreenenter"",""1"",""1626""
","
","
","""event"",""trial"",""time""
""fullscreenenter"",""1"",""1626""
","
","","","","","","null","<div style=""font-size:60px;"">+</div>","null","","fixation","","",""
"memory-trial","163","343524","0.0-18.0-1.59","7593","approach_avoid_sv1","""event"",""trial"",""time""
""fullscreenenter"",""1"",""1626""
","
","
","""event"",""trial"",""time""
""fullscreenenter"",""1"",""1626""
","
","","","","","","1199.5","images/goat1.png","","","memory_trial","2","maybe_old",""
"html-keyboard-response","164","344025","0.0-18.0-0.60","7593","approach_avoid_sv1","""event"",""trial"",""time""
""fullscreenenter"",""1"",""1626""
","
","
","""event"",""trial"",""time""
""fullscreenenter"",""1"",""1626""
","
","","","","","","null","<div style=""font-size:60px;"">+</div>","null","","fixation","","",""
"memory-trial","165","345617","0.0-18.0-1.60","7593","approach_avoid_sv1","""event"",""trial"",""time""
""fullscreenenter"",""1"",""1626""
","
","
","""event"",""trial"",""time""
""fullscreenenter"",""1"",""1626""
","
","","","","","","590.1999999880791","images/cactus7.png","","","memory_trial","1","definitely_old",""
"html-keyboard-response","166","346118","0.0-18.0-0.61","7593","approach_avoid_sv1","""event"",""trial"",""time""
""fullscreenenter"",""1"",""1626""
","
","
","""event"",""trial"",""time""
""fullscreenenter"",""1"",""1626""
","
","","","","","","null","<div style=""font-size:60px;"">+</div>","null","","fixation","","",""
"memory-trial","167","348098","0.0-18.0-1.61","7593","approach_avoid_sv1","""event"",""trial"",""time""
""fullscreenenter"",""1"",""1626""
","
","
","""event"",""trial"",""time""
""fullscreenenter"",""1"",""1626""
","
","","","","","","976.3000000119209","images/bed6.png","","","memory_trial","3","maybe_new",""
"html-keyboard-response","168","348600","0.0-18.0-0.62","7593","approach_avoid_sv1","""event"",""trial"",""time""
""fullscreenenter"",""1"",""1626""
","
","
","""event"",""trial"",""time""
""fullscreenenter"",""1"",""1626""
","
","","","","","","null","<div style=""font-size:60px;"">+</div>","null","","fixation","","",""
"memory-trial","169","350946","0.0-18.0-1.62","7593","approach_avoid_sv1","""event"",""trial"",""time""
""fullscreenenter"",""1"",""1626""
","
","
","""event"",""trial"",""time""
""fullscreenenter"",""1"",""1626""
","
","","","","","","1344.199999988079","images/plane5.png","","","memory_trial","2","maybe_old",""
"html-keyboard-response","170","351448","0.0-18.0-0.63","7593","approach_avoid_sv1","""event"",""trial"",""time""
""fullscreenenter"",""1"",""1626""
","
","
","""event"",""trial"",""time""
""fullscreenenter"",""1"",""1626""
","
","","","","","","null","<div style=""font-size:60px;"">+</div>","null","","fixation","","",""
"memory-trial","171","353442","0.0-18.0-1.63","7593","approach_avoid_sv1","""event"",""trial"",""time""
""fullscreenenter"",""1"",""1626""
","
","
","""event"",""trial"",""time""
""fullscreenenter"",""1"",""1626""
","
","","","","","","992.0999999642372","images/train3.png","","","memory_trial","4","definitely_new",""
"html-keyboard-response","172","353943","0.0-18.0-0.64","7593","approach_avoid_sv1","""event"",""trial"",""time""
""fullscreenenter"",""1"",""1626""
","
","
","""event"",""trial"",""time""
""fullscreenenter"",""1"",""1626""
","
","","","","","","null","<div style=""font-size:60px;"">+</div>","null","","fixation","","",""
"memory-trial","173","355827","0.0-18.0-1.64","7593","approach_avoid_sv1","""event"",""trial"",""time""
""fullscreenenter"",""1"",""1626""
","
","
","""event"",""trial"",""time""
""fullscreenenter"",""1"",""1626""
","
","","","","","","881.1999999880791","images/train8.png","","","memory_trial","4","definitely_new",""
"html-keyboard-response","174","356333","0.0-18.0-0.65","7593","approach_avoid_sv1","""event"",""trial"",""time""
""fullscreenenter"",""1"",""1626""
","
","
","""event"",""trial"",""time""
""fullscreenenter"",""1"",""1626""
","
","","","","","","null","<div style=""font-size:60px;"">+</div>","null","","fixation","","",""
"memory-trial","175","358671","0.0-18.0-1.65","7593","approach_avoid_sv1","""event"",""trial"",""time""
""fullscreenenter"",""1"",""1626""
","
","
","""event"",""trial"",""time""
""fullscreenenter"",""1"",""1626""
","
","","","","","","1323.0999999642372","images/chair7.png","","","memory_trial","3","maybe_new",""
"html-keyboard-response","176","359173","0.0-18.0-0.66","7593","approach_avoid_sv1","""event"",""trial"",""time""
""fullscreenenter"",""1"",""1626""
","
","
","""event"",""trial"",""time""
""fullscreenenter"",""1"",""1626""
","
","","","","","","null","<div style=""font-size:60px;"">+</div>","null","","fixation","","",""
"memory-trial","177","360882","0.0-18.0-1.66","7593","approach_avoid_sv1","""event"",""trial"",""time""
""fullscreenenter"",""1"",""1626""
","
","
","""event"",""trial"",""time""
""fullscreenenter"",""1"",""1626""
","
","","","","","","705.8999999761581","images/dog2.png","","","memory_trial","4","definitely_new",""
"html-keyboard-response","178","361383","0.0-18.0-0.67","7593","approach_avoid_sv1","""event"",""trial"",""time""
""fullscreenenter"",""1"",""1626""
","
","
","""event"",""trial"",""time""
""fullscreenenter"",""1"",""1626""
","
","","","","","","null","<div style=""font-size:60px;"">+</div>","null","","fixation","","",""
"memory-trial","179","363393","0.0-18.0-1.67","7593","approach_avoid_sv1","""event"",""trial"",""time""
""fullscreenenter"",""1"",""1626""
","
","
","""event"",""trial"",""time""
""fullscreenenter"",""1"",""1626""
","
","","","","","","1008.3000000119209","images/truck8.png","","","memory_trial","2","maybe_old",""
"html-keyboard-response","180","363895","0.0-18.0-0.68","7593","approach_avoid_sv1","""event"",""trial"",""time""
""fullscreenenter"",""1"",""1626""
","
","
","""event"",""trial"",""time""
""fullscreenenter"",""1"",""1626""
","
","","","","","","null","<div style=""font-size:60px;"">+</div>","null","","fixation","","",""
"memory-trial","181","365745","0.0-18.0-1.68","7593","approach_avoid_sv1","""event"",""trial"",""time""
""fullscreenenter"",""1"",""1626""
","
","
","""event"",""trial"",""time""
""fullscreenenter"",""1"",""1626""
","
","","","","","","848.1000000238419","images/orange2.png","","","memory_trial","1","definitely_old",""
"html-keyboard-response","182","366247","0.0-18.0-0.69","7593","approach_avoid_sv1","""event"",""trial"",""time""
""fullscreenenter"",""1"",""1626""
","
","
","""event"",""trial"",""time""
""fullscreenenter"",""1"",""1626""
","
","","","","","","null","<div style=""font-size:60px;"">+</div>","null","","fixation","","",""
"memory-trial","183","367811","0.0-18.0-1.69","7593","approach_avoid_sv1","""event"",""trial"",""time""
""fullscreenenter"",""1"",""1626""
","
","
","""event"",""trial"",""time""
""fullscreenenter"",""1"",""1626""
","
","","","","","","562.1999999880791","images/banana1.png","","","memory_trial","1","definitely_old",""
"html-keyboard-response","184","368311","0.0-18.0-0.70","7593","approach_avoid_sv1","""event"",""trial"",""time""
""fullscreenenter"",""1"",""1626""
","
","
","""event"",""trial"",""time""
""fullscreenenter"",""1"",""1626""
","
","","","","","","null","<div style=""font-size:60px;"">+</div>","null","","fixation","","",""
"memory-trial","185","370081","0.0-18.0-1.70","7593","approach_avoid_sv1","""event"",""trial"",""time""
""fullscreenenter"",""1"",""1626""
","
","
","""event"",""trial"",""time""
""fullscreenenter"",""1"",""1626""
","
","","","","","","767.8999999761581","images/rodent2.png","","","memory_trial","1","definitely_old",""
"html-keyboard-response","186","370583","0.0-18.0-0.71","7593","approach_avoid_sv1","""event"",""trial"",""time""
""fullscreenenter"",""1"",""1626""
","
","
","""event"",""trial"",""time""
""fullscreenenter"",""1"",""1626""
","
","","","","","","null","<div style=""font-size:60px;"">+</div>","null","","fixation","","",""
"memory-trial","187","372818","0.0-18.0-1.71","7593","approach_avoid_sv1","""event"",""trial"",""time""
""fullscreenenter"",""1"",""1626""
","
","
","""event"",""trial"",""time""
""fullscreenenter"",""1"",""1626""
","
","","","","","","1233.1000000238419","images/flower8.png","","","memory_trial","1","definitely_old",""
"html-keyboard-response","188","373320","0.0-18.0-0.72","7593","approach_avoid_sv1","""event"",""trial"",""time""
""fullscreenenter"",""1"",""1626""
","
","
","""event"",""trial"",""time""
""fullscreenenter"",""1"",""1626""
","
","","","","","","null","<div style=""font-size:60px;"">+</div>","null","","fixation","","",""
"memory-trial","189","375923","0.0-18.0-1.72","7593","approach_avoid_sv1","""event"",""trial"",""time""
""fullscreenenter"",""1"",""1626""
","
","
","""event"",""trial"",""time""
""fullscreenenter"",""1"",""1626""
","
","","","","","","1599.800000011921","images/cow6.png","","","memory_trial","3","maybe_new",""
"html-keyboard-response","190","376424","0.0-18.0-0.73","7593","approach_avoid_sv1","""event"",""trial"",""time""
""fullscreenenter"",""1"",""1626""
","
","
","""event"",""trial"",""time""
""fullscreenenter"",""1"",""1626""
","
","","","","","","null","<div style=""font-size:60px;"">+</div>","null","","fixation","","",""
"memory-trial","191","378483","0.0-18.0-1.73","7593","approach_avoid_sv1","""event"",""trial"",""time""
""fullscreenenter"",""1"",""1626""
","
","
","""event"",""trial"",""time""
""fullscreenenter"",""1"",""1626""
","
","","","","","","1054.3999999761581","images/rabbit3.png","","","memory_trial","3","maybe_new",""
"html-keyboard-response","192","378984","0.0-18.0-0.74","7593","approach_avoid_sv1","""event"",""trial"",""time""
""fullscreenenter"",""1"",""1626""
","
","
","""event"",""trial"",""time""
""fullscreenenter"",""1"",""1626""
","
","","","","","","null","<div style=""font-size:60px;"">+</div>","null","","fixation","","",""
"memory-trial","193","381090","0.0-18.0-1.74","7593","approach_avoid_sv1","""event"",""trial"",""time""
""fullscreenenter"",""1"",""1626""
","
","
","""event"",""trial"",""time""
""fullscreenenter"",""1"",""1626""
","
","","","","","","1105.2000000476837","images/table1.png","","","memory_trial","4","definitely_new",""
"html-keyboard-response","194","381592","0.0-18.0-0.75","7593","approach_avoid_sv1","""event"",""trial"",""time""
""fullscreenenter"",""1"",""1626""
","
","
","""event"",""trial"",""time""
""fullscreenenter"",""1"",""1626""
","
","","","","","","null","<div style=""font-size:60px;"">+</div>","null","","fixation","","",""
"memory-trial","195","383174","0.0-18.0-1.75","7593","approach_avoid_sv1","""event"",""trial"",""time""
""fullscreenenter"",""1"",""1626""
","
","
","""event"",""trial"",""time""
""fullscreenenter"",""1"",""1626""
","
","","","","","","577","images/horse4.png","","","memory_trial","4","definitely_new",""
"html-keyboard-response","196","383677","0.0-18.0-0.76","7593","approach_avoid_sv1","""event"",""trial"",""time""
""fullscreenenter"",""1"",""1626""
","
","
","""event"",""trial"",""time""
""fullscreenenter"",""1"",""1626""
","
","","","","","","null","<div style=""font-size:60px;"">+</div>","null","","fixation","","",""
"memory-trial","197","385330","0.0-18.0-1.76","7593","approach_avoid_sv1","""event"",""trial"",""time""
""fullscreenenter"",""1"",""1626""
","
","
","""event"",""trial"",""time""
""fullscreenenter"",""1"",""1626""
","
","","","","","","649.8000000119209","images/goat6.png","","","memory_trial","4","definitely_new",""
"html-keyboard-response","198","385831","0.0-18.0-0.77","7593","approach_avoid_sv1","""event"",""trial"",""time""
""fullscreenenter"",""1"",""1626""
","
","
","""event"",""trial"",""time""
""fullscreenenter"",""1"",""1626""
","
","","","","","","null","<div style=""font-size:60px;"">+</div>","null","","fixation","","",""
"memory-trial","199","387889","0.0-18.0-1.77","7593","approach_avoid_sv1","""event"",""trial"",""time""
""fullscreenenter"",""1"",""1626""
","
","
","""event"",""trial"",""time""
""fullscreenenter"",""1"",""1626""
","
","","","","","","1055.9000000357628","images/bush3.png","","","memory_trial","1","definitely_old",""
"html-keyboard-response","200","388390","0.0-18.0-0.78","7593","approach_avoid_sv1","""event"",""trial"",""time""
""fullscreenenter"",""1"",""1626""
","
","
","""event"",""trial"",""time""
""fullscreenenter"",""1"",""1626""
","
","","","","","","null","<div style=""font-size:60px;"">+</div>","null","","fixation","","",""
"memory-trial","201","390195","0.0-18.0-1.78","7593","approach_avoid_sv1","""event"",""trial"",""time""
""fullscreenenter"",""1"",""1626""
","
","
","""event"",""trial"",""time""
""fullscreenenter"",""1"",""1626""
","
","","","","","","800.3000000119209","images/bush4.png","","","memory_trial","4","definitely_new",""
"html-keyboard-response","202","390696","0.0-18.0-0.79","7593","approach_avoid_sv1","""event"",""trial"",""time""
""fullscreenenter"",""1"",""1626""
","
","
","""event"",""trial"",""time""
""fullscreenenter"",""1"",""1626""
","
","","","","","","null","<div style=""font-size:60px;"">+</div>","null","","fixation","","",""
"memory-trial","203","392833","0.0-18.0-1.79","7593","approach_avoid_sv1","""event"",""trial"",""time""
""fullscreenenter"",""1"",""1626""
","
","
","""event"",""trial"",""time""
""fullscreenenter"",""1"",""1626""
","
","","","","","","1135.699999988079","images/cow7.png","","","memory_trial","2","maybe_old",""
"html-keyboard-response","204","393335","0.0-18.0-0.80","7593","approach_avoid_sv1","""event"",""trial"",""time""
""fullscreenenter"",""1"",""1626""
","
","
","""event"",""trial"",""time""
""fullscreenenter"",""1"",""1626""
","
","","","","","","null","<div style=""font-size:60px;"">+</div>","null","","fixation","","",""
"memory-trial","205","395297","0.0-18.0-1.80","7593","approach_avoid_sv1","""event"",""trial"",""time""
""fullscreenenter"",""1"",""1626""
","
","
","""event"",""trial"",""time""
""fullscreenenter"",""1"",""1626""
","
","","","","","","960.1999999880791","images/goat8.png","","","memory_trial","1","definitely_old",""
"html-keyboard-response","206","395798","0.0-18.0-0.81","7593","approach_avoid_sv1","""event"",""trial"",""time""
""fullscreenenter"",""1"",""1626""
","
","
","""event"",""trial"",""time""
""fullscreenenter"",""1"",""1626""
","
","","","","","","null","<div style=""font-size:60px;"">+</div>","null","","fixation","","",""
"memory-trial","207","398018","0.0-18.0-1.81","7593","approach_avoid_sv1","""event"",""trial"",""time""
""fullscreenenter"",""1"",""1626""
","
","
","""event"",""trial"",""time""
""fullscreenenter"",""1"",""1626""
","
","","","","","","1217.1000000238419","images/orange7.png","","","memory_trial","1","definitely_old",""
"html-keyboard-response","208","398519","0.0-18.0-0.82","7593","approach_avoid_sv1","""event"",""trial"",""time""
""fullscreenenter"",""1"",""1626""
","
","
","""event"",""trial"",""time""
""fullscreenenter"",""1"",""1626""
","
","","","","","","null","<div style=""font-size:60px;"">+</div>","null","","fixation","","",""
"memory-trial","209","400627","0.0-18.0-1.82","7593","approach_avoid_sv1","""event"",""trial"",""time""
""fullscreenenter"",""1"",""1626""
","
","
","""event"",""trial"",""time""
""fullscreenenter"",""1"",""1626""
","
","","","","","","1105.7999999523163","images/cow4.png","","","memory_trial","2","maybe_old",""
"html-keyboard-response","210","401129","0.0-18.0-0.83","7593","approach_avoid_sv1","""event"",""trial"",""time""
""fullscreenenter"",""1"",""1626""
","
","
","""event"",""trial"",""time""
""fullscreenenter"",""1"",""1626""
","
","","","","","","null","<div style=""font-size:60px;"">+</div>","null","","fixation","","",""
"memory-trial","211","402899","0.0-18.0-1.83","7593","approach_avoid_sv1","""event"",""trial"",""time""
""fullscreenenter"",""1"",""1626""
","
","
","""event"",""trial"",""time""
""fullscreenenter"",""1"",""1626""
","
","","","","","","767.8999999761581","images/goat3.png","","","memory_trial","2","maybe_old",""
"html-keyboard-response","212","403400","0.0-18.0-0.84","7593","approach_avoid_sv1","""event"",""trial"",""time""
""fullscreenenter"",""1"",""1626""
","
","
","""event"",""trial"",""time""
""fullscreenenter"",""1"",""1626""
","
","","","","","","null","<div style=""font-size:60px;"">+</div>","null","","fixation","","",""
"memory-trial","213","405683","0.0-18.0-1.84","7593","approach_avoid_sv1","""event"",""trial"",""time""
""fullscreenenter"",""1"",""1626""
","
","
","""event"",""trial"",""time""
""fullscreenenter"",""1"",""1626""
","
","","","","","","1280.800000011921","images/sheep4.png","","","memory_trial","2","maybe_old",""
"html-keyboard-response","214","406185","0.0-18.0-0.85","7593","approach_avoid_sv1","""event"",""trial"",""time""
""fullscreenenter"",""1"",""1626""
","
","
","""event"",""trial"",""time""
""fullscreenenter"",""1"",""1626""
","
","","","","","","null","<div style=""font-size:60px;"">+</div>","null","","fixation","","",""
"memory-trial","215","407907","0.0-18.0-1.85","7593","approach_avoid_sv1","""event"",""trial"",""time""
""fullscreenenter"",""1"",""1626""
","
","
","""event"",""trial"",""time""
""fullscreenenter"",""1"",""1626""
","
","","","","","","717.1999999880791","images/dog6.png","","","memory_trial","4","definitely_new",""
"html-keyboard-response","216","408411","0.0-18.0-0.86","7593","approach_avoid_sv1","""event"",""trial"",""time""
""fullscreenenter"",""1"",""1626""
","
","
","""event"",""trial"",""time""
""fullscreenenter"",""1"",""1626""
","
","","","","","","null","<div style=""font-size:60px;"">+</div>","null","","fixation","","",""
"memory-trial","217","410164","0.0-18.0-1.86","7593","approach_avoid_sv1","""event"",""trial"",""time""
""fullscreenenter"",""1"",""1626""
","
","
","""event"",""trial"",""time""
""fullscreenenter"",""1"",""1626""
","
","","","","","","749.1999999880791","images/banana5.png","","","memory_trial","1","definitely_old",""
"html-keyboard-response","218","410666","0.0-18.0-0.87","7593","approach_avoid_sv1","""event"",""trial"",""time""
""fullscreenenter"",""1"",""1626""
","
","
","""event"",""trial"",""time""
""fullscreenenter"",""1"",""1626""
","
","","","","","","null","<div style=""font-size:60px;"">+</div>","null","","fixation","","",""
"memory-trial","219","413203","0.0-18.0-1.87","7593","approach_avoid_sv1","""event"",""trial"",""time""
""fullscreenenter"",""1"",""1626""
","
","
","""event"",""trial"",""time""
""fullscreenenter"",""1"",""1626""
","
","","","","","","1533.5","images/truck6.png","","","memory_trial","4","definitely_new",""
"html-keyboard-response","220","413704","0.0-18.0-0.88","7593","approach_avoid_sv1","""event"",""trial"",""time""
""fullscreenenter"",""1"",""1626""
","
","
","""event"",""trial"",""time""
""fullscreenenter"",""1"",""1626""
","
","","","","","","null","<div style=""font-size:60px;"">+</div>","null","","fixation","","",""
"memory-trial","221","415453","0.0-18.0-1.88","7593","approach_avoid_sv1","""event"",""trial"",""time""
""fullscreenenter"",""1"",""1626""
","
","
","""event"",""trial"",""time""
""fullscreenenter"",""1"",""1626""
","
","","","","","","736","images/tree2.png","","","memory_trial","4","definitely_new",""
"html-keyboard-response","222","415954","0.0-18.0-0.89","7593","approach_avoid_sv1","""event"",""trial"",""time""
""fullscreenenter"",""1"",""1626""
","
","
","""event"",""trial"",""time""
""fullscreenenter"",""1"",""1626""
","
","","","","","","null","<div style=""font-size:60px;"">+</div>","null","","fixation","","",""
"memory-trial","223","418338","0.0-18.0-1.89","7593","approach_avoid_sv1","""event"",""trial"",""time""
""fullscreenenter"",""1"",""1626""
","
","
","""event"",""trial"",""time""
""fullscreenenter"",""1"",""1626""
","
","","","","","","1380.6000000238419","images/sheep7.png","","","memory_trial","2","maybe_old",""
"html-keyboard-response","224","418840","0.0-18.0-0.90","7593","approach_avoid_sv1","""event"",""trial"",""time""
""fullscreenenter"",""1"",""1626""
","
","
","""event"",""trial"",""time""
""fullscreenenter"",""1"",""1626""
","
","","","","","","null","<div style=""font-size:60px;"">+</div>","null","","fixation","","",""
"memory-trial","225","420498","0.0-18.0-1.90","7593","approach_avoid_sv1","""event"",""trial"",""time""
""fullscreenenter"",""1"",""1626""
","
","
","""event"",""trial"",""time""
""fullscreenenter"",""1"",""1626""
","
","","","","","","653.8999999761581","images/sofa7.png","","","memory_trial","4","definitely_new",""
"html-keyboard-response","226","420999","0.0-18.0-0.91","7593","approach_avoid_sv1","""event"",""trial"",""time""
""fullscreenenter"",""1"",""1626""
","
","
","""event"",""trial"",""time""
""fullscreenenter"",""1"",""1626""
","
","","","","","","null","<div style=""font-size:60px;"">+</div>","null","","fixation","","",""
"memory-trial","227","422883","0.0-18.0-1.91","7593","approach_avoid_sv1","""event"",""trial"",""time""
""fullscreenenter"",""1"",""1626""
","
","
","""event"",""trial"",""time""
""fullscreenenter"",""1"",""1626""
","
","","","","","","880.3000000119209","images/cat4.png","","","memory_trial","4","definitely_new",""
"html-button-response","228","471714","0.0-18.0-2.91-0.91","7593","approach_avoid_sv1","""event"",""trial"",""time""
""fullscreenenter"",""1"",""1626""
","
","
","""event"",""trial"",""time""
""fullscreenenter"",""1"",""1626""
","
","","","","","","48829.19999998808","<p> Take a break! </p><p> Click the button to continue. </p>","0","","break","","",""
"html-keyboard-response","229","472215","0.0-18.0-0.92","7593","approach_avoid_sv1","""event"",""trial"",""time""
""fullscreenenter"",""1"",""1626""
","
","
","""event"",""trial"",""time""
""fullscreenenter"",""1"",""1626""
","
","","","","","","null","<div style=""font-size:60px;"">+</div>","null","","fixation","","",""
"memory-trial","230","474264","0.0-18.0-1.92","7593","approach_avoid_sv1","""event"",""trial"",""time""
""fullscreenenter"",""1"",""1626""
","
","
","""event"",""trial"",""time""
""fullscreenenter"",""1"",""1626""
","
","","","","","","1040.1000000238419","images/tree3.png","","","memory_trial","4","definitely_new",""
"html-keyboard-response","231","474765","0.0-18.0-0.93","7593","approach_avoid_sv1","""event"",""trial"",""time""
""fullscreenenter"",""1"",""1626""
","
","
","""event"",""trial"",""time""
""fullscreenenter"",""1"",""1626""
","
","","","","","","null","<div style=""font-size:60px;"">+</div>","null","","fixation","","",""
"memory-trial","232","476627","0.0-18.0-1.93","7593","approach_avoid_sv1","""event"",""trial"",""time""
""fullscreenenter"",""1"",""1626""
","
","
","""event"",""trial"",""time""
""fullscreenenter"",""1"",""1626""
","
","","","","","","859.8999999761581","images/sheep2.png","","","memory_trial","2","maybe_old",""
"html-keyboard-response","233","477129","0.0-18.0-0.94","7593","approach_avoid_sv1","""event"",""trial"",""time""
""fullscreenenter"",""1"",""1626""
","
","
","""event"",""trial"",""time""
""fullscreenenter"",""1"",""1626""
","
","","","","","","null","<div style=""font-size:60px;"">+</div>","null","","fixation","","",""
"memory-trial","234","479315","0.0-18.0-1.94","7593","approach_avoid_sv1","""event"",""trial"",""time""
""fullscreenenter"",""1"",""1626""
","
","
","""event"",""trial"",""time""
""fullscreenenter"",""1"",""1626""
","
","","","","","","1183.2999999523163","images/sheep5.png","","","memory_trial","4","definitely_new",""
"html-keyboard-response","235","479818","0.0-18.0-0.95","7593","approach_avoid_sv1","""event"",""trial"",""time""
""fullscreenenter"",""1"",""1626""
","
","
","""event"",""trial"",""time""
""fullscreenenter"",""1"",""1626""
","
","","","","","","null","<div style=""font-size:60px;"">+</div>","null","","fixation","","",""
"memory-trial","236","481411","0.0-18.0-1.95","7593","approach_avoid_sv1","""event"",""trial"",""time""
""fullscreenenter"",""1"",""1626""
","
","
","""event"",""trial"",""time""
""fullscreenenter"",""1"",""1626""
","
","","","","","","591","images/dog4.png","","","memory_trial","4","definitely_new",""
"html-keyboard-response","237","481913","0.0-18.0-0.96","7593","approach_avoid_sv1","""event"",""trial"",""time""
""fullscreenenter"",""1"",""1626""
","
","
","""event"",""trial"",""time""
""fullscreenenter"",""1"",""1626""
","
","","","","","","null","<div style=""font-size:60px;"">+</div>","null","","fixation","","",""
"memory-trial","238","484070","0.0-18.0-1.96","7593","approach_avoid_sv1","""event"",""trial"",""time""
""fullscreenenter"",""1"",""1626""
","
","
","""event"",""trial"",""time""
""fullscreenenter"",""1"",""1626""
","
","","","","","","1154.5","images/chair3.png","","","memory_trial","4","definitely_new",""
"html-keyboard-response","239","484571","0.0-18.0-0.97","7593","approach_avoid_sv1","""event"",""trial"",""time""
""fullscreenenter"",""1"",""1626""
","
","
","""event"",""trial"",""time""
""fullscreenenter"",""1"",""1626""
","
","","","","","","null","<div style=""font-size:60px;"">+</div>","null","","fixation","","",""
"memory-trial","240","486659","0.0-18.0-1.97","7593","approach_avoid_sv1","""event"",""trial"",""time""
""fullscreenenter"",""1"",""1626""
","
","
","""event"",""trial"",""time""
""fullscreenenter"",""1"",""1626""
","
","","","","","","1086.5999999642372","images/rodent4.png","","","memory_trial","2","maybe_old",""
"html-keyboard-response","241","487161","0.0-18.0-0.98","7593","approach_avoid_sv1","""event"",""trial"",""time""
""fullscreenenter"",""1"",""1626""
","
","
","""event"",""trial"",""time""
""fullscreenenter"",""1"",""1626""
","
","","","","","","null","<div style=""font-size:60px;"">+</div>","null","","fixation","","",""
"memory-trial","242","489235","0.0-18.0-1.98","7593","approach_avoid_sv1","""event"",""trial"",""time""
""fullscreenenter"",""1"",""1626""
","
","
","""event"",""trial"",""time""
""fullscreenenter"",""1"",""1626""
","
","","","","","","1072.5999999642372","images/boat5.png","","","memory_trial","4","definitely_new",""
"html-keyboard-response","243","489737","0.0-18.0-0.99","7593","approach_avoid_sv1","""event"",""trial"",""time""
""fullscreenenter"",""1"",""1626""
","
","
","""event"",""trial"",""time""
""fullscreenenter"",""1"",""1626""
","
","","","","","","null","<div style=""font-size:60px;"">+</div>","null","","fixation","","",""
"memory-trial","244","491349","0.0-18.0-1.99","7593","approach_avoid_sv1","""event"",""trial"",""time""
""fullscreenenter"",""1"",""1626""
","
","
","""event"",""trial"",""time""
""fullscreenenter"",""1"",""1626""
","
","","","","","","609.1000000238419","images/boat8.png","","","memory_trial","4","definitely_new",""
"html-keyboard-response","245","491850","0.0-18.0-0.100","7593","approach_avoid_sv1","""event"",""trial"",""time""
""fullscreenenter"",""1"",""1626""
","
","
","""event"",""trial"",""time""
""fullscreenenter"",""1"",""1626""
","
","","","","","","null","<div style=""font-size:60px;"">+</div>","null","","fixation","","",""
"memory-trial","246","493877","0.0-18.0-1.100","7593","approach_avoid_sv1","""event"",""trial"",""time""
""fullscreenenter"",""1"",""1626""
","
","
","""event"",""trial"",""time""
""fullscreenenter"",""1"",""1626""
","
","","","","","","1025","images/goat4.png","","","memory_trial","2","maybe_old",""
"html-keyboard-response","247","494387","0.0-18.0-0.101","7593","approach_avoid_sv1","""event"",""trial"",""time""
""fullscreenenter"",""1"",""1626""
","
","
","""event"",""trial"",""time""
""fullscreenenter"",""1"",""1626""
","
","","","","","","null","<div style=""font-size:60px;"">+</div>","null","","fixation","","",""
"memory-trial","248","496022","0.0-18.0-1.101","7593","approach_avoid_sv1","""event"",""trial"",""time""
""fullscreenenter"",""1"",""1626""
","
","
","""event"",""trial"",""time""
""fullscreenenter"",""1"",""1626""
","
","","","","","","631.5","images/cactus3.png","","","memory_trial","1","definitely_old",""
"html-keyboard-response","249","496523","0.0-18.0-0.102","7593","approach_avoid_sv1","""event"",""trial"",""time""
""fullscreenenter"",""1"",""1626""
","
","
","""event"",""trial"",""time""
""fullscreenenter"",""1"",""1626""
","
","","","","","","null","<div style=""font-size:60px;"">+</div>","null","","fixation","","",""
"memory-trial","250","498115","0.0-18.0-1.102","7593","approach_avoid_sv1","""event"",""trial"",""time""
""fullscreenenter"",""1"",""1626""
","
","
","""event"",""trial"",""time""
""fullscreenenter"",""1"",""1626""
","
","","","","","","589.3000000119209","images/chair4.png","","","memory_trial","4","definitely_new",""
"html-keyboard-response","251","498617","0.0-18.0-0.103","7593","approach_avoid_sv1","""event"",""trial"",""time""
""fullscreenenter"",""1"",""1626""
","
","
","""event"",""trial"",""time""
""fullscreenenter"",""1"",""1626""
","
","","","","","","null","<div style=""font-size:60px;"">+</div>","null","","fixation","","",""
"memory-trial","252","500979","0.0-18.0-1.103","7593","approach_avoid_sv1","""event"",""trial"",""time""
""fullscreenenter"",""1"",""1626""
","
","
","""event"",""trial"",""time""
""fullscreenenter"",""1"",""1626""
","
","","","","","","1358.699999988079","images/rodent7.png","","","memory_trial","3","maybe_new",""
"html-keyboard-response","253","501480","0.0-18.0-0.104","7593","approach_avoid_sv1","""event"",""trial"",""time""
""fullscreenenter"",""1"",""1626""
","
","
","""event"",""trial"",""time""
""fullscreenenter"",""1"",""1626""
","
","","","","","","null","<div style=""font-size:60px;"">+</div>","null","","fixation","","",""
"memory-trial","254","503759","0.0-18.0-1.104","7593","approach_avoid_sv1","""event"",""trial"",""time""
""fullscreenenter"",""1"",""1626""
","
","
","""event"",""trial"",""time""
""fullscreenenter"",""1"",""1626""
","
","","","","","","1266.2000000476837","images/cow3.png","","","memory_trial","2","maybe_old",""
"html-keyboard-response","255","504260","0.0-18.0-0.105","7593","approach_avoid_sv1","""event"",""trial"",""time""
""fullscreenenter"",""1"",""1626""
","
","
","""event"",""trial"",""time""
""fullscreenenter"",""1"",""1626""
","
","","","","","","null","<div style=""font-size:60px;"">+</div>","null","","fixation","","",""
"memory-trial","256","506150","0.0-18.0-1.105","7593","approach_avoid_sv1","""event"",""trial"",""time""
""fullscreenenter"",""1"",""1626""
","
","
","""event"",""trial"",""time""
""fullscreenenter"",""1"",""1626""
","
","","","","","","887.3000000119209","images/tree4.png","","","memory_trial","4","definitely_new",""
"html-keyboard-response","257","506652","0.0-18.0-0.106","7593","approach_avoid_sv1","""event"",""trial"",""time""
""fullscreenenter"",""1"",""1626""
","
","
","""event"",""trial"",""time""
""fullscreenenter"",""1"",""1626""
","
","","","","","","null","<div style=""font-size:60px;"">+</div>","null","","fixation","","",""
"memory-trial","258","508516","0.0-18.0-1.106","7593","approach_avoid_sv1","""event"",""trial"",""time""
""fullscreenenter"",""1"",""1626""
","
","
","""event"",""trial"",""time""
""fullscreenenter"",""1"",""1626""
","
","","","","","","861.3000000119209","images/straw1.png","","","memory_trial","4","definitely_new",""
"html-keyboard-response","259","509016","0.0-18.0-0.107","7593","approach_avoid_sv1","""event"",""trial"",""time""
""fullscreenenter"",""1"",""1626""
","
","
","""event"",""trial"",""time""
""fullscreenenter"",""1"",""1626""
","
","","","","","","null","<div style=""font-size:60px;"">+</div>","null","","fixation","","",""
"memory-trial","260","510695","0.0-18.0-1.107","7593","approach_avoid_sv1","""event"",""trial"",""time""
""fullscreenenter"",""1"",""1626""
","
","
","""event"",""trial"",""time""
""fullscreenenter"",""1"",""1626""
","
","","","","","","674.9000000357628","images/dog3.png","","","memory_trial","4","definitely_new",""
"html-keyboard-response","261","511197","0.0-18.0-0.108","7593","approach_avoid_sv1","""event"",""trial"",""time""
""fullscreenenter"",""1"",""1626""
","
","
","""event"",""trial"",""time""
""fullscreenenter"",""1"",""1626""
","
","","","","","","null","<div style=""font-size:60px;"">+</div>","null","","fixation","","",""
"memory-trial","262","512675","0.0-18.0-1.108","7593","approach_avoid_sv1","""event"",""trial"",""time""
""fullscreenenter"",""1"",""1626""
","
","
","""event"",""trial"",""time""
""fullscreenenter"",""1"",""1626""
","
","","","","","","474.80000001192093","images/sofa8.png","","","memory_trial","4","definitely_new",""
"html-keyboard-response","263","513177","0.0-18.0-0.109","7593","approach_avoid_sv1","""event"",""trial"",""time""
""fullscreenenter"",""1"",""1626""
","
","
","""event"",""trial"",""time""
""fullscreenenter"",""1"",""1626""
","
","","","","","","null","<div style=""font-size:60px;"">+</div>","null","","fixation","","",""
"memory-trial","264","514851","0.0-18.0-1.109","7593","approach_avoid_sv1","""event"",""trial"",""time""
""fullscreenenter"",""1"",""1626""
","
","
","""event"",""trial"",""time""
""fullscreenenter"",""1"",""1626""
","
","","","","","","671.3000000119209","images/flower4.png","","","memory_trial","1","definitely_old",""
"html-keyboard-response","265","515353","0.0-18.0-0.110","7593","approach_avoid_sv1","""event"",""trial"",""time""
""fullscreenenter"",""1"",""1626""
","
","
","""event"",""trial"",""time""
""fullscreenenter"",""1"",""1626""
","
","","","","","","null","<div style=""font-size:60px;"">+</div>","null","","fixation","","",""
"memory-trial","266","516918","0.0-18.0-1.110","7593","approach_avoid_sv1","""event"",""trial"",""time""
""fullscreenenter"",""1"",""1626""
","
","
","""event"",""trial"",""time""
""fullscreenenter"",""1"",""1626""
","
","","","","","","562.2000000476837","images/sofa4.png","","","memory_trial","4","definitely_new",""
"html-keyboard-response","267","517419","0.0-18.0-0.111","7593","approach_avoid_sv1","""event"",""trial"",""time""
""fullscreenenter"",""1"",""1626""
","
","
","""event"",""trial"",""time""
""fullscreenenter"",""1"",""1626""
","
","","","","","","null","<div style=""font-size:60px;"">+</div>","null","","fixation","","",""
"memory-trial","268","518949","0.0-18.0-1.111","7593","approach_avoid_sv1","""event"",""trial"",""time""
""fullscreenenter"",""1"",""1626""
","
","
","""event"",""trial"",""time""
""fullscreenenter"",""1"",""1626""
","
","","","","","","527.7000000476837","images/straw5.png","","","memory_trial","4","definitely_new",""
"html-keyboard-response","269","519450","0.0-18.0-0.112","7593","approach_avoid_sv1","""event"",""trial"",""time""
""fullscreenenter"",""1"",""1626""
","
","
","""event"",""trial"",""time""
""fullscreenenter"",""1"",""1626""
","
","","","","","","null","<div style=""font-size:60px;"">+</div>","null","","fixation","","",""
"memory-trial","270","521716","0.0-18.0-1.112","7593","approach_avoid_sv1","""event"",""trial"",""time""
""fullscreenenter"",""1"",""1626""
","
","
","""event"",""trial"",""time""
""fullscreenenter"",""1"",""1626""
","
","","","","","","1263.800000011921","images/flower7.png","","","memory_trial","1","definitely_old",""
"html-keyboard-response","271","522218","0.0-18.0-0.113","7593","approach_avoid_sv1","""event"",""trial"",""time""
""fullscreenenter"",""1"",""1626""
","
","
","""event"",""trial"",""time""
""fullscreenenter"",""1"",""1626""
","
","","","","","","null","<div style=""font-size:60px;"">+</div>","null","","fixation","","",""
"memory-trial","272","524164","0.0-18.0-1.113","7593","approach_avoid_sv1","""event"",""trial"",""time""
""fullscreenenter"",""1"",""1626""
","
","
","""event"",""trial"",""time""
""fullscreenenter"",""1"",""1626""
","
","","","","","","943","images/table7.png","","","memory_trial","2","maybe_old",""
"html-keyboard-response","273","524665","0.0-18.0-0.114","7593","approach_avoid_sv1","""event"",""trial"",""time""
""fullscreenenter"",""1"",""1626""
","
","
","""event"",""trial"",""time""
""fullscreenenter"",""1"",""1626""
","
","","","","","","null","<div style=""font-size:60px;"">+</div>","null","","fixation","","",""
"memory-trial","274","527045","0.0-18.0-1.114","7593","approach_avoid_sv1","""event"",""trial"",""time""
""fullscreenenter"",""1"",""1626""
","
","
","""event"",""trial"",""time""
""fullscreenenter"",""1"",""1626""
","
","","","","","","1377.0999999642372","images/rodent3.png","","","memory_trial","4","definitely_new",""
"html-keyboard-response","275","527546","0.0-18.0-0.115","7593","approach_avoid_sv1","""event"",""trial"",""time""
""fullscreenenter"",""1"",""1626""
","
","
","""event"",""trial"",""time""
""fullscreenenter"",""1"",""1626""
","
","","","","","","null","<div style=""font-size:60px;"">+</div>","null","","fixation","","",""
"memory-trial","276","529092","0.0-18.0-1.115","7593","approach_avoid_sv1","""event"",""trial"",""time""
""fullscreenenter"",""1"",""1626""
","
","
","""event"",""trial"",""time""
""fullscreenenter"",""1"",""1626""
","
","","","","","","544.8000000119209","images/boat1.png","","","memory_trial","4","definitely_new",""
"html-keyboard-response","277","529594","0.0-18.0-0.116","7593","approach_avoid_sv1","""event"",""trial"",""time""
""fullscreenenter"",""1"",""1626""
","
","
","""event"",""trial"",""time""
""fullscreenenter"",""1"",""1626""
","
","","","","","","null","<div style=""font-size:60px;"">+</div>","null","","fixation","","",""
"memory-trial","278","531204","0.0-18.0-1.116","7593","approach_avoid_sv1","""event"",""trial"",""time""
""fullscreenenter"",""1"",""1626""
","
","
","""event"",""trial"",""time""
""fullscreenenter"",""1"",""1626""
","
","","","","","","606.6000000238419","images/orange1.png","","","memory_trial","1","definitely_old",""
"html-keyboard-response","279","531706","0.0-18.0-0.117","7593","approach_avoid_sv1","""event"",""trial"",""time""
""fullscreenenter"",""1"",""1626""
","
","
","""event"",""trial"",""time""
""fullscreenenter"",""1"",""1626""
","
","","","","","","null","<div style=""font-size:60px;"">+</div>","null","","fixation","","",""
"memory-trial","280","533796","0.0-18.0-1.117","7593","approach_avoid_sv1","""event"",""trial"",""time""
""fullscreenenter"",""1"",""1626""
","
","
","""event"",""trial"",""time""
""fullscreenenter"",""1"",""1626""
","
","","","","","","1087.699999988079","images/chair1.png","","","memory_trial","2","maybe_old",""
"html-keyboard-response","281","534298","0.0-18.0-0.118","7593","approach_avoid_sv1","""event"",""trial"",""time""
""fullscreenenter"",""1"",""1626""
","
","
","""event"",""trial"",""time""
""fullscreenenter"",""1"",""1626""
","
","","","","","","null","<div style=""font-size:60px;"">+</div>","null","","fixation","","",""
"memory-trial","282","535956","0.0-18.0-1.118","7593","approach_avoid_sv1","""event"",""trial"",""time""
""fullscreenenter"",""1"",""1626""
","
","
","""event"",""trial"",""time""
""fullscreenenter"",""1"",""1626""
","
","","","","","","654","images/dog1.png","","","memory_trial","4","definitely_new",""
"html-keyboard-response","283","536457","0.0-18.0-0.119","7593","approach_avoid_sv1","""event"",""trial"",""time""
""fullscreenenter"",""1"",""1626""
","
","
","""event"",""trial"",""time""
""fullscreenenter"",""1"",""1626""
","
","","","","","","null","<div style=""font-size:60px;"">+</div>","null","","fixation","","",""
"memory-trial","284","538100","0.0-18.0-1.119","7593","approach_avoid_sv1","""event"",""trial"",""time""
""fullscreenenter"",""1"",""1626""
","
","
","""event"",""trial"",""time""
""fullscreenenter"",""1"",""1626""
","
","","","","","","639.0999999642372","images/boat2.png","","","memory_trial","4","definitely_new",""
"html-keyboard-response","285","538601","0.0-18.0-0.120","7593","approach_avoid_sv1","""event"",""trial"",""time""
""fullscreenenter"",""1"",""1626""
","
","
","""event"",""trial"",""time""
""fullscreenenter"",""1"",""1626""
","
","","","","","","null","<div style=""font-size:60px;"">+</div>","null","","fixation","","",""
"memory-trial","286","540147","0.0-18.0-1.120","7593","approach_avoid_sv1","""event"",""trial"",""time""
""fullscreenenter"",""1"",""1626""
","
","
","""event"",""trial"",""time""
""fullscreenenter"",""1"",""1626""
","
","","","","","","543.3000000119209","images/orange3.png","","","memory_trial","1","definitely_old",""
"html-keyboard-response","287","540661","0.0-18.0-0.121","7593","approach_avoid_sv1","""event"",""trial"",""time""
""fullscreenenter"",""1"",""1626""
","
","
","""event"",""trial"",""time""
""fullscreenenter"",""1"",""1626""
","
","","","","","","null","<div style=""font-size:60px;"">+</div>","null","","fixation","","",""
"memory-trial","288","542196","0.0-18.0-1.121","7593","approach_avoid_sv1","""event"",""trial"",""time""
""fullscreenenter"",""1"",""1626""
","
","
","""event"",""trial"",""time""
""fullscreenenter"",""1"",""1626""
","
","","","","","","532.6000000238419","images/sofa6.png","","","memory_trial","4","definitely_new",""
"html-keyboard-response","289","542697","0.0-18.0-0.122","7593","approach_avoid_sv1","""event"",""trial"",""time""
""fullscreenenter"",""1"",""1626""
","
","
","""event"",""trial"",""time""
""fullscreenenter"",""1"",""1626""
","
","","","","","","null","<div style=""font-size:60px;"">+</div>","null","","fixation","","",""
"memory-trial","290","544259","0.0-18.0-1.122","7593","approach_avoid_sv1","""event"",""trial"",""time""
""fullscreenenter"",""1"",""1626""
","
","
","""event"",""trial"",""time""
""fullscreenenter"",""1"",""1626""
","
","","","","","","558.3000000119209","images/plane8.png","","","memory_trial","4","definitely_new",""
"html-keyboard-response","291","544760","0.0-18.0-0.123","7593","approach_avoid_sv1","""event"",""trial"",""time""
""fullscreenenter"",""1"",""1626""
","
","
","""event"",""trial"",""time""
""fullscreenenter"",""1"",""1626""
","
","","","","","","null","<div style=""font-size:60px;"">+</div>","null","","fixation","","",""
"memory-trial","292","547141","0.0-18.0-1.123","7593","approach_avoid_sv1","""event"",""trial"",""time""
""fullscreenenter"",""1"",""1626""
","
","
","""event"",""trial"",""time""
""fullscreenenter"",""1"",""1626""
","
","","","","","","1377.7999999523163","images/cat6.png","","","memory_trial","2","maybe_old",""
"html-keyboard-response","293","547642","0.0-18.0-0.124","7593","approach_avoid_sv1","""event"",""trial"",""time""
""fullscreenenter"",""1"",""1626""
","
","
","""event"",""trial"",""time""
""fullscreenenter"",""1"",""1626""
","
","","","","","","null","<div style=""font-size:60px;"">+</div>","null","","fixation","","",""
"memory-trial","294","549283","0.0-18.0-1.124","7593","approach_avoid_sv1","""event"",""trial"",""time""
""fullscreenenter"",""1"",""1626""
","
","
","""event"",""trial"",""time""
""fullscreenenter"",""1"",""1626""
","
","","","","","","639.2999999523163","images/cactus8.png","","","memory_trial","1","definitely_old",""
"html-keyboard-response","295","549785","0.0-18.0-0.125","7593","approach_avoid_sv1","""event"",""trial"",""time""
""fullscreenenter"",""1"",""1626""
","
","
","""event"",""trial"",""time""
""fullscreenenter"",""1"",""1626""
","
","","","","","","null","<div style=""font-size:60px;"">+</div>","null","","fixation","","",""
"memory-trial","296","551731","0.0-18.0-1.125","7593","approach_avoid_sv1","""event"",""trial"",""time""
""fullscreenenter"",""1"",""1626""
","
","
","""event"",""trial"",""time""
""fullscreenenter"",""1"",""1626""
","
","","","","","","943.2999999523163","images/plane7.png","","","memory_trial","2","maybe_old",""
"html-keyboard-response","297","552233","0.0-18.0-0.126","7593","approach_avoid_sv1","""event"",""trial"",""time""
""fullscreenenter"",""1"",""1626""
","
","
","""event"",""trial"",""time""
