"trial_type","trial_index","time_elapsed","internal_node_id","subject_id","task_version","interactions","blur_events","focus_events","fullscreenenter_events","fullscreenexit_events","success","timeout","failed_images","failed_audio","failed_video","rt","stimulus","response","button_pressed","task_part","key_press","answer","correct"
"pavlovia","0","19","0.0-0.0","7075","approach_avoid_sv1","""event"",""trial"",""time""
""focus"",""0"",""1""
""fullscreenenter"",""1"",""8867""
","
","""event"",""trial"",""time""
""focus"",""0"",""1""
","""event"",""trial"",""time""
""fullscreenenter"",""1"",""8867""
","
","","","","","","","","","","","","",""
"fullscreen","1","9821","0.0-1.0","7075","approach_avoid_sv1","""event"",""trial"",""time""
""focus"",""0"",""1""
""fullscreenenter"",""1"",""8867""
","
","""event"",""trial"",""time""
""focus"",""0"",""1""
","""event"",""trial"",""time""
""fullscreenenter"",""1"",""8867""
","
","true","","","","","","","","","","","",""
"preload","2","11474","0.0-2.0","7075","approach_avoid_sv1","""event"",""trial"",""time""
""focus"",""0"",""1""
""fullscreenenter"",""1"",""8867""
","
","""event"",""trial"",""time""
""focus"",""0"",""1""
","""event"",""trial"",""time""
""fullscreenenter"",""1"",""8867""
","
","true","false","[]","[]","[]","","","","","","","",""
"preload","3","12599","0.0-3.0","7075","approach_avoid_sv1","""event"",""trial"",""time""
""focus"",""0"",""1""
""fullscreenenter"",""1"",""8867""
","
","""event"",""trial"",""time""
""focus"",""0"",""1""
","""event"",""trial"",""time""
""fullscreenenter"",""1"",""8867""
","
","true","false","[]","[]","[]","","","","","","","",""
"preload","4","13082","0.0-4.0","7075","approach_avoid_sv1","""event"",""trial"",""time""
""focus"",""0"",""1""
""fullscreenenter"",""1"",""8867""
","
","""event"",""trial"",""time""
""focus"",""0"",""1""
","""event"",""trial"",""time""
""fullscreenenter"",""1"",""8867""
","
","true","false","[]","[]","[]","","","","","","","",""
"audio-keyboard-response","5","15215","0.0-5.0","7075","approach_avoid_sv1","""event"",""trial"",""time""
""focus"",""0"",""1""
""fullscreenenter"",""1"",""8867""
","
","""event"",""trial"",""time""
""focus"",""0"",""1""
","""event"",""trial"",""time""
""fullscreenenter"",""1"",""8867""
","
","","","","","","2128","audio/beep_loop.wav"," ","","","","",""
"audio-button-response","6","16541","0.0-6.0","7075","approach_avoid_sv1","""event"",""trial"",""time""
""focus"",""0"",""1""
""fullscreenenter"",""1"",""8867""
","
","""event"",""trial"",""time""
""focus"",""0"",""1""
","""event"",""trial"",""time""
""fullscreenenter"",""1"",""8867""
","
","","","","","","1331","audio/turtle.wav","3","","","","",""
"audio-button-response","7","18278","0.0-7.0","7075","approach_avoid_sv1","""event"",""trial"",""time""
""focus"",""0"",""1""
""fullscreenenter"",""1"",""8867""
","
","""event"",""trial"",""time""
""focus"",""0"",""1""
","""event"",""trial"",""time""
""fullscreenenter"",""1"",""8867""
","
","","","","","","720","audio/shark.wav","2","","","","",""
"preload","8","23801","0.0-8.0","7075","approach_avoid_sv1","""event"",""trial"",""time""
""focus"",""0"",""1""
""fullscreenenter"",""1"",""8867""
","
","""event"",""trial"",""time""
""focus"",""0"",""1""
","""event"",""trial"",""time""
""fullscreenenter"",""1"",""8867""
","
","true","false","[]","[]","[]","","","","","","","",""
"learning-instructions","9","30573","0.0-9.0-0.0","7075","approach_avoid_sv1","""event"",""trial"",""time""
""focus"",""0"",""1""
""fullscreenenter"",""1"",""8867""
","
","""event"",""trial"",""time""
""focus"",""0"",""1""
","""event"",""trial"",""time""
""fullscreenenter"",""1"",""8867""
","
","","","","","","2284","<p> Welcome back! </p><p> Last week, you had to make choices about lots of different items.  </p>","","0","instructions","","",""
"learning-instructions","10","35781","0.0-9.0-0.1","7075","approach_avoid_sv1","""event"",""trial"",""time""
""focus"",""0"",""1""
""fullscreenenter"",""1"",""8867""
","
","""event"",""trial"",""time""
""focus"",""0"",""1""
","""event"",""trial"",""time""
""fullscreenenter"",""1"",""8867""
","
","","","","","","1082","<p> Today, we are going to ask you to try to remember all the items. </p>","","0","instructions","","",""
"learning-instructions","11","48188","0.0-9.0-0.2","7075","approach_avoid_sv1","""event"",""trial"",""time""
""focus"",""0"",""1""
""fullscreenenter"",""1"",""8867""
","
","""event"",""trial"",""time""
""focus"",""0"",""1""
","""event"",""trial"",""time""
""fullscreenenter"",""1"",""8867""
","
","","","","","","2250","<p> On every trial, you will see an image. </p><p> The image may be an OLD image you saw during the games last week or it may be a NEW image that was not presented. </p>","","0","instructions","","",""
"learning-instructions","12","57701","0.0-9.0-0.3","7075","approach_avoid_sv1","""event"",""trial"",""time""
""focus"",""0"",""1""
""fullscreenenter"",""1"",""8867""
","
","""event"",""trial"",""time""
""focus"",""0"",""1""
","""event"",""trial"",""time""
""fullscreenenter"",""1"",""8867""
","
","","","","","","981","<p> You need to select whether the image is:  </p><p>  'Definitely old', 'Maybe old', 'Maybe new', or 'Definitely new.'  </p><div class=""mem-choice-instructions-grid""><div class=""choice-option"" id=""choice-option-1"" ><img src=""images/definitely_old_1.png"" id=""choice-option-img-1"" class=""choice-option-img"" stage=""1""></div><div class=""choice-option"" id=""choice-option-2"" ><img src=""images/maybe_old_1.png"" id=""choice-option-img-2"" class=""choice-option-img"" stage=""1""></div><div class=""choice-option"" id=""choice-option-3"" ><img src=""images/maybe_new_1.png"" id=""choice-option-img-3"" class=""choice-option-img"" stage=""1""></div><div class=""choice-option"" id=""choice-option-4"" > <img src=""images/definitely_new_1.png"" id=""choice-option-img-4"" class=""choice-option-img"" stage=""1""></div></div>","","0","instructions","","",""
"learning-instructions","13","65293","0.0-9.0-0.4","7075","approach_avoid_sv1","""event"",""trial"",""time""
""focus"",""0"",""1""
""fullscreenenter"",""1"",""8867""
","
","""event"",""trial"",""time""
""focus"",""0"",""1""
","""event"",""trial"",""time""
""fullscreenenter"",""1"",""8867""
","
","","","","","","1054","<p> You should use the 1, 2, 3, and 4 keys to make your responses.  </p><div class=""mem-choice-instructions-grid""><div class=""choice-option"" id=""choice-option-1"" ><img src=""images/definitely_old.png"" id=""choice-option-img-1"" class=""choice-option-img"" stage=""1""></div><div class=""choice-option"" id=""choice-option-2"" ><img src=""images/maybe_old.png"" id=""choice-option-img-2"" class=""choice-option-img"" stage=""1""></div><div class=""choice-option"" id=""choice-option-3"" ><img src=""images/maybe_new.png"" id=""choice-option-img-3"" class=""choice-option-img"" stage=""1""></div><div class=""choice-option"" id=""choice-option-4"" > <img src=""images/definitely_new.png"" id=""choice-option-img-4"" class=""choice-option-img"" stage=""1""></div></div>","","0","instructions","","",""
"learning-instructions","14","71861","0.0-9.0-0.5","7075","approach_avoid_sv1","""event"",""trial"",""time""
""focus"",""0"",""1""
""fullscreenenter"",""1"",""8867""
","
","""event"",""trial"",""time""
""focus"",""0"",""1""
","""event"",""trial"",""time""
""fullscreenenter"",""1"",""8867""
","
","","","","","","221","<p> You will have 10 seconds to make each response.  </p><p>  Make sure to respond before time runs out! </p>","","0","instructions","","",""
"learning-instructions","15","79293","0.0-9.0-0.6","7075","approach_avoid_sv1","""event"",""trial"",""time""
""focus"",""0"",""1""
""fullscreenenter"",""1"",""8867""
","
","""event"",""trial"",""time""
""focus"",""0"",""1""
","""event"",""trial"",""time""
""fullscreenenter"",""1"",""8867""
","
","","","","","","334","<p> Today, you will see each image ONCE only.  </p><p>  That means none of the images will repeat. </p>","","0","instructions","","",""
"learning-instructions","16","92420","0.0-9.0-0.7","7075","approach_avoid_sv1","""event"",""trial"",""time""
""focus"",""0"",""1""
""fullscreenenter"",""1"",""8867""
","
","""event"",""trial"",""time""
""focus"",""0"",""1""
","""event"",""trial"",""time""
""fullscreenenter"",""1"",""8867""
","
","","","","","","442","<p> Before you play the real game, it is time to practice. </p><p>  Just like in the real game, some of the images in the practice will be ones you have seen before. </p><p>  Others will be entirely new. </p>","","0","instructions","","",""
"html-button-response","17","95597","0.0-10.0","7075","approach_avoid_sv1","""event"",""trial"",""time""
""focus"",""0"",""1""
""fullscreenenter"",""1"",""8867""
","
","""event"",""trial"",""time""
""focus"",""0"",""1""
","""event"",""trial"",""time""
""fullscreenenter"",""1"",""8867""
","
","","","","","","3056","<p> Ready to practice? </p><p> Remember, use the 1, 2, 3, and 4 keys to make your responses. </p>","0","","instructions","","",""
"html-keyboard-response","18","96237","0.0-11.0-0.0","7075","approach_avoid_sv1","""event"",""trial"",""time""
""focus"",""0"",""1""
""fullscreenenter"",""1"",""8867""
","
","""event"",""trial"",""time""
""focus"",""0"",""1""
","""event"",""trial"",""time""
""fullscreenenter"",""1"",""8867""
","
","","","","","","null","<div style=""font-size:60px;"">+</div>","null","","fixation","","",""
"memory-trial","19","98356","0.0-11.0-1.0","7075","approach_avoid_sv1","""event"",""trial"",""time""
""focus"",""0"",""1""
""fullscreenenter"",""1"",""8867""
","
","""event"",""trial"",""time""
""focus"",""0"",""1""
","""event"",""trial"",""time""
""fullscreenenter"",""1"",""8867""
","
","","","","","","1106","images/ball1.png","","","practice","1","definitely_old",""
"html-keyboard-response","20","98873","0.0-11.0-0.1","7075","approach_avoid_sv1","""event"",""trial"",""time""
""focus"",""0"",""1""
""fullscreenenter"",""1"",""8867""
","
","""event"",""trial"",""time""
""focus"",""0"",""1""
","""event"",""trial"",""time""
""fullscreenenter"",""1"",""8867""
","
","","","","","","null","<div style=""font-size:60px;"">+</div>","null","","fixation","","",""
"memory-trial","21","101228","0.0-11.0-1.1","7075","approach_avoid_sv1","""event"",""trial"",""time""
""focus"",""0"",""1""
""fullscreenenter"",""1"",""8867""
","
","""event"",""trial"",""time""
""focus"",""0"",""1""
","""event"",""trial"",""time""
""fullscreenenter"",""1"",""8867""
","
","","","","","","1346","images/racket5.png","","","practice","1","definitely_old",""
"html-keyboard-response","22","101746","0.0-11.0-0.2","7075","approach_avoid_sv1","""event"",""trial"",""time""
""focus"",""0"",""1""
""fullscreenenter"",""1"",""8867""
","
","""event"",""trial"",""time""
""focus"",""0"",""1""
","""event"",""trial"",""time""
""fullscreenenter"",""1"",""8867""
","
","","","","","","null","<div style=""font-size:60px;"">+</div>","null","","fixation","","",""
"memory-trial","23","104157","0.0-11.0-1.2","7075","approach_avoid_sv1","""event"",""trial"",""time""
""focus"",""0"",""1""
""fullscreenenter"",""1"",""8867""
","
","""event"",""trial"",""time""
""focus"",""0"",""1""
","""event"",""trial"",""time""
""fullscreenenter"",""1"",""8867""
","
","","","","","","1396","images/racket1.png","","","practice","1","definitely_old",""
"html-keyboard-response","24","104680","0.0-11.0-0.3","7075","approach_avoid_sv1","""event"",""trial"",""time""
""focus"",""0"",""1""
""fullscreenenter"",""1"",""8867""
","
","""event"",""trial"",""time""
""focus"",""0"",""1""
","""event"",""trial"",""time""
""fullscreenenter"",""1"",""8867""
","
","","","","","","null","<div style=""font-size:60px;"">+</div>","null","","fixation","","",""
"memory-trial","25","106636","0.0-11.0-1.3","7075","approach_avoid_sv1","""event"",""trial"",""time""
""focus"",""0"",""1""
""fullscreenenter"",""1"",""8867""
","
","""event"",""trial"",""time""
""focus"",""0"",""1""
","""event"",""trial"",""time""
""fullscreenenter"",""1"",""8867""
","
","","","","","","942","images/ball5.png","","","practice","1","definitely_old",""
"html-keyboard-response","26","107157","0.0-11.0-0.4","7075","approach_avoid_sv1","""event"",""trial"",""time""
""focus"",""0"",""1""
""fullscreenenter"",""1"",""8867""
","
","""event"",""trial"",""time""
""focus"",""0"",""1""
","""event"",""trial"",""time""
""fullscreenenter"",""1"",""8867""
","
","","","","","","null","<div style=""font-size:60px;"">+</div>","null","","fixation","","",""
"memory-trial","27","109357","0.0-11.0-1.4","7075","approach_avoid_sv1","""event"",""trial"",""time""
""focus"",""0"",""1""
""fullscreenenter"",""1"",""8867""
","
","""event"",""trial"",""time""
""focus"",""0"",""1""
","""event"",""trial"",""time""
""fullscreenenter"",""1"",""8867""
","
","","","","","","1196","images/ball2.png","","","practice","1","definitely_old",""
"html-keyboard-response","28","109876","0.0-11.0-0.5","7075","approach_avoid_sv1","""event"",""trial"",""time""
""focus"",""0"",""1""
""fullscreenenter"",""1"",""8867""
","
","""event"",""trial"",""time""
""focus"",""0"",""1""
","""event"",""trial"",""time""
""fullscreenenter"",""1"",""8867""
","
","","","","","","null","<div style=""font-size:60px;"">+</div>","null","","fixation","","",""
"memory-trial","29","111956","0.0-11.0-1.5","7075","approach_avoid_sv1","""event"",""trial"",""time""
""focus"",""0"",""1""
""fullscreenenter"",""1"",""8867""
","
","""event"",""trial"",""time""
""focus"",""0"",""1""
","""event"",""trial"",""time""
""fullscreenenter"",""1"",""8867""
","
","","","","","","1066","images/racket3.png","","","practice","1","definitely_old",""
"html-keyboard-response","30","112476","0.0-11.0-0.6","7075","approach_avoid_sv1","""event"",""trial"",""time""
""focus"",""0"",""1""
""fullscreenenter"",""1"",""8867""
","
","""event"",""trial"",""time""
""focus"",""0"",""1""
","""event"",""trial"",""time""
""fullscreenenter"",""1"",""8867""
","
","","","","","","null","<div style=""font-size:60px;"">+</div>","null","","fixation","","",""
"memory-trial","31","114567","0.0-11.0-1.6","7075","approach_avoid_sv1","""event"",""trial"",""time""
""focus"",""0"",""1""
""fullscreenenter"",""1"",""8867""
","
","""event"",""trial"",""time""
""focus"",""0"",""1""
","""event"",""trial"",""time""
""fullscreenenter"",""1"",""8867""
","
","","","","","","1078","images/racket2.png","","","practice","1","definitely_old",""
"html-keyboard-response","32","115086","0.0-11.0-0.7","7075","approach_avoid_sv1","""event"",""trial"",""time""
""focus"",""0"",""1""
""fullscreenenter"",""1"",""8867""
","
","""event"",""trial"",""time""
""focus"",""0"",""1""
","""event"",""trial"",""time""
""fullscreenenter"",""1"",""8867""
","
","","","","","","null","<div style=""font-size:60px;"">+</div>","null","","fixation","","",""
"memory-trial","33","117307","0.0-11.0-1.7","7075","approach_avoid_sv1","""event"",""trial"",""time""
""focus"",""0"",""1""
""fullscreenenter"",""1"",""8867""
","
","""event"",""trial"",""time""
""focus"",""0"",""1""
","""event"",""trial"",""time""
""fullscreenenter"",""1"",""8867""
","
","","","","","","1207","images/ball3.png","","","practice","1","definitely_old",""
"learning-instructions","34","125540","0.0-12.0-0.0","7075","approach_avoid_sv1","""event"",""trial"",""time""
""focus"",""0"",""1""
""fullscreenenter"",""1"",""8867""
","
","""event"",""trial"",""time""
""focus"",""0"",""1""
","""event"",""trial"",""time""
""fullscreenenter"",""1"",""8867""
","
","","","","","","913","<p> Great! You have completed the practice. </p><p> Before you start, we're going to ask you a few questions about how the game works.  </p>","","0","instructions","","",""
"preload","35","127518","0.0-13.0","7075","approach_avoid_sv1","""event"",""trial"",""time""
""focus"",""0"",""1""
""fullscreenenter"",""1"",""8867""
","
","""event"",""trial"",""time""
""focus"",""0"",""1""
","""event"",""trial"",""time""
""fullscreenenter"",""1"",""8867""
","
","true","false","[]","[]","[]","","","","","","","",""
"comp-q","36","134660","0.0-14.0-0.0","7075","approach_avoid_sv1","""event"",""trial"",""time""
""focus"",""0"",""1""
""fullscreenenter"",""1"",""8867""
","
","""event"",""trial"",""time""
""focus"",""0"",""1""
","""event"",""trial"",""time""
""fullscreenenter"",""1"",""8867""
","
","","","","","","1301","<p> <b> True or False? </b> </p><p> In this game, you will only see each image once. </p>","","0","comp_question","","","true"
"comp-q","37","141732","0.0-14.0-1.0","7075","approach_avoid_sv1","""event"",""trial"",""time""
""focus"",""0"",""1""
""fullscreenenter"",""1"",""8867""
","
","""event"",""trial"",""time""
""focus"",""0"",""1""
","""event"",""trial"",""time""
""fullscreenenter"",""1"",""8867""
","
","","","","","","703","<p> <b> That's right! </b> You will see many different images <i> one time each </i> in this game. </p>","","0","comp_answer","","",""
"comp-q","38","147732","0.0-15.0-0.0","7075","approach_avoid_sv1","""event"",""trial"",""time""
""focus"",""0"",""1""
""fullscreenenter"",""1"",""8867""
","
","""event"",""trial"",""time""
""focus"",""0"",""1""
","""event"",""trial"",""time""
""fullscreenenter"",""1"",""8867""
","
","","","","","","983","<p> <b> True or False? </b> </p><p> You should use the mouse and click to make your response. </p>","","1","comp_question","","","true"
"comp-q","39","155260","0.0-15.0-1.0","7075","approach_avoid_sv1","""event"",""trial"",""time""
""focus"",""0"",""1""
""fullscreenenter"",""1"",""8867""
","
","""event"",""trial"",""time""
""focus"",""0"",""1""
","""event"",""trial"",""time""
""fullscreenenter"",""1"",""8867""
","
","","","","","","1013","<p><b> That's right! </b> You should use the '1', '2', '3', and '4' keys to make your response. </p>","","0","comp_answer","","",""
"comp-q","40","161539","0.0-16.0-0.0","7075","approach_avoid_sv1","""event"",""trial"",""time""
""focus"",""0"",""1""
""fullscreenenter"",""1"",""8867""
","
","""event"",""trial"",""time""
""focus"",""0"",""1""
","""event"",""trial"",""time""
""fullscreenenter"",""1"",""8867""
","
","","","","","","593","<p> <b> True or False? </b> </p><p> You will have as much time as you want to make each choice. </p>","","1","comp_question","","","true"
"comp-q","41","166739","0.0-16.0-1.0","7075","approach_avoid_sv1","""event"",""trial"",""time""
""focus"",""0"",""1""
""fullscreenenter"",""1"",""8867""
","
","""event"",""trial"",""time""
""focus"",""0"",""1""
","""event"",""trial"",""time""
""fullscreenenter"",""1"",""8867""
","
","","","","","","482","<p> <b> That's right! </b> You will only have 10 seconds to make each choice. </p>","","0","comp_answer","","",""
"learning-instructions","42","178179","0.0-17.0","7075","approach_avoid_sv1","""event"",""trial"",""time""
""focus"",""0"",""1""
""fullscreenenter"",""1"",""8867""
","
","""event"",""trial"",""time""
""focus"",""0"",""1""
","""event"",""trial"",""time""
""fullscreenenter"",""1"",""8867""
","
","","","","","","2742","<p> Great! You are now ready to begin the game. </p><p> Remember, use the 1, 2, 3, and 4 keys to make your responses. </p>","","0","instructions","","",""
"html-keyboard-response","43","178805","0.0-18.0-0.0","7075","approach_avoid_sv1","""event"",""trial"",""time""
""focus"",""0"",""1""
""fullscreenenter"",""1"",""8867""
","
","""event"",""trial"",""time""
""focus"",""0"",""1""
","""event"",""trial"",""time""
""fullscreenenter"",""1"",""8867""
","
","","","","","","null","<div style=""font-size:60px;"">+</div>","null","","fixation","","",""
"memory-trial","44","181636","0.0-18.0-1.0","7075","approach_avoid_sv1","""event"",""trial"",""time""
""focus"",""0"",""1""
""fullscreenenter"",""1"",""8867""
","
","""event"",""trial"",""time""
""focus"",""0"",""1""
","""event"",""trial"",""time""
""fullscreenenter"",""1"",""8867""
","
","","","","","","1824","images/sofa1.png","","","memory_trial","4","definitely_new",""
"html-keyboard-response","45","182156","0.0-18.0-0.1","7075","approach_avoid_sv1","""event"",""trial"",""time""
""focus"",""0"",""1""
""fullscreenenter"",""1"",""8867""
","
","""event"",""trial"",""time""
""focus"",""0"",""1""
","""event"",""trial"",""time""
""fullscreenenter"",""1"",""8867""
","
","","","","","","null","<div style=""font-size:60px;"">+</div>","null","","fixation","","",""
"memory-trial","46","186557","0.0-18.0-1.1","7075","approach_avoid_sv1","""event"",""trial"",""time""
""focus"",""0"",""1""
""fullscreenenter"",""1"",""8867""
","
","""event"",""trial"",""time""
""focus"",""0"",""1""
","""event"",""trial"",""time""
""fullscreenenter"",""1"",""8867""
","
","","","","","","3378","images/dog7.png","","","memory_trial","3","maybe_new",""
"html-keyboard-response","47","187076","0.0-18.0-0.2","7075","approach_avoid_sv1","""event"",""trial"",""time""
""focus"",""0"",""1""
""fullscreenenter"",""1"",""8867""
","
","""event"",""trial"",""time""
""focus"",""0"",""1""
","""event"",""trial"",""time""
""fullscreenenter"",""1"",""8867""
","
","","","","","","null","<div style=""font-size:60px;"">+</div>","null","","fixation","","",""
"memory-trial","48","189276","0.0-18.0-1.2","7075","approach_avoid_sv1","""event"",""trial"",""time""
""focus"",""0"",""1""
""fullscreenenter"",""1"",""8867""
","
","""event"",""trial"",""time""
""focus"",""0"",""1""
","""event"",""trial"",""time""
""fullscreenenter"",""1"",""8867""
","
","","","","","","1187","images/bed5.png","","","memory_trial","4","definitely_new",""
"html-keyboard-response","49","189795","0.0-18.0-0.3","7075","approach_avoid_sv1","""event"",""trial"",""time""
""focus"",""0"",""1""
""fullscreenenter"",""1"",""8867""
","
","""event"",""trial"",""time""
""focus"",""0"",""1""
","""event"",""trial"",""time""
""fullscreenenter"",""1"",""8867""
","
","","","","","","null","<div style=""font-size:60px;"">+</div>","null","","fixation","","",""
"memory-trial","50","191815","0.0-18.0-1.3","7075","approach_avoid_sv1","""event"",""trial"",""time""
""focus"",""0"",""1""
""fullscreenenter"",""1"",""8867""
","
","""event"",""trial"",""time""
""focus"",""0"",""1""
","""event"",""trial"",""time""
""fullscreenenter"",""1"",""8867""
","
","","","","","","999","images/banana7.png","","","memory_trial","4","definitely_new",""
"html-keyboard-response","51","192335","0.0-18.0-0.4","7075","approach_avoid_sv1","""event"",""trial"",""time""
""focus"",""0"",""1""
""fullscreenenter"",""1"",""8867""
","
","""event"",""trial"",""time""
""focus"",""0"",""1""
","""event"",""trial"",""time""
""fullscreenenter"",""1"",""8867""
","
","","","","","","null","<div style=""font-size:60px;"">+</div>","null","","fixation","","",""
"memory-trial","52","194136","0.0-18.0-1.4","7075","approach_avoid_sv1","""event"",""trial"",""time""
""focus"",""0"",""1""
""fullscreenenter"",""1"",""8867""
","
","""event"",""trial"",""time""
""focus"",""0"",""1""
","""event"",""trial"",""time""
""fullscreenenter"",""1"",""8867""
","
","","","","","","793","images/banana2.png","","","memory_trial","4","definitely_new",""
"html-keyboard-response","53","194655","0.0-18.0-0.5","7075","approach_avoid_sv1","""event"",""trial"",""time""
""focus"",""0"",""1""
""fullscreenenter"",""1"",""8867""
","
","""event"",""trial"",""time""
""focus"",""0"",""1""
","""event"",""trial"",""time""
""fullscreenenter"",""1"",""8867""
","
","","","","","","null","<div style=""font-size:60px;"">+</div>","null","","fixation","","",""
"memory-trial","54","197196","0.0-18.0-1.5","7075","approach_avoid_sv1","""event"",""trial"",""time""
""focus"",""0"",""1""
""fullscreenenter"",""1"",""8867""
","
","""event"",""trial"",""time""
""focus"",""0"",""1""
","""event"",""trial"",""time""
""fullscreenenter"",""1"",""8867""
","
","","","","","","1536","images/apple6.png","","","memory_trial","1","definitely_old",""
"html-keyboard-response","55","197715","0.0-18.0-0.6","7075","approach_avoid_sv1","""event"",""trial"",""time""
""focus"",""0"",""1""
""fullscreenenter"",""1"",""8867""
","
","""event"",""trial"",""time""
""focus"",""0"",""1""
","""event"",""trial"",""time""
""fullscreenenter"",""1"",""8867""
","
","","","","","","null","<div style=""font-size:60px;"">+</div>","null","","fixation","","",""
"memory-trial","56","199757","0.0-18.0-1.6","7075","approach_avoid_sv1","""event"",""trial"",""time""
""focus"",""0"",""1""
""fullscreenenter"",""1"",""8867""
","
","""event"",""trial"",""time""
""focus"",""0"",""1""
","""event"",""trial"",""time""
""fullscreenenter"",""1"",""8867""
","
","","","","","","1027","images/orange7.png","","","memory_trial","1","definitely_old",""
"html-keyboard-response","57","200276","0.0-18.0-0.7","7075","approach_avoid_sv1","""event"",""trial"",""time""
""focus"",""0"",""1""
""fullscreenenter"",""1"",""8867""
","
","""event"",""trial"",""time""
""focus"",""0"",""1""
","""event"",""trial"",""time""
""fullscreenenter"",""1"",""8867""
","
","","","","","","null","<div style=""font-size:60px;"">+</div>","null","","fixation","","",""
"memory-trial","58","202976","0.0-18.0-1.7","7075","approach_avoid_sv1","""event"",""trial"",""time""
""focus"",""0"",""1""
""fullscreenenter"",""1"",""8867""
","
","""event"",""trial"",""time""
""focus"",""0"",""1""
","""event"",""trial"",""time""
""fullscreenenter"",""1"",""8867""
","
","","","","","","1680","images/train7.png","","","memory_trial","1","definitely_old",""
"html-keyboard-response","59","203496","0.0-18.0-0.8","7075","approach_avoid_sv1","""event"",""trial"",""time""
""focus"",""0"",""1""
""fullscreenenter"",""1"",""8867""
","
","""event"",""trial"",""time""
""focus"",""0"",""1""
","""event"",""trial"",""time""
""fullscreenenter"",""1"",""8867""
","
","","","","","","null","<div style=""font-size:60px;"">+</div>","null","","fixation","","",""
"memory-trial","60","205456","0.0-18.0-1.8","7075","approach_avoid_sv1","""event"",""trial"",""time""
""focus"",""0"",""1""
""fullscreenenter"",""1"",""8867""
","
","""event"",""trial"",""time""
""focus"",""0"",""1""
","""event"",""trial"",""time""
""fullscreenenter"",""1"",""8867""
","
","","","","","","952","images/sofa4.png","","","memory_trial","4","definitely_new",""
"html-keyboard-response","61","205975","0.0-18.0-0.9","7075","approach_avoid_sv1","""event"",""trial"",""time""
""focus"",""0"",""1""
""fullscreenenter"",""1"",""8867""
","
","""event"",""trial"",""time""
""focus"",""0"",""1""
","""event"",""trial"",""time""
""fullscreenenter"",""1"",""8867""
","
","","","","","","null","<div style=""font-size:60px;"">+</div>","null","","fixation","","",""
"memory-trial","62","208255","0.0-18.0-1.9","7075","approach_avoid_sv1","""event"",""trial"",""time""
""focus"",""0"",""1""
""fullscreenenter"",""1"",""8867""
","
","""event"",""trial"",""time""
""focus"",""0"",""1""
","""event"",""trial"",""time""
""fullscreenenter"",""1"",""8867""
","
","","","","","","1270","images/cat6.png","","","memory_trial","1","definitely_old",""
"html-keyboard-response","63","208775","0.0-18.0-0.10","7075","approach_avoid_sv1","""event"",""trial"",""time""
""focus"",""0"",""1""
""fullscreenenter"",""1"",""8867""
","
","""event"",""trial"",""time""
""focus"",""0"",""1""
","""event"",""trial"",""time""
""fullscreenenter"",""1"",""8867""
","
","","","","","","null","<div style=""font-size:60px;"">+</div>","null","","fixation","","",""
"memory-trial","64","210675","0.0-18.0-1.10","7075","approach_avoid_sv1","""event"",""trial"",""time""
""focus"",""0"",""1""
""fullscreenenter"",""1"",""8867""
","
","""event"",""trial"",""time""
""focus"",""0"",""1""
","""event"",""trial"",""time""
""fullscreenenter"",""1"",""8867""
","
","","","","","","891","images/straw8.png","","","memory_trial","1","definitely_old",""
"html-keyboard-response","65","211196","0.0-18.0-0.11","7075","approach_avoid_sv1","""event"",""trial"",""time""
""focus"",""0"",""1""
""fullscreenenter"",""1"",""8867""
","
","""event"",""trial"",""time""
""focus"",""0"",""1""
","""event"",""trial"",""time""
""fullscreenenter"",""1"",""8867""
","
","","","","","","null","<div style=""font-size:60px;"">+</div>","null","","fixation","","",""
"memory-trial","66","213475","0.0-18.0-1.11","7075","approach_avoid_sv1","""event"",""trial"",""time""
""focus"",""0"",""1""
""fullscreenenter"",""1"",""8867""
","
","""event"",""trial"",""time""
""focus"",""0"",""1""
","""event"",""trial"",""time""
""fullscreenenter"",""1"",""8867""
","
","","","","","","1268","images/apple5.png","","","memory_trial","1","definitely_old",""
"html-keyboard-response","67","213996","0.0-18.0-0.12","7075","approach_avoid_sv1","""event"",""trial"",""time""
""focus"",""0"",""1""
""fullscreenenter"",""1"",""8867""
","
","""event"",""trial"",""time""
""focus"",""0"",""1""
","""event"",""trial"",""time""
""fullscreenenter"",""1"",""8867""
","
","","","","","","null","<div style=""font-size:60px;"">+</div>","null","","fixation","","",""
"memory-trial","68","216275","0.0-18.0-1.12","7075","approach_avoid_sv1","""event"",""trial"",""time""
""focus"",""0"",""1""
""fullscreenenter"",""1"",""8867""
","
","""event"",""trial"",""time""
""focus"",""0"",""1""
","""event"",""trial"",""time""
""fullscreenenter"",""1"",""8867""
","
","","","","","","1258","images/cactus6.png","","","memory_trial","1","definitely_old",""
"html-keyboard-response","69","216795","0.0-18.0-0.13","7075","approach_avoid_sv1","""event"",""trial"",""time""
""focus"",""0"",""1""
""fullscreenenter"",""1"",""8867""
","
","""event"",""trial"",""time""
""focus"",""0"",""1""
","""event"",""trial"",""time""
""fullscreenenter"",""1"",""8867""
","
","","","","","","null","<div style=""font-size:60px;"">+</div>","null","","fixation","","",""
"memory-trial","70","218705","0.0-18.0-1.13","7075","approach_avoid_sv1","""event"",""trial"",""time""
""focus"",""0"",""1""
""fullscreenenter"",""1"",""8867""
","
","""event"",""trial"",""time""
""focus"",""0"",""1""
","""event"",""trial"",""time""
""fullscreenenter"",""1"",""8867""
","
","","","","","","890","images/orange2.png","","","memory_trial","1","definitely_old",""
"html-keyboard-response","71","219225","0.0-18.0-0.14","7075","approach_avoid_sv1","""event"",""trial"",""time""
""focus"",""0"",""1""
""fullscreenenter"",""1"",""8867""
","
","""event"",""trial"",""time""
""focus"",""0"",""1""
","""event"",""trial"",""time""
""fullscreenenter"",""1"",""8867""
","
","","","","","","null","<div style=""font-size:60px;"">+</div>","null","","fixation","","",""
"memory-trial","72","221467","0.0-18.0-1.14","7075","approach_avoid_sv1","""event"",""trial"",""time""
""focus"",""0"",""1""
""fullscreenenter"",""1"",""8867""
","
","""event"",""trial"",""time""
""focus"",""0"",""1""
","""event"",""trial"",""time""
""fullscreenenter"",""1"",""8867""
","
","","","","","","1230","images/banana6.png","","","memory_trial","4","definitely_new",""
"html-keyboard-response","73","221986","0.0-18.0-0.15","7075","approach_avoid_sv1","""event"",""trial"",""time""
""focus"",""0"",""1""
""fullscreenenter"",""1"",""8867""
","
","""event"",""trial"",""time""
""focus"",""0"",""1""
","""event"",""trial"",""time""
""fullscreenenter"",""1"",""8867""
","
","","","","","","null","<div style=""font-size:60px;"">+</div>","null","","fixation","","",""
"memory-trial","74","224365","0.0-18.0-1.15","7075","approach_avoid_sv1","""event"",""trial"",""time""
""focus"",""0"",""1""
""fullscreenenter"",""1"",""8867""
","
","""event"",""trial"",""time""
""focus"",""0"",""1""
","""event"",""trial"",""time""
""fullscreenenter"",""1"",""8867""
","
","","","","","","1376","images/bed3.png","","","memory_trial","1","definitely_old",""
"html-keyboard-response","75","224886","0.0-18.0-0.16","7075","approach_avoid_sv1","""event"",""trial"",""time""
""focus"",""0"",""1""
""fullscreenenter"",""1"",""8867""
","
","""event"",""trial"",""time""
""focus"",""0"",""1""
","""event"",""trial"",""time""
""fullscreenenter"",""1"",""8867""
","
","","","","","","null","<div style=""font-size:60px;"">+</div>","null","","fixation","","",""
"memory-trial","76","227345","0.0-18.0-1.16","7075","approach_avoid_sv1","""event"",""trial"",""time""
""focus"",""0"",""1""
""fullscreenenter"",""1"",""8867""
","
","""event"",""trial"",""time""
""focus"",""0"",""1""
","""event"",""trial"",""time""
""fullscreenenter"",""1"",""8867""
","
","","","","","","1442","images/bush5.png","","","memory_trial","4","definitely_new",""
"html-keyboard-response","77","227864","0.0-18.0-0.17","7075","approach_avoid_sv1","""event"",""trial"",""time""
""focus"",""0"",""1""
""fullscreenenter"",""1"",""8867""
","
","""event"",""trial"",""time""
""focus"",""0"",""1""
","""event"",""trial"",""time""
""fullscreenenter"",""1"",""8867""
","
","","","","","","null","<div style=""font-size:60px;"">+</div>","null","","fixation","","",""
"memory-trial","78","229785","0.0-18.0-1.17","7075","approach_avoid_sv1","""event"",""trial"",""time""
""focus"",""0"",""1""
""fullscreenenter"",""1"",""8867""
","
","""event"",""trial"",""time""
""focus"",""0"",""1""
","""event"",""trial"",""time""
""fullscreenenter"",""1"",""8867""
","
","","","","","","906","images/boat5.png","","","memory_trial","1","definitely_old",""
"html-keyboard-response","79","230305","0.0-18.0-0.18","7075","approach_avoid_sv1","""event"",""trial"",""time""
""focus"",""0"",""1""
""fullscreenenter"",""1"",""8867""
","
","""event"",""trial"",""time""
""focus"",""0"",""1""
","""event"",""trial"",""time""
""fullscreenenter"",""1"",""8867""
","
","","","","","","null","<div style=""font-size:60px;"">+</div>","null","","fixation","","",""
"memory-trial","80","232486","0.0-18.0-1.18","7075","approach_avoid_sv1","""event"",""trial"",""time""
""focus"",""0"",""1""
""fullscreenenter"",""1"",""8867""
","
","""event"",""trial"",""time""
""focus"",""0"",""1""
","""event"",""trial"",""time""
""fullscreenenter"",""1"",""8867""
","
","","","","","","1166","images/rabbit2.png","","","memory_trial","1","definitely_old",""
"html-keyboard-response","81","233005","0.0-18.0-0.19","7075","approach_avoid_sv1","""event"",""trial"",""time""
""focus"",""0"",""1""
""fullscreenenter"",""1"",""8867""
","
","""event"",""trial"",""time""
""focus"",""0"",""1""
","""event"",""trial"",""time""
""fullscreenenter"",""1"",""8867""
","
","","","","","","null","<div style=""font-size:60px;"">+</div>","null","","fixation","","",""
"memory-trial","82","235565","0.0-18.0-1.19","7075","approach_avoid_sv1","""event"",""trial"",""time""
""focus"",""0"",""1""
""fullscreenenter"",""1"",""8867""
","
","""event"",""trial"",""time""
""focus"",""0"",""1""
","""event"",""trial"",""time""
""fullscreenenter"",""1"",""8867""
","
","","","","","","1549","images/train8.png","","","memory_trial","4","definitely_new",""
"html-keyboard-response","83","236085","0.0-18.0-0.20","7075","approach_avoid_sv1","""event"",""trial"",""time""
""focus"",""0"",""1""
""fullscreenenter"",""1"",""8867""
","
","""event"",""trial"",""time""
""focus"",""0"",""1""
","""event"",""trial"",""time""
""fullscreenenter"",""1"",""8867""
","
","","","","","","null","<div style=""font-size:60px;"">+</div>","null","","fixation","","",""
"memory-trial","84","238466","0.0-18.0-1.20","7075","approach_avoid_sv1","""event"",""trial"",""time""
""focus"",""0"",""1""
""fullscreenenter"",""1"",""8867""
","
","""event"",""trial"",""time""
""focus"",""0"",""1""
","""event"",""trial"",""time""
""fullscreenenter"",""1"",""8867""
","
","","","","","","1368","images/rodent2.png","","","memory_trial","4","definitely_new",""
"html-keyboard-response","85","238984","0.0-18.0-0.21","7075","approach_avoid_sv1","""event"",""trial"",""time""
""focus"",""0"",""1""
""fullscreenenter"",""1"",""8867""
","
","""event"",""trial"",""time""
""focus"",""0"",""1""
","""event"",""trial"",""time""
""fullscreenenter"",""1"",""8867""
","
","","","","","","null","<div style=""font-size:60px;"">+</div>","null","","fixation","","",""
"memory-trial","86","241165","0.0-18.0-1.21","7075","approach_avoid_sv1","""event"",""trial"",""time""
""focus"",""0"",""1""
""fullscreenenter"",""1"",""8867""
","
","""event"",""trial"",""time""
""focus"",""0"",""1""
","""event"",""trial"",""time""
""fullscreenenter"",""1"",""8867""
","
","","","","","","1168","images/chair3.png","","","memory_trial","1","definitely_old",""
"html-keyboard-response","87","241685","0.0-18.0-0.22","7075","approach_avoid_sv1","""event"",""trial"",""time""
""focus"",""0"",""1""
""fullscreenenter"",""1"",""8867""
","
","""event"",""trial"",""time""
""focus"",""0"",""1""
","""event"",""trial"",""time""
""fullscreenenter"",""1"",""8867""
","
","","","","","","null","<div style=""font-size:60px;"">+</div>","null","","fixation","","",""
"memory-trial","88","243465","0.0-18.0-1.22","7075","approach_avoid_sv1","""event"",""trial"",""time""
""focus"",""0"",""1""
""fullscreenenter"",""1"",""8867""
","
","""event"",""trial"",""time""
""focus"",""0"",""1""
","""event"",""trial"",""time""
""fullscreenenter"",""1"",""8867""
","
","","","","","","764","images/apple1.png","","","memory_trial","1","definitely_old",""
"html-keyboard-response","89","243985","0.0-18.0-0.23","7075","approach_avoid_sv1","""event"",""trial"",""time""
""focus"",""0"",""1""
""fullscreenenter"",""1"",""8867""
","
","""event"",""trial"",""time""
""focus"",""0"",""1""
","""event"",""trial"",""time""
""fullscreenenter"",""1"",""8867""
","
","","","","","","null","<div style=""font-size:60px;"">+</div>","null","","fixation","","",""
"memory-trial","90","245945","0.0-18.0-1.23","7075","approach_avoid_sv1","""event"",""trial"",""time""
""focus"",""0"",""1""
""fullscreenenter"",""1"",""8867""
","
","""event"",""trial"",""time""
""focus"",""0"",""1""
","""event"",""trial"",""time""
""fullscreenenter"",""1"",""8867""
","
","","","","","","947","images/cow7.png","","","memory_trial","4","definitely_new",""
"html-keyboard-response","91","246465","0.0-18.0-0.24","7075","approach_avoid_sv1","""event"",""trial"",""time""
""focus"",""0"",""1""
""fullscreenenter"",""1"",""8867""
","
","""event"",""trial"",""time""
""focus"",""0"",""1""
","""event"",""trial"",""time""
""fullscreenenter"",""1"",""8867""
","
","","","","","","null","<div style=""font-size:60px;"">+</div>","null","","fixation","","",""
"memory-trial","92","249045","0.0-18.0-1.24","7075","approach_avoid_sv1","""event"",""trial"",""time""
""focus"",""0"",""1""
""fullscreenenter"",""1"",""8867""
","
","""event"",""trial"",""time""
""focus"",""0"",""1""
","""event"",""trial"",""time""
""fullscreenenter"",""1"",""8867""
","
","","","","","","1564","images/rodent7.png","","","memory_trial","4","definitely_new",""
"html-keyboard-response","93","249565","0.0-18.0-0.25","7075","approach_avoid_sv1","""event"",""trial"",""time""
""focus"",""0"",""1""
""fullscreenenter"",""1"",""8867""
","
","""event"",""trial"",""time""
""focus"",""0"",""1""
","""event"",""trial"",""time""
""fullscreenenter"",""1"",""8867""
","
","","","","","","null","<div style=""font-size:60px;"">+</div>","null","","fixation","","",""
"memory-trial","94","251415","0.0-18.0-1.25","7075","approach_avoid_sv1","""event"",""trial"",""time""
""focus"",""0"",""1""
""fullscreenenter"",""1"",""8867""
","
","""event"",""trial"",""time""
""focus"",""0"",""1""
","""event"",""trial"",""time""
""fullscreenenter"",""1"",""8867""
","
","","","","","","836","images/rodent3.png","","","memory_trial","4","definitely_new",""
"html-keyboard-response","95","251935","0.0-18.0-0.26","7075","approach_avoid_sv1","""event"",""trial"",""time""
""focus"",""0"",""1""
""fullscreenenter"",""1"",""8867""
","
","""event"",""trial"",""time""
""focus"",""0"",""1""
","""event"",""trial"",""time""
""fullscreenenter"",""1"",""8867""
","
","","","","","","null","<div style=""font-size:60px;"">+</div>","null","","fixation","","",""
"memory-trial","96","253835","0.0-18.0-1.26","7075","approach_avoid_sv1","""event"",""trial"",""time""
""focus"",""0"",""1""
""fullscreenenter"",""1"",""8867""
","
","""event"",""trial"",""time""
""focus"",""0"",""1""
","""event"",""trial"",""time""
""fullscreenenter"",""1"",""8867""
","
","","","","","","887","images/bush7.png","","","memory_trial","4","definitely_new",""
"html-keyboard-response","97","254355","0.0-18.0-0.27","7075","approach_avoid_sv1","""event"",""trial"",""time""
""focus"",""0"",""1""
""fullscreenenter"",""1"",""8867""
","
","""event"",""trial"",""time""
""focus"",""0"",""1""
","""event"",""trial"",""time""
""fullscreenenter"",""1"",""8867""
","
","","","","","","null","<div style=""font-size:60px;"">+</div>","null","","fixation","","",""
"memory-trial","98","257596","0.0-18.0-1.27","7075","approach_avoid_sv1","""event"",""trial"",""time""
""focus"",""0"",""1""
""fullscreenenter"",""1"",""8867""
","
","""event"",""trial"",""time""
""focus"",""0"",""1""
","""event"",""trial"",""time""
""fullscreenenter"",""1"",""8867""
","
","","","","","","2224","images/bed1.png","","","memory_trial","1","definitely_old",""
"html-keyboard-response","99","258115","0.0-18.0-0.28","7075","approach_avoid_sv1","""event"",""trial"",""time""
""focus"",""0"",""1""
""fullscreenenter"",""1"",""8867""
","
","""event"",""trial"",""time""
""focus"",""0"",""1""
","""event"",""trial"",""time""
""fullscreenenter"",""1"",""8867""
","
","","","","","","null","<div style=""font-size:60px;"">+</div>","null","","fixation","","",""
"memory-trial","100","262135","0.0-18.0-1.28","7075","approach_avoid_sv1","""event"",""trial"",""time""
""focus"",""0"",""1""
""fullscreenenter"",""1"",""8867""
","
","""event"",""trial"",""time""
""focus"",""0"",""1""
","""event"",""trial"",""time""
""fullscreenenter"",""1"",""8867""
","
","","","","","","3003","images/tree1.png","","","memory_trial","2","maybe_old",""
"html-keyboard-response","101","262654","0.0-18.0-0.29","7075","approach_avoid_sv1","""event"",""trial"",""time""
""focus"",""0"",""1""
""fullscreenenter"",""1"",""8867""
","
","""event"",""trial"",""time""
""focus"",""0"",""1""
","""event"",""trial"",""time""
""fullscreenenter"",""1"",""8867""
","
","","","","","","null","<div style=""font-size:60px;"">+</div>","null","","fixation","","",""
"memory-trial","102","265355","0.0-18.0-1.29","7075","approach_avoid_sv1","""event"",""trial"",""time""
""focus"",""0"",""1""
""fullscreenenter"",""1"",""8867""
","
","""event"",""trial"",""time""
""focus"",""0"",""1""
","""event"",""trial"",""time""
""fullscreenenter"",""1"",""8867""
","
","","","","","","1680","images/boat4.png","","","memory_trial","4","definitely_new",""
"html-keyboard-response","103","265875","0.0-18.0-0.30","7075","approach_avoid_sv1","""event"",""trial"",""time""
""focus"",""0"",""1""
""fullscreenenter"",""1"",""8867""
","
","""event"",""trial"",""time""
""focus"",""0"",""1""
","""event"",""trial"",""time""
""fullscreenenter"",""1"",""8867""
","
","","","","","","null","<div style=""font-size:60px;"">+</div>","null","","fixation","","",""
"memory-trial","104","268655","0.0-18.0-1.30","7075","approach_avoid_sv1","""event"",""trial"",""time""
""focus"",""0"",""1""
""fullscreenenter"",""1"",""8867""
","
","""event"",""trial"",""time""
""focus"",""0"",""1""
","""event"",""trial"",""time""
""fullscreenenter"",""1"",""8867""
","
","","","","","","1773","images/rabbit8.png","","","memory_trial","4","definitely_new",""
"html-keyboard-response","105","269174","0.0-18.0-0.31","7075","approach_avoid_sv1","""event"",""trial"",""time""
""focus"",""0"",""1""
""fullscreenenter"",""1"",""8867""
","
","""event"",""trial"",""time""
""focus"",""0"",""1""
","""event"",""trial"",""time""
""fullscreenenter"",""1"",""8867""
","
","","","","","","null","<div style=""font-size:60px;"">+</div>","null","","fixation","","",""
"memory-trial","106","272015","0.0-18.0-1.31","7075","approach_avoid_sv1","""event"",""trial"",""time""
""focus"",""0"",""1""
""fullscreenenter"",""1"",""8867""
","
","""event"",""trial"",""time""
""focus"",""0"",""1""
","""event"",""trial"",""time""
""fullscreenenter"",""1"",""8867""
","
","","","","","","1834","images/straw2.png","","","memory_trial","4","definitely_new",""
"html-keyboard-response","107","272534","0.0-18.0-0.32","7075","approach_avoid_sv1","""event"",""trial"",""time""
""focus"",""0"",""1""
""fullscreenenter"",""1"",""8867""
","
","""event"",""trial"",""time""
""focus"",""0"",""1""
","""event"",""trial"",""time""
""fullscreenenter"",""1"",""8867""
","
","","","","","","null","<div style=""font-size:60px;"">+</div>","null","","fixation","","",""
"memory-trial","108","275185","0.0-18.0-1.32","7075","approach_avoid_sv1","""event"",""trial"",""time""
""focus"",""0"",""1""
""fullscreenenter"",""1"",""8867""
","
","""event"",""trial"",""time""
""focus"",""0"",""1""
","""event"",""trial"",""time""
""fullscreenenter"",""1"",""8867""
","
","","","","","","1640","images/sofa7.png","","","memory_trial","4","definitely_new",""
"html-keyboard-response","109","275705","0.0-18.0-0.33","7075","approach_avoid_sv1","""event"",""trial"",""time""
""focus"",""0"",""1""
""fullscreenenter"",""1"",""8867""
","
","""event"",""trial"",""time""
""focus"",""0"",""1""
","""event"",""trial"",""time""
""fullscreenenter"",""1"",""8867""
","
","","","","","","null","<div style=""font-size:60px;"">+</div>","null","","fixation","","",""
"memory-trial","110","278805","0.0-18.0-1.33","7075","approach_avoid_sv1","""event"",""trial"",""time""
""focus"",""0"",""1""
""fullscreenenter"",""1"",""8867""
","
","""event"",""trial"",""time""
""focus"",""0"",""1""
","""event"",""trial"",""time""
""fullscreenenter"",""1"",""8867""
","
","","","","","","2081","images/goat6.png","","","memory_trial","2","maybe_old",""
"html-keyboard-response","111","279314","0.0-18.0-0.34","7075","approach_avoid_sv1","""event"",""trial"",""time""
""focus"",""0"",""1""
""fullscreenenter"",""1"",""8867""
","
","""event"",""trial"",""time""
""focus"",""0"",""1""
","""event"",""trial"",""time""
""fullscreenenter"",""1"",""8867""
","
","","","","","","null","<div style=""font-size:60px;"">+</div>","null","","fixation","","",""
"memory-trial","112","282135","0.0-18.0-1.34","7075","approach_avoid_sv1","""event"",""trial"",""time""
""focus"",""0"",""1""
""fullscreenenter"",""1"",""8867""
","
","""event"",""trial"",""time""
""focus"",""0"",""1""
","""event"",""trial"",""time""
""fullscreenenter"",""1"",""8867""
","
","","","","","","1805","images/rabbit6.png","","","memory_trial","3","maybe_new",""
"html-keyboard-response","113","282654","0.0-18.0-0.35","7075","approach_avoid_sv1","""event"",""trial"",""time""
""focus"",""0"",""1""
""fullscreenenter"",""1"",""8867""
","
","""event"",""trial"",""time""
""focus"",""0"",""1""
","""event"",""trial"",""time""
""fullscreenenter"",""1"",""8867""
","
","","","","","","null","<div style=""font-size:60px;"">+</div>","null","","fixation","","",""
"memory-trial","114","285174","0.0-18.0-1.35","7075","approach_avoid_sv1","""event"",""trial"",""time""
""focus"",""0"",""1""
""fullscreenenter"",""1"",""8867""
","
","""event"",""trial"",""time""
""focus"",""0"",""1""
","""event"",""trial"",""time""
""fullscreenenter"",""1"",""8867""
","
","","","","","","1492","images/boat2.png","","","memory_trial","4","definitely_new",""
"html-keyboard-response","115","285694","0.0-18.0-0.36","7075","approach_avoid_sv1","""event"",""trial"",""time""
""focus"",""0"",""1""
""fullscreenenter"",""1"",""8867""
","
","""event"",""trial"",""time""
""focus"",""0"",""1""
","""event"",""trial"",""time""
""fullscreenenter"",""1"",""8867""
","
","","","","","","null","<div style=""font-size:60px;"">+</div>","null","","fixation","","",""
"memory-trial","116","287715","0.0-18.0-1.36","7075","approach_avoid_sv1","""event"",""trial"",""time""
""focus"",""0"",""1""
""fullscreenenter"",""1"",""8867""
","
","""event"",""trial"",""time""
""focus"",""0"",""1""
","""event"",""trial"",""time""
""fullscreenenter"",""1"",""8867""
","
","","","","","","1014","images/horse2.png","","","memory_trial","4","definitely_new",""
"html-keyboard-response","117","288235","0.0-18.0-0.37","7075","approach_avoid_sv1","""event"",""trial"",""time""
""focus"",""0"",""1""
""fullscreenenter"",""1"",""8867""
","
","""event"",""trial"",""time""
""focus"",""0"",""1""
","""event"",""trial"",""time""
""fullscreenenter"",""1"",""8867""
","
","","","","","","null","<div style=""font-size:60px;"">+</div>","null","","fixation","","",""
"memory-trial","118","290055","0.0-18.0-1.37","7075","approach_avoid_sv1","""event"",""trial"",""time""
""focus"",""0"",""1""
""fullscreenenter"",""1"",""8867""
","
","""event"",""trial"",""time""
""focus"",""0"",""1""
","""event"",""trial"",""time""
""fullscreenenter"",""1"",""8867""
","
","","","","","","799","images/dog5.png","","","memory_trial","4","definitely_new",""
"html-keyboard-response","119","290574","0.0-18.0-0.38","7075","approach_avoid_sv1","""event"",""trial"",""time""
""focus"",""0"",""1""
""fullscreenenter"",""1"",""8867""
","
","""event"",""trial"",""time""
""focus"",""0"",""1""
","""event"",""trial"",""time""
""fullscreenenter"",""1"",""8867""
","
","","","","","","null","<div style=""font-size:60px;"">+</div>","null","","fixation","","",""
"memory-trial","120","292415","0.0-18.0-1.38","7075","approach_avoid_sv1","""event"",""trial"",""time""
""focus"",""0"",""1""
""fullscreenenter"",""1"",""8867""
","
","""event"",""trial"",""time""
""focus"",""0"",""1""
","""event"",""trial"",""time""
""fullscreenenter"",""1"",""8867""
","
","","","","","","833","images/train2.png","","","memory_trial","1","definitely_old",""
"html-keyboard-response","121","292936","0.0-18.0-0.39","7075","approach_avoid_sv1","""event"",""trial"",""time""
""focus"",""0"",""1""
""fullscreenenter"",""1"",""8867""
","
","""event"",""trial"",""time""
""focus"",""0"",""1""
","""event"",""trial"",""time""
""fullscreenenter"",""1"",""8867""
","
","","","","","","null","<div style=""font-size:60px;"">+</div>","null","","fixation","","",""
"memory-trial","122","294714","0.0-18.0-1.39","7075","approach_avoid_sv1","""event"",""trial"",""time""
""focus"",""0"",""1""
""fullscreenenter"",""1"",""8867""
","
","""event"",""trial"",""time""
""focus"",""0"",""1""
","""event"",""trial"",""time""
""fullscreenenter"",""1"",""8867""
","
","","","","","","764","images/orange1.png","","","memory_trial","1","definitely_old",""
"html-keyboard-response","123","295234","0.0-18.0-0.40","7075","approach_avoid_sv1","""event"",""trial"",""time""
""focus"",""0"",""1""
""fullscreenenter"",""1"",""8867""
","
","""event"",""trial"",""time""
""focus"",""0"",""1""
","""event"",""trial"",""time""
""fullscreenenter"",""1"",""8867""
","
","","","","","","null","<div style=""font-size:60px;"">+</div>","null","","fixation","","",""
"memory-trial","124","297615","0.0-18.0-1.40","7075","approach_avoid_sv1","""event"",""trial"",""time""
""focus"",""0"",""1""
""fullscreenenter"",""1"",""8867""
","
","""event"",""trial"",""time""
""focus"",""0"",""1""
","""event"",""trial"",""time""
""fullscreenenter"",""1"",""8867""
","
","","","","","","1368","images/chair5.png","","","memory_trial","1","definitely_old",""
"html-keyboard-response","125","298134","0.0-18.0-0.41","7075","approach_avoid_sv1","""event"",""trial"",""time""
""focus"",""0"",""1""
""fullscreenenter"",""1"",""8867""
","
","""event"",""trial"",""time""
""focus"",""0"",""1""
","""event"",""trial"",""time""
""fullscreenenter"",""1"",""8867""
","
","","","","","","null","<div style=""font-size:60px;"">+</div>","null","","fixation","","",""
"memory-trial","126","300274","0.0-18.0-1.41","7075","approach_avoid_sv1","""event"",""trial"",""time""
""focus"",""0"",""1""
""fullscreenenter"",""1"",""8867""
","
","""event"",""trial"",""time""
""focus"",""0"",""1""
","""event"",""trial"",""time""
""fullscreenenter"",""1"",""8867""
","
","","","","","","1132","images/rodent8.png","","","memory_trial","4","definitely_new",""
"html-button-response","127","322866","0.0-18.0-2.41-0.41","7075","approach_avoid_sv1","""event"",""trial"",""time""
""focus"",""0"",""1""
""fullscreenenter"",""1"",""8867""
","
","""event"",""trial"",""time""
""focus"",""0"",""1""
","""event"",""trial"",""time""
""fullscreenenter"",""1"",""8867""
","
","","","","","","22591","<p> Take a break! </p><p> Click the button to continue. </p>","0","","break","","",""
"html-keyboard-response","128","323383","0.0-18.0-0.42","7075","approach_avoid_sv1","""event"",""trial"",""time""
""focus"",""0"",""1""
""fullscreenenter"",""1"",""8867""
","
","""event"",""trial"",""time""
""focus"",""0"",""1""
","""event"",""trial"",""time""
""fullscreenenter"",""1"",""8867""
","
","","","","","","null","<div style=""font-size:60px;"">+</div>","null","","fixation","","",""
"memory-trial","129","325704","0.0-18.0-1.42","7075","approach_avoid_sv1","""event"",""trial"",""time""
""focus"",""0"",""1""
""fullscreenenter"",""1"",""8867""
","
","""event"",""trial"",""time""
""focus"",""0"",""1""
","""event"",""trial"",""time""
""fullscreenenter"",""1"",""8867""
","
","","","","","","1310","images/table4.png","","","memory_trial","1","definitely_old",""
"html-keyboard-response","130","326224","0.0-18.0-0.43","7075","approach_avoid_sv1","""event"",""trial"",""time""
""focus"",""0"",""1""
""fullscreenenter"",""1"",""8867""
","
","""event"",""trial"",""time""
""focus"",""0"",""1""
","""event"",""trial"",""time""
""fullscreenenter"",""1"",""8867""
","
","","","","","","null","<div style=""font-size:60px;"">+</div>","null","","fixation","","",""
"memory-trial","131","328694","0.0-18.0-1.43","7075","approach_avoid_sv1","""event"",""trial"",""time""
""focus"",""0"",""1""
""fullscreenenter"",""1"",""8867""
","
","""event"",""trial"",""time""
""focus"",""0"",""1""
","""event"",""trial"",""time""
""fullscreenenter"",""1"",""8867""
","
","","","","","","1466","images/sheep6.png","","","memory_trial","4","definitely_new",""
"html-keyboard-response","132","329214","0.0-18.0-0.44","7075","approach_avoid_sv1","""event"",""trial"",""time""
""focus"",""0"",""1""
""fullscreenenter"",""1"",""8867""
","
","""event"",""trial"",""time""
""focus"",""0"",""1""
","""event"",""trial"",""time""
""fullscreenenter"",""1"",""8867""
","
","","","","","","null","<div style=""font-size:60px;"">+</div>","null","","fixation","","",""
"memory-trial","133","331135","0.0-18.0-1.44","7075","approach_avoid_sv1","""event"",""trial"",""time""
""focus"",""0"",""1""
""fullscreenenter"",""1"",""8867""
","
","""event"",""trial"",""time""
""focus"",""0"",""1""
","""event"",""trial"",""time""
""fullscreenenter"",""1"",""8867""
","
","","","","","","912","images/dog4.png","","","memory_trial","4","definitely_new",""
"html-keyboard-response","134","331654","0.0-18.0-0.45","7075","approach_avoid_sv1","""event"",""trial"",""time""
""focus"",""0"",""1""
""fullscreenenter"",""1"",""8867""
","
","""event"",""trial"",""time""
""focus"",""0"",""1""
","""event"",""trial"",""time""
""fullscreenenter"",""1"",""8867""
","
","","","","","","null","<div style=""font-size:60px;"">+</div>","null","","fixation","","",""
"memory-trial","135","333734","0.0-18.0-1.45","7075","approach_avoid_sv1","""event"",""trial"",""time""
""focus"",""0"",""1""
""fullscreenenter"",""1"",""8867""
","
","""event"",""trial"",""time""
""focus"",""0"",""1""
","""event"",""trial"",""time""
""fullscreenenter"",""1"",""8867""
","
","","","","","","1072","images/flower2.png","","","memory_trial","4","definitely_new",""
"html-keyboard-response","136","334255","0.0-18.0-0.46","7075","approach_avoid_sv1","""event"",""trial"",""time""
""focus"",""0"",""1""
""fullscreenenter"",""1"",""8867""
","
","""event"",""trial"",""time""
""focus"",""0"",""1""
","""event"",""trial"",""time""
""fullscreenenter"",""1"",""8867""
","
","","","","","","null","<div style=""font-size:60px;"">+</div>","null","","fixation","","",""
"memory-trial","137","336894","0.0-18.0-1.46","7075","approach_avoid_sv1","""event"",""trial"",""time""
""focus"",""0"",""1""
""fullscreenenter"",""1"",""8867""
","
","""event"",""trial"",""time""
""focus"",""0"",""1""
","""event"",""trial"",""time""
""fullscreenenter"",""1"",""8867""
","
","","","","","","1637","images/cactus5.png","","","memory_trial","4","definitely_new",""
"html-keyboard-response","138","337413","0.0-18.0-0.47","7075","approach_avoid_sv1","""event"",""trial"",""time""
""focus"",""0"",""1""
""fullscreenenter"",""1"",""8867""
","
","""event"",""trial"",""time""
""focus"",""0"",""1""
","""event"",""trial"",""time""
""fullscreenenter"",""1"",""8867""
","
","","","","","","null","<div style=""font-size:60px;"">+</div>","null","","fixation","","",""
"memory-trial","139","339094","0.0-18.0-1.47","7075","approach_avoid_sv1","""event"",""trial"",""time""
""focus"",""0"",""1""
""fullscreenenter"",""1"",""8867""
","
","""event"",""trial"",""time""
""focus"",""0"",""1""
","""event"",""trial"",""time""
""fullscreenenter"",""1"",""8867""
","
","","","","","","661","images/horse7.png","","","memory_trial","4","definitely_new",""
"html-keyboard-response","140","339613","0.0-18.0-0.48","7075","approach_avoid_sv1","""event"",""trial"",""time""
""focus"",""0"",""1""
""fullscreenenter"",""1"",""8867""
","
","""event"",""trial"",""time""
""focus"",""0"",""1""
","""event"",""trial"",""time""
""fullscreenenter"",""1"",""8867""
","
","","","","","","null","<div style=""font-size:60px;"">+</div>","null","","fixation","","",""
"memory-trial","141","341255","0.0-18.0-1.48","7075","approach_avoid_sv1","""event"",""trial"",""time""
""focus"",""0"",""1""
""fullscreenenter"",""1"",""8867""
","
","""event"",""trial"",""time""
""focus"",""0"",""1""
","""event"",""trial"",""time""
""fullscreenenter"",""1"",""8867""
","
","","","","","","630","images/boat7.png","","","memory_trial","4","definitely_new",""
"html-keyboard-response","142","341774","0.0-18.0-0.49","7075","approach_avoid_sv1","""event"",""trial"",""time""
""focus"",""0"",""1""
""fullscreenenter"",""1"",""8867""
","
","""event"",""trial"",""time""
""focus"",""0"",""1""
","""event"",""trial"",""time""
""fullscreenenter"",""1"",""8867""
","
","","","","","","null","<div style=""font-size:60px;"">+</div>","null","","fixation","","",""
"memory-trial","143","343634","0.0-18.0-1.49","7075","approach_avoid_sv1","""event"",""trial"",""time""
""focus"",""0"",""1""
""fullscreenenter"",""1"",""8867""
","
","""event"",""trial"",""time""
""focus"",""0"",""1""
","""event"",""trial"",""time""
""fullscreenenter"",""1"",""8867""
","
","","","","","","844","images/flower6.png","","","memory_trial","4","definitely_new",""
"html-keyboard-response","144","344154","0.0-18.0-0.50","7075","approach_avoid_sv1","""event"",""trial"",""time""
""focus"",""0"",""1""
""fullscreenenter"",""1"",""8867""
","
","""event"",""trial"",""time""
""focus"",""0"",""1""
","""event"",""trial"",""time""
""fullscreenenter"",""1"",""8867""
","
","","","","","","null","<div style=""font-size:60px;"">+</div>","null","","fixation","","",""
"memory-trial","145","346854","0.0-18.0-1.50","7075","approach_avoid_sv1","""event"",""trial"",""time""
""focus"",""0"",""1""
""fullscreenenter"",""1"",""8867""
","
","""event"",""trial"",""time""
""focus"",""0"",""1""
","""event"",""trial"",""time""
""fullscreenenter"",""1"",""8867""
","
","","","","","","1688","images/cat3.png","","","memory_trial","4","definitely_new",""
"html-keyboard-response","146","347374","0.0-18.0-0.51","7075","approach_avoid_sv1","""event"",""trial"",""time""
""focus"",""0"",""1""
""fullscreenenter"",""1"",""8867""
","
","""event"",""trial"",""time""
""focus"",""0"",""1""
","""event"",""trial"",""time""
""fullscreenenter"",""1"",""8867""
","
","","","","","","null","<div style=""font-size:60px;"">+</div>","null","","fixation","","",""
"memory-trial","147","349274","0.0-18.0-1.51","7075","approach_avoid_sv1","""event"",""trial"",""time""
""focus"",""0"",""1""
""fullscreenenter"",""1"",""8867""
","
","""event"",""trial"",""time""
""focus"",""0"",""1""
","""event"",""trial"",""time""
""fullscreenenter"",""1"",""8867""
","
","","","","","","891","images/plane8.png","","","memory_trial","4","definitely_new",""
"html-keyboard-response","148","349794","0.0-18.0-0.52","7075","approach_avoid_sv1","""event"",""trial"",""time""
""focus"",""0"",""1""
""fullscreenenter"",""1"",""8867""
","
","""event"",""trial"",""time""
""focus"",""0"",""1""
","""event"",""trial"",""time""
""fullscreenenter"",""1"",""8867""
","
","","","","","","null","<div style=""font-size:60px;"">+</div>","null","","fixation","","",""
"memory-trial","149","351674","0.0-18.0-1.52","7075","approach_avoid_sv1","""event"",""trial"",""time""
""focus"",""0"",""1""
""fullscreenenter"",""1"",""8867""
","
","""event"",""trial"",""time""
""focus"",""0"",""1""
","""event"",""trial"",""time""
""fullscreenenter"",""1"",""8867""
","
","","","","","","864","images/truck4.png","","","memory_trial","4","definitely_new",""
"html-keyboard-response","150","352194","0.0-18.0-0.53","7075","approach_avoid_sv1","""event"",""trial"",""time""
""focus"",""0"",""1""
""fullscreenenter"",""1"",""8867""
","
","""event"",""trial"",""time""
""focus"",""0"",""1""
","""event"",""trial"",""time""
""fullscreenenter"",""1"",""8867""
","
","","","","","","null","<div style=""font-size:60px;"">+</div>","null","","fixation","","",""
"memory-trial","151","354114","0.0-18.0-1.53","7075","approach_avoid_sv1","""event"",""trial"",""time""
""focus"",""0"",""1""
""fullscreenenter"",""1"",""8867""
","
","""event"",""trial"",""time""
""focus"",""0"",""1""
","""event"",""trial"",""time""
""fullscreenenter"",""1"",""8867""
","
","","","","","","899","images/bush6.png","","","memory_trial","4","definitely_new",""
"html-keyboard-response","152","354634","0.0-18.0-0.54","7075","approach_avoid_sv1","""event"",""trial"",""time""
""focus"",""0"",""1""
""fullscreenenter"",""1"",""8867""
","
","""event"",""trial"",""time""
""focus"",""0"",""1""
","""event"",""trial"",""time""
""fullscreenenter"",""1"",""8867""
","
","","","","","","null","<div style=""font-size:60px;"">+</div>","null","","fixation","","",""
"memory-trial","153","356734","0.0-18.0-1.54","7075","approach_avoid_sv1","""event"",""trial"",""time""
""focus"",""0"",""1""
""fullscreenenter"",""1"",""8867""
","
","""event"",""trial"",""time""
""focus"",""0"",""1""
","""event"",""trial"",""time""
""fullscreenenter"",""1"",""8867""
","
","","","","","","1088","images/horse1.png","","","memory_trial","1","definitely_old",""
"html-keyboard-response","154","357253","0.0-18.0-0.55","7075","approach_avoid_sv1","""event"",""trial"",""time""
""focus"",""0"",""1""
""fullscreenenter"",""1"",""8867""
","
","""event"",""trial"",""time""
""focus"",""0"",""1""
","""event"",""trial"",""time""
""fullscreenenter"",""1"",""8867""
","
","","","","","","null","<div style=""font-size:60px;"">+</div>","null","","fixation","","",""
"memory-trial","155","359354","0.0-18.0-1.55","7075","approach_avoid_sv1","""event"",""trial"",""time""
""focus"",""0"",""1""
""fullscreenenter"",""1"",""8867""
","
","""event"",""trial"",""time""
""focus"",""0"",""1""
","""event"",""trial"",""time""
""fullscreenenter"",""1"",""8867""
","
","","","","","","1082","images/cat8.png","","","memory_trial","1","definitely_old",""
"html-keyboard-response","156","359873","0.0-18.0-0.56","7075","approach_avoid_sv1","""event"",""trial"",""time""
""focus"",""0"",""1""
""fullscreenenter"",""1"",""8867""
","
","""event"",""trial"",""time""
""focus"",""0"",""1""
","""event"",""trial"",""time""
""fullscreenenter"",""1"",""8867""
","
","","","","","","null","<div style=""font-size:60px;"">+</div>","null","","fixation","","",""
"memory-trial","157","361634","0.0-18.0-1.56","7075","approach_avoid_sv1","""event"",""trial"",""time""
""focus"",""0"",""1""
""fullscreenenter"",""1"",""8867""
","
","""event"",""trial"",""time""
""focus"",""0"",""1""
","""event"",""trial"",""time""
""fullscreenenter"",""1"",""8867""
","
","","","","","","745","images/rodent5.png","","","memory_trial","4","definitely_new",""
"html-keyboard-response","158","362153","0.0-18.0-0.57","7075","approach_avoid_sv1","""event"",""trial"",""time""
""focus"",""0"",""1""
""fullscreenenter"",""1"",""8867""
","
","""event"",""trial"",""time""
""focus"",""0"",""1""
","""event"",""trial"",""time""
""fullscreenenter"",""1"",""8867""
","
","","","","","","null","<div style=""font-size:60px;"">+</div>","null","","fixation","","",""
"memory-trial","159","363844","0.0-18.0-1.57","7075","approach_avoid_sv1","""event"",""trial"",""time""
""focus"",""0"",""1""
""fullscreenenter"",""1"",""8867""
","
","""event"",""trial"",""time""
""focus"",""0"",""1""
","""event"",""trial"",""time""
""fullscreenenter"",""1"",""8867""
","
","","","","","","681","images/banana5.png","","","memory_trial","4","definitely_new",""
"html-keyboard-response","160","364364","0.0-18.0-0.58","7075","approach_avoid_sv1","""event"",""trial"",""time""
""focus"",""0"",""1""
""fullscreenenter"",""1"",""8867""
","
","""event"",""trial"",""time""
""focus"",""0"",""1""
","""event"",""trial"",""time""
""fullscreenenter"",""1"",""8867""
","
","","","","","","null","<div style=""font-size:60px;"">+</div>","null","","fixation","","",""
"memory-trial","161","366684","0.0-18.0-1.58","7075","approach_avoid_sv1","""event"",""trial"",""time""
""focus"",""0"",""1""
""fullscreenenter"",""1"",""8867""
","
","""event"",""trial"",""time""
""focus"",""0"",""1""
","""event"",""trial"",""time""
""fullscreenenter"",""1"",""8867""
","
","","","","","","1309","images/apple7.png","","","memory_trial","4","definitely_new",""
"html-keyboard-response","162","367203","0.0-18.0-0.59","7075","approach_avoid_sv1","""event"",""trial"",""time""
""focus"",""0"",""1""
""fullscreenenter"",""1"",""8867""
","
","""event"",""trial"",""time""
""focus"",""0"",""1""
","""event"",""trial"",""time""
""fullscreenenter"",""1"",""8867""
","
","","","","","","null","<div style=""font-size:60px;"">+</div>","null","","fixation","","",""
"memory-trial","163","369004","0.0-18.0-1.59","7075","approach_avoid_sv1","""event"",""trial"",""time""
""focus"",""0"",""1""
""fullscreenenter"",""1"",""8867""
","
","""event"",""trial"",""time""
""focus"",""0"",""1""
","""event"",""trial"",""time""
""fullscreenenter"",""1"",""8867""
","
","","","","","","784","images/plane6.png","","","memory_trial","4","definitely_new",""
"html-keyboard-response","164","369523","0.0-18.0-0.60","7075","approach_avoid_sv1","""event"",""trial"",""time""
""focus"",""0"",""1""
""fullscreenenter"",""1"",""8867""
","
","""event"",""trial"",""time""
""focus"",""0"",""1""
","""event"",""trial"",""time""
""fullscreenenter"",""1"",""8867""
","
","","","","","","null","<div style=""font-size:60px;"">+</div>","null","","fixation","","",""
"memory-trial","165","371334","0.0-18.0-1.60","7075","approach_avoid_sv1","""event"",""trial"",""time""
""focus"",""0"",""1""
""fullscreenenter"",""1"",""8867""
","
","""event"",""trial"",""time""
""focus"",""0"",""1""
","""event"",""trial"",""time""
""fullscreenenter"",""1"",""8867""
","
","","","","","","798","images/boat3.png","","","memory_trial","4","definitely_new",""
"html-keyboard-response","166","371853","0.0-18.0-0.61","7075","approach_avoid_sv1","""event"",""trial"",""time""
""focus"",""0"",""1""
""fullscreenenter"",""1"",""8867""
","
","""event"",""trial"",""time""
""focus"",""0"",""1""
","""event"",""trial"",""time""
""fullscreenenter"",""1"",""8867""
","
","","","","","","null","<div style=""font-size:60px;"">+</div>","null","","fixation","","",""
"memory-trial","167","374314","0.0-18.0-1.61","7075","approach_avoid_sv1","""event"",""trial"",""time""
""focus"",""0"",""1""
""fullscreenenter"",""1"",""8867""
","
","""event"",""trial"",""time""
""focus"",""0"",""1""
","""event"",""trial"",""time""
""fullscreenenter"",""1"",""8867""
","
","","","","","","1446","images/sheep1.png","","","memory_trial","1","definitely_old",""
"html-keyboard-response","168","374833","0.0-18.0-0.62","7075","approach_avoid_sv1","""event"",""trial"",""time""
""focus"",""0"",""1""
""fullscreenenter"",""1"",""8867""
","
","""event"",""trial"",""time""
""focus"",""0"",""1""
","""event"",""trial"",""time""
""fullscreenenter"",""1"",""8867""
","
","","","","","","null","<div style=""font-size:60px;"">+</div>","null","","fixation","","",""
"memory-trial","169","376634","0.0-18.0-1.62","7075","approach_avoid_sv1","""event"",""trial"",""time""
""focus"",""0"",""1""
""fullscreenenter"",""1"",""8867""
","
","""event"",""trial"",""time""
""focus"",""0"",""1""
","""event"",""trial"",""time""
""fullscreenenter"",""1"",""8867""
","
","","","","","","780","images/train3.png","","","memory_trial","1","definitely_old",""
"html-keyboard-response","170","377154","0.0-18.0-0.63","7075","approach_avoid_sv1","""event"",""trial"",""time""
""focus"",""0"",""1""
""fullscreenenter"",""1"",""8867""
","
","""event"",""trial"",""time""
""focus"",""0"",""1""
","""event"",""trial"",""time""
""fullscreenenter"",""1"",""8867""
","
","","","","","","null","<div style=""font-size:60px;"">+</div>","null","","fixation","","",""
"memory-trial","171","379443","0.0-18.0-1.63","7075","approach_avoid_sv1","""event"",""trial"",""time""
""focus"",""0"",""1""
""fullscreenenter"",""1"",""8867""
","
","""event"",""trial"",""time""
""focus"",""0"",""1""
","""event"",""trial"",""time""
""fullscreenenter"",""1"",""8867""
","
","","","","","","1270","images/truck5.png","","","memory_trial","1","definitely_old",""
"html-keyboard-response","172","379963","0.0-18.0-0.64","7075","approach_avoid_sv1","""event"",""trial"",""time""
""focus"",""0"",""1""
""fullscreenenter"",""1"",""8867""
","
","""event"",""trial"",""time""
""focus"",""0"",""1""
","""event"",""trial"",""time""
""fullscreenenter"",""1"",""8867""
","
","","","","","","null","<div style=""font-size:60px;"">+</div>","null","","fixation","","",""
"memory-trial","173","381674","0.0-18.0-1.64","7075","approach_avoid_sv1","""event"",""trial"",""time""
""focus"",""0"",""1""
""fullscreenenter"",""1"",""8867""
","
","""event"",""trial"",""time""
""focus"",""0"",""1""
","""event"",""trial"",""time""
""fullscreenenter"",""1"",""8867""
","
","","","","","","695","images/flower4.png","","","memory_trial","4","definitely_new",""
"html-keyboard-response","174","382194","0.0-18.0-0.65","7075","approach_avoid_sv1","""event"",""trial"",""time""
""focus"",""0"",""1""
""fullscreenenter"",""1"",""8867""
","
","""event"",""trial"",""time""
""focus"",""0"",""1""
","""event"",""trial"",""time""
""fullscreenenter"",""1"",""8867""
","
","","","","","","null","<div style=""font-size:60px;"">+</div>","null","","fixation","","",""
"memory-trial","175","384334","0.0-18.0-1.65","7075","approach_avoid_sv1","""event"",""trial"",""time""
""focus"",""0"",""1""
""fullscreenenter"",""1"",""8867""
","
","""event"",""trial"",""time""
""focus"",""0"",""1""
","""event"",""trial"",""time""
""fullscreenenter"",""1"",""8867""
","
","","","","","","1136","images/sheep3.png","","","memory_trial","4","definitely_new",""
"html-keyboard-response","176","384853","0.0-18.0-0.66","7075","approach_avoid_sv1","""event"",""trial"",""time""
""focus"",""0"",""1""
""fullscreenenter"",""1"",""8867""
","
","""event"",""trial"",""time""
""focus"",""0"",""1""
","""event"",""trial"",""time""
""fullscreenenter"",""1"",""8867""
","
","","","","","","null","<div style=""font-size:60px;"">+</div>","null","","fixation","","",""
"memory-trial","177","386873","0.0-18.0-1.66","7075","approach_avoid_sv1","""event"",""trial"",""time""
""focus"",""0"",""1""
""fullscreenenter"",""1"",""8867""
","
","""event"",""trial"",""time""
""focus"",""0"",""1""
","""event"",""trial"",""time""
""fullscreenenter"",""1"",""8867""
","
","","","","","","1008","images/cat1.png","","","memory_trial","1","definitely_old",""
"html-keyboard-response","178","387393","0.0-18.0-0.67","7075","approach_avoid_sv1","""event"",""trial"",""time""
""focus"",""0"",""1""
""fullscreenenter"",""1"",""8867""
","
","""event"",""trial"",""time""
""focus"",""0"",""1""
","""event"",""trial"",""time""
""fullscreenenter"",""1"",""8867""
","
","","","","","","null","<div style=""font-size:60px;"">+</div>","null","","fixation","","",""
"memory-trial","179","390314","0.0-18.0-1.67","7075","approach_avoid_sv1","""event"",""trial"",""time""
""focus"",""0"",""1""
""fullscreenenter"",""1"",""8867""
","
","""event"",""trial"",""time""
""focus"",""0"",""1""
","""event"",""trial"",""time""
""fullscreenenter"",""1"",""8867""
","
","","","","","","1900","images/sofa2.png","","","memory_trial","3","maybe_new",""
"html-keyboard-response","180","390834","0.0-18.0-0.68","7075","approach_avoid_sv1","""event"",""trial"",""time""
""focus"",""0"",""1""
""fullscreenenter"",""1"",""8867""
","
","""event"",""trial"",""time""
""focus"",""0"",""1""
","""event"",""trial"",""time""
""fullscreenenter"",""1"",""8867""
","
","","","","","","null","<div style=""font-size:60px;"">+</div>","null","","fixation","","",""
"memory-trial","181","393224","0.0-18.0-1.68","7075","approach_avoid_sv1","""event"",""trial"",""time""
""focus"",""0"",""1""
""fullscreenenter"",""1"",""8867""
","
","""event"",""trial"",""time""
""focus"",""0"",""1""
","""event"",""trial"",""time""
""fullscreenenter"",""1"",""8867""
","
","","","","","","1378","images/dog6.png","","","memory_trial","2","maybe_old",""
"html-keyboard-response","182","393743","0.0-18.0-0.69","7075","approach_avoid_sv1","""event"",""trial"",""time""
""focus"",""0"",""1""
""fullscreenenter"",""1"",""8867""
","
","""event"",""trial"",""time""
""focus"",""0"",""1""
","""event"",""trial"",""time""
""fullscreenenter"",""1"",""8867""
","
","","","","","","null","<div style=""font-size:60px;"">+</div>","null","","fixation","","",""
"memory-trial","183","396403","0.0-18.0-1.69","7075","approach_avoid_sv1","""event"",""trial"",""time""
""focus"",""0"",""1""
""fullscreenenter"",""1"",""8867""
","
","""event"",""trial"",""time""
""focus"",""0"",""1""
","""event"",""trial"",""time""
""fullscreenenter"",""1"",""8867""
","
","","","","","","1652","images/bed7.png","","","memory_trial","2","maybe_old",""
"html-keyboard-response","184","396924","0.0-18.0-0.70","7075","approach_avoid_sv1","""event"",""trial"",""time""
""focus"",""0"",""1""
""fullscreenenter"",""1"",""8867""
","
","""event"",""trial"",""time""
""focus"",""0"",""1""
","""event"",""trial"",""time""
""fullscreenenter"",""1"",""8867""
","
","","","","","","null","<div style=""font-size:60px;"">+</div>","null","","fixation","","",""
"memory-trial","185","398864","0.0-18.0-1.70","7075","approach_avoid_sv1","""event"",""trial"",""time""
""focus"",""0"",""1""
""fullscreenenter"",""1"",""8867""
","
","""event"",""trial"",""time""
""focus"",""0"",""1""
","""event"",""trial"",""time""
""fullscreenenter"",""1"",""8867""
","
","","","","","","935","images/banana1.png","","","memory_trial","4","definitely_new",""
"html-keyboard-response","186","399384","0.0-18.0-0.71","7075","approach_avoid_sv1","""event"",""trial"",""time""
""focus"",""0"",""1""
""fullscreenenter"",""1"",""8867""
","
","""event"",""trial"",""time""
""focus"",""0"",""1""
","""event"",""trial"",""time""
""fullscreenenter"",""1"",""8867""
","
","","","","","","null","<div style=""font-size:60px;"">+</div>","null","","fixation","","",""
"memory-trial","187","401483","0.0-18.0-1.71","7075","approach_avoid_sv1","""event"",""trial"",""time""
""focus"",""0"",""1""
""fullscreenenter"",""1"",""8867""
","
","""event"",""trial"",""time""
""focus"",""0"",""1""
","""event"",""trial"",""time""
""fullscreenenter"",""1"",""8867""
","
","","","","","","1096","images/dog1.png","","","memory_trial","4","definitely_new",""
"html-keyboard-response","188","401994","0.0-18.0-0.72","7075","approach_avoid_sv1","""event"",""trial"",""time""
""focus"",""0"",""1""
""fullscreenenter"",""1"",""8867""
","
","""event"",""trial"",""time""
""focus"",""0"",""1""
","""event"",""trial"",""time""
""fullscreenenter"",""1"",""8867""
","
","","","","","","null","<div style=""font-size:60px;"">+</div>","null","","fixation","","",""
"memory-trial","189","405253","0.0-18.0-1.72","7075","approach_avoid_sv1","""event"",""trial"",""time""
""focus"",""0"",""1""
""fullscreenenter"",""1"",""8867""
","
","""event"",""trial"",""time""
""focus"",""0"",""1""
","""event"",""trial"",""time""
""fullscreenenter"",""1"",""8867""
","
","","","","","","2245","images/tree8.png","","","memory_trial","3","maybe_new",""
"html-keyboard-response","190","405773","0.0-18.0-0.73","7075","approach_avoid_sv1","""event"",""trial"",""time""
""focus"",""0"",""1""
""fullscreenenter"",""1"",""8867""
","
","""event"",""trial"",""time""
""focus"",""0"",""1""
","""event"",""trial"",""time""
""fullscreenenter"",""1"",""8867""
","
","","","","","","null","<div style=""font-size:60px;"">+</div>","null","","fixation","","",""
"memory-trial","191","408014","0.0-18.0-1.73","7075","approach_avoid_sv1","""event"",""trial"",""time""
""focus"",""0"",""1""
""fullscreenenter"",""1"",""8867""
","
","""event"",""trial"",""time""
""focus"",""0"",""1""
","""event"",""trial"",""time""
""fullscreenenter"",""1"",""8867""
","
","","","","","","1225","images/boat8.png","","","memory_trial","1","definitely_old",""
"html-keyboard-response","192","408523","0.0-18.0-0.74","7075","approach_avoid_sv1","""event"",""trial"",""time""
""focus"",""0"",""1""
""fullscreenenter"",""1"",""8867""
","
","""event"",""trial"",""time""
""focus"",""0"",""1""
","""event"",""trial"",""time""
""fullscreenenter"",""1"",""8867""
","
","","","","","","null","<div style=""font-size:60px;"">+</div>","null","","fixation","","",""
"memory-trial","193","410723","0.0-18.0-1.74","7075","approach_avoid_sv1","""event"",""trial"",""time""
""focus"",""0"",""1""
""fullscreenenter"",""1"",""8867""
","
","""event"",""trial"",""time""
""focus"",""0"",""1""
","""event"",""trial"",""time""
""fullscreenenter"",""1"",""8867""
","
","","","","","","1195","images/tree3.png","","","memory_trial","4","definitely_new",""
"html-keyboard-response","194","411243","0.0-18.0-0.75","7075","approach_avoid_sv1","""event"",""trial"",""time""
""focus"",""0"",""1""
""fullscreenenter"",""1"",""8867""
","
","""event"",""trial"",""time""
""focus"",""0"",""1""
","""event"",""trial"",""time""
""fullscreenenter"",""1"",""8867""
","
","","","","","","null","<div style=""font-size:60px;"">+</div>","null","","fixation","","",""
"memory-trial","195","414733","0.0-18.0-1.75","7075","approach_avoid_sv1","""event"",""trial"",""time""
""focus"",""0"",""1""
""fullscreenenter"",""1"",""8867""
","
","""event"",""trial"",""time""
""focus"",""0"",""1""
","""event"",""trial"",""time""
""fullscreenenter"",""1"",""8867""
","
","","","","","","2470","images/cow1.png","","","memory_trial","4","definitely_new",""
"html-keyboard-response","196","415234","0.0-18.0-0.76","7075","approach_avoid_sv1","""event"",""trial"",""time""
""focus"",""0"",""1""
""fullscreenenter"",""1"",""8867""
","
","""event"",""trial"",""time""
""focus"",""0"",""1""
","""event"",""trial"",""time""
""fullscreenenter"",""1"",""8867""
","
","","","","","","null","<div style=""font-size:60px;"">+</div>","null","","fixation","","",""
"memory-trial","197","417094","0.0-18.0-1.76","7075","approach_avoid_sv1","""event"",""trial"",""time""
""focus"",""0"",""1""
""fullscreenenter"",""1"",""8867""
","
","""event"",""trial"",""time""
""focus"",""0"",""1""
","""event"",""trial"",""time""
""fullscreenenter"",""1"",""8867""
","
","","","","","","842","images/train1.png","","","memory_trial","1","definitely_old",""
"html-keyboard-response","198","417613","0.0-18.0-0.77","7075","approach_avoid_sv1","""event"",""trial"",""time""
""focus"",""0"",""1""
""fullscreenenter"",""1"",""8867""
","
","""event"",""trial"",""time""
""focus"",""0"",""1""
","""event"",""trial"",""time""
""fullscreenenter"",""1"",""8867""
","
","","","","","","null","<div style=""font-size:60px;"">+</div>","null","","fixation","","",""
"memory-trial","199","420534","0.0-18.0-1.77","7075","approach_avoid_sv1","""event"",""trial"",""time""
""focus"",""0"",""1""
""fullscreenenter"",""1"",""8867""
","
","""event"",""trial"",""time""
""focus"",""0"",""1""
","""event"",""trial"",""time""
""fullscreenenter"",""1"",""8867""
","
","","","","","","1901","images/cactus7.png","","","memory_trial","2","maybe_old",""
"html-keyboard-response","200","421047","0.0-18.0-0.78","7075","approach_avoid_sv1","""event"",""trial"",""time""
""focus"",""0"",""1""
""fullscreenenter"",""1"",""8867""
","
","""event"",""trial"",""time""
""focus"",""0"",""1""
","""event"",""trial"",""time""
""fullscreenenter"",""1"",""8867""
","
","","","","","","null","<div style=""font-size:60px;"">+</div>","null","","fixation","","",""
"memory-trial","201","422983","0.0-18.0-1.78","7075","approach_avoid_sv1","""event"",""trial"",""time""
""focus"",""0"",""1""
""fullscreenenter"",""1"",""8867""
","
","""event"",""trial"",""time""
""focus"",""0"",""1""
","""event"",""trial"",""time""
""fullscreenenter"",""1"",""8867""
","
","","","","","","923","images/flower3.png","","","memory_trial","4","definitely_new",""
"html-keyboard-response","202","423503","0.0-18.0-0.79","7075","approach_avoid_sv1","""event"",""trial"",""time""
""focus"",""0"",""1""
""fullscreenenter"",""1"",""8867""
","
","""event"",""trial"",""time""
""focus"",""0"",""1""
","""event"",""trial"",""time""
""fullscreenenter"",""1"",""8867""
","
","","","","","","null","<div style=""font-size:60px;"">+</div>","null","","fixation","","",""
"memory-trial","203","425623","0.0-18.0-1.79","7075","approach_avoid_sv1","""event"",""trial"",""time""
""focus"",""0"",""1""
""fullscreenenter"",""1"",""8867""
","
","""event"",""trial"",""time""
""focus"",""0"",""1""
","""event"",""trial"",""time""
""fullscreenenter"",""1"",""8867""
","
","","","","","","1098","images/apple2.png","","","memory_trial","4","definitely_new",""
"html-keyboard-response","204","426142","0.0-18.0-0.80","7075","approach_avoid_sv1","""event"",""trial"",""time""
""focus"",""0"",""1""
""fullscreenenter"",""1"",""8867""
","
","""event"",""trial"",""time""
""focus"",""0"",""1""
","""event"",""trial"",""time""
""fullscreenenter"",""1"",""8867""
","
","","","","","","null","<div style=""font-size:60px;"">+</div>","null","","fixation","","",""
"memory-trial","205","428103","0.0-18.0-1.80","7075","approach_avoid_sv1","""event"",""trial"",""time""
""focus"",""0"",""1""
""fullscreenenter"",""1"",""8867""
","
","""event"",""trial"",""time""
""focus"",""0"",""1""
","""event"",""trial"",""time""
""fullscreenenter"",""1"",""8867""
","
","","","","","","940","images/train4.png","","","memory_trial","1","definitely_old",""
"html-keyboard-response","206","428620","0.0-18.0-0.81","7075","approach_avoid_sv1","""event"",""trial"",""time""
""focus"",""0"",""1""
""fullscreenenter"",""1"",""8867""
","
","""event"",""trial"",""time""
""focus"",""0"",""1""
","""event"",""trial"",""time""
""fullscreenenter"",""1"",""8867""
","
","","","","","","null","<div style=""font-size:60px;"">+</div>","null","","fixation","","",""
"memory-trial","207","431004","0.0-18.0-1.81","7075","approach_avoid_sv1","""event"",""trial"",""time""
""focus"",""0"",""1""
""fullscreenenter"",""1"",""8867""
","
","""event"",""trial"",""time""
""focus"",""0"",""1""
","""event"",""trial"",""time""
""fullscreenenter"",""1"",""8867""
","
","","","","","","1371","images/goat8.png","","","memory_trial","1","definitely_old",""
"html-keyboard-response","208","431522","0.0-18.0-0.82","7075","approach_avoid_sv1","""event"",""trial"",""time""
""focus"",""0"",""1""
""fullscreenenter"",""1"",""8867""
","
","""event"",""trial"",""time""
""focus"",""0"",""1""
","""event"",""trial"",""time""
""fullscreenenter"",""1"",""8867""
","
","","","","","","null","<div style=""font-size:60px;"">+</div>","null","","fixation","","",""
"memory-trial","209","433323","0.0-18.0-1.82","7075","approach_avoid_sv1","""event"",""trial"",""time""
""focus"",""0"",""1""
""fullscreenenter"",""1"",""8867""
","
","""event"",""trial"",""time""
""focus"",""0"",""1""
","""event"",""trial"",""time""
""fullscreenenter"",""1"",""8867""
","
","","","","","","794","images/bed2.png","","","memory_trial","4","definitely_new",""
"html-keyboard-response","210","433843","0.0-18.0-0.83","7075","approach_avoid_sv1","""event"",""trial"",""time""
""focus"",""0"",""1""
""fullscreenenter"",""1"",""8867""
","
","""event"",""trial"",""time""
""focus"",""0"",""1""
","""event"",""trial"",""time""
""fullscreenenter"",""1"",""8867""
","
","","","","","","null","<div style=""font-size:60px;"">+</div>","null","","fixation","","",""
"memory-trial","211","436424","0.0-18.0-1.83","7075","approach_avoid_sv1","""event"",""trial"",""time""
""focus"",""0"",""1""
""fullscreenenter"",""1"",""8867""
","
","""event"",""trial"",""time""
""focus"",""0"",""1""
","""event"",""trial"",""time""
""fullscreenenter"",""1"",""8867""
","
","","","","","","1560","images/horse3.png","","","memory_trial","2","maybe_old",""
"html-keyboard-response","212","436942","0.0-18.0-0.84","7075","approach_avoid_sv1","""event"",""trial"",""time""
""focus"",""0"",""1""
""fullscreenenter"",""1"",""8867""
","
","""event"",""trial"",""time""
""focus"",""0"",""1""
","""event"",""trial"",""time""
""fullscreenenter"",""1"",""8867""
","
","","","","","","null","<div style=""font-size:60px;"">+</div>","null","","fixation","","",""
"memory-trial","213","439353","0.0-18.0-1.84","7075","approach_avoid_sv1","""event"",""trial"",""time""
""focus"",""0"",""1""
""fullscreenenter"",""1"",""8867""
","
","""event"",""trial"",""time""
""focus"",""0"",""1""
","""event"",""trial"",""time""
""fullscreenenter"",""1"",""8867""
","
","","","","","","1390","images/goat1.png","","","memory_trial","4","definitely_new",""
"html-keyboard-response","214","439873","0.0-18.0-0.85","7075","approach_avoid_sv1","""event"",""trial"",""time""
""focus"",""0"",""1""
""fullscreenenter"",""1"",""8867""
","
","""event"",""trial"",""time""
""focus"",""0"",""1""
","""event"",""trial"",""time""
""fullscreenenter"",""1"",""8867""
","
","","","","","","null","<div style=""font-size:60px;"">+</div>","null","","fixation","","",""
"memory-trial","215","442853","0.0-18.0-1.85","7075","approach_avoid_sv1","""event"",""trial"",""time""
""focus"",""0"",""1""
""fullscreenenter"",""1"",""8867""
","
","""event"",""trial"",""time""
""focus"",""0"",""1""
","""event"",""trial"",""time""
""fullscreenenter"",""1"",""8867""
","
","","","","","","1970","images/straw5.png","","","memory_trial","4","definitely_new",""
"html-keyboard-response","216","443372","0.0-18.0-0.86","7075","approach_avoid_sv1","""event"",""trial"",""time""
""focus"",""0"",""1""
""fullscreenenter"",""1"",""8867""
","
","""event"",""trial"",""time""
""focus"",""0"",""1""
","""event"",""trial"",""time""
""fullscreenenter"",""1"",""8867""
","
","","","","","","null","<div style=""font-size:60px;"">+</div>","null","","fixation","","",""
"memory-trial","217","445253","0.0-18.0-1.86","7075","approach_avoid_sv1","""event"",""trial"",""time""
""focus"",""0"",""1""
""fullscreenenter"",""1"",""8867""
","
","""event"",""trial"",""time""
""focus"",""0"",""1""
","""event"",""trial"",""time""
""fullscreenenter"",""1"",""8867""
","
","","","","","","868","images/boat6.png","","","memory_trial","4","definitely_new",""
"html-keyboard-response","218","445773","0.0-18.0-0.87","7075","approach_avoid_sv1","""event"",""trial"",""time""
""focus"",""0"",""1""
""fullscreenenter"",""1"",""8867""
","
","""event"",""trial"",""time""
""focus"",""0"",""1""
","""event"",""trial"",""time""
""fullscreenenter"",""1"",""8867""
","
","","","","","","null","<div style=""font-size:60px;"">+</div>","null","","fixation","","",""
"memory-trial","219","447853","0.0-18.0-1.87","7075","approach_avoid_sv1","""event"",""trial"",""time""
""focus"",""0"",""1""
""fullscreenenter"",""1"",""8867""
","
","""event"",""trial"",""time""
""focus"",""0"",""1""
","""event"",""trial"",""time""
""fullscreenenter"",""1"",""8867""
","
","","","","","","1066","images/truck1.png","","","memory_trial","4","definitely_new",""
"html-keyboard-response","220","448373","0.0-18.0-0.88","7075","approach_avoid_sv1","""event"",""trial"",""time""
""focus"",""0"",""1""
""fullscreenenter"",""1"",""8867""
","
","""event"",""trial"",""time""
""focus"",""0"",""1""
","""event"",""trial"",""time""
""fullscreenenter"",""1"",""8867""
","
","","","","","","null","<div style=""font-size:60px;"">+</div>","null","","fixation","","",""
"memory-trial","221","450594","0.0-18.0-1.88","7075","approach_avoid_sv1","""event"",""trial"",""time""
""focus"",""0"",""1""
""fullscreenenter"",""1"",""8867""
","
","""event"",""trial"",""time""
""focus"",""0"",""1""
","""event"",""trial"",""time""
""fullscreenenter"",""1"",""8867""
","
","","","","","","1206","images/rodent4.png","","","memory_trial","4","definitely_new",""
"html-keyboard-response","222","451113","0.0-18.0-0.89","7075","approach_avoid_sv1","""event"",""trial"",""time""
""focus"",""0"",""1""
""fullscreenenter"",""1"",""8867""
","
","""event"",""trial"",""time""
""focus"",""0"",""1""
","""event"",""trial"",""time""
""fullscreenenter"",""1"",""8867""
","
","","","","","","null","<div style=""font-size:60px;"">+</div>","null","","fixation","","",""
"memory-trial","223","453103","0.0-18.0-1.89","7075","approach_avoid_sv1","""event"",""trial"",""time""
""focus"",""0"",""1""
""fullscreenenter"",""1"",""8867""
","
","""event"",""trial"",""time""
""focus"",""0"",""1""
","""event"",""trial"",""time""
""fullscreenenter"",""1"",""8867""
","
","","","","","","969","images/apple8.png","","","memory_trial","4","definitely_new",""
"html-keyboard-response","224","453623","0.0-18.0-0.90","7075","approach_avoid_sv1","""event"",""trial"",""time""
""focus"",""0"",""1""
""fullscreenenter"",""1"",""8867""
","
","""event"",""trial"",""time""
""focus"",""0"",""1""
","""event"",""trial"",""time""
""fullscreenenter"",""1"",""8867""
","
","","","","","","null","<div style=""font-size:60px;"">+</div>","null","","fixation","","",""
"memory-trial","225","456002","0.0-18.0-1.90","7075","approach_avoid_sv1","""event"",""trial"",""time""
""focus"",""0"",""1""
""fullscreenenter"",""1"",""8867""
","
","""event"",""trial"",""time""
""focus"",""0"",""1""
","""event"",""trial"",""time""
""fullscreenenter"",""1"",""8867""
","
","","","","","","1366","images/plane4.png","","","memory_trial","4","definitely_new",""
"html-keyboard-response","226","456523","0.0-18.0-0.91","7075","approach_avoid_sv1","""event"",""trial"",""time""
""focus"",""0"",""1""
""fullscreenenter"",""1"",""8867""
","
","""event"",""trial"",""time""
""focus"",""0"",""1""
","""event"",""trial"",""time""
""fullscreenenter"",""1"",""8867""
","
","","","","","","null","<div style=""font-size:60px;"">+</div>","null","","fixation","","",""
"memory-trial","227","458533","0.0-18.0-1.91","7075","approach_avoid_sv1","""event"",""trial"",""time""
""focus"",""0"",""1""
""fullscreenenter"",""1"",""8867""
","
","""event"",""trial"",""time""
""focus"",""0"",""1""
","""event"",""trial"",""time""
""fullscreenenter"",""1"",""8867""
","
","","","","","","1001","images/cow8.png","","","memory_trial","4","definitely_new",""
"html-button-response","228","476128","0.0-18.0-2.91-0.91","7075","approach_avoid_sv1","""event"",""trial"",""time""
""focus"",""0"",""1""
""fullscreenenter"",""1"",""8867""
","
","""event"",""trial"",""time""
""focus"",""0"",""1""
","""event"",""trial"",""time""
""fullscreenenter"",""1"",""8867""
","
","","","","","","17595","<p> Take a break! </p><p> Click the button to continue. </p>","0","","break","","",""
"html-keyboard-response","229","476633","0.0-18.0-0.92","7075","approach_avoid_sv1","""event"",""trial"",""time""
""focus"",""0"",""1""
""fullscreenenter"",""1"",""8867""
","
","""event"",""trial"",""time""
""focus"",""0"",""1""
","""event"",""trial"",""time""
""fullscreenenter"",""1"",""8867""
","
","","","","","","null","<div style=""font-size:60px;"">+</div>","null","","fixation","","",""
"memory-trial","230","479293","0.0-18.0-1.92","7075","approach_avoid_sv1","""event"",""trial"",""time""
""focus"",""0"",""1""
""fullscreenenter"",""1"",""8867""
","
","""event"",""trial"",""time""
""focus"",""0"",""1""
","""event"",""trial"",""time""
""fullscreenenter"",""1"",""8867""
","
","","","","","","1641","images/truck3.png","","","memory_trial","1","definitely_old",""
"html-keyboard-response","231","479812","0.0-18.0-0.93","7075","approach_avoid_sv1","""event"",""trial"",""time""
""focus"",""0"",""1""
""fullscreenenter"",""1"",""8867""
","
","""event"",""trial"",""time""
""focus"",""0"",""1""
","""event"",""trial"",""time""
""fullscreenenter"",""1"",""8867""
","
","","","","","","null","<div style=""font-size:60px;"">+</div>","null","","fixation","","",""
"memory-trial","232","482012","0.0-18.0-1.93","7075","approach_avoid_sv1","""event"",""trial"",""time""
""focus"",""0"",""1""
""fullscreenenter"",""1"",""8867""
","
","""event"",""trial"",""time""
""focus"",""0"",""1""
","""event"",""trial"",""time""
""fullscreenenter"",""1"",""8867""
","
","","","","","","1192","images/bush2.png","","","memory_trial","1","definitely_old",""
"html-keyboard-response","233","482532","0.0-18.0-0.94","7075","approach_avoid_sv1","""event"",""trial"",""time""
""focus"",""0"",""1""
""fullscreenenter"",""1"",""8867""
","
","""event"",""trial"",""time""
""focus"",""0"",""1""
","""event"",""trial"",""time""
""fullscreenenter"",""1"",""8867""
","
","","","","","","null","<div style=""font-size:60px;"">+</div>","null","","fixation","","",""
"memory-trial","234","484253","0.0-18.0-1.94","7075","approach_avoid_sv1","""event"",""trial"",""time""
""focus"",""0"",""1""
""fullscreenenter"",""1"",""8867""
","
","""event"",""trial"",""time""
""focus"",""0"",""1""
","""event"",""trial"",""time""
""fullscreenenter"",""1"",""8867""
","
","","","","","","719","images/boat1.png","","","memory_trial","1","definitely_old",""
"html-keyboard-response","235","484772","0.0-18.0-0.95","7075","approach_avoid_sv1","""event"",""trial"",""time""
""focus"",""0"",""1""
""fullscreenenter"",""1"",""8867""
","
","""event"",""trial"",""time""
""focus"",""0"",""1""
","""event"",""trial"",""time""
""fullscreenenter"",""1"",""8867""
","
","","","","","","null","<div style=""font-size:60px;"">+</div>","null","","fixation","","",""
"memory-trial","236","487192","0.0-18.0-1.95","7075","approach_avoid_sv1","""event"",""trial"",""time""
""focus"",""0"",""1""
""fullscreenenter"",""1"",""8867""
","
","""event"",""trial"",""time""
""focus"",""0"",""1""
","""event"",""trial"",""time""
""fullscreenenter"",""1"",""8867""
","
","","","","","","1398","images/orange5.png","","","memory_trial","1","definitely_old",""
"html-keyboard-response","237","487712","0.0-18.0-0.96","7075","approach_avoid_sv1","""event"",""trial"",""time""
""focus"",""0"",""1""
""fullscreenenter"",""1"",""8867""
","
","""event"",""trial"",""time""
""focus"",""0"",""1""
","""event"",""trial"",""time""
""fullscreenenter"",""1"",""8867""
","
","","","","","","null","<div style=""font-size:60px;"">+</div>","null","","fixation","","",""
"memory-trial","238","489412","0.0-18.0-1.96","7075","approach_avoid_sv1","""event"",""trial"",""time""
""focus"",""0"",""1""
""fullscreenenter"",""1"",""8867""
","
","""event"",""trial"",""time""
""focus"",""0"",""1""
","""event"",""trial"",""time""
""fullscreenenter"",""1"",""8867""
","
","","","","","","684","images/train6.png","","","memory_trial","1","definitely_old",""
"html-keyboard-response","239","489932","0.0-18.0-0.97","7075","approach_avoid_sv1","""event"",""trial"",""time""
""focus"",""0"",""1""
""fullscreenenter"",""1"",""8867""
","
","""event"",""trial"",""time""
""focus"",""0"",""1""
","""event"",""trial"",""time""
""fullscreenenter"",""1"",""8867""
","
","","","","","","null","<div style=""font-size:60px;"">+</div>","null","","fixation","","",""
"memory-trial","240","492193","0.0-18.0-1.97","7075","approach_avoid_sv1","""event"",""trial"",""time""
""focus"",""0"",""1""
""fullscreenenter"",""1"",""8867""
","
","""event"",""trial"",""time""
""focus"",""0"",""1""
","""event"",""trial"",""time""
""fullscreenenter"",""1"",""8867""
","
","","","","","","1244","images/plane1.png","","","memory_trial","4","definitely_new",""
"html-keyboard-response","241","492702","0.0-18.0-0.98","7075","approach_avoid_sv1","""event"",""trial"",""time""
""focus"",""0"",""1""
""fullscreenenter"",""1"",""8867""
","
","""event"",""trial"",""time""
""focus"",""0"",""1""
","""event"",""trial"",""time""
""fullscreenenter"",""1"",""8867""
","
","","","","","","null","<div style=""font-size:60px;"">+</div>","null","","fixation","","",""
"memory-trial","242","494822","0.0-18.0-1.98","7075","approach_avoid_sv1","""event"",""trial"",""time""
""focus"",""0"",""1""
""fullscreenenter"",""1"",""8867""
","
","""event"",""trial"",""time""
""focus"",""0"",""1""
","""event"",""trial"",""time""
""fullscreenenter"",""1"",""8867""
","
","","","","","","1098","images/orange4.png","","","memory_trial","4","definitely_new",""
"html-keyboard-response","243","495342","0.0-18.0-0.99","7075","approach_avoid_sv1","""event"",""trial"",""time""
""focus"",""0"",""1""
""fullscreenenter"",""1"",""8867""
","
","""event"",""trial"",""time""
""focus"",""0"",""1""
","""event"",""trial"",""time""
""fullscreenenter"",""1"",""8867""
","
","","","","","","null","<div style=""font-size:60px;"">+</div>","null","","fixation","","",""
"memory-trial","244","497172","0.0-18.0-1.99","7075","approach_avoid_sv1","""event"",""trial"",""time""
""focus"",""0"",""1""
""fullscreenenter"",""1"",""8867""
","
","""event"",""trial"",""time""
""focus"",""0"",""1""
","""event"",""trial"",""time""
""fullscreenenter"",""1"",""8867""
","
","","","","","","823","images/dog2.png","","","memory_trial","4","definitely_new",""
"html-keyboard-response","245","497692","0.0-18.0-0.100","7075","approach_avoid_sv1","""event"",""trial"",""time""
""focus"",""0"",""1""
""fullscreenenter"",""1"",""8867""
","
","""event"",""trial"",""time""
""focus"",""0"",""1""
","""event"",""trial"",""time""
""fullscreenenter"",""1"",""8867""
","
","","","","","","null","<div style=""font-size:60px;"">+</div>","null","","fixation","","",""
