"trial_type","trial_index","time_elapsed","internal_node_id","subject_id","task_version","interactions","blur_events","focus_events","fullscreenenter_events","fullscreenexit_events","success","timeout","failed_images","failed_audio","failed_video","rt","stimulus","response","button_pressed","task_part","key_press","answer","correct"
"pavlovia","0","2","0.0-0.0","4585","approach_avoid_sv1","""event"",""trial"",""time""
""fullscreenenter"",""1"",""3981""
","
","
","""event"",""trial"",""time""
""fullscreenenter"",""1"",""3981""
","
","","","","","","","","","","","","",""
"fullscreen","1","4970","0.0-1.0","4585","approach_avoid_sv1","""event"",""trial"",""time""
""fullscreenenter"",""1"",""3981""
","
","
","""event"",""trial"",""time""
""fullscreenenter"",""1"",""3981""
","
","true","","","","","","","","","","","",""
"preload","2","6727","0.0-2.0","4585","approach_avoid_sv1","""event"",""trial"",""time""
""fullscreenenter"",""1"",""3981""
","
","
","""event"",""trial"",""time""
""fullscreenenter"",""1"",""3981""
","
","true","false","[]","[]","[]","","","","","","","",""
"preload","3","7661","0.0-3.0","4585","approach_avoid_sv1","""event"",""trial"",""time""
""fullscreenenter"",""1"",""3981""
","
","
","""event"",""trial"",""time""
""fullscreenenter"",""1"",""3981""
","
","true","false","[]","[]","[]","","","","","","","",""
"preload","4","7953","0.0-4.0","4585","approach_avoid_sv1","""event"",""trial"",""time""
""fullscreenenter"",""1"",""3981""
","
","
","""event"",""trial"",""time""
""fullscreenenter"",""1"",""3981""
","
","true","false","[]","[]","[]","","","","","","","",""
"audio-keyboard-response","5","11697","0.0-5.0","4585","approach_avoid_sv1","""event"",""trial"",""time""
""fullscreenenter"",""1"",""3981""
","
","
","""event"",""trial"",""time""
""fullscreenenter"",""1"",""3981""
","
","","","","","","3749.3333333333326","audio/beep_loop.wav"," ","","","","",""
"audio-button-response","6","13144","0.0-6.0","4585","approach_avoid_sv1","""event"",""trial"",""time""
""fullscreenenter"",""1"",""3981""
","
","
","""event"",""trial"",""time""
""fullscreenenter"",""1"",""3981""
","
","","","","","","1440","audio/turtle.wav","3","","","","",""
"audio-button-response","7","15178","0.0-7.0","4585","approach_avoid_sv1","""event"",""trial"",""time""
""fullscreenenter"",""1"",""3981""
","
","
","""event"",""trial"",""time""
""fullscreenenter"",""1"",""3981""
","
","","","","","","1029","audio/shark.wav","2","","","","",""
"preload","8","18130","0.0-8.0","4585","approach_avoid_sv1","""event"",""trial"",""time""
""fullscreenenter"",""1"",""3981""
","
","
","""event"",""trial"",""time""
""fullscreenenter"",""1"",""3981""
","
","true","false","[]","[]","[]","","","","","","","",""
"learning-instructions","9","23976","0.0-9.0-0.0","4585","approach_avoid_sv1","""event"",""trial"",""time""
""fullscreenenter"",""1"",""3981""
","
","
","""event"",""trial"",""time""
""fullscreenenter"",""1"",""3981""
","
","","","","","","1370.8999999910593","<p> Welcome back! </p><p> Last week, you had to make choices about lots of different items.  </p>","","0","instructions","","",""
"learning-instructions","10","28751","0.0-9.0-0.1","4585","approach_avoid_sv1","""event"",""trial"",""time""
""fullscreenenter"",""1"",""3981""
","
","
","""event"",""trial"",""time""
""fullscreenenter"",""1"",""3981""
","
","","","","","","666.1000000089407","<p> Today, we are going to ask you to try to remember all the items. </p>","","0","instructions","","",""
"learning-instructions","11","72532","0.0-9.0-0.2","4585","approach_avoid_sv1","""event"",""trial"",""time""
""fullscreenenter"",""1"",""3981""
","
","
","""event"",""trial"",""time""
""fullscreenenter"",""1"",""3981""
","
","","","","","","33647.20000000298","<p> On every trial, you will see an image. </p><p> The image may be an OLD image you saw during the games last week or it may be a NEW image that was not presented. </p>","","0","instructions","","",""
"learning-instructions","12","81771","0.0-9.0-0.3","4585","approach_avoid_sv1","""event"",""trial"",""time""
""fullscreenenter"",""1"",""3981""
","
","
","""event"",""trial"",""time""
""fullscreenenter"",""1"",""3981""
","
","","","","","","763.2999999970198","<p> You need to select whether the image is:  </p><p>  'Definitely old', 'Maybe old', 'Maybe new', or 'Definitely new.'  </p><div class=""mem-choice-instructions-grid""><div class=""choice-option"" id=""choice-option-1"" ><img src=""images/definitely_old_1.png"" id=""choice-option-img-1"" class=""choice-option-img"" stage=""1""></div><div class=""choice-option"" id=""choice-option-2"" ><img src=""images/maybe_old_1.png"" id=""choice-option-img-2"" class=""choice-option-img"" stage=""1""></div><div class=""choice-option"" id=""choice-option-3"" ><img src=""images/maybe_new_1.png"" id=""choice-option-img-3"" class=""choice-option-img"" stage=""1""></div><div class=""choice-option"" id=""choice-option-4"" > <img src=""images/definitely_new_1.png"" id=""choice-option-img-4"" class=""choice-option-img"" stage=""1""></div></div>","","0","instructions","","",""
"learning-instructions","13","90125","0.0-9.0-0.4","4585","approach_avoid_sv1","""event"",""trial"",""time""
""fullscreenenter"",""1"",""3981""
","
","
","""event"",""trial"",""time""
""fullscreenenter"",""1"",""3981""
","
","","","","","","1847.2000000029802","<p> You should use the 1, 2, 3, and 4 keys to make your responses.  </p><div class=""mem-choice-instructions-grid""><div class=""choice-option"" id=""choice-option-1"" ><img src=""images/definitely_old.png"" id=""choice-option-img-1"" class=""choice-option-img"" stage=""1""></div><div class=""choice-option"" id=""choice-option-2"" ><img src=""images/maybe_old.png"" id=""choice-option-img-2"" class=""choice-option-img"" stage=""1""></div><div class=""choice-option"" id=""choice-option-3"" ><img src=""images/maybe_new.png"" id=""choice-option-img-3"" class=""choice-option-img"" stage=""1""></div><div class=""choice-option"" id=""choice-option-4"" > <img src=""images/definitely_new.png"" id=""choice-option-img-4"" class=""choice-option-img"" stage=""1""></div></div>","","0","instructions","","",""
"learning-instructions","14","96960","0.0-9.0-0.5","4585","approach_avoid_sv1","""event"",""trial"",""time""
""fullscreenenter"",""1"",""3981""
","
","
","""event"",""trial"",""time""
""fullscreenenter"",""1"",""3981""
","
","","","","","","502.6000000089407","<p> You will have 10 seconds to make each response.  </p><p>  Make sure to respond before time runs out! </p>","","0","instructions","","",""
"learning-instructions","15","105625","0.0-9.0-0.6","4585","approach_avoid_sv1","""event"",""trial"",""time""
""fullscreenenter"",""1"",""3981""
","
","
","""event"",""trial"",""time""
""fullscreenenter"",""1"",""3981""
","
","","","","","","1588.2000000029802","<p> Today, you will see each image ONCE only.  </p><p>  That means none of the images will repeat. </p>","","0","instructions","","",""
"learning-instructions","16","118663","0.0-9.0-0.7","4585","approach_avoid_sv1","""event"",""trial"",""time""
""fullscreenenter"",""1"",""3981""
","
","
","""event"",""trial"",""time""
""fullscreenenter"",""1"",""3981""
","
","","","","","","365.70000000298023","<p> Before you play the real game, it is time to practice. </p><p>  Just like in the real game, some of the images in the practice will be ones you have seen before. </p><p>  Others will be entirely new. </p>","","0","instructions","","",""
"html-button-response","17","121787","0.0-10.0","4585","approach_avoid_sv1","""event"",""trial"",""time""
""fullscreenenter"",""1"",""3981""
","
","
","""event"",""trial"",""time""
""fullscreenenter"",""1"",""3981""
","
","","","","","","3016.8999999910593","<p> Ready to practice? </p><p> Remember, use the 1, 2, 3, and 4 keys to make your responses. </p>","0","","instructions","","",""
"html-keyboard-response","18","122394","0.0-11.0-0.0","4585","approach_avoid_sv1","""event"",""trial"",""time""
""fullscreenenter"",""1"",""3981""
","
","
","""event"",""trial"",""time""
""fullscreenenter"",""1"",""3981""
","
","","","","","","null","<div style=""font-size:60px;"">+</div>","null","","fixation","","",""
"memory-trial","19","127122","0.0-11.0-1.0","4585","approach_avoid_sv1","""event"",""trial"",""time""
""fullscreenenter"",""1"",""3981""
","
","
","""event"",""trial"",""time""
""fullscreenenter"",""1"",""3981""
","
","","","","","","3725.5","images/ball3.png","","","practice","4","definitely_new",""
"html-keyboard-response","20","127627","0.0-11.0-0.1","4585","approach_avoid_sv1","""event"",""trial"",""time""
""fullscreenenter"",""1"",""3981""
","
","
","""event"",""trial"",""time""
""fullscreenenter"",""1"",""3981""
","
","","","","","","null","<div style=""font-size:60px;"">+</div>","null","","fixation","","",""
"memory-trial","21","132947","0.0-11.0-1.1","4585","approach_avoid_sv1","""event"",""trial"",""time""
""fullscreenenter"",""1"",""3981""
","
","
","""event"",""trial"",""time""
""fullscreenenter"",""1"",""3981""
","
","","","","","","4311.0999999940395","images/ball2.png","","","practice","1","definitely_old",""
"html-keyboard-response","22","133450","0.0-11.0-0.2","4585","approach_avoid_sv1","""event"",""trial"",""time""
""fullscreenenter"",""1"",""3981""
","
","
","""event"",""trial"",""time""
""fullscreenenter"",""1"",""3981""
","
","","","","","","null","<div style=""font-size:60px;"">+</div>","null","","fixation","","",""
"memory-trial","23","136906","0.0-11.0-1.2","4585","approach_avoid_sv1","""event"",""trial"",""time""
""fullscreenenter"",""1"",""3981""
","
","
","""event"",""trial"",""time""
""fullscreenenter"",""1"",""3981""
","
","","","","","","2452.1000000089407","images/racket5.png","","","practice","3","maybe_new",""
"html-keyboard-response","24","137410","0.0-11.0-0.3","4585","approach_avoid_sv1","""event"",""trial"",""time""
""fullscreenenter"",""1"",""3981""
","
","
","""event"",""trial"",""time""
""fullscreenenter"",""1"",""3981""
","
","","","","","","null","<div style=""font-size:60px;"">+</div>","null","","fixation","","",""
"memory-trial","25","140402","0.0-11.0-1.3","4585","approach_avoid_sv1","""event"",""trial"",""time""
""fullscreenenter"",""1"",""3981""
","
","
","""event"",""trial"",""time""
""fullscreenenter"",""1"",""3981""
","
","","","","","","1989.5","images/racket3.png","","","practice","1","definitely_old",""
"html-keyboard-response","26","140907","0.0-11.0-0.4","4585","approach_avoid_sv1","""event"",""trial"",""time""
""fullscreenenter"",""1"",""3981""
","
","
","""event"",""trial"",""time""
""fullscreenenter"",""1"",""3981""
","
","","","","","","null","<div style=""font-size:60px;"">+</div>","null","","fixation","","",""
"memory-trial","27","144386","0.0-11.0-1.4","4585","approach_avoid_sv1","""event"",""trial"",""time""
""fullscreenenter"",""1"",""3981""
","
","
","""event"",""trial"",""time""
""fullscreenenter"",""1"",""3981""
","
","","","","","","2475.2000000029802","images/racket2.png","","","practice","4","definitely_new",""
"html-keyboard-response","28","144890","0.0-11.0-0.5","4585","approach_avoid_sv1","""event"",""trial"",""time""
""fullscreenenter"",""1"",""3981""
","
","
","""event"",""trial"",""time""
""fullscreenenter"",""1"",""3981""
","
","","","","","","null","<div style=""font-size:60px;"">+</div>","null","","fixation","","",""
"memory-trial","29","147306","0.0-11.0-1.5","4585","approach_avoid_sv1","""event"",""trial"",""time""
""fullscreenenter"",""1"",""3981""
","
","
","""event"",""trial"",""time""
""fullscreenenter"",""1"",""3981""
","
","","","","","","1407.2000000029802","images/ball1.png","","","practice","3","maybe_new",""
"html-keyboard-response","30","147810","0.0-11.0-0.6","4585","approach_avoid_sv1","""event"",""trial"",""time""
""fullscreenenter"",""1"",""3981""
","
","
","""event"",""trial"",""time""
""fullscreenenter"",""1"",""3981""
","
","","","","","","null","<div style=""font-size:60px;"">+</div>","null","","fixation","","",""
"memory-trial","31","150131","0.0-11.0-1.6","4585","approach_avoid_sv1","""event"",""trial"",""time""
""fullscreenenter"",""1"",""3981""
","
","
","""event"",""trial"",""time""
""fullscreenenter"",""1"",""3981""
","
","","","","","","1318.2000000029802","images/racket1.png","","","practice","2","maybe_old",""
"html-keyboard-response","32","150634","0.0-11.0-0.7","4585","approach_avoid_sv1","""event"",""trial"",""time""
""fullscreenenter"",""1"",""3981""
","
","
","""event"",""trial"",""time""
""fullscreenenter"",""1"",""3981""
","
","","","","","","null","<div style=""font-size:60px;"">+</div>","null","","fixation","","",""
"memory-trial","33","153291","0.0-11.0-1.7","4585","approach_avoid_sv1","""event"",""trial"",""time""
""fullscreenenter"",""1"",""3981""
","
","
","""event"",""trial"",""time""
""fullscreenenter"",""1"",""3981""
","
","","","","","","1648.5","images/ball5.png","","","practice","4","definitely_new",""
"learning-instructions","34","161801","0.0-12.0-0.0","4585","approach_avoid_sv1","""event"",""trial"",""time""
""fullscreenenter"",""1"",""3981""
","
","
","""event"",""trial"",""time""
""fullscreenenter"",""1"",""3981""
","
","","","","","","1176","<p> Great! You have completed the practice. </p><p> Before you start, we're going to ask you a few questions about how the game works.  </p>","","0","instructions","","",""
"preload","35","164294","0.0-13.0","4585","approach_avoid_sv1","""event"",""trial"",""time""
""fullscreenenter"",""1"",""3981""
","
","
","""event"",""trial"",""time""
""fullscreenenter"",""1"",""3981""
","
","true","false","[]","[]","[]","","","","","","","",""
"comp-q","36","171322","0.0-14.0-0.0","4585","approach_avoid_sv1","""event"",""trial"",""time""
""fullscreenenter"",""1"",""3981""
","
","
","""event"",""trial"",""time""
""fullscreenenter"",""1"",""3981""
","
","","","","","","1206.2000000029802","<p> <b> True or False? </b> </p><p> In this game, you will only see each image once. </p>","","0","comp_question","","","true"
"comp-q","37","178747","0.0-14.0-1.0","4585","approach_avoid_sv1","""event"",""trial"",""time""
""fullscreenenter"",""1"",""3981""
","
","
","""event"",""trial"",""time""
""fullscreenenter"",""1"",""3981""
","
","","","","","","1081","<p> <b> That's right! </b> You will see many different images <i> one time each </i> in this game. </p>","","0","comp_answer","","",""
"comp-q","38","185640","0.0-15.0-0.0","4585","approach_avoid_sv1","""event"",""trial"",""time""
""fullscreenenter"",""1"",""3981""
","
","
","""event"",""trial"",""time""
""fullscreenenter"",""1"",""3981""
","
","","","","","","1894","<p> <b> True or False? </b> </p><p> You should use the mouse and click to make your response. </p>","","0","comp_question","","","false"
"comp-q","39","193169","0.0-15.0-1.0","4585","approach_avoid_sv1","""event"",""trial"",""time""
""fullscreenenter"",""1"",""3981""
","
","
","""event"",""trial"",""time""
""fullscreenenter"",""1"",""3981""
","
","","","","","","982.6000000089407","<p><b> Incorrect. </b> You should use the '1', '2', '3', and '4' keys to make your response. </p>","","0","comp_answer","","",""
"comp-q","40","198677","0.0-15.1-0.1","4585","approach_avoid_sv1","""event"",""trial"",""time""
""fullscreenenter"",""1"",""3981""
","
","
","""event"",""trial"",""time""
""fullscreenenter"",""1"",""3981""
","
","","","","","","501.70000000298023","<p> <b> True or False? </b> </p><p> You should use the mouse and click to make your response. </p>","","1","comp_question","","","true"
"comp-q","41","229421","0.0-15.1-1.1","4585","approach_avoid_sv1","""event"",""trial"",""time""
""fullscreenenter"",""1"",""3981""
","
","
","""event"",""trial"",""time""
""fullscreenenter"",""1"",""3981""
","
","","","","","","24245.40000000596","<p><b> That's right! </b> You should use the '1', '2', '3', and '4' keys to make your response. </p>","","0","comp_answer","","",""
"comp-q","42","235605","0.0-16.0-0.0","4585","approach_avoid_sv1","""event"",""trial"",""time""
""fullscreenenter"",""1"",""3981""
","
","
","""event"",""trial"",""time""
""fullscreenenter"",""1"",""3981""
","
","","","","","","518.7999999970198","<p> <b> True or False? </b> </p><p> You will have as much time as you want to make each choice. </p>","","1","comp_question","","","true"
"comp-q","43","244084","0.0-16.0-1.0","4585","approach_avoid_sv1","""event"",""trial"",""time""
""fullscreenenter"",""1"",""3981""
","
","
","""event"",""trial"",""time""
""fullscreenenter"",""1"",""3981""
","
","","","","","","3778.0999999940395","<p> <b> That's right! </b> You will only have 10 seconds to make each choice. </p>","","0","comp_answer","","",""
"learning-instructions","44","276510","0.0-17.0","4585","approach_avoid_sv1","""event"",""trial"",""time""
""fullscreenenter"",""1"",""3981""
","
","
","""event"",""trial"",""time""
""fullscreenenter"",""1"",""3981""
","
","","","","","","23753.90000000596","<p> Great! You are now ready to begin the game. </p><p> Remember, use the 1, 2, 3, and 4 keys to make your responses. </p>","","0","instructions","","",""
"html-keyboard-response","45","277122","0.0-18.0-0.0","4585","approach_avoid_sv1","""event"",""trial"",""time""
""fullscreenenter"",""1"",""3981""
","
","
","""event"",""trial"",""time""
""fullscreenenter"",""1"",""3981""
","
","","","","","","null","<div style=""font-size:60px;"">+</div>","null","","fixation","","",""
"memory-trial","46","280146","0.0-18.0-1.0","4585","approach_avoid_sv1","""event"",""trial"",""time""
""fullscreenenter"",""1"",""3981""
","
","
","""event"",""trial"",""time""
""fullscreenenter"",""1"",""3981""
","
","","","","","","2016.7000000029802","images/tree5.png","","","memory_trial","4","definitely_new",""
"html-keyboard-response","47","280651","0.0-18.0-0.1","4585","approach_avoid_sv1","""event"",""trial"",""time""
""fullscreenenter"",""1"",""3981""
""fullscreenexit"",""48"",""282056""
","
","
","""event"",""trial"",""time""
""fullscreenenter"",""1"",""3981""
","""event"",""trial"",""time""
""fullscreenexit"",""48"",""282056""
","","","","","","null","<div style=""font-size:60px;"">+</div>","null","","fixation","","",""
"memory-trial","48","283026","0.0-18.0-1.1","4585","approach_avoid_sv1","""event"",""trial"",""time""
""fullscreenenter"",""1"",""3981""
""fullscreenexit"",""48"",""282056""
","
","
","""event"",""trial"",""time""
""fullscreenenter"",""1"",""3981""
","""event"",""trial"",""time""
""fullscreenexit"",""48"",""282056""
","","","","","","1372.7999999970198","images/bed8.png","","","memory_trial","1","definitely_old",""
"html-keyboard-response","49","283530","0.0-18.0-0.2","4585","approach_avoid_sv1","""event"",""trial"",""time""
""fullscreenenter"",""1"",""3981""
""fullscreenexit"",""48"",""282056""
","
","
","""event"",""trial"",""time""
""fullscreenenter"",""1"",""3981""
","""event"",""trial"",""time""
""fullscreenexit"",""48"",""282056""
","","","","","","null","<div style=""font-size:60px;"">+</div>","null","","fixation","","",""
"memory-trial","50","286706","0.0-18.0-1.2","4585","approach_avoid_sv1","""event"",""trial"",""time""
""fullscreenenter"",""1"",""3981""
""fullscreenexit"",""48"",""282056""
","
","
","""event"",""trial"",""time""
""fullscreenenter"",""1"",""3981""
","""event"",""trial"",""time""
""fullscreenexit"",""48"",""282056""
","","","","","","2167.800000011921","images/goat6.png","","","memory_trial","3","maybe_new",""
"html-keyboard-response","51","287210","0.0-18.0-0.3","4585","approach_avoid_sv1","""event"",""trial"",""time""
""fullscreenenter"",""1"",""3981""
""fullscreenexit"",""48"",""282056""
","
","
","""event"",""trial"",""time""
""fullscreenenter"",""1"",""3981""
","""event"",""trial"",""time""
""fullscreenexit"",""48"",""282056""
","","","","","","null","<div style=""font-size:60px;"">+</div>","null","","fixation","","",""
"memory-trial","52","291106","0.0-18.0-1.3","4585","approach_avoid_sv1","""event"",""trial"",""time""
""fullscreenenter"",""1"",""3981""
""fullscreenexit"",""48"",""282056""
","
","
","""event"",""trial"",""time""
""fullscreenenter"",""1"",""3981""
","""event"",""trial"",""time""
""fullscreenexit"",""48"",""282056""
","","","","","","2888.7000000029802","images/cat3.png","","","memory_trial","1","definitely_old",""
"html-keyboard-response","53","291610","0.0-18.0-0.4","4585","approach_avoid_sv1","""event"",""trial"",""time""
""fullscreenenter"",""1"",""3981""
""fullscreenexit"",""48"",""282056""
","
","
","""event"",""trial"",""time""
""fullscreenenter"",""1"",""3981""
","""event"",""trial"",""time""
""fullscreenexit"",""48"",""282056""
","","","","","","null","<div style=""font-size:60px;"">+</div>","null","","fixation","","",""
"memory-trial","54","294547","0.0-18.0-1.4","4585","approach_avoid_sv1","""event"",""trial"",""time""
""fullscreenenter"",""1"",""3981""
""fullscreenexit"",""48"",""282056""
","
","
","""event"",""trial"",""time""
""fullscreenenter"",""1"",""3981""
","""event"",""trial"",""time""
""fullscreenexit"",""48"",""282056""
","","","","","","1928.4000000059605","images/sofa2.png","","","memory_trial","4","definitely_new",""
"html-keyboard-response","55","295050","0.0-18.0-0.5","4585","approach_avoid_sv1","""event"",""trial"",""time""
""fullscreenenter"",""1"",""3981""
""fullscreenexit"",""48"",""282056""
","
","
","""event"",""trial"",""time""
""fullscreenenter"",""1"",""3981""
","""event"",""trial"",""time""
""fullscreenexit"",""48"",""282056""
","","","","","","null","<div style=""font-size:60px;"">+</div>","null","","fixation","","",""
"memory-trial","56","298074","0.0-18.0-1.5","4585","approach_avoid_sv1","""event"",""trial"",""time""
""fullscreenenter"",""1"",""3981""
""fullscreenexit"",""48"",""282056""
","
","
","""event"",""trial"",""time""
""fullscreenenter"",""1"",""3981""
","""event"",""trial"",""time""
""fullscreenexit"",""48"",""282056""
","","","","","","2020.2999999970198","images/orange7.png","","","memory_trial","3","maybe_new",""
"html-keyboard-response","57","298578","0.0-18.0-0.6","4585","approach_avoid_sv1","""event"",""trial"",""time""
""fullscreenenter"",""1"",""3981""
""fullscreenexit"",""48"",""282056""
","
","
","""event"",""trial"",""time""
""fullscreenenter"",""1"",""3981""
","""event"",""trial"",""time""
""fullscreenexit"",""48"",""282056""
","","","","","","null","<div style=""font-size:60px;"">+</div>","null","","fixation","","",""
"memory-trial","58","301682","0.0-18.0-1.6","4585","approach_avoid_sv1","""event"",""trial"",""time""
""fullscreenenter"",""1"",""3981""
""fullscreenexit"",""48"",""282056""
","
","
","""event"",""trial"",""time""
""fullscreenenter"",""1"",""3981""
","""event"",""trial"",""time""
""fullscreenexit"",""48"",""282056""
","","","","","","2094.699999988079","images/horse4.png","","","memory_trial","4","definitely_new",""
"html-keyboard-response","59","302186","0.0-18.0-0.7","4585","approach_avoid_sv1","""event"",""trial"",""time""
""fullscreenenter"",""1"",""3981""
""fullscreenexit"",""48"",""282056""
","
","
","""event"",""trial"",""time""
""fullscreenenter"",""1"",""3981""
","""event"",""trial"",""time""
""fullscreenexit"",""48"",""282056""
","","","","","","null","<div style=""font-size:60px;"">+</div>","null","","fixation","","",""
"memory-trial","60","305786","0.0-18.0-1.7","4585","approach_avoid_sv1","""event"",""trial"",""time""
""fullscreenenter"",""1"",""3981""
""fullscreenexit"",""48"",""282056""
","
","
","""event"",""trial"",""time""
""fullscreenenter"",""1"",""3981""
","""event"",""trial"",""time""
""fullscreenexit"",""48"",""282056""
","","","","","","2591.5","images/train5.png","","","memory_trial","3","maybe_new",""
"html-keyboard-response","61","306290","0.0-18.0-0.8","4585","approach_avoid_sv1","""event"",""trial"",""time""
""fullscreenenter"",""1"",""3981""
""fullscreenexit"",""48"",""282056""
","
","
","""event"",""trial"",""time""
""fullscreenenter"",""1"",""3981""
","""event"",""trial"",""time""
""fullscreenexit"",""48"",""282056""
","","","","","","null","<div style=""font-size:60px;"">+</div>","null","","fixation","","",""
"memory-trial","62","308883","0.0-18.0-1.8","4585","approach_avoid_sv1","""event"",""trial"",""time""
""fullscreenenter"",""1"",""3981""
""fullscreenexit"",""48"",""282056""
","
","
","""event"",""trial"",""time""
""fullscreenenter"",""1"",""3981""
","""event"",""trial"",""time""
""fullscreenexit"",""48"",""282056""
","","","","","","1588","images/cow1.png","","","memory_trial","4","definitely_new",""
"html-keyboard-response","63","309386","0.0-18.0-0.9","4585","approach_avoid_sv1","""event"",""trial"",""time""
""fullscreenenter"",""1"",""3981""
""fullscreenexit"",""48"",""282056""
","
","
","""event"",""trial"",""time""
""fullscreenenter"",""1"",""3981""
","""event"",""trial"",""time""
""fullscreenexit"",""48"",""282056""
","","","","","","null","<div style=""font-size:60px;"">+</div>","null","","fixation","","",""
"memory-trial","64","313457","0.0-18.0-1.9","4585","approach_avoid_sv1","""event"",""trial"",""time""
""fullscreenenter"",""1"",""3981""
""fullscreenexit"",""48"",""282056""
","
","
","""event"",""trial"",""time""
""fullscreenenter"",""1"",""3981""
","""event"",""trial"",""time""
""fullscreenexit"",""48"",""282056""
","","","","","","3069.0999999940395","images/chair7.png","","","memory_trial","4","definitely_new",""
"html-keyboard-response","65","313963","0.0-18.0-0.10","4585","approach_avoid_sv1","""event"",""trial"",""time""
""fullscreenenter"",""1"",""3981""
""fullscreenexit"",""48"",""282056""
","
","
","""event"",""trial"",""time""
""fullscreenenter"",""1"",""3981""
","""event"",""trial"",""time""
""fullscreenexit"",""48"",""282056""
","","","","","","null","<div style=""font-size:60px;"">+</div>","null","","fixation","","",""
"memory-trial","66","315098","0.0-18.0-1.10","4585","approach_avoid_sv1","""event"",""trial"",""time""
""fullscreenenter"",""1"",""3981""
""fullscreenexit"",""48"",""282056""
","
","
","""event"",""trial"",""time""
""fullscreenenter"",""1"",""3981""
","""event"",""trial"",""time""
""fullscreenexit"",""48"",""282056""
","","","","","","131.20000000298023","images/banana5.png","","","memory_trial","4","definitely_new",""
"html-keyboard-response","67","315603","0.0-18.0-0.11","4585","approach_avoid_sv1","""event"",""trial"",""time""
""fullscreenenter"",""1"",""3981""
""fullscreenexit"",""48"",""282056""
","
","
","""event"",""trial"",""time""
""fullscreenenter"",""1"",""3981""
","""event"",""trial"",""time""
""fullscreenexit"",""48"",""282056""
","","","","","","null","<div style=""font-size:60px;"">+</div>","null","","fixation","","",""
"memory-trial","68","317658","0.0-18.0-1.11","4585","approach_avoid_sv1","""event"",""trial"",""time""
""fullscreenenter"",""1"",""3981""
""fullscreenexit"",""48"",""282056""
","
","
","""event"",""trial"",""time""
""fullscreenenter"",""1"",""3981""
","""event"",""trial"",""time""
""fullscreenexit"",""48"",""282056""
","","","","","","1052.2999999970198","images/cow3.png","","","memory_trial","4","definitely_new",""
"html-keyboard-response","69","318162","0.0-18.0-0.12","4585","approach_avoid_sv1","""event"",""trial"",""time""
""fullscreenenter"",""1"",""3981""
""fullscreenexit"",""48"",""282056""
","
","
","""event"",""trial"",""time""
""fullscreenenter"",""1"",""3981""
","""event"",""trial"",""time""
""fullscreenexit"",""48"",""282056""
","","","","","","null","<div style=""font-size:60px;"">+</div>","null","","fixation","","",""
"memory-trial","70","320434","0.0-18.0-1.12","4585","approach_avoid_sv1","""event"",""trial"",""time""
""fullscreenenter"",""1"",""3981""
""fullscreenexit"",""48"",""282056""
","
","
","""event"",""trial"",""time""
""fullscreenenter"",""1"",""3981""
","""event"",""trial"",""time""
""fullscreenexit"",""48"",""282056""
","","","","","","1264.8999999910593","images/table8.png","","","memory_trial","1","definitely_old",""
"html-keyboard-response","71","320938","0.0-18.0-0.13","4585","approach_avoid_sv1","""event"",""trial"",""time""
""fullscreenenter"",""1"",""3981""
""fullscreenexit"",""48"",""282056""
","
","
","""event"",""trial"",""time""
""fullscreenenter"",""1"",""3981""
","""event"",""trial"",""time""
""fullscreenexit"",""48"",""282056""
","","","","","","null","<div style=""font-size:60px;"">+</div>","null","","fixation","","",""
"memory-trial","72","323714","0.0-18.0-1.13","4585","approach_avoid_sv1","""event"",""trial"",""time""
""fullscreenenter"",""1"",""3981""
""fullscreenexit"",""48"",""282056""
","
","
","""event"",""trial"",""time""
""fullscreenenter"",""1"",""3981""
","""event"",""trial"",""time""
""fullscreenexit"",""48"",""282056""
","","","","","","1770.5999999940395","images/boat5.png","","","memory_trial","1","definitely_old",""
"html-keyboard-response","73","324218","0.0-18.0-0.14","4585","approach_avoid_sv1","""event"",""trial"",""time""
""fullscreenenter"",""1"",""3981""
""fullscreenexit"",""48"",""282056""
","
","
","""event"",""trial"",""time""
""fullscreenenter"",""1"",""3981""
","""event"",""trial"",""time""
""fullscreenexit"",""48"",""282056""
","","","","","","null","<div style=""font-size:60px;"">+</div>","null","","fixation","","",""
"memory-trial","74","327970","0.0-18.0-1.14","4585","approach_avoid_sv1","""event"",""trial"",""time""
""fullscreenenter"",""1"",""3981""
""fullscreenexit"",""48"",""282056""
","
","
","""event"",""trial"",""time""
""fullscreenenter"",""1"",""3981""
","""event"",""trial"",""time""
""fullscreenexit"",""48"",""282056""
","","","","","","2743.0999999940395","images/orange6.png","","","memory_trial","2","maybe_old",""
"html-keyboard-response","75","328474","0.0-18.0-0.15","4585","approach_avoid_sv1","""event"",""trial"",""time""
""fullscreenenter"",""1"",""3981""
""fullscreenexit"",""48"",""282056""
","
","
","""event"",""trial"",""time""
""fullscreenenter"",""1"",""3981""
","""event"",""trial"",""time""
""fullscreenexit"",""48"",""282056""
","","","","","","null","<div style=""font-size:60px;"">+</div>","null","","fixation","","",""
"memory-trial","76","330978","0.0-18.0-1.15","4585","approach_avoid_sv1","""event"",""trial"",""time""
""fullscreenenter"",""1"",""3981""
""fullscreenexit"",""48"",""282056""
","
","
","""event"",""trial"",""time""
""fullscreenenter"",""1"",""3981""
","""event"",""trial"",""time""
""fullscreenexit"",""48"",""282056""
","","","","","","1498.5999999940395","images/sheep4.png","","","memory_trial","2","maybe_old",""
"html-keyboard-response","77","331482","0.0-18.0-0.16","4585","approach_avoid_sv1","""event"",""trial"",""time""
""fullscreenenter"",""1"",""3981""
""fullscreenexit"",""48"",""282056""
","
","
","""event"",""trial"",""time""
""fullscreenenter"",""1"",""3981""
","""event"",""trial"",""time""
""fullscreenexit"",""48"",""282056""
","","","","","","null","<div style=""font-size:60px;"">+</div>","null","","fixation","","",""
"memory-trial","78","334226","0.0-18.0-1.16","4585","approach_avoid_sv1","""event"",""trial"",""time""
""fullscreenenter"",""1"",""3981""
""fullscreenexit"",""48"",""282056""
","
","
","""event"",""trial"",""time""
""fullscreenenter"",""1"",""3981""
","""event"",""trial"",""time""
""fullscreenexit"",""48"",""282056""
","","","","","","1738","images/truck5.png","","","memory_trial","3","maybe_new",""
"html-keyboard-response","79","334729","0.0-18.0-0.17","4585","approach_avoid_sv1","""event"",""trial"",""time""
""fullscreenenter"",""1"",""3981""
""fullscreenexit"",""48"",""282056""
","
","
","""event"",""trial"",""time""
""fullscreenenter"",""1"",""3981""
","""event"",""trial"",""time""
""fullscreenexit"",""48"",""282056""
","","","","","","null","<div style=""font-size:60px;"">+</div>","null","","fixation","","",""
"memory-trial","80","337250","0.0-18.0-1.17","4585","approach_avoid_sv1","""event"",""trial"",""time""
""fullscreenenter"",""1"",""3981""
""fullscreenexit"",""48"",""282056""
","
","
","""event"",""trial"",""time""
""fullscreenenter"",""1"",""3981""
","""event"",""trial"",""time""
""fullscreenexit"",""48"",""282056""
","","","","","","1513.1000000089407","images/dog3.png","","","memory_trial","4","definitely_new",""
"html-keyboard-response","81","337754","0.0-18.0-0.18","4585","approach_avoid_sv1","""event"",""trial"",""time""
""fullscreenenter"",""1"",""3981""
""fullscreenexit"",""48"",""282056""
","
","
","""event"",""trial"",""time""
""fullscreenenter"",""1"",""3981""
","""event"",""trial"",""time""
""fullscreenexit"",""48"",""282056""
","","","","","","null","<div style=""font-size:60px;"">+</div>","null","","fixation","","",""
"memory-trial","82","340946","0.0-18.0-1.18","4585","approach_avoid_sv1","""event"",""trial"",""time""
""fullscreenenter"",""1"",""3981""
""fullscreenexit"",""48"",""282056""
","
","
","""event"",""trial"",""time""
""fullscreenenter"",""1"",""3981""
","""event"",""trial"",""time""
""fullscreenexit"",""48"",""282056""
","","","","","","2185.3999999910593","images/straw2.png","","","memory_trial","3","maybe_new",""
"html-keyboard-response","83","341450","0.0-18.0-0.19","4585","approach_avoid_sv1","""event"",""trial"",""time""
""fullscreenenter"",""1"",""3981""
""fullscreenexit"",""48"",""282056""
","
","
","""event"",""trial"",""time""
""fullscreenenter"",""1"",""3981""
","""event"",""trial"",""time""
""fullscreenexit"",""48"",""282056""
","","","","","","null","<div style=""font-size:60px;"">+</div>","null","","fixation","","",""
"memory-trial","84","343866","0.0-18.0-1.19","4585","approach_avoid_sv1","""event"",""trial"",""time""
""fullscreenenter"",""1"",""3981""
""fullscreenexit"",""48"",""282056""
","
","
","""event"",""trial"",""time""
""fullscreenenter"",""1"",""3981""
","""event"",""trial"",""time""
""fullscreenexit"",""48"",""282056""
","","","","","","1409.1000000089407","images/plane6.png","","","memory_trial","3","maybe_new",""
"html-keyboard-response","85","344370","0.0-18.0-0.20","4585","approach_avoid_sv1","""event"",""trial"",""time""
""fullscreenenter"",""1"",""3981""
""fullscreenexit"",""48"",""282056""
","
","
","""event"",""trial"",""time""
""fullscreenenter"",""1"",""3981""
","""event"",""trial"",""time""
""fullscreenexit"",""48"",""282056""
","","","","","","null","<div style=""font-size:60px;"">+</div>","null","","fixation","","",""
"memory-trial","86","346802","0.0-18.0-1.20","4585","approach_avoid_sv1","""event"",""trial"",""time""
""fullscreenenter"",""1"",""3981""
""fullscreenexit"",""48"",""282056""
","
","
","""event"",""trial"",""time""
""fullscreenenter"",""1"",""3981""
","""event"",""trial"",""time""
""fullscreenexit"",""48"",""282056""
","","","","","","1422.7000000029802","images/table2.png","","","memory_trial","1","definitely_old",""
"html-keyboard-response","87","347306","0.0-18.0-0.21","4585","approach_avoid_sv1","""event"",""trial"",""time""
""fullscreenenter"",""1"",""3981""
""fullscreenexit"",""48"",""282056""
","
","
","""event"",""trial"",""time""
""fullscreenenter"",""1"",""3981""
","""event"",""trial"",""time""
""fullscreenexit"",""48"",""282056""
","","","","","","null","<div style=""font-size:60px;"">+</div>","null","","fixation","","",""
"memory-trial","88","349738","0.0-18.0-1.21","4585","approach_avoid_sv1","""event"",""trial"",""time""
""fullscreenenter"",""1"",""3981""
""fullscreenexit"",""48"",""282056""
","
","
","""event"",""trial"",""time""
""fullscreenenter"",""1"",""3981""
","""event"",""trial"",""time""
""fullscreenexit"",""48"",""282056""
","","","","","","1423.7999999970198","images/sofa3.png","","","memory_trial","4","definitely_new",""
"html-keyboard-response","89","350242","0.0-18.0-0.22","4585","approach_avoid_sv1","""event"",""trial"",""time""
""fullscreenenter"",""1"",""3981""
""fullscreenexit"",""48"",""282056""
","
","
","""event"",""trial"",""time""
""fullscreenenter"",""1"",""3981""
","""event"",""trial"",""time""
""fullscreenexit"",""48"",""282056""
","","","","","","null","<div style=""font-size:60px;"">+</div>","null","","fixation","","",""
"memory-trial","90","352715","0.0-18.0-1.22","4585","approach_avoid_sv1","""event"",""trial"",""time""
""fullscreenenter"",""1"",""3981""
""fullscreenexit"",""48"",""282056""
","
","
","""event"",""trial"",""time""
""fullscreenenter"",""1"",""3981""
","""event"",""trial"",""time""
""fullscreenexit"",""48"",""282056""
","","","","","","1463.7000000029802","images/boat7.png","","","memory_trial","4","definitely_new",""
"html-keyboard-response","91","353218","0.0-18.0-0.23","4585","approach_avoid_sv1","""event"",""trial"",""time""
""fullscreenenter"",""1"",""3981""
""fullscreenexit"",""48"",""282056""
","
","
","""event"",""trial"",""time""
""fullscreenenter"",""1"",""3981""
","""event"",""trial"",""time""
""fullscreenexit"",""48"",""282056""
","","","","","","null","<div style=""font-size:60px;"">+</div>","null","","fixation","","",""
"memory-trial","92","355778","0.0-18.0-1.23","4585","approach_avoid_sv1","""event"",""trial"",""time""
""fullscreenenter"",""1"",""3981""
""fullscreenexit"",""48"",""282056""
","
","
","""event"",""trial"",""time""
""fullscreenenter"",""1"",""3981""
","""event"",""trial"",""time""
""fullscreenexit"",""48"",""282056""
","","","","","","1550.7999999970198","images/horse8.png","","","memory_trial","2","maybe_old",""
"html-keyboard-response","93","356282","0.0-18.0-0.24","4585","approach_avoid_sv1","""event"",""trial"",""time""
""fullscreenenter"",""1"",""3981""
""fullscreenexit"",""48"",""282056""
","
","
","""event"",""trial"",""time""
""fullscreenenter"",""1"",""3981""
","""event"",""trial"",""time""
""fullscreenexit"",""48"",""282056""
","","","","","","null","<div style=""font-size:60px;"">+</div>","null","","fixation","","",""
"memory-trial","94","359122","0.0-18.0-1.24","4585","approach_avoid_sv1","""event"",""trial"",""time""
""fullscreenenter"",""1"",""3981""
""fullscreenexit"",""48"",""282056""
","
","
","""event"",""trial"",""time""
""fullscreenenter"",""1"",""3981""
","""event"",""trial"",""time""
""fullscreenexit"",""48"",""282056""
","","","","","","1838.2000000029802","images/bed7.png","","","memory_trial","3","maybe_new",""
"html-keyboard-response","95","359627","0.0-18.0-0.25","4585","approach_avoid_sv1","""event"",""trial"",""time""
""fullscreenenter"",""1"",""3981""
""fullscreenexit"",""48"",""282056""
","
","
","""event"",""trial"",""time""
""fullscreenenter"",""1"",""3981""
","""event"",""trial"",""time""
""fullscreenexit"",""48"",""282056""
","","","","","","null","<div style=""font-size:60px;"">+</div>","null","","fixation","","",""
"memory-trial","96","362555","0.0-18.0-1.25","4585","approach_avoid_sv1","""event"",""trial"",""time""
""fullscreenenter"",""1"",""3981""
""fullscreenexit"",""48"",""282056""
","
","
","""event"",""trial"",""time""
""fullscreenenter"",""1"",""3981""
","""event"",""trial"",""time""
""fullscreenexit"",""48"",""282056""
","","","","","","1919.8999999910593","images/flower7.png","","","memory_trial","3","maybe_new",""
"html-keyboard-response","97","363058","0.0-18.0-0.26","4585","approach_avoid_sv1","""event"",""trial"",""time""
""fullscreenenter"",""1"",""3981""
""fullscreenexit"",""48"",""282056""
","
","
","""event"",""trial"",""time""
""fullscreenenter"",""1"",""3981""
","""event"",""trial"",""time""
""fullscreenexit"",""48"",""282056""
","","","","","","null","<div style=""font-size:60px;"">+</div>","null","","fixation","","",""
"memory-trial","98","365250","0.0-18.0-1.26","4585","approach_avoid_sv1","""event"",""trial"",""time""
""fullscreenenter"",""1"",""3981""
""fullscreenexit"",""48"",""282056""
","
","
","""event"",""trial"",""time""
""fullscreenenter"",""1"",""3981""
","""event"",""trial"",""time""
""fullscreenexit"",""48"",""282056""
","","","","","","1188","images/orange2.png","","","memory_trial","1","definitely_old",""
"html-keyboard-response","99","365754","0.0-18.0-0.27","4585","approach_avoid_sv1","""event"",""trial"",""time""
""fullscreenenter"",""1"",""3981""
""fullscreenexit"",""48"",""282056""
","
","
","""event"",""trial"",""time""
""fullscreenenter"",""1"",""3981""
","""event"",""trial"",""time""
""fullscreenexit"",""48"",""282056""
","","","","","","null","<div style=""font-size:60px;"">+</div>","null","","fixation","","",""
"memory-trial","100","368322","0.0-18.0-1.27","4585","approach_avoid_sv1","""event"",""trial"",""time""
""fullscreenenter"",""1"",""3981""
""fullscreenexit"",""48"",""282056""
","
","
","""event"",""trial"",""time""
""fullscreenenter"",""1"",""3981""
","""event"",""trial"",""time""
""fullscreenexit"",""48"",""282056""
","","","","","","1560.7000000029802","images/train8.png","","","memory_trial","3","maybe_new",""
"html-keyboard-response","101","368826","0.0-18.0-0.28","4585","approach_avoid_sv1","""event"",""trial"",""time""
""fullscreenenter"",""1"",""3981""
""fullscreenexit"",""48"",""282056""
","
","
","""event"",""trial"",""time""
""fullscreenenter"",""1"",""3981""
","""event"",""trial"",""time""
""fullscreenexit"",""48"",""282056""
","","","","","","null","<div style=""font-size:60px;"">+</div>","null","","fixation","","",""
"memory-trial","102","371618","0.0-18.0-1.28","4585","approach_avoid_sv1","""event"",""trial"",""time""
""fullscreenenter"",""1"",""3981""
""fullscreenexit"",""48"",""282056""
","
","
","""event"",""trial"",""time""
""fullscreenenter"",""1"",""3981""
","""event"",""trial"",""time""
""fullscreenexit"",""48"",""282056""
","","","","","","1784.7000000029802","images/straw4.png","","","memory_trial","4","definitely_new",""
"html-keyboard-response","103","372123","0.0-18.0-0.29","4585","approach_avoid_sv1","""event"",""trial"",""time""
""fullscreenenter"",""1"",""3981""
""fullscreenexit"",""48"",""282056""
","
","
","""event"",""trial"",""time""
""fullscreenenter"",""1"",""3981""
","""event"",""trial"",""time""
""fullscreenexit"",""48"",""282056""
","","","","","","null","<div style=""font-size:60px;"">+</div>","null","","fixation","","",""
"memory-trial","104","374026","0.0-18.0-1.29","4585","approach_avoid_sv1","""event"",""trial"",""time""
""fullscreenenter"",""1"",""3981""
""fullscreenexit"",""48"",""282056""
","
","
","""event"",""trial"",""time""
""fullscreenenter"",""1"",""3981""
","""event"",""trial"",""time""
""fullscreenexit"",""48"",""282056""
","","","","","","901.2000000029802","images/sofa8.png","","","memory_trial","4","definitely_new",""
"html-keyboard-response","105","374530","0.0-18.0-0.30","4585","approach_avoid_sv1","""event"",""trial"",""time""
""fullscreenenter"",""1"",""3981""
""fullscreenexit"",""48"",""282056""
","
","
","""event"",""trial"",""time""
""fullscreenenter"",""1"",""3981""
","""event"",""trial"",""time""
""fullscreenexit"",""48"",""282056""
","","","","","","null","<div style=""font-size:60px;"">+</div>","null","","fixation","","",""
"memory-trial","106","376610","0.0-18.0-1.30","4585","approach_avoid_sv1","""event"",""trial"",""time""
""fullscreenenter"",""1"",""3981""
""fullscreenexit"",""48"",""282056""
","
","
","""event"",""trial"",""time""
""fullscreenenter"",""1"",""3981""
","""event"",""trial"",""time""
""fullscreenexit"",""48"",""282056""
","","","","","","1070.7999999970198","images/table4.png","","","memory_trial","4","definitely_new",""
"html-keyboard-response","107","377115","0.0-18.0-0.31","4585","approach_avoid_sv1","""event"",""trial"",""time""
""fullscreenenter"",""1"",""3981""
""fullscreenexit"",""48"",""282056""
","
","
","""event"",""trial"",""time""
""fullscreenenter"",""1"",""3981""
","""event"",""trial"",""time""
""fullscreenexit"",""48"",""282056""
","","","","","","null","<div style=""font-size:60px;"">+</div>","null","","fixation","","",""
"memory-trial","108","378986","0.0-18.0-1.31","4585","approach_avoid_sv1","""event"",""trial"",""time""
""fullscreenenter"",""1"",""3981""
""fullscreenexit"",""48"",""282056""
","
","
","""event"",""trial"",""time""
""fullscreenenter"",""1"",""3981""
","""event"",""trial"",""time""
""fullscreenexit"",""48"",""282056""
","","","","","","866.5999999940395","images/bush7.png","","","memory_trial","4","definitely_new",""
"html-keyboard-response","109","379489","0.0-18.0-0.32","4585","approach_avoid_sv1","""event"",""trial"",""time""
""fullscreenenter"",""1"",""3981""
""fullscreenexit"",""48"",""282056""
","
","
","""event"",""trial"",""time""
""fullscreenenter"",""1"",""3981""
","""event"",""trial"",""time""
""fullscreenexit"",""48"",""282056""
","","","","","","null","<div style=""font-size:60px;"">+</div>","null","","fixation","","",""
"memory-trial","110","381242","0.0-18.0-1.32","4585","approach_avoid_sv1","""event"",""trial"",""time""
""fullscreenenter"",""1"",""3981""
""fullscreenexit"",""48"",""282056""
","
","
","""event"",""trial"",""time""
""fullscreenenter"",""1"",""3981""
","""event"",""trial"",""time""
""fullscreenexit"",""48"",""282056""
","","","","","","748.5999999940395","images/sofa4.png","","","memory_trial","4","definitely_new",""
"html-keyboard-response","111","381747","0.0-18.0-0.33","4585","approach_avoid_sv1","""event"",""trial"",""time""
""fullscreenenter"",""1"",""3981""
""fullscreenexit"",""48"",""282056""
","
","
","""event"",""trial"",""time""
""fullscreenenter"",""1"",""3981""
","""event"",""trial"",""time""
""fullscreenexit"",""48"",""282056""
","","","","","","null","<div style=""font-size:60px;"">+</div>","null","","fixation","","",""
"memory-trial","112","383978","0.0-18.0-1.33","4585","approach_avoid_sv1","""event"",""trial"",""time""
""fullscreenenter"",""1"",""3981""
""fullscreenexit"",""48"",""282056""
","
","
","""event"",""trial"",""time""
""fullscreenenter"",""1"",""3981""
","""event"",""trial"",""time""
""fullscreenexit"",""48"",""282056""
","","","","","","1228.2999999970198","images/flower3.png","","","memory_trial","2","maybe_old",""
"html-keyboard-response","113","384482","0.0-18.0-0.34","4585","approach_avoid_sv1","""event"",""trial"",""time""
""fullscreenenter"",""1"",""3981""
""fullscreenexit"",""48"",""282056""
","
","
","""event"",""trial"",""time""
""fullscreenenter"",""1"",""3981""
","""event"",""trial"",""time""
""fullscreenexit"",""48"",""282056""
","","","","","","null","<div style=""font-size:60px;"">+</div>","null","","fixation","","",""
"memory-trial","114","386930","0.0-18.0-1.34","4585","approach_avoid_sv1","""event"",""trial"",""time""
""fullscreenenter"",""1"",""3981""
""fullscreenexit"",""48"",""282056""
","
","
","""event"",""trial"",""time""
""fullscreenenter"",""1"",""3981""
","""event"",""trial"",""time""
""fullscreenexit"",""48"",""282056""
","","","","","","1446.2999999970198","images/train1.png","","","memory_trial","1","definitely_old",""
"html-keyboard-response","115","387434","0.0-18.0-0.35","4585","approach_avoid_sv1","""event"",""trial"",""time""
""fullscreenenter"",""1"",""3981""
""fullscreenexit"",""48"",""282056""
","
","
","""event"",""trial"",""time""
""fullscreenenter"",""1"",""3981""
","""event"",""trial"",""time""
""fullscreenexit"",""48"",""282056""
","","","","","","null","<div style=""font-size:60px;"">+</div>","null","","fixation","","",""
"memory-trial","116","389714","0.0-18.0-1.35","4585","approach_avoid_sv1","""event"",""trial"",""time""
""fullscreenenter"",""1"",""3981""
""fullscreenexit"",""48"",""282056""
","
","
","""event"",""trial"",""time""
""fullscreenenter"",""1"",""3981""
","""event"",""trial"",""time""
""fullscreenexit"",""48"",""282056""
","","","","","","1275.1000000089407","images/sofa6.png","","","memory_trial","3","maybe_new",""
"html-keyboard-response","117","390218","0.0-18.0-0.36","4585","approach_avoid_sv1","""event"",""trial"",""time""
""fullscreenenter"",""1"",""3981""
""fullscreenexit"",""48"",""282056""
","
","
","""event"",""trial"",""time""
""fullscreenenter"",""1"",""3981""
","""event"",""trial"",""time""
""fullscreenexit"",""48"",""282056""
","","","","","","null","<div style=""font-size:60px;"">+</div>","null","","fixation","","",""
"memory-trial","118","392234","0.0-18.0-1.36","4585","approach_avoid_sv1","""event"",""trial"",""time""
""fullscreenenter"",""1"",""3981""
""fullscreenexit"",""48"",""282056""
","
","
","""event"",""trial"",""time""
""fullscreenenter"",""1"",""3981""
","""event"",""trial"",""time""
""fullscreenexit"",""48"",""282056""
","","","","","","1011.2999999970198","images/train4.png","","","memory_trial","4","definitely_new",""
"html-keyboard-response","119","392738","0.0-18.0-0.37","4585","approach_avoid_sv1","""event"",""trial"",""time""
""fullscreenenter"",""1"",""3981""
""fullscreenexit"",""48"",""282056""
","
","
","""event"",""trial"",""time""
""fullscreenenter"",""1"",""3981""
","""event"",""trial"",""time""
""fullscreenexit"",""48"",""282056""
","","","","","","null","<div style=""font-size:60px;"">+</div>","null","","fixation","","",""
"memory-trial","120","394594","0.0-18.0-1.37","4585","approach_avoid_sv1","""event"",""trial"",""time""
""fullscreenenter"",""1"",""3981""
""fullscreenexit"",""48"",""282056""
","
","
","""event"",""trial"",""time""
""fullscreenenter"",""1"",""3981""
","""event"",""trial"",""time""
""fullscreenexit"",""48"",""282056""
","","","","","","853.4000000059605","images/dog1.png","","","memory_trial","4","definitely_new",""
"html-keyboard-response","121","395098","0.0-18.0-0.38","4585","approach_avoid_sv1","""event"",""trial"",""time""
""fullscreenenter"",""1"",""3981""
""fullscreenexit"",""48"",""282056""
","
","
","""event"",""trial"",""time""
""fullscreenenter"",""1"",""3981""
","""event"",""trial"",""time""
""fullscreenexit"",""48"",""282056""
","","","","","","null","<div style=""font-size:60px;"">+</div>","null","","fixation","","",""
"memory-trial","122","397842","0.0-18.0-1.38","4585","approach_avoid_sv1","""event"",""trial"",""time""
""fullscreenenter"",""1"",""3981""
""fullscreenexit"",""48"",""282056""
","
","
","""event"",""trial"",""time""
""fullscreenenter"",""1"",""3981""
","""event"",""trial"",""time""
""fullscreenexit"",""48"",""282056""
","","","","","","1737","images/truck8.png","","","memory_trial","1","definitely_old",""
"html-keyboard-response","123","398346","0.0-18.0-0.39","4585","approach_avoid_sv1","""event"",""trial"",""time""
""fullscreenenter"",""1"",""3981""
""fullscreenexit"",""48"",""282056""
","
","
","""event"",""trial"",""time""
""fullscreenenter"",""1"",""3981""
","""event"",""trial"",""time""
""fullscreenexit"",""48"",""282056""
","","","","","","null","<div style=""font-size:60px;"">+</div>","null","","fixation","","",""
"memory-trial","124","400650","0.0-18.0-1.39","4585","approach_avoid_sv1","""event"",""trial"",""time""
""fullscreenenter"",""1"",""3981""
""fullscreenexit"",""48"",""282056""
","
","
","""event"",""trial"",""time""
""fullscreenenter"",""1"",""3981""
","""event"",""trial"",""time""
""fullscreenexit"",""48"",""282056""
","","","","","","1296.1000000089407","images/goat4.png","","","memory_trial","3","maybe_new",""
"html-keyboard-response","125","401154","0.0-18.0-0.40","4585","approach_avoid_sv1","""event"",""trial"",""time""
""fullscreenenter"",""1"",""3981""
""fullscreenexit"",""48"",""282056""
","
","
","""event"",""trial"",""time""
""fullscreenenter"",""1"",""3981""
","""event"",""trial"",""time""
""fullscreenexit"",""48"",""282056""
","","","","","","null","<div style=""font-size:60px;"">+</div>","null","","fixation","","",""
"memory-trial","126","403042","0.0-18.0-1.40","4585","approach_avoid_sv1","""event"",""trial"",""time""
""fullscreenenter"",""1"",""3981""
""fullscreenexit"",""48"",""282056""
","
","
","""event"",""trial"",""time""
""fullscreenenter"",""1"",""3981""
","""event"",""trial"",""time""
""fullscreenexit"",""48"",""282056""
","","","","","","883.0999999940395","images/bush1.png","","","memory_trial","4","definitely_new",""
"html-keyboard-response","127","403546","0.0-18.0-0.41","4585","approach_avoid_sv1","""event"",""trial"",""time""
""fullscreenenter"",""1"",""3981""
""fullscreenexit"",""48"",""282056""
","
","
","""event"",""trial"",""time""
""fullscreenenter"",""1"",""3981""
","""event"",""trial"",""time""
""fullscreenexit"",""48"",""282056""
","","","","","","null","<div style=""font-size:60px;"">+</div>","null","","fixation","","",""
"memory-trial","128","405402","0.0-18.0-1.41","4585","approach_avoid_sv1","""event"",""trial"",""time""
""fullscreenenter"",""1"",""3981""
""fullscreenexit"",""48"",""282056""
""blur"",""129"",""421535""
""focus"",""129"",""476371""
","""event"",""trial"",""time""
""blur"",""129"",""421535""
","""event"",""trial"",""time""
""focus"",""129"",""476371""
","""event"",""trial"",""time""
""fullscreenenter"",""1"",""3981""
","""event"",""trial"",""time""
""fullscreenexit"",""48"",""282056""
","","","","","","851.5","images/cow6.png","","","memory_trial","3","maybe_new",""
"html-button-response","129","477512","0.0-18.0-2.41-0.41","4585","approach_avoid_sv1","""event"",""trial"",""time""
""fullscreenenter"",""1"",""3981""
""fullscreenexit"",""48"",""282056""
""blur"",""129"",""421535""
""focus"",""129"",""476371""
","""event"",""trial"",""time""
""blur"",""129"",""421535""
","""event"",""trial"",""time""
""focus"",""129"",""476371""
","""event"",""trial"",""time""
""fullscreenenter"",""1"",""3981""
","""event"",""trial"",""time""
""fullscreenexit"",""48"",""282056""
","","","","","","72108.79999999702","<p> Take a break! </p><p> Click the button to continue. </p>","0","","break","","",""
"html-keyboard-response","130","478018","0.0-18.0-0.42","4585","approach_avoid_sv1","""event"",""trial"",""time""
""fullscreenenter"",""1"",""3981""
""fullscreenexit"",""48"",""282056""
""blur"",""129"",""421535""
""focus"",""129"",""476371""
","""event"",""trial"",""time""
""blur"",""129"",""421535""
","""event"",""trial"",""time""
""focus"",""129"",""476371""
","""event"",""trial"",""time""
""fullscreenenter"",""1"",""3981""
","""event"",""trial"",""time""
""fullscreenexit"",""48"",""282056""
","","","","","","null","<div style=""font-size:60px;"">+</div>","null","","fixation","","",""
"memory-trial","131","480922","0.0-18.0-1.42","4585","approach_avoid_sv1","""event"",""trial"",""time""
""fullscreenenter"",""1"",""3981""
""fullscreenexit"",""48"",""282056""
""blur"",""129"",""421535""
""focus"",""129"",""476371""
","""event"",""trial"",""time""
""blur"",""129"",""421535""
","""event"",""trial"",""time""
""focus"",""129"",""476371""
","""event"",""trial"",""time""
""fullscreenenter"",""1"",""3981""
","""event"",""trial"",""time""
""fullscreenexit"",""48"",""282056""
","","","","","","1894.8999999910593","images/banana2.png","","","memory_trial","1","definitely_old",""
"html-keyboard-response","132","481425","0.0-18.0-0.43","4585","approach_avoid_sv1","""event"",""trial"",""time""
""fullscreenenter"",""1"",""3981""
""fullscreenexit"",""48"",""282056""
""blur"",""129"",""421535""
""focus"",""129"",""476371""
","""event"",""trial"",""time""
""blur"",""129"",""421535""
","""event"",""trial"",""time""
""focus"",""129"",""476371""
","""event"",""trial"",""time""
""fullscreenenter"",""1"",""3981""
","""event"",""trial"",""time""
""fullscreenexit"",""48"",""282056""
","","","","","","null","<div style=""font-size:60px;"">+</div>","null","","fixation","","",""
"memory-trial","133","484146","0.0-18.0-1.43","4585","approach_avoid_sv1","""event"",""trial"",""time""
""fullscreenenter"",""1"",""3981""
""fullscreenexit"",""48"",""282056""
""blur"",""129"",""421535""
""focus"",""129"",""476371""
","""event"",""trial"",""time""
""blur"",""129"",""421535""
","""event"",""trial"",""time""
""focus"",""129"",""476371""
","""event"",""trial"",""time""
""fullscreenenter"",""1"",""3981""
","""event"",""trial"",""time""
""fullscreenexit"",""48"",""282056""
","","","","","","1712.6000000089407","images/goat1.png","","","memory_trial","4","definitely_new",""
"html-keyboard-response","134","484650","0.0-18.0-0.44","4585","approach_avoid_sv1","""event"",""trial"",""time""
""fullscreenenter"",""1"",""3981""
""fullscreenexit"",""48"",""282056""
""blur"",""129"",""421535""
""focus"",""129"",""476371""
","""event"",""trial"",""time""
""blur"",""129"",""421535""
","""event"",""trial"",""time""
""focus"",""129"",""476371""
","""event"",""trial"",""time""
""fullscreenenter"",""1"",""3981""
","""event"",""trial"",""time""
""fullscreenexit"",""48"",""282056""
","","","","","","null","<div style=""font-size:60px;"">+</div>","null","","fixation","","",""
"memory-trial","135","487026","0.0-18.0-1.44","4585","approach_avoid_sv1","""event"",""trial"",""time""
""fullscreenenter"",""1"",""3981""
""fullscreenexit"",""48"",""282056""
""blur"",""129"",""421535""
""focus"",""129"",""476371""
","""event"",""trial"",""time""
""blur"",""129"",""421535""
","""event"",""trial"",""time""
""focus"",""129"",""476371""
","""event"",""trial"",""time""
""fullscreenenter"",""1"",""3981""
","""event"",""trial"",""time""
""fullscreenexit"",""48"",""282056""
","","","","","","1372","images/sofa5.png","","","memory_trial","3","maybe_new",""
"html-keyboard-response","136","487529","0.0-18.0-0.45","4585","approach_avoid_sv1","""event"",""trial"",""time""
""fullscreenenter"",""1"",""3981""
""fullscreenexit"",""48"",""282056""
""blur"",""129"",""421535""
""focus"",""129"",""476371""
","""event"",""trial"",""time""
""blur"",""129"",""421535""
","""event"",""trial"",""time""
""focus"",""129"",""476371""
","""event"",""trial"",""time""
""fullscreenenter"",""1"",""3981""
","""event"",""trial"",""time""
""fullscreenexit"",""48"",""282056""
","","","","","","null","<div style=""font-size:60px;"">+</div>","null","","fixation","","",""
"memory-trial","137","489754","0.0-18.0-1.45","4585","approach_avoid_sv1","""event"",""trial"",""time""
""fullscreenenter"",""1"",""3981""
""fullscreenexit"",""48"",""282056""
""blur"",""129"",""421535""
""focus"",""129"",""476371""
","""event"",""trial"",""time""
""blur"",""129"",""421535""
","""event"",""trial"",""time""
""focus"",""129"",""476371""
","""event"",""trial"",""time""
""fullscreenenter"",""1"",""3981""
","""event"",""trial"",""time""
""fullscreenexit"",""48"",""282056""
","","","","","","1216.0999999940395","images/boat2.png","","","memory_trial","4","definitely_new",""
"html-keyboard-response","138","490258","0.0-18.0-0.46","4585","approach_avoid_sv1","""event"",""trial"",""time""
""fullscreenenter"",""1"",""3981""
""fullscreenexit"",""48"",""282056""
""blur"",""129"",""421535""
""focus"",""129"",""476371""
","""event"",""trial"",""time""
""blur"",""129"",""421535""
","""event"",""trial"",""time""
""focus"",""129"",""476371""
","""event"",""trial"",""time""
""fullscreenenter"",""1"",""3981""
","""event"",""trial"",""time""
""fullscreenexit"",""48"",""282056""
","","","","","","null","<div style=""font-size:60px;"">+</div>","null","","fixation","","",""
"memory-trial","139","492474","0.0-18.0-1.46","4585","approach_avoid_sv1","""event"",""trial"",""time""
""fullscreenenter"",""1"",""3981""
""fullscreenexit"",""48"",""282056""
""blur"",""129"",""421535""
""focus"",""129"",""476371""
","""event"",""trial"",""time""
""blur"",""129"",""421535""
","""event"",""trial"",""time""
""focus"",""129"",""476371""
","""event"",""trial"",""time""
""fullscreenenter"",""1"",""3981""
","""event"",""trial"",""time""
""fullscreenexit"",""48"",""282056""
","","","","","","1208.6000000089407","images/cat8.png","","","memory_trial","1","definitely_old",""
"html-keyboard-response","140","492978","0.0-18.0-0.47","4585","approach_avoid_sv1","""event"",""trial"",""time""
""fullscreenenter"",""1"",""3981""
""fullscreenexit"",""48"",""282056""
""blur"",""129"",""421535""
""focus"",""129"",""476371""
","""event"",""trial"",""time""
""blur"",""129"",""421535""
","""event"",""trial"",""time""
""focus"",""129"",""476371""
","""event"",""trial"",""time""
""fullscreenenter"",""1"",""3981""
","""event"",""trial"",""time""
""fullscreenexit"",""48"",""282056""
","","","","","","null","<div style=""font-size:60px;"">+</div>","null","","fixation","","",""
"memory-trial","141","494962","0.0-18.0-1.47","4585","approach_avoid_sv1","""event"",""trial"",""time""
""fullscreenenter"",""1"",""3981""
""fullscreenexit"",""48"",""282056""
""blur"",""129"",""421535""
""focus"",""129"",""476371""
","""event"",""trial"",""time""
""blur"",""129"",""421535""
","""event"",""trial"",""time""
""focus"",""129"",""476371""
","""event"",""trial"",""time""
""fullscreenenter"",""1"",""3981""
","""event"",""trial"",""time""
""fullscreenexit"",""48"",""282056""
","","","","","","979.5999999940395","images/flower2.png","","","memory_trial","2","maybe_old",""
"html-keyboard-response","142","495466","0.0-18.0-0.48","4585","approach_avoid_sv1","""event"",""trial"",""time""
""fullscreenenter"",""1"",""3981""
""fullscreenexit"",""48"",""282056""
""blur"",""129"",""421535""
""focus"",""129"",""476371""
","""event"",""trial"",""time""
""blur"",""129"",""421535""
","""event"",""trial"",""time""
""focus"",""129"",""476371""
","""event"",""trial"",""time""
""fullscreenenter"",""1"",""3981""
","""event"",""trial"",""time""
""fullscreenexit"",""48"",""282056""
","","","","","","null","<div style=""font-size:60px;"">+</div>","null","","fixation","","",""
"memory-trial","143","497778","0.0-18.0-1.48","4585","approach_avoid_sv1","""event"",""trial"",""time""
""fullscreenenter"",""1"",""3981""
""fullscreenexit"",""48"",""282056""
""blur"",""129"",""421535""
""focus"",""129"",""476371""
","""event"",""trial"",""time""
""blur"",""129"",""421535""
","""event"",""trial"",""time""
""focus"",""129"",""476371""
","""event"",""trial"",""time""
""fullscreenenter"",""1"",""3981""
","""event"",""trial"",""time""
""fullscreenexit"",""48"",""282056""
","","","","","","1304.300000011921","images/plane2.png","","","memory_trial","4","definitely_new",""
"html-keyboard-response","144","498282","0.0-18.0-0.49","4585","approach_avoid_sv1","""event"",""trial"",""time""
""fullscreenenter"",""1"",""3981""
""fullscreenexit"",""48"",""282056""
""blur"",""129"",""421535""
""focus"",""129"",""476371""
","""event"",""trial"",""time""
""blur"",""129"",""421535""
","""event"",""trial"",""time""
""focus"",""129"",""476371""
","""event"",""trial"",""time""
""fullscreenenter"",""1"",""3981""
","""event"",""trial"",""time""
""fullscreenexit"",""48"",""282056""
","","","","","","null","<div style=""font-size:60px;"">+</div>","null","","fixation","","",""
"memory-trial","145","501298","0.0-18.0-1.49","4585","approach_avoid_sv1","""event"",""trial"",""time""
""fullscreenenter"",""1"",""3981""
""fullscreenexit"",""48"",""282056""
""blur"",""129"",""421535""
""focus"",""129"",""476371""
","""event"",""trial"",""time""
""blur"",""129"",""421535""
","""event"",""trial"",""time""
""focus"",""129"",""476371""
","""event"",""trial"",""time""
""fullscreenenter"",""1"",""3981""
","""event"",""trial"",""time""
""fullscreenexit"",""48"",""282056""
","","","","","","2013.7999999970198","images/truck1.png","","","memory_trial","3","maybe_new",""
"html-keyboard-response","146","501802","0.0-18.0-0.50","4585","approach_avoid_sv1","""event"",""trial"",""time""
""fullscreenenter"",""1"",""3981""
""fullscreenexit"",""48"",""282056""
""blur"",""129"",""421535""
""focus"",""129"",""476371""
","""event"",""trial"",""time""
""blur"",""129"",""421535""
","""event"",""trial"",""time""
""focus"",""129"",""476371""
","""event"",""trial"",""time""
""fullscreenenter"",""1"",""3981""
","""event"",""trial"",""time""
""fullscreenexit"",""48"",""282056""
","","","","","","null","<div style=""font-size:60px;"">+</div>","null","","fixation","","",""
"memory-trial","147","504242","0.0-18.0-1.50","4585","approach_avoid_sv1","""event"",""trial"",""time""
""fullscreenenter"",""1"",""3981""
""fullscreenexit"",""48"",""282056""
""blur"",""129"",""421535""
""focus"",""129"",""476371""
","""event"",""trial"",""time""
""blur"",""129"",""421535""
","""event"",""trial"",""time""
""focus"",""129"",""476371""
","""event"",""trial"",""time""
""fullscreenenter"",""1"",""3981""
","""event"",""trial"",""time""
""fullscreenexit"",""48"",""282056""
","","","","","","1436.2999999970198","images/bed2.png","","","memory_trial","3","maybe_new",""
"html-keyboard-response","148","504746","0.0-18.0-0.51","4585","approach_avoid_sv1","""event"",""trial"",""time""
""fullscreenenter"",""1"",""3981""
""fullscreenexit"",""48"",""282056""
""blur"",""129"",""421535""
""focus"",""129"",""476371""
","""event"",""trial"",""time""
""blur"",""129"",""421535""
","""event"",""trial"",""time""
""focus"",""129"",""476371""
","""event"",""trial"",""time""
""fullscreenenter"",""1"",""3981""
","""event"",""trial"",""time""
""fullscreenexit"",""48"",""282056""
","","","","","","null","<div style=""font-size:60px;"">+</div>","null","","fixation","","",""
"memory-trial","149","507642","0.0-18.0-1.51","4585","approach_avoid_sv1","""event"",""trial"",""time""
""fullscreenenter"",""1"",""3981""
""fullscreenexit"",""48"",""282056""
""blur"",""129"",""421535""
""focus"",""129"",""476371""
","""event"",""trial"",""time""
""blur"",""129"",""421535""
","""event"",""trial"",""time""
""focus"",""129"",""476371""
","""event"",""trial"",""time""
""fullscreenenter"",""1"",""3981""
","""event"",""trial"",""time""
""fullscreenexit"",""48"",""282056""
","","","","","","1892.7999999970198","images/cat5.png","","","memory_trial","1","definitely_old",""
"html-keyboard-response","150","508146","0.0-18.0-0.52","4585","approach_avoid_sv1","""event"",""trial"",""time""
""fullscreenenter"",""1"",""3981""
""fullscreenexit"",""48"",""282056""
""blur"",""129"",""421535""
""focus"",""129"",""476371""
","""event"",""trial"",""time""
""blur"",""129"",""421535""
","""event"",""trial"",""time""
""focus"",""129"",""476371""
","""event"",""trial"",""time""
""fullscreenenter"",""1"",""3981""
","""event"",""trial"",""time""
""fullscreenexit"",""48"",""282056""
","","","","","","null","<div style=""font-size:60px;"">+</div>","null","","fixation","","",""
"memory-trial","151","511418","0.0-18.0-1.52","4585","approach_avoid_sv1","""event"",""trial"",""time""
""fullscreenenter"",""1"",""3981""
""fullscreenexit"",""48"",""282056""
""blur"",""129"",""421535""
""focus"",""129"",""476371""
","""event"",""trial"",""time""
""blur"",""129"",""421535""
","""event"",""trial"",""time""
""focus"",""129"",""476371""
","""event"",""trial"",""time""
""fullscreenenter"",""1"",""3981""
","""event"",""trial"",""time""
""fullscreenexit"",""48"",""282056""
","","","","","","2263.7999999970198","images/dog5.png","","","memory_trial","4","definitely_new",""
"html-keyboard-response","152","511922","0.0-18.0-0.53","4585","approach_avoid_sv1","""event"",""trial"",""time""
""fullscreenenter"",""1"",""3981""
""fullscreenexit"",""48"",""282056""
""blur"",""129"",""421535""
""focus"",""129"",""476371""
","""event"",""trial"",""time""
""blur"",""129"",""421535""
","""event"",""trial"",""time""
""focus"",""129"",""476371""
","""event"",""trial"",""time""
""fullscreenenter"",""1"",""3981""
","""event"",""trial"",""time""
""fullscreenexit"",""48"",""282056""
","","","","","","null","<div style=""font-size:60px;"">+</div>","null","","fixation","","",""
"memory-trial","153","514475","0.0-18.0-1.53","4585","approach_avoid_sv1","""event"",""trial"",""time""
""fullscreenenter"",""1"",""3981""
""fullscreenexit"",""48"",""282056""
""blur"",""129"",""421535""
""focus"",""129"",""476371""
","""event"",""trial"",""time""
""blur"",""129"",""421535""
","""event"",""trial"",""time""
""focus"",""129"",""476371""
","""event"",""trial"",""time""
""fullscreenenter"",""1"",""3981""
","""event"",""trial"",""time""
""fullscreenexit"",""48"",""282056""
","","","","","","1550.0999999940395","images/cow5.png","","","memory_trial","4","definitely_new",""
"html-keyboard-response","154","514978","0.0-18.0-0.54","4585","approach_avoid_sv1","""event"",""trial"",""time""
""fullscreenenter"",""1"",""3981""
""fullscreenexit"",""48"",""282056""
""blur"",""129"",""421535""
""focus"",""129"",""476371""
","""event"",""trial"",""time""
""blur"",""129"",""421535""
","""event"",""trial"",""time""
""focus"",""129"",""476371""
","""event"",""trial"",""time""
""fullscreenenter"",""1"",""3981""
","""event"",""trial"",""time""
""fullscreenexit"",""48"",""282056""
","","","","","","null","<div style=""font-size:60px;"">+</div>","null","","fixation","","",""
"memory-trial","155","517986","0.0-18.0-1.54","4585","approach_avoid_sv1","""event"",""trial"",""time""
""fullscreenenter"",""1"",""3981""
""fullscreenexit"",""48"",""282056""
""blur"",""129"",""421535""
""focus"",""129"",""476371""
","""event"",""trial"",""time""
""blur"",""129"",""421535""
","""event"",""trial"",""time""
""focus"",""129"",""476371""
","""event"",""trial"",""time""
""fullscreenenter"",""1"",""3981""
","""event"",""trial"",""time""
""fullscreenexit"",""48"",""282056""
","","","","","","2004","images/flower5.png","","","memory_trial","1","definitely_old",""
"html-keyboard-response","156","518490","0.0-18.0-0.55","4585","approach_avoid_sv1","""event"",""trial"",""time""
""fullscreenenter"",""1"",""3981""
""fullscreenexit"",""48"",""282056""
""blur"",""129"",""421535""
""focus"",""129"",""476371""
","""event"",""trial"",""time""
""blur"",""129"",""421535""
","""event"",""trial"",""time""
""focus"",""129"",""476371""
","""event"",""trial"",""time""
""fullscreenenter"",""1"",""3981""
","""event"",""trial"",""time""
""fullscreenexit"",""48"",""282056""
","","","","","","null","<div style=""font-size:60px;"">+</div>","null","","fixation","","",""
"memory-trial","157","520386","0.0-18.0-1.55","4585","approach_avoid_sv1","""event"",""trial"",""time""
""fullscreenenter"",""1"",""3981""
""fullscreenexit"",""48"",""282056""
""blur"",""129"",""421535""
""focus"",""129"",""476371""
","""event"",""trial"",""time""
""blur"",""129"",""421535""
","""event"",""trial"",""time""
""focus"",""129"",""476371""
","""event"",""trial"",""time""
""fullscreenenter"",""1"",""3981""
","""event"",""trial"",""time""
""fullscreenexit"",""48"",""282056""
","","","","","","890.1000000089407","images/straw5.png","","","memory_trial","1","definitely_old",""
"html-keyboard-response","158","520890","0.0-18.0-0.56","4585","approach_avoid_sv1","""event"",""trial"",""time""
""fullscreenenter"",""1"",""3981""
""fullscreenexit"",""48"",""282056""
""blur"",""129"",""421535""
""focus"",""129"",""476371""
","""event"",""trial"",""time""
""blur"",""129"",""421535""
","""event"",""trial"",""time""
""focus"",""129"",""476371""
","""event"",""trial"",""time""
""fullscreenenter"",""1"",""3981""
","""event"",""trial"",""time""
""fullscreenexit"",""48"",""282056""
","","","","","","null","<div style=""font-size:60px;"">+</div>","null","","fixation","","",""
"memory-trial","159","523450","0.0-18.0-1.56","4585","approach_avoid_sv1","""event"",""trial"",""time""
""fullscreenenter"",""1"",""3981""
""fullscreenexit"",""48"",""282056""
""blur"",""129"",""421535""
""focus"",""129"",""476371""
","""event"",""trial"",""time""
""blur"",""129"",""421535""
","""event"",""trial"",""time""
""focus"",""129"",""476371""
","""event"",""trial"",""time""
""fullscreenenter"",""1"",""3981""
","""event"",""trial"",""time""
""fullscreenexit"",""48"",""282056""
","","","","","","1553.0999999940395","images/truck7.png","","","memory_trial","3","maybe_new",""
"html-keyboard-response","160","523954","0.0-18.0-0.57","4585","approach_avoid_sv1","""event"",""trial"",""time""
""fullscreenenter"",""1"",""3981""
""fullscreenexit"",""48"",""282056""
""blur"",""129"",""421535""
""focus"",""129"",""476371""
","""event"",""trial"",""time""
""blur"",""129"",""421535""
","""event"",""trial"",""time""
""focus"",""129"",""476371""
","""event"",""trial"",""time""
""fullscreenenter"",""1"",""3981""
","""event"",""trial"",""time""
""fullscreenexit"",""48"",""282056""
","","","","","","null","<div style=""font-size:60px;"">+</div>","null","","fixation","","",""
"memory-trial","161","526073","0.0-18.0-1.57","4585","approach_avoid_sv1","""event"",""trial"",""time""
""fullscreenenter"",""1"",""3981""
""fullscreenexit"",""48"",""282056""
""blur"",""129"",""421535""
""focus"",""129"",""476371""
","""event"",""trial"",""time""
""blur"",""129"",""421535""
","""event"",""trial"",""time""
""focus"",""129"",""476371""
","""event"",""trial"",""time""
""fullscreenenter"",""1"",""3981""
","""event"",""trial"",""time""
""fullscreenexit"",""48"",""282056""
","","","","","","1118.2000000029802","images/cow7.png","","","memory_trial","4","definitely_new",""
"html-keyboard-response","162","526578","0.0-18.0-0.58","4585","approach_avoid_sv1","""event"",""trial"",""time""
""fullscreenenter"",""1"",""3981""
""fullscreenexit"",""48"",""282056""
""blur"",""129"",""421535""
""focus"",""129"",""476371""
","""event"",""trial"",""time""
""blur"",""129"",""421535""
","""event"",""trial"",""time""
""focus"",""129"",""476371""
","""event"",""trial"",""time""
""fullscreenenter"",""1"",""3981""
","""event"",""trial"",""time""
""fullscreenexit"",""48"",""282056""
","","","","","","null","<div style=""font-size:60px;"">+</div>","null","","fixation","","",""
"memory-trial","163","528354","0.0-18.0-1.58","4585","approach_avoid_sv1","""event"",""trial"",""time""
""fullscreenenter"",""1"",""3981""
""fullscreenexit"",""48"",""282056""
""blur"",""129"",""421535""
""focus"",""129"",""476371""
","""event"",""trial"",""time""
""blur"",""129"",""421535""
","""event"",""trial"",""time""
""focus"",""129"",""476371""
","""event"",""trial"",""time""
""fullscreenenter"",""1"",""3981""
","""event"",""trial"",""time""
""fullscreenexit"",""48"",""282056""
","","","","","","769.6000000089407","images/dog6.png","","","memory_trial","4","definitely_new",""
"html-keyboard-response","164","528858","0.0-18.0-0.59","4585","approach_avoid_sv1","""event"",""trial"",""time""
""fullscreenenter"",""1"",""3981""
""fullscreenexit"",""48"",""282056""
""blur"",""129"",""421535""
""focus"",""129"",""476371""
","""event"",""trial"",""time""
""blur"",""129"",""421535""
","""event"",""trial"",""time""
""focus"",""129"",""476371""
","""event"",""trial"",""time""
""fullscreenenter"",""1"",""3981""
","""event"",""trial"",""time""
""fullscreenexit"",""48"",""282056""
","","","","","","null","<div style=""font-size:60px;"">+</div>","null","","fixation","","",""
"memory-trial","165","532274","0.0-18.0-1.59","4585","approach_avoid_sv1","""event"",""trial"",""time""
""fullscreenenter"",""1"",""3981""
""fullscreenexit"",""48"",""282056""
""blur"",""129"",""421535""
""focus"",""129"",""476371""
","""event"",""trial"",""time""
""blur"",""129"",""421535""
","""event"",""trial"",""time""
""focus"",""129"",""476371""
","""event"",""trial"",""time""
""fullscreenenter"",""1"",""3981""
","""event"",""trial"",""time""
""fullscreenexit"",""48"",""282056""
","","","","","","2413.2999999970198","images/boat3.png","","","memory_trial","2","maybe_old",""
"html-keyboard-response","166","532778","0.0-18.0-0.60","4585","approach_avoid_sv1","""event"",""trial"",""time""
""fullscreenenter"",""1"",""3981""
""fullscreenexit"",""48"",""282056""
""blur"",""129"",""421535""
""focus"",""129"",""476371""
","""event"",""trial"",""time""
""blur"",""129"",""421535""
","""event"",""trial"",""time""
""focus"",""129"",""476371""
","""event"",""trial"",""time""
""fullscreenenter"",""1"",""3981""
","""event"",""trial"",""time""
""fullscreenexit"",""48"",""282056""
","","","","","","null","<div style=""font-size:60px;"">+</div>","null","","fixation","","",""
"memory-trial","167","535138","0.0-18.0-1.60","4585","approach_avoid_sv1","""event"",""trial"",""time""
""fullscreenenter"",""1"",""3981""
""fullscreenexit"",""48"",""282056""
""blur"",""129"",""421535""
""focus"",""129"",""476371""
","""event"",""trial"",""time""
""blur"",""129"",""421535""
","""event"",""trial"",""time""
""focus"",""129"",""476371""
","""event"",""trial"",""time""
""fullscreenenter"",""1"",""3981""
","""event"",""trial"",""time""
""fullscreenexit"",""48"",""282056""
","","","","","","1356.8999999910593","images/apple7.png","","","memory_trial","1","definitely_old",""
"html-keyboard-response","168","535642","0.0-18.0-0.61","4585","approach_avoid_sv1","""event"",""trial"",""time""
""fullscreenenter"",""1"",""3981""
""fullscreenexit"",""48"",""282056""
""blur"",""129"",""421535""
""focus"",""129"",""476371""
","""event"",""trial"",""time""
""blur"",""129"",""421535""
","""event"",""trial"",""time""
""focus"",""129"",""476371""
","""event"",""trial"",""time""
""fullscreenenter"",""1"",""3981""
","""event"",""trial"",""time""
""fullscreenexit"",""48"",""282056""
","","","","","","null","<div style=""font-size:60px;"">+</div>","null","","fixation","","",""
"memory-trial","169","537794","0.0-18.0-1.61","4585","approach_avoid_sv1","""event"",""trial"",""time""
""fullscreenenter"",""1"",""3981""
""fullscreenexit"",""48"",""282056""
""blur"",""129"",""421535""
""focus"",""129"",""476371""
","""event"",""trial"",""time""
""blur"",""129"",""421535""
","""event"",""trial"",""time""
""focus"",""129"",""476371""
","""event"",""trial"",""time""
""fullscreenenter"",""1"",""3981""
","""event"",""trial"",""time""
""fullscreenexit"",""48"",""282056""
","","","","","","1143.6000000089407","images/cactus7.png","","","memory_trial","1","definitely_old",""
"html-keyboard-response","170","538298","0.0-18.0-0.62","4585","approach_avoid_sv1","""event"",""trial"",""time""
""fullscreenenter"",""1"",""3981""
""fullscreenexit"",""48"",""282056""
""blur"",""129"",""421535""
""focus"",""129"",""476371""
","""event"",""trial"",""time""
""blur"",""129"",""421535""
","""event"",""trial"",""time""
""focus"",""129"",""476371""
","""event"",""trial"",""time""
""fullscreenenter"",""1"",""3981""
","""event"",""trial"",""time""
""fullscreenexit"",""48"",""282056""
","","","","","","null","<div style=""font-size:60px;"">+</div>","null","","fixation","","",""
"memory-trial","171","539898","0.0-18.0-1.62","4585","approach_avoid_sv1","""event"",""trial"",""time""
""fullscreenenter"",""1"",""3981""
""fullscreenexit"",""48"",""282056""
""blur"",""129"",""421535""
""focus"",""129"",""476371""
","""event"",""trial"",""time""
""blur"",""129"",""421535""
","""event"",""trial"",""time""
""focus"",""129"",""476371""
","""event"",""trial"",""time""
""fullscreenenter"",""1"",""3981""
","""event"",""trial"",""time""
""fullscreenexit"",""48"",""282056""
","","","","","","595.8000000119209","images/cactus3.png","","","memory_trial","1","definitely_old",""
"html-keyboard-response","172","540402","0.0-18.0-0.63","4585","approach_avoid_sv1","""event"",""trial"",""time""
""fullscreenenter"",""1"",""3981""
""fullscreenexit"",""48"",""282056""
""blur"",""129"",""421535""
""focus"",""129"",""476371""
","""event"",""trial"",""time""
""blur"",""129"",""421535""
","""event"",""trial"",""time""
""focus"",""129"",""476371""
","""event"",""trial"",""time""
""fullscreenenter"",""1"",""3981""
","""event"",""trial"",""time""
""fullscreenexit"",""48"",""282056""
","","","","","","null","<div style=""font-size:60px;"">+</div>","null","","fixation","","",""
"memory-trial","173","542834","0.0-18.0-1.63","4585","approach_avoid_sv1","""event"",""trial"",""time""
""fullscreenenter"",""1"",""3981""
""fullscreenexit"",""48"",""282056""
""blur"",""129"",""421535""
""focus"",""129"",""476371""
","""event"",""trial"",""time""
""blur"",""129"",""421535""
","""event"",""trial"",""time""
""focus"",""129"",""476371""
","""event"",""trial"",""time""
""fullscreenenter"",""1"",""3981""
","""event"",""trial"",""time""
""fullscreenexit"",""48"",""282056""
","","","","","","1427","images/chair3.png","","","memory_trial","3","maybe_new",""
"html-keyboard-response","174","543338","0.0-18.0-0.64","4585","approach_avoid_sv1","""event"",""trial"",""time""
""fullscreenenter"",""1"",""3981""
""fullscreenexit"",""48"",""282056""
""blur"",""129"",""421535""
""focus"",""129"",""476371""
","""event"",""trial"",""time""
""blur"",""129"",""421535""
","""event"",""trial"",""time""
""focus"",""129"",""476371""
","""event"",""trial"",""time""
""fullscreenenter"",""1"",""3981""
","""event"",""trial"",""time""
""fullscreenexit"",""48"",""282056""
","","","","","","null","<div style=""font-size:60px;"">+</div>","null","","fixation","","",""
"memory-trial","175","545123","0.0-18.0-1.64","4585","approach_avoid_sv1","""event"",""trial"",""time""
""fullscreenenter"",""1"",""3981""
""fullscreenexit"",""48"",""282056""
""blur"",""129"",""421535""
""focus"",""129"",""476371""
","""event"",""trial"",""time""
""blur"",""129"",""421535""
","""event"",""trial"",""time""
""focus"",""129"",""476371""
","""event"",""trial"",""time""
""fullscreenenter"",""1"",""3981""
","""event"",""trial"",""time""
""fullscreenexit"",""48"",""282056""
","","","","","","776.7000000029802","images/boat6.png","","","memory_trial","4","definitely_new",""
"html-keyboard-response","176","545626","0.0-18.0-0.65","4585","approach_avoid_sv1","""event"",""trial"",""time""
""fullscreenenter"",""1"",""3981""
""fullscreenexit"",""48"",""282056""
""blur"",""129"",""421535""
""focus"",""129"",""476371""
","""event"",""trial"",""time""
""blur"",""129"",""421535""
","""event"",""trial"",""time""
""focus"",""129"",""476371""
","""event"",""trial"",""time""
""fullscreenenter"",""1"",""3981""
","""event"",""trial"",""time""
""fullscreenexit"",""48"",""282056""
","","","","","","null","<div style=""font-size:60px;"">+</div>","null","","fixation","","",""
"memory-trial","177","548922","0.0-18.0-1.65","4585","approach_avoid_sv1","""event"",""trial"",""time""
""fullscreenenter"",""1"",""3981""
""fullscreenexit"",""48"",""282056""
""blur"",""129"",""421535""
""focus"",""129"",""476371""
","""event"",""trial"",""time""
""blur"",""129"",""421535""
","""event"",""trial"",""time""
""focus"",""129"",""476371""
","""event"",""trial"",""time""
""fullscreenenter"",""1"",""3981""
","""event"",""trial"",""time""
""fullscreenexit"",""48"",""282056""
","","","","","","2289.2000000029802","images/truck6.png","","","memory_trial","3","maybe_new",""
"html-keyboard-response","178","549426","0.0-18.0-0.66","4585","approach_avoid_sv1","""event"",""trial"",""time""
""fullscreenenter"",""1"",""3981""
""fullscreenexit"",""48"",""282056""
""blur"",""129"",""421535""
""focus"",""129"",""476371""
","""event"",""trial"",""time""
""blur"",""129"",""421535""
","""event"",""trial"",""time""
""focus"",""129"",""476371""
","""event"",""trial"",""time""
""fullscreenenter"",""1"",""3981""
","""event"",""trial"",""time""
""fullscreenexit"",""48"",""282056""
","","","","","","null","<div style=""font-size:60px;"">+</div>","null","","fixation","","",""
"memory-trial","179","551754","0.0-18.0-1.66","4585","approach_avoid_sv1","""event"",""trial"",""time""
""fullscreenenter"",""1"",""3981""
""fullscreenexit"",""48"",""282056""
""blur"",""129"",""421535""
""focus"",""129"",""476371""
","""event"",""trial"",""time""
""blur"",""129"",""421535""
","""event"",""trial"",""time""
""focus"",""129"",""476371""
","""event"",""trial"",""time""
""fullscreenenter"",""1"",""3981""
","""event"",""trial"",""time""
""fullscreenexit"",""48"",""282056""
","","","","","","1318.8999999910593","images/cactus1.png","","","memory_trial","3","maybe_new",""
"html-keyboard-response","180","552257","0.0-18.0-0.67","4585","approach_avoid_sv1","""event"",""trial"",""time""
""fullscreenenter"",""1"",""3981""
""fullscreenexit"",""48"",""282056""
""blur"",""129"",""421535""
""focus"",""129"",""476371""
","""event"",""trial"",""time""
""blur"",""129"",""421535""
","""event"",""trial"",""time""
""focus"",""129"",""476371""
","""event"",""trial"",""time""
""fullscreenenter"",""1"",""3981""
","""event"",""trial"",""time""
""fullscreenexit"",""48"",""282056""
","","","","","","null","<div style=""font-size:60px;"">+</div>","null","","fixation","","",""
"memory-trial","181","555067","0.0-18.0-1.67","4585","approach_avoid_sv1","""event"",""trial"",""time""
""fullscreenenter"",""1"",""3981""
""fullscreenexit"",""48"",""282056""
""blur"",""129"",""421535""
""focus"",""129"",""476371""
","""event"",""trial"",""time""
""blur"",""129"",""421535""
","""event"",""trial"",""time""
""focus"",""129"",""476371""
","""event"",""trial"",""time""
""fullscreenenter"",""1"",""3981""
","""event"",""trial"",""time""
""fullscreenexit"",""48"",""282056""
","","","","","","1800.5","images/rodent7.png","","","memory_trial","2","maybe_old",""
"html-keyboard-response","182","555569","0.0-18.0-0.68","4585","approach_avoid_sv1","""event"",""trial"",""time""
""fullscreenenter"",""1"",""3981""
""fullscreenexit"",""48"",""282056""
""blur"",""129"",""421535""
""focus"",""129"",""476371""
","""event"",""trial"",""time""
""blur"",""129"",""421535""
","""event"",""trial"",""time""
""focus"",""129"",""476371""
","""event"",""trial"",""time""
""fullscreenenter"",""1"",""3981""
","""event"",""trial"",""time""
""fullscreenexit"",""48"",""282056""
","","","","","","null","<div style=""font-size:60px;"">+</div>","null","","fixation","","",""
"memory-trial","183","557858","0.0-18.0-1.68","4585","approach_avoid_sv1","""event"",""trial"",""time""
""fullscreenenter"",""1"",""3981""
""fullscreenexit"",""48"",""282056""
""blur"",""129"",""421535""
""focus"",""129"",""476371""
","""event"",""trial"",""time""
""blur"",""129"",""421535""
","""event"",""trial"",""time""
""focus"",""129"",""476371""
","""event"",""trial"",""time""
""fullscreenenter"",""1"",""3981""
","""event"",""trial"",""time""
""fullscreenexit"",""48"",""282056""
","","","","","","1283.2000000029802","images/boat4.png","","","memory_trial","1","definitely_old",""
"html-keyboard-response","184","558362","0.0-18.0-0.69","4585","approach_avoid_sv1","""event"",""trial"",""time""
""fullscreenenter"",""1"",""3981""
""fullscreenexit"",""48"",""282056""
""blur"",""129"",""421535""
""focus"",""129"",""476371""
","""event"",""trial"",""time""
""blur"",""129"",""421535""
","""event"",""trial"",""time""
""focus"",""129"",""476371""
","""event"",""trial"",""time""
""fullscreenenter"",""1"",""3981""
","""event"",""trial"",""time""
""fullscreenexit"",""48"",""282056""
","","","","","","null","<div style=""font-size:60px;"">+</div>","null","","fixation","","",""
"memory-trial","185","561610","0.0-18.0-1.69","4585","approach_avoid_sv1","""event"",""trial"",""time""
""fullscreenenter"",""1"",""3981""
""fullscreenexit"",""48"",""282056""
""blur"",""129"",""421535""
""focus"",""129"",""476371""
","""event"",""trial"",""time""
""blur"",""129"",""421535""
","""event"",""trial"",""time""
""focus"",""129"",""476371""
","""event"",""trial"",""time""
""fullscreenenter"",""1"",""3981""
","""event"",""trial"",""time""
""fullscreenexit"",""48"",""282056""
","","","","","","2241","images/apple5.png","","","memory_trial","4","definitely_new",""
"html-keyboard-response","186","562113","0.0-18.0-0.70","4585","approach_avoid_sv1","""event"",""trial"",""time""
""fullscreenenter"",""1"",""3981""
""fullscreenexit"",""48"",""282056""
""blur"",""129"",""421535""
""focus"",""129"",""476371""
","""event"",""trial"",""time""
""blur"",""129"",""421535""
","""event"",""trial"",""time""
""focus"",""129"",""476371""
","""event"",""trial"",""time""
""fullscreenenter"",""1"",""3981""
","""event"",""trial"",""time""
""fullscreenexit"",""48"",""282056""
","","","","","","null","<div style=""font-size:60px;"">+</div>","null","","fixation","","",""
"memory-trial","187","564433","0.0-18.0-1.70","4585","approach_avoid_sv1","""event"",""trial"",""time""
""fullscreenenter"",""1"",""3981""
""fullscreenexit"",""48"",""282056""
""blur"",""129"",""421535""
""focus"",""129"",""476371""
","""event"",""trial"",""time""
""blur"",""129"",""421535""
","""event"",""trial"",""time""
""focus"",""129"",""476371""
","""event"",""trial"",""time""
""fullscreenenter"",""1"",""3981""
","""event"",""trial"",""time""
""fullscreenexit"",""48"",""282056""
","","","","","","1317.0999999940395","images/horse3.png","","","memory_trial","2","maybe_old",""
"html-keyboard-response","188","564939","0.0-18.0-0.71","4585","approach_avoid_sv1","""event"",""trial"",""time""
""fullscreenenter"",""1"",""3981""
""fullscreenexit"",""48"",""282056""
""blur"",""129"",""421535""
""focus"",""129"",""476371""
","""event"",""trial"",""time""
""blur"",""129"",""421535""
","""event"",""trial"",""time""
""focus"",""129"",""476371""
","""event"",""trial"",""time""
""fullscreenenter"",""1"",""3981""
","""event"",""trial"",""time""
""fullscreenexit"",""48"",""282056""
","","","","","","null","<div style=""font-size:60px;"">+</div>","null","","fixation","","",""
"memory-trial","189","567114","0.0-18.0-1.71","4585","approach_avoid_sv1","""event"",""trial"",""time""
""fullscreenenter"",""1"",""3981""
""fullscreenexit"",""48"",""282056""
""blur"",""129"",""421535""
""focus"",""129"",""476371""
","""event"",""trial"",""time""
""blur"",""129"",""421535""
","""event"",""trial"",""time""
""focus"",""129"",""476371""
","""event"",""trial"",""time""
""fullscreenenter"",""1"",""3981""
","""event"",""trial"",""time""
""fullscreenexit"",""48"",""282056""
","","","","","","1173.2000000029802","images/sheep7.png","","","memory_trial","4","definitely_new",""
"html-keyboard-response","190","567618","0.0-18.0-0.72","4585","approach_avoid_sv1","""event"",""trial"",""time""
""fullscreenenter"",""1"",""3981""
""fullscreenexit"",""48"",""282056""
""blur"",""129"",""421535""
""focus"",""129"",""476371""
","""event"",""trial"",""time""
""blur"",""129"",""421535""
","""event"",""trial"",""time""
""focus"",""129"",""476371""
","""event"",""trial"",""time""
""fullscreenenter"",""1"",""3981""
","""event"",""trial"",""time""
""fullscreenexit"",""48"",""282056""
","","","","","","null","<div style=""font-size:60px;"">+</div>","null","","fixation","","",""
"memory-trial","191","570075","0.0-18.0-1.72","4585","approach_avoid_sv1","""event"",""trial"",""time""
""fullscreenenter"",""1"",""3981""
""fullscreenexit"",""48"",""282056""
""blur"",""129"",""421535""
""focus"",""129"",""476371""
","""event"",""trial"",""time""
""blur"",""129"",""421535""
","""event"",""trial"",""time""
""focus"",""129"",""476371""
","""event"",""trial"",""time""
""fullscreenenter"",""1"",""3981""
","""event"",""trial"",""time""
""fullscreenexit"",""48"",""282056""
","","","","","","1448.5999999940395","images/rodent1.png","","","memory_trial","1","definitely_old",""
"html-keyboard-response","192","570578","0.0-18.0-0.73","4585","approach_avoid_sv1","""event"",""trial"",""time""
""fullscreenenter"",""1"",""3981""
""fullscreenexit"",""48"",""282056""
""blur"",""129"",""421535""
""focus"",""129"",""476371""
","""event"",""trial"",""time""
""blur"",""129"",""421535""
","""event"",""trial"",""time""
""focus"",""129"",""476371""
","""event"",""trial"",""time""
""fullscreenenter"",""1"",""3981""
","""event"",""trial"",""time""
""fullscreenexit"",""48"",""282056""
","","","","","","null","<div style=""font-size:60px;"">+</div>","null","","fixation","","",""
"memory-trial","193","573114","0.0-18.0-1.73","4585","approach_avoid_sv1","""event"",""trial"",""time""
""fullscreenenter"",""1"",""3981""
""fullscreenexit"",""48"",""282056""
""blur"",""129"",""421535""
""focus"",""129"",""476371""
","""event"",""trial"",""time""
""blur"",""129"",""421535""
","""event"",""trial"",""time""
""focus"",""129"",""476371""
","""event"",""trial"",""time""
""fullscreenenter"",""1"",""3981""
","""event"",""trial"",""time""
""fullscreenexit"",""48"",""282056""
","","","","","","1533.2000000029802","images/dog2.png","","","memory_trial","3","maybe_new",""
"html-keyboard-response","194","573617","0.0-18.0-0.74","4585","approach_avoid_sv1","""event"",""trial"",""time""
""fullscreenenter"",""1"",""3981""
""fullscreenexit"",""48"",""282056""
""blur"",""129"",""421535""
""focus"",""129"",""476371""
","""event"",""trial"",""time""
""blur"",""129"",""421535""
","""event"",""trial"",""time""
""focus"",""129"",""476371""
","""event"",""trial"",""time""
""fullscreenenter"",""1"",""3981""
","""event"",""trial"",""time""
""fullscreenexit"",""48"",""282056""
","","","","","","null","<div style=""font-size:60px;"">+</div>","null","","fixation","","",""
"memory-trial","195","576050","0.0-18.0-1.74","4585","approach_avoid_sv1","""event"",""trial"",""time""
""fullscreenenter"",""1"",""3981""
""fullscreenexit"",""48"",""282056""
""blur"",""129"",""421535""
""focus"",""129"",""476371""
","""event"",""trial"",""time""
""blur"",""129"",""421535""
","""event"",""trial"",""time""
""focus"",""129"",""476371""
","""event"",""trial"",""time""
""fullscreenenter"",""1"",""3981""
","""event"",""trial"",""time""
""fullscreenexit"",""48"",""282056""
","","","","","","1430.2999999970198","images/chair8.png","","","memory_trial","1","definitely_old",""
"html-keyboard-response","196","576554","0.0-18.0-0.75","4585","approach_avoid_sv1","""event"",""trial"",""time""
""fullscreenenter"",""1"",""3981""
""fullscreenexit"",""48"",""282056""
""blur"",""129"",""421535""
""focus"",""129"",""476371""
","""event"",""trial"",""time""
""blur"",""129"",""421535""
","""event"",""trial"",""time""
""focus"",""129"",""476371""
","""event"",""trial"",""time""
""fullscreenenter"",""1"",""3981""
","""event"",""trial"",""time""
""fullscreenexit"",""48"",""282056""
","","","","","","null","<div style=""font-size:60px;"">+</div>","null","","fixation","","",""
"memory-trial","197","579474","0.0-18.0-1.75","4585","approach_avoid_sv1","""event"",""trial"",""time""
""fullscreenenter"",""1"",""3981""
""fullscreenexit"",""48"",""282056""
""blur"",""129"",""421535""
""focus"",""129"",""476371""
","""event"",""trial"",""time""
""blur"",""129"",""421535""
","""event"",""trial"",""time""
""focus"",""129"",""476371""
","""event"",""trial"",""time""
""fullscreenenter"",""1"",""3981""
","""event"",""trial"",""time""
""fullscreenexit"",""48"",""282056""
","","","","","","1918.2999999970198","images/banana8.png","","","memory_trial","4","definitely_new",""
"html-keyboard-response","198","579978","0.0-18.0-0.76","4585","approach_avoid_sv1","""event"",""trial"",""time""
""fullscreenenter"",""1"",""3981""
""fullscreenexit"",""48"",""282056""
""blur"",""129"",""421535""
""focus"",""129"",""476371""
","""event"",""trial"",""time""
""blur"",""129"",""421535""
","""event"",""trial"",""time""
""focus"",""129"",""476371""
","""event"",""trial"",""time""
""fullscreenenter"",""1"",""3981""
","""event"",""trial"",""time""
""fullscreenexit"",""48"",""282056""
","","","","","","null","<div style=""font-size:60px;"">+</div>","null","","fixation","","",""
"memory-trial","199","582322","0.0-18.0-1.76","4585","approach_avoid_sv1","""event"",""trial"",""time""
""fullscreenenter"",""1"",""3981""
""fullscreenexit"",""48"",""282056""
""blur"",""129"",""421535""
""focus"",""129"",""476371""
","""event"",""trial"",""time""
""blur"",""129"",""421535""
","""event"",""trial"",""time""
""focus"",""129"",""476371""
","""event"",""trial"",""time""
""fullscreenenter"",""1"",""3981""
","""event"",""trial"",""time""
""fullscreenexit"",""48"",""282056""
","","","","","","1342.0999999940395","images/cactus5.png","","","memory_trial","4","definitely_new",""
"html-keyboard-response","200","582825","0.0-18.0-0.77","4585","approach_avoid_sv1","""event"",""trial"",""time""
""fullscreenenter"",""1"",""3981""
""fullscreenexit"",""48"",""282056""
""blur"",""129"",""421535""
""focus"",""129"",""476371""
","""event"",""trial"",""time""
""blur"",""129"",""421535""
","""event"",""trial"",""time""
""focus"",""129"",""476371""
","""event"",""trial"",""time""
""fullscreenenter"",""1"",""3981""
","""event"",""trial"",""time""
""fullscreenexit"",""48"",""282056""
","","","","","","null","<div style=""font-size:60px;"">+</div>","null","","fixation","","",""
"memory-trial","201","586635","0.0-18.0-1.77","4585","approach_avoid_sv1","""event"",""trial"",""time""
""fullscreenenter"",""1"",""3981""
""fullscreenexit"",""48"",""282056""
""blur"",""129"",""421535""
""focus"",""129"",""476371""
","""event"",""trial"",""time""
""blur"",""129"",""421535""
","""event"",""trial"",""time""
""focus"",""129"",""476371""
","""event"",""trial"",""time""
""fullscreenenter"",""1"",""3981""
","""event"",""trial"",""time""
""fullscreenexit"",""48"",""282056""
","","","","","","2800.7999999970198","images/chair1.png","","","memory_trial","2","maybe_old",""
"html-keyboard-response","202","587137","0.0-18.0-0.78","4585","approach_avoid_sv1","""event"",""trial"",""time""
""fullscreenenter"",""1"",""3981""
""fullscreenexit"",""48"",""282056""
""blur"",""129"",""421535""
""focus"",""129"",""476371""
","""event"",""trial"",""time""
""blur"",""129"",""421535""
","""event"",""trial"",""time""
""focus"",""129"",""476371""
","""event"",""trial"",""time""
""fullscreenenter"",""1"",""3981""
","""event"",""trial"",""time""
""fullscreenexit"",""48"",""282056""
","","","","","","null","<div style=""font-size:60px;"">+</div>","null","","fixation","","",""
"memory-trial","203","590034","0.0-18.0-1.78","4585","approach_avoid_sv1","""event"",""trial"",""time""
""fullscreenenter"",""1"",""3981""
""fullscreenexit"",""48"",""282056""
""blur"",""129"",""421535""
""focus"",""129"",""476371""
","""event"",""trial"",""time""
""blur"",""129"",""421535""
","""event"",""trial"",""time""
""focus"",""129"",""476371""
","""event"",""trial"",""time""
""fullscreenenter"",""1"",""3981""
","""event"",""trial"",""time""
""fullscreenexit"",""48"",""282056""
","","","","","","1894.699999988079","images/sofa7.png","","","memory_trial","4","definitely_new",""
"html-keyboard-response","204","590538","0.0-18.0-0.79","4585","approach_avoid_sv1","""event"",""trial"",""time""
""fullscreenenter"",""1"",""3981""
""fullscreenexit"",""48"",""282056""
""blur"",""129"",""421535""
""focus"",""129"",""476371""
","""event"",""trial"",""time""
""blur"",""129"",""421535""
","""event"",""trial"",""time""
""focus"",""129"",""476371""
","""event"",""trial"",""time""
""fullscreenenter"",""1"",""3981""
","""event"",""trial"",""time""
""fullscreenexit"",""48"",""282056""
","","","","","","null","<div style=""font-size:60px;"">+</div>","null","","fixation","","",""
"memory-trial","205","593713","0.0-18.0-1.79","4585","approach_avoid_sv1","""event"",""trial"",""time""
""fullscreenenter"",""1"",""3981""
""fullscreenexit"",""48"",""282056""
""blur"",""129"",""421535""
""focus"",""129"",""476371""
","""event"",""trial"",""time""
""blur"",""129"",""421535""
","""event"",""trial"",""time""
""focus"",""129"",""476371""
","""event"",""trial"",""time""
