"trial_type","trial_index","time_elapsed","internal_node_id","subject_id","task_version","interactions","blur_events","focus_events","fullscreenenter_events","fullscreenexit_events","success","timeout","failed_images","failed_audio","failed_video","rt","stimulus","response","button_pressed","task_part","key_press","answer","correct"
"pavlovia","0","2","0.0-0.0","5946","approach_avoid_sv1","""event"",""trial"",""time""
""fullscreenenter"",""1"",""2305""
","
","
","""event"",""trial"",""time""
""fullscreenenter"",""1"",""2305""
","
","","","","","","","","","","","","",""
"fullscreen","1","3304","0.0-1.0","5946","approach_avoid_sv1","""event"",""trial"",""time""
""fullscreenenter"",""1"",""2305""
","
","
","""event"",""trial"",""time""
""fullscreenenter"",""1"",""2305""
","
","true","","","","","","","","","","","",""
"preload","2","7204","0.0-2.0","5946","approach_avoid_sv1","""event"",""trial"",""time""
""fullscreenenter"",""1"",""2305""
","
","
","""event"",""trial"",""time""
""fullscreenenter"",""1"",""2305""
","
","true","false","[]","[]","[]","","","","","","","",""
"preload","3","9589","0.0-3.0","5946","approach_avoid_sv1","""event"",""trial"",""time""
""fullscreenenter"",""1"",""2305""
","
","
","""event"",""trial"",""time""
""fullscreenenter"",""1"",""2305""
","
","true","false","[]","[]","[]","","","","","","","",""
"preload","4","9855","0.0-4.0","5946","approach_avoid_sv1","""event"",""trial"",""time""
""fullscreenenter"",""1"",""2305""
","
","
","""event"",""trial"",""time""
""fullscreenenter"",""1"",""2305""
","
","true","false","[]","[]","[]","","","","","","","",""
"audio-keyboard-response","5","12313","0.0-5.0","5946","approach_avoid_sv1","""event"",""trial"",""time""
""fullscreenenter"",""1"",""2305""
","
","
","""event"",""trial"",""time""
""fullscreenenter"",""1"",""2305""
","
","","","","","","2144","audio/beep_loop.wav"," ","","","","",""
"audio-button-response","6","14037","0.0-6.0","5946","approach_avoid_sv1","""event"",""trial"",""time""
""fullscreenenter"",""1"",""2305""
","
","
","""event"",""trial"",""time""
""fullscreenenter"",""1"",""2305""
","
","","","","","","1723","audio/turtle.wav","3","","","","",""
"audio-button-response","7","16829","0.0-7.0","5946","approach_avoid_sv1","""event"",""trial"",""time""
""fullscreenenter"",""1"",""2305""
","
","
","""event"",""trial"",""time""
""fullscreenenter"",""1"",""2305""
","
","","","","","","1792","audio/shark.wav","2","","","","",""
"preload","8","20690","0.0-8.0","5946","approach_avoid_sv1","""event"",""trial"",""time""
""fullscreenenter"",""1"",""2305""
","
","
","""event"",""trial"",""time""
""fullscreenenter"",""1"",""2305""
","
","true","false","[]","[]","[]","","","","","","","",""
"learning-instructions","9","26751","0.0-9.0-0.0","5946","approach_avoid_sv1","""event"",""trial"",""time""
""fullscreenenter"",""1"",""2305""
","
","
","""event"",""trial"",""time""
""fullscreenenter"",""1"",""2305""
","
","","","","","","1580.5","<p> Welcome back! </p><p> Last week, you had to make choices about lots of different items.  </p>","","0","instructions","","",""
"learning-instructions","10","31601","0.0-9.0-0.1","5946","approach_avoid_sv1","""event"",""trial"",""time""
""fullscreenenter"",""1"",""2305""
","
","
","""event"",""trial"",""time""
""fullscreenenter"",""1"",""2305""
","
","","","","","","734.9000000357628","<p> Today, we are going to ask you to try to remember all the items. </p>","","0","instructions","","",""
"learning-instructions","11","42342","0.0-9.0-0.2","5946","approach_avoid_sv1","""event"",""trial"",""time""
""fullscreenenter"",""1"",""2305""
","
","
","""event"",""trial"",""time""
""fullscreenenter"",""1"",""2305""
","
","","","","","","606.1999999880791","<p> On every trial, you will see an image. </p><p> The image may be an OLD image you saw during the games last week or it may be a NEW image that was not presented. </p>","","0","instructions","","",""
"learning-instructions","12","51337","0.0-9.0-0.3","5946","approach_avoid_sv1","""event"",""trial"",""time""
""fullscreenenter"",""1"",""2305""
","
","
","""event"",""trial"",""time""
""fullscreenenter"",""1"",""2305""
","
","","","","","","497","<p> You need to select whether the image is:  </p><p>  'Definitely old', 'Maybe old', 'Maybe new', or 'Definitely new.'  </p><div class=""mem-choice-instructions-grid""><div class=""choice-option"" id=""choice-option-1"" ><img src=""images/definitely_old_1.png"" id=""choice-option-img-1"" class=""choice-option-img"" stage=""1""></div><div class=""choice-option"" id=""choice-option-2"" ><img src=""images/maybe_old_1.png"" id=""choice-option-img-2"" class=""choice-option-img"" stage=""1""></div><div class=""choice-option"" id=""choice-option-3"" ><img src=""images/maybe_new_1.png"" id=""choice-option-img-3"" class=""choice-option-img"" stage=""1""></div><div class=""choice-option"" id=""choice-option-4"" > <img src=""images/definitely_new_1.png"" id=""choice-option-img-4"" class=""choice-option-img"" stage=""1""></div></div>","","0","instructions","","",""
"learning-instructions","13","58350","0.0-9.0-0.4","5946","approach_avoid_sv1","""event"",""trial"",""time""
""fullscreenenter"",""1"",""2305""
","
","
","""event"",""trial"",""time""
""fullscreenenter"",""1"",""2305""
","
","","","","","","496.5","<p> You should use the 1, 2, 3, and 4 keys to make your responses.  </p><div class=""mem-choice-instructions-grid""><div class=""choice-option"" id=""choice-option-1"" ><img src=""images/definitely_old.png"" id=""choice-option-img-1"" class=""choice-option-img"" stage=""1""></div><div class=""choice-option"" id=""choice-option-2"" ><img src=""images/maybe_old.png"" id=""choice-option-img-2"" class=""choice-option-img"" stage=""1""></div><div class=""choice-option"" id=""choice-option-3"" ><img src=""images/maybe_new.png"" id=""choice-option-img-3"" class=""choice-option-img"" stage=""1""></div><div class=""choice-option"" id=""choice-option-4"" > <img src=""images/definitely_new.png"" id=""choice-option-img-4"" class=""choice-option-img"" stage=""1""></div></div>","","0","instructions","","",""
"learning-instructions","14","65259","0.0-9.0-0.5","5946","approach_avoid_sv1","""event"",""trial"",""time""
""fullscreenenter"",""1"",""2305""
","
","
","""event"",""trial"",""time""
""fullscreenenter"",""1"",""2305""
","
","","","","","","584.1000000238419","<p> You will have 10 seconds to make each response.  </p><p>  Make sure to respond before time runs out! </p>","","0","instructions","","",""
"learning-instructions","15","73297","0.0-9.0-0.6","5946","approach_avoid_sv1","""event"",""trial"",""time""
""fullscreenenter"",""1"",""2305""
","
","
","""event"",""trial"",""time""
""fullscreenenter"",""1"",""2305""
","
","","","","","","969.5","<p> Today, you will see each image ONCE only.  </p><p>  That means none of the images will repeat. </p>","","0","instructions","","",""
"learning-instructions","16","86354","0.0-9.0-0.7","5946","approach_avoid_sv1","""event"",""trial"",""time""
""fullscreenenter"",""1"",""2305""
","
","
","""event"",""trial"",""time""
""fullscreenenter"",""1"",""2305""
","
","","","","","","389.80000001192093","<p> Before you play the real game, it is time to practice. </p><p>  Just like in the real game, some of the images in the practice will be ones you have seen before. </p><p>  Others will be entirely new. </p>","","0","instructions","","",""
"html-button-response","17","88287","0.0-10.0","5946","approach_avoid_sv1","""event"",""trial"",""time""
""fullscreenenter"",""1"",""2305""
","
","
","""event"",""trial"",""time""
""fullscreenenter"",""1"",""2305""
","
","","","","","","1830.0999999642372","<p> Ready to practice? </p><p> Remember, use the 1, 2, 3, and 4 keys to make your responses. </p>","0","","instructions","","",""
"html-keyboard-response","18","88896","0.0-11.0-0.0","5946","approach_avoid_sv1","""event"",""trial"",""time""
""fullscreenenter"",""1"",""2305""
","
","
","""event"",""trial"",""time""
""fullscreenenter"",""1"",""2305""
","
","","","","","","null","<div style=""font-size:60px;"">+</div>","null","","fixation","","",""
"memory-trial","19","93320","0.0-11.0-1.0","5946","approach_avoid_sv1","""event"",""trial"",""time""
""fullscreenenter"",""1"",""2305""
","
","
","""event"",""trial"",""time""
""fullscreenenter"",""1"",""2305""
","
","","","","","","3415.599999964237","images/racket5.png","","","practice","1","definitely_old",""
"html-keyboard-response","20","93822","0.0-11.0-0.1","5946","approach_avoid_sv1","""event"",""trial"",""time""
""fullscreenenter"",""1"",""2305""
","
","
","""event"",""trial"",""time""
""fullscreenenter"",""1"",""2305""
","
","","","","","","null","<div style=""font-size:60px;"">+</div>","null","","fixation","","",""
"memory-trial","21","97166","0.0-11.0-1.1","5946","approach_avoid_sv1","""event"",""trial"",""time""
""fullscreenenter"",""1"",""2305""
","
","
","""event"",""trial"",""time""
""fullscreenenter"",""1"",""2305""
","
","","","","","","2340.2999999523163","images/racket2.png","","","practice","2","maybe_old",""
"html-keyboard-response","22","97669","0.0-11.0-0.2","5946","approach_avoid_sv1","""event"",""trial"",""time""
""fullscreenenter"",""1"",""2305""
","
","
","""event"",""trial"",""time""
""fullscreenenter"",""1"",""2305""
","
","","","","","","null","<div style=""font-size:60px;"">+</div>","null","","fixation","","",""
"memory-trial","23","100413","0.0-11.0-1.2","5946","approach_avoid_sv1","""event"",""trial"",""time""
""fullscreenenter"",""1"",""2305""
","
","
","""event"",""trial"",""time""
""fullscreenenter"",""1"",""2305""
","
","","","","","","1736","images/racket3.png","","","practice","4","definitely_new",""
"html-keyboard-response","24","100914","0.0-11.0-0.3","5946","approach_avoid_sv1","""event"",""trial"",""time""
""fullscreenenter"",""1"",""2305""
","
","
","""event"",""trial"",""time""
""fullscreenenter"",""1"",""2305""
","
","","","","","","null","<div style=""font-size:60px;"">+</div>","null","","fixation","","",""
"memory-trial","25","103506","0.0-11.0-1.3","5946","approach_avoid_sv1","""event"",""trial"",""time""
""fullscreenenter"",""1"",""2305""
","
","
","""event"",""trial"",""time""
""fullscreenenter"",""1"",""2305""
","
","","","","","","1587.0999999642372","images/ball2.png","","","practice","1","definitely_old",""
"html-keyboard-response","26","104007","0.0-11.0-0.4","5946","approach_avoid_sv1","""event"",""trial"",""time""
""fullscreenenter"",""1"",""2305""
","
","
","""event"",""trial"",""time""
""fullscreenenter"",""1"",""2305""
","
","","","","","","null","<div style=""font-size:60px;"">+</div>","null","","fixation","","",""
"memory-trial","27","106224","0.0-11.0-1.4","5946","approach_avoid_sv1","""event"",""trial"",""time""
""fullscreenenter"",""1"",""2305""
","
","
","""event"",""trial"",""time""
""fullscreenenter"",""1"",""2305""
","
","","","","","","1213.0999999642372","images/ball3.png","","","practice","1","definitely_old",""
"html-keyboard-response","28","106726","0.0-11.0-0.5","5946","approach_avoid_sv1","""event"",""trial"",""time""
""fullscreenenter"",""1"",""2305""
","
","
","""event"",""trial"",""time""
""fullscreenenter"",""1"",""2305""
","
","","","","","","null","<div style=""font-size:60px;"">+</div>","null","","fixation","","",""
"memory-trial","29","110130","0.0-11.0-1.5","5946","approach_avoid_sv1","""event"",""trial"",""time""
""fullscreenenter"",""1"",""2305""
","
","
","""event"",""trial"",""time""
""fullscreenenter"",""1"",""2305""
","
","","","","","","2400.900000035763","images/racket1.png","","","practice","3","maybe_new",""
"html-keyboard-response","30","110636","0.0-11.0-0.6","5946","approach_avoid_sv1","""event"",""trial"",""time""
""fullscreenenter"",""1"",""2305""
","
","
","""event"",""trial"",""time""
""fullscreenenter"",""1"",""2305""
","
","","","","","","null","<div style=""font-size:60px;"">+</div>","null","","fixation","","",""
"memory-trial","31","113579","0.0-11.0-1.6","5946","approach_avoid_sv1","""event"",""trial"",""time""
""fullscreenenter"",""1"",""2305""
","
","
","""event"",""trial"",""time""
""fullscreenenter"",""1"",""2305""
","
","","","","","","1937.699999988079","images/ball5.png","","","practice","4","definitely_new",""
"html-keyboard-response","32","114082","0.0-11.0-0.7","5946","approach_avoid_sv1","""event"",""trial"",""time""
""fullscreenenter"",""1"",""2305""
","
","
","""event"",""trial"",""time""
""fullscreenenter"",""1"",""2305""
","
","","","","","","null","<div style=""font-size:60px;"">+</div>","null","","fixation","","",""
"memory-trial","33","116866","0.0-11.0-1.7","5946","approach_avoid_sv1","""event"",""trial"",""time""
""fullscreenenter"",""1"",""2305""
","
","
","""event"",""trial"",""time""
""fullscreenenter"",""1"",""2305""
","
","","","","","","1776.699999988079","images/ball1.png","","","practice","2","maybe_old",""
"learning-instructions","34","125228","0.0-12.0-0.0","5946","approach_avoid_sv1","""event"",""trial"",""time""
""fullscreenenter"",""1"",""2305""
","
","
","""event"",""trial"",""time""
""fullscreenenter"",""1"",""2305""
","
","","","","","","660.5999999642372","<p> Great! You have completed the practice. </p><p> Before you start, we're going to ask you a few questions about how the game works.  </p>","","0","instructions","","",""
"preload","35","127539","0.0-13.0","5946","approach_avoid_sv1","""event"",""trial"",""time""
""fullscreenenter"",""1"",""2305""
","
","
","""event"",""trial"",""time""
""fullscreenenter"",""1"",""2305""
","
","true","false","[]","[]","[]","","","","","","","",""
"comp-q","36","134133","0.0-14.0-0.0","5946","approach_avoid_sv1","""event"",""trial"",""time""
""fullscreenenter"",""1"",""2305""
","
","
","""event"",""trial"",""time""
""fullscreenenter"",""1"",""2305""
","
","","","","","","764.9000000357628","<p> <b> True or False? </b> </p><p> In this game, you will only see each image once. </p>","","0","comp_question","","","true"
"comp-q","37","141737","0.0-14.0-1.0","5946","approach_avoid_sv1","""event"",""trial"",""time""
""fullscreenenter"",""1"",""2305""
","
","
","""event"",""trial"",""time""
""fullscreenenter"",""1"",""2305""
","
","","","","","","1265","<p> <b> That's right! </b> You will see many different images <i> one time each </i> in this game. </p>","","0","comp_answer","","",""
"comp-q","38","147536","0.0-15.0-0.0","5946","approach_avoid_sv1","""event"",""trial"",""time""
""fullscreenenter"",""1"",""2305""
","
","
","""event"",""trial"",""time""
""fullscreenenter"",""1"",""2305""
","
","","","","","","797.8000000119209","<p> <b> True or False? </b> </p><p> You should use the mouse and click to make your response. </p>","","1","comp_question","","","true"
"comp-q","39","155653","0.0-15.0-1.0","5946","approach_avoid_sv1","""event"",""trial"",""time""
""fullscreenenter"",""1"",""2305""
","
","
","""event"",""trial"",""time""
""fullscreenenter"",""1"",""2305""
","
","","","","","","1619","<p><b> That's right! </b> You should use the '1', '2', '3', and '4' keys to make your response. </p>","","0","comp_answer","","",""
"comp-q","40","162587","0.0-16.0-0.0","5946","approach_avoid_sv1","""event"",""trial"",""time""
""fullscreenenter"",""1"",""2305""
","
","
","""event"",""trial"",""time""
""fullscreenenter"",""1"",""2305""
","
","","","","","","1262.699999988079","<p> <b> True or False? </b> </p><p> You will have as much time as you want to make each choice. </p>","","1","comp_question","","","true"
"comp-q","41","168807","0.0-16.0-1.0","5946","approach_avoid_sv1","""event"",""trial"",""time""
""fullscreenenter"",""1"",""2305""
","
","
","""event"",""trial"",""time""
""fullscreenenter"",""1"",""2305""
","
","","","","","","1525","<p> <b> That's right! </b> You will only have 10 seconds to make each choice. </p>","","0","comp_answer","","",""
"learning-instructions","42","179333","0.0-17.0","5946","approach_avoid_sv1","""event"",""trial"",""time""
""fullscreenenter"",""1"",""2305""
","
","
","""event"",""trial"",""time""
""fullscreenenter"",""1"",""2305""
","
","","","","","","1858.800000011921","<p> Great! You are now ready to begin the game. </p><p> Remember, use the 1, 2, 3, and 4 keys to make your responses. </p>","","0","instructions","","",""
"html-keyboard-response","43","179934","0.0-18.0-0.0","5946","approach_avoid_sv1","""event"",""trial"",""time""
""fullscreenenter"",""1"",""2305""
","
","
","""event"",""trial"",""time""
""fullscreenenter"",""1"",""2305""
","
","","","","","","null","<div style=""font-size:60px;"">+</div>","null","","fixation","","",""
"memory-trial","44","183546","0.0-18.0-1.0","5946","approach_avoid_sv1","""event"",""trial"",""time""
""fullscreenenter"",""1"",""2305""
","
","
","""event"",""trial"",""time""
""fullscreenenter"",""1"",""2305""
","
","","","","","","2608.699999988079","images/dog4.png","","","memory_trial","2","maybe_old",""
"html-keyboard-response","45","184051","0.0-18.0-0.1","5946","approach_avoid_sv1","""event"",""trial"",""time""
""fullscreenenter"",""1"",""2305""
","
","
","""event"",""trial"",""time""
""fullscreenenter"",""1"",""2305""
","
","","","","","","null","<div style=""font-size:60px;"">+</div>","null","","fixation","","",""
"memory-trial","46","187628","0.0-18.0-1.1","5946","approach_avoid_sv1","""event"",""trial"",""time""
""fullscreenenter"",""1"",""2305""
","
","
","""event"",""trial"",""time""
""fullscreenenter"",""1"",""2305""
","
","","","","","","2573.600000023842","images/cow2.png","","","memory_trial","3","maybe_new",""
"html-keyboard-response","47","188129","0.0-18.0-0.2","5946","approach_avoid_sv1","""event"",""trial"",""time""
""fullscreenenter"",""1"",""2305""
","
","
","""event"",""trial"",""time""
""fullscreenenter"",""1"",""2305""
","
","","","","","","null","<div style=""font-size:60px;"">+</div>","null","","fixation","","",""
"memory-trial","48","192290","0.0-18.0-1.2","5946","approach_avoid_sv1","""event"",""trial"",""time""
""fullscreenenter"",""1"",""2305""
","
","
","""event"",""trial"",""time""
""fullscreenenter"",""1"",""2305""
","
","","","","","","3153.5","images/cow5.png","","","memory_trial","1","definitely_old",""
"html-keyboard-response","49","192795","0.0-18.0-0.3","5946","approach_avoid_sv1","""event"",""trial"",""time""
""fullscreenenter"",""1"",""2305""
","
","
","""event"",""trial"",""time""
""fullscreenenter"",""1"",""2305""
","
","","","","","","null","<div style=""font-size:60px;"">+</div>","null","","fixation","","",""
"memory-trial","50","195621","0.0-18.0-1.3","5946","approach_avoid_sv1","""event"",""trial"",""time""
""fullscreenenter"",""1"",""2305""
","
","
","""event"",""trial"",""time""
""fullscreenenter"",""1"",""2305""
","
","","","","","","1819.800000011921","images/plane1.png","","","memory_trial","1","definitely_old",""
"html-keyboard-response","51","196122","0.0-18.0-0.4","5946","approach_avoid_sv1","""event"",""trial"",""time""
""fullscreenenter"",""1"",""2305""
","
","
","""event"",""trial"",""time""
""fullscreenenter"",""1"",""2305""
","
","","","","","","null","<div style=""font-size:60px;"">+</div>","null","","fixation","","",""
"memory-trial","52","199611","0.0-18.0-1.4","5946","approach_avoid_sv1","""event"",""trial"",""time""
""fullscreenenter"",""1"",""2305""
","
","
","""event"",""trial"",""time""
""fullscreenenter"",""1"",""2305""
","
","","","","","","2484.600000023842","images/orange4.png","","","memory_trial","1","definitely_old",""
"html-keyboard-response","53","200112","0.0-18.0-0.5","5946","approach_avoid_sv1","""event"",""trial"",""time""
""fullscreenenter"",""1"",""2305""
","
","
","""event"",""trial"",""time""
""fullscreenenter"",""1"",""2305""
","
","","","","","","null","<div style=""font-size:60px;"">+</div>","null","","fixation","","",""
"memory-trial","54","202874","0.0-18.0-1.5","5946","approach_avoid_sv1","""event"",""trial"",""time""
""fullscreenenter"",""1"",""2305""
","
","
","""event"",""trial"",""time""
""fullscreenenter"",""1"",""2305""
","
","","","","","","1758","images/straw4.png","","","memory_trial","4","definitely_new",""
"html-keyboard-response","55","203379","0.0-18.0-0.6","5946","approach_avoid_sv1","""event"",""trial"",""time""
""fullscreenenter"",""1"",""2305""
","
","
","""event"",""trial"",""time""
""fullscreenenter"",""1"",""2305""
","
","","","","","","null","<div style=""font-size:60px;"">+</div>","null","","fixation","","",""
"memory-trial","56","206449","0.0-18.0-1.6","5946","approach_avoid_sv1","""event"",""trial"",""time""
""fullscreenenter"",""1"",""2305""
","
","
","""event"",""trial"",""time""
""fullscreenenter"",""1"",""2305""
","
","","","","","","2066.800000011921","images/dog8.png","","","memory_trial","1","definitely_old",""
"html-keyboard-response","57","206954","0.0-18.0-0.7","5946","approach_avoid_sv1","""event"",""trial"",""time""
""fullscreenenter"",""1"",""2305""
","
","
","""event"",""trial"",""time""
""fullscreenenter"",""1"",""2305""
","
","","","","","","null","<div style=""font-size:60px;"">+</div>","null","","fixation","","",""
"memory-trial","58","209533","0.0-18.0-1.7","5946","approach_avoid_sv1","""event"",""trial"",""time""
""fullscreenenter"",""1"",""2305""
","
","
","""event"",""trial"",""time""
""fullscreenenter"",""1"",""2305""
","
","","","","","","1575.5","images/horse8.png","","","memory_trial","4","definitely_new",""
"html-keyboard-response","59","210039","0.0-18.0-0.8","5946","approach_avoid_sv1","""event"",""trial"",""time""
""fullscreenenter"",""1"",""2305""
","
","
","""event"",""trial"",""time""
""fullscreenenter"",""1"",""2305""
","
","","","","","","null","<div style=""font-size:60px;"">+</div>","null","","fixation","","",""
"memory-trial","60","213426","0.0-18.0-1.8","5946","approach_avoid_sv1","""event"",""trial"",""time""
""fullscreenenter"",""1"",""2305""
","
","
","""event"",""trial"",""time""
""fullscreenenter"",""1"",""2305""
","
","","","","","","2380.800000011921","images/orange2.png","","","memory_trial","4","definitely_new",""
"html-keyboard-response","61","213929","0.0-18.0-0.9","5946","approach_avoid_sv1","""event"",""trial"",""time""
""fullscreenenter"",""1"",""2305""
","
","
","""event"",""trial"",""time""
""fullscreenenter"",""1"",""2305""
","
","","","","","","null","<div style=""font-size:60px;"">+</div>","null","","fixation","","",""
"memory-trial","62","216306","0.0-18.0-1.9","5946","approach_avoid_sv1","""event"",""trial"",""time""
""fullscreenenter"",""1"",""2305""
","
","
","""event"",""trial"",""time""
""fullscreenenter"",""1"",""2305""
","
","","","","","","1370.6000000238419","images/tree7.png","","","memory_trial","1","definitely_old",""
"html-keyboard-response","63","216810","0.0-18.0-0.10","5946","approach_avoid_sv1","""event"",""trial"",""time""
""fullscreenenter"",""1"",""2305""
","
","
","""event"",""trial"",""time""
""fullscreenenter"",""1"",""2305""
","
","","","","","","null","<div style=""font-size:60px;"">+</div>","null","","fixation","","",""
"memory-trial","64","219484","0.0-18.0-1.10","5946","approach_avoid_sv1","""event"",""trial"",""time""
""fullscreenenter"",""1"",""2305""
","
","
","""event"",""trial"",""time""
""fullscreenenter"",""1"",""2305""
","
","","","","","","1668.199999988079","images/cactus6.png","","","memory_trial","2","maybe_old",""
"html-keyboard-response","65","219986","0.0-18.0-0.11","5946","approach_avoid_sv1","""event"",""trial"",""time""
""fullscreenenter"",""1"",""2305""
","
","
","""event"",""trial"",""time""
""fullscreenenter"",""1"",""2305""
","
","","","","","","null","<div style=""font-size:60px;"">+</div>","null","","fixation","","",""
"memory-trial","66","223045","0.0-18.0-1.11","5946","approach_avoid_sv1","""event"",""trial"",""time""
""fullscreenenter"",""1"",""2305""
","
","
","""event"",""trial"",""time""
""fullscreenenter"",""1"",""2305""
","
","","","","","","2053.099999964237","images/cactus2.png","","","memory_trial","2","maybe_old",""
"html-keyboard-response","67","223548","0.0-18.0-0.12","5946","approach_avoid_sv1","""event"",""trial"",""time""
""fullscreenenter"",""1"",""2305""
","
","
","""event"",""trial"",""time""
""fullscreenenter"",""1"",""2305""
","
","","","","","","null","<div style=""font-size:60px;"">+</div>","null","","fixation","","",""
"memory-trial","68","226625","0.0-18.0-1.12","5946","approach_avoid_sv1","""event"",""trial"",""time""
""fullscreenenter"",""1"",""2305""
","
","
","""event"",""trial"",""time""
""fullscreenenter"",""1"",""2305""
","
","","","","","","2070.7000000476837","images/rodent2.png","","","memory_trial","2","maybe_old",""
"html-keyboard-response","69","227127","0.0-18.0-0.13","5946","approach_avoid_sv1","""event"",""trial"",""time""
""fullscreenenter"",""1"",""2305""
","
","
","""event"",""trial"",""time""
""fullscreenenter"",""1"",""2305""
","
","","","","","","null","<div style=""font-size:60px;"">+</div>","null","","fixation","","",""
"memory-trial","70","229390","0.0-18.0-1.13","5946","approach_avoid_sv1","""event"",""trial"",""time""
""fullscreenenter"",""1"",""2305""
","
","
","""event"",""trial"",""time""
""fullscreenenter"",""1"",""2305""
","
","","","","","","1258.4000000357628","images/bush4.png","","","memory_trial","1","definitely_old",""
"html-keyboard-response","71","229894","0.0-18.0-0.14","5946","approach_avoid_sv1","""event"",""trial"",""time""
""fullscreenenter"",""1"",""2305""
","
","
","""event"",""trial"",""time""
""fullscreenenter"",""1"",""2305""
","
","","","","","","null","<div style=""font-size:60px;"">+</div>","null","","fixation","","",""
"memory-trial","72","232481","0.0-18.0-1.14","5946","approach_avoid_sv1","""event"",""trial"",""time""
""fullscreenenter"",""1"",""2305""
","
","
","""event"",""trial"",""time""
""fullscreenenter"",""1"",""2305""
","
","","","","","","1584.0999999642372","images/cow7.png","","","memory_trial","2","maybe_old",""
"html-keyboard-response","73","232983","0.0-18.0-0.15","5946","approach_avoid_sv1","""event"",""trial"",""time""
""fullscreenenter"",""1"",""2305""
","
","
","""event"",""trial"",""time""
""fullscreenenter"",""1"",""2305""
","
","","","","","","null","<div style=""font-size:60px;"">+</div>","null","","fixation","","",""
"memory-trial","74","236028","0.0-18.0-1.15","5946","approach_avoid_sv1","""event"",""trial"",""time""
""fullscreenenter"",""1"",""2305""
","
","
","""event"",""trial"",""time""
""fullscreenenter"",""1"",""2305""
","
","","","","","","2037.5","images/banana2.png","","","memory_trial","1","definitely_old",""
"html-keyboard-response","75","236531","0.0-18.0-0.16","5946","approach_avoid_sv1","""event"",""trial"",""time""
""fullscreenenter"",""1"",""2305""
","
","
","""event"",""trial"",""time""
""fullscreenenter"",""1"",""2305""
","
","","","","","","null","<div style=""font-size:60px;"">+</div>","null","","fixation","","",""
"memory-trial","76","239153","0.0-18.0-1.16","5946","approach_avoid_sv1","""event"",""trial"",""time""
""fullscreenenter"",""1"",""2305""
","
","
","""event"",""trial"",""time""
""fullscreenenter"",""1"",""2305""
","
","","","","","","1615.199999988079","images/truck3.png","","","memory_trial","4","definitely_new",""
"html-keyboard-response","77","239656","0.0-18.0-0.17","5946","approach_avoid_sv1","""event"",""trial"",""time""
""fullscreenenter"",""1"",""2305""
","
","
","""event"",""trial"",""time""
""fullscreenenter"",""1"",""2305""
","
","","","","","","null","<div style=""font-size:60px;"">+</div>","null","","fixation","","",""
"memory-trial","78","242135","0.0-18.0-1.17","5946","approach_avoid_sv1","""event"",""trial"",""time""
""fullscreenenter"",""1"",""2305""
","
","
","""event"",""trial"",""time""
""fullscreenenter"",""1"",""2305""
","
","","","","","","1474","images/flower4.png","","","memory_trial","4","definitely_new",""
"html-keyboard-response","79","242638","0.0-18.0-0.18","5946","approach_avoid_sv1","""event"",""trial"",""time""
""fullscreenenter"",""1"",""2305""
","
","
","""event"",""trial"",""time""
""fullscreenenter"",""1"",""2305""
","
","","","","","","null","<div style=""font-size:60px;"">+</div>","null","","fixation","","",""
"memory-trial","80","245388","0.0-18.0-1.18","5946","approach_avoid_sv1","""event"",""trial"",""time""
""fullscreenenter"",""1"",""2305""
","
","
","""event"",""trial"",""time""
""fullscreenenter"",""1"",""2305""
","
","","","","","","1743.300000011921","images/cat5.png","","","memory_trial","4","definitely_new",""
"html-keyboard-response","81","245889","0.0-18.0-0.19","5946","approach_avoid_sv1","""event"",""trial"",""time""
""fullscreenenter"",""1"",""2305""
","
","
","""event"",""trial"",""time""
""fullscreenenter"",""1"",""2305""
","
","","","","","","null","<div style=""font-size:60px;"">+</div>","null","","fixation","","",""
"memory-trial","82","247731","0.0-18.0-1.19","5946","approach_avoid_sv1","""event"",""trial"",""time""
""fullscreenenter"",""1"",""2305""
","
","
","""event"",""trial"",""time""
""fullscreenenter"",""1"",""2305""
","
","","","","","","835","images/flower6.png","","","memory_trial","4","definitely_new",""
"html-keyboard-response","83","248236","0.0-18.0-0.20","5946","approach_avoid_sv1","""event"",""trial"",""time""
""fullscreenenter"",""1"",""2305""
","
","
","""event"",""trial"",""time""
""fullscreenenter"",""1"",""2305""
","
","","","","","","null","<div style=""font-size:60px;"">+</div>","null","","fixation","","",""
"memory-trial","84","251036","0.0-18.0-1.20","5946","approach_avoid_sv1","""event"",""trial"",""time""
""fullscreenenter"",""1"",""2305""
","
","
","""event"",""trial"",""time""
""fullscreenenter"",""1"",""2305""
","
","","","","","","1797.5999999642372","images/rabbit8.png","","","memory_trial","4","definitely_new",""
"html-keyboard-response","85","251539","0.0-18.0-0.21","5946","approach_avoid_sv1","""event"",""trial"",""time""
""fullscreenenter"",""1"",""2305""
","
","
","""event"",""trial"",""time""
""fullscreenenter"",""1"",""2305""
","
","","","","","","null","<div style=""font-size:60px;"">+</div>","null","","fixation","","",""
"memory-trial","86","253878","0.0-18.0-1.21","5946","approach_avoid_sv1","""event"",""trial"",""time""
""fullscreenenter"",""1"",""2305""
","
","
","""event"",""trial"",""time""
""fullscreenenter"",""1"",""2305""
","
","","","","","","1337.199999988079","images/banana8.png","","","memory_trial","1","definitely_old",""
"html-keyboard-response","87","254382","0.0-18.0-0.22","5946","approach_avoid_sv1","""event"",""trial"",""time""
""fullscreenenter"",""1"",""2305""
","
","
","""event"",""trial"",""time""
""fullscreenenter"",""1"",""2305""
","
","","","","","","null","<div style=""font-size:60px;"">+</div>","null","","fixation","","",""
"memory-trial","88","256134","0.0-18.0-1.22","5946","approach_avoid_sv1","""event"",""trial"",""time""
""fullscreenenter"",""1"",""2305""
","
","
","""event"",""trial"",""time""
""fullscreenenter"",""1"",""2305""
","
","","","","","","745.7999999523163","images/flower2.png","","","memory_trial","4","definitely_new",""
"html-keyboard-response","89","256635","0.0-18.0-0.23","5946","approach_avoid_sv1","""event"",""trial"",""time""
""fullscreenenter"",""1"",""2305""
","
","
","""event"",""trial"",""time""
""fullscreenenter"",""1"",""2305""
","
","","","","","","null","<div style=""font-size:60px;"">+</div>","null","","fixation","","",""
"memory-trial","90","259238","0.0-18.0-1.23","5946","approach_avoid_sv1","""event"",""trial"",""time""
""fullscreenenter"",""1"",""2305""
","
","
","""event"",""trial"",""time""
""fullscreenenter"",""1"",""2305""
","
","","","","","","1599","images/sheep3.png","","","memory_trial","3","maybe_new",""
"html-keyboard-response","91","259741","0.0-18.0-0.24","5946","approach_avoid_sv1","""event"",""trial"",""time""
""fullscreenenter"",""1"",""2305""
","
","
","""event"",""trial"",""time""
""fullscreenenter"",""1"",""2305""
","
","","","","","","null","<div style=""font-size:60px;"">+</div>","null","","fixation","","",""
"memory-trial","92","262814","0.0-18.0-1.24","5946","approach_avoid_sv1","""event"",""trial"",""time""
""fullscreenenter"",""1"",""2305""
","
","
","""event"",""trial"",""time""
""fullscreenenter"",""1"",""2305""
","
","","","","","","2066.5","images/rodent7.png","","","memory_trial","4","definitely_new",""
"html-keyboard-response","93","263319","0.0-18.0-0.25","5946","approach_avoid_sv1","""event"",""trial"",""time""
""fullscreenenter"",""1"",""2305""
","
","
","""event"",""trial"",""time""
""fullscreenenter"",""1"",""2305""
","
","","","","","","null","<div style=""font-size:60px;"">+</div>","null","","fixation","","",""
"memory-trial","94","266182","0.0-18.0-1.25","5946","approach_avoid_sv1","""event"",""trial"",""time""
""fullscreenenter"",""1"",""2305""
","
","
","""event"",""trial"",""time""
""fullscreenenter"",""1"",""2305""
","
","","","","","","1856.4000000357628","images/dog7.png","","","memory_trial","2","maybe_old",""
"html-keyboard-response","95","266685","0.0-18.0-0.26","5946","approach_avoid_sv1","""event"",""trial"",""time""
""fullscreenenter"",""1"",""2305""
","
","
","""event"",""trial"",""time""
""fullscreenenter"",""1"",""2305""
","
","","","","","","null","<div style=""font-size:60px;"">+</div>","null","","fixation","","",""
"memory-trial","96","269233","0.0-18.0-1.26","5946","approach_avoid_sv1","""event"",""trial"",""time""
""fullscreenenter"",""1"",""2305""
","
","
","""event"",""trial"",""time""
""fullscreenenter"",""1"",""2305""
","
","","","","","","1542.5","images/cat8.png","","","memory_trial","3","maybe_new",""
"html-keyboard-response","97","269737","0.0-18.0-0.27","5946","approach_avoid_sv1","""event"",""trial"",""time""
""fullscreenenter"",""1"",""2305""
","
","
","""event"",""trial"",""time""
""fullscreenenter"",""1"",""2305""
","
","","","","","","null","<div style=""font-size:60px;"">+</div>","null","","fixation","","",""
"memory-trial","98","272723","0.0-18.0-1.27","5946","approach_avoid_sv1","""event"",""trial"",""time""
""fullscreenenter"",""1"",""2305""
","
","
","""event"",""trial"",""time""
""fullscreenenter"",""1"",""2305""
","
","","","","","","1981.199999988079","images/cactus4.png","","","memory_trial","1","definitely_old",""
"html-keyboard-response","99","273227","0.0-18.0-0.28","5946","approach_avoid_sv1","""event"",""trial"",""time""
""fullscreenenter"",""1"",""2305""
","
","
","""event"",""trial"",""time""
""fullscreenenter"",""1"",""2305""
","
","","","","","","null","<div style=""font-size:60px;"">+</div>","null","","fixation","","",""
"memory-trial","100","275654","0.0-18.0-1.28","5946","approach_avoid_sv1","""event"",""trial"",""time""
""fullscreenenter"",""1"",""2305""
","
","
","""event"",""trial"",""time""
""fullscreenenter"",""1"",""2305""
","
","","","","","","1423.9000000357628","images/train7.png","","","memory_trial","2","maybe_old",""
"html-keyboard-response","101","276157","0.0-18.0-0.29","5946","approach_avoid_sv1","""event"",""trial"",""time""
""fullscreenenter"",""1"",""2305""
","
","
","""event"",""trial"",""time""
""fullscreenenter"",""1"",""2305""
","
","","","","","","null","<div style=""font-size:60px;"">+</div>","null","","fixation","","",""
"memory-trial","102","279550","0.0-18.0-1.29","5946","approach_avoid_sv1","""event"",""trial"",""time""
""fullscreenenter"",""1"",""2305""
","
","
","""event"",""trial"",""time""
""fullscreenenter"",""1"",""2305""
","
","","","","","","2388","images/horse1.png","","","memory_trial","3","maybe_new",""
"html-keyboard-response","103","280053","0.0-18.0-0.30","5946","approach_avoid_sv1","""event"",""trial"",""time""
""fullscreenenter"",""1"",""2305""
","
","
","""event"",""trial"",""time""
""fullscreenenter"",""1"",""2305""
","
","","","","","","null","<div style=""font-size:60px;"">+</div>","null","","fixation","","",""
"memory-trial","104","282097","0.0-18.0-1.30","5946","approach_avoid_sv1","""event"",""trial"",""time""
""fullscreenenter"",""1"",""2305""
","
","
","""event"",""trial"",""time""
""fullscreenenter"",""1"",""2305""
","
","","","","","","1038.5999999642372","images/bed6.png","","","memory_trial","4","definitely_new",""
"html-keyboard-response","105","282601","0.0-18.0-0.31","5946","approach_avoid_sv1","""event"",""trial"",""time""
""fullscreenenter"",""1"",""2305""
","
","
","""event"",""trial"",""time""
""fullscreenenter"",""1"",""2305""
","
","","","","","","null","<div style=""font-size:60px;"">+</div>","null","","fixation","","",""
"memory-trial","106","286289","0.0-18.0-1.31","5946","approach_avoid_sv1","""event"",""trial"",""time""
""fullscreenenter"",""1"",""2305""
","
","
","""event"",""trial"",""time""
""fullscreenenter"",""1"",""2305""
","
","","","","","","2684.600000023842","images/train2.png","","","memory_trial","3","maybe_new",""
"html-keyboard-response","107","286792","0.0-18.0-0.32","5946","approach_avoid_sv1","""event"",""trial"",""time""
""fullscreenenter"",""1"",""2305""
","
","
","""event"",""trial"",""time""
""fullscreenenter"",""1"",""2305""
","
","","","","","","null","<div style=""font-size:60px;"">+</div>","null","","fixation","","",""
"memory-trial","108","289756","0.0-18.0-1.32","5946","approach_avoid_sv1","""event"",""trial"",""time""
""fullscreenenter"",""1"",""2305""
","
","
","""event"",""trial"",""time""
""fullscreenenter"",""1"",""2305""
","
","","","","","","1957.8999999761581","images/apple5.png","","","memory_trial","1","definitely_old",""
"html-keyboard-response","109","290258","0.0-18.0-0.33","5946","approach_avoid_sv1","""event"",""trial"",""time""
""fullscreenenter"",""1"",""2305""
","
","
","""event"",""trial"",""time""
""fullscreenenter"",""1"",""2305""
","
","","","","","","null","<div style=""font-size:60px;"">+</div>","null","","fixation","","",""
"memory-trial","110","293048","0.0-18.0-1.33","5946","approach_avoid_sv1","""event"",""trial"",""time""
""fullscreenenter"",""1"",""2305""
","
","
","""event"",""trial"",""time""
""fullscreenenter"",""1"",""2305""
","
","","","","","","1783.800000011921","images/horse4.png","","","memory_trial","3","maybe_new",""
"html-keyboard-response","111","293552","0.0-18.0-0.34","5946","approach_avoid_sv1","""event"",""trial"",""time""
""fullscreenenter"",""1"",""2305""
","
","
","""event"",""trial"",""time""
""fullscreenenter"",""1"",""2305""
","
","","","","","","null","<div style=""font-size:60px;"">+</div>","null","","fixation","","",""
"memory-trial","112","296641","0.0-18.0-1.34","5946","approach_avoid_sv1","""event"",""trial"",""time""
""fullscreenenter"",""1"",""2305""
","
","
","""event"",""trial"",""time""
""fullscreenenter"",""1"",""2305""
","
","","","","","","2085.899999976158","images/orange3.png","","","memory_trial","3","maybe_new",""
"html-keyboard-response","113","297143","0.0-18.0-0.35","5946","approach_avoid_sv1","""event"",""trial"",""time""
""fullscreenenter"",""1"",""2305""
","
","
","""event"",""trial"",""time""
""fullscreenenter"",""1"",""2305""
","
","","","","","","null","<div style=""font-size:60px;"">+</div>","null","","fixation","","",""
"memory-trial","114","300310","0.0-18.0-1.35","5946","approach_avoid_sv1","""event"",""trial"",""time""
""fullscreenenter"",""1"",""2305""
","
","
","""event"",""trial"",""time""
""fullscreenenter"",""1"",""2305""
","
","","","","","","2160.7000000476837","images/bed1.png","","","memory_trial","4","definitely_new",""
"html-keyboard-response","115","300813","0.0-18.0-0.36","5946","approach_avoid_sv1","""event"",""trial"",""time""
""fullscreenenter"",""1"",""2305""
","
","
","""event"",""trial"",""time""
""fullscreenenter"",""1"",""2305""
","
","","","","","","null","<div style=""font-size:60px;"">+</div>","null","","fixation","","",""
"memory-trial","116","303240","0.0-18.0-1.36","5946","approach_avoid_sv1","""event"",""trial"",""time""
""fullscreenenter"",""1"",""2305""
","
","
","""event"",""trial"",""time""
""fullscreenenter"",""1"",""2305""
","
","","","","","","1420","images/flower8.png","","","memory_trial","4","definitely_new",""
"html-keyboard-response","117","303745","0.0-18.0-0.37","5946","approach_avoid_sv1","""event"",""trial"",""time""
""fullscreenenter"",""1"",""2305""
","
","
","""event"",""trial"",""time""
""fullscreenenter"",""1"",""2305""
","
","","","","","","null","<div style=""font-size:60px;"">+</div>","null","","fixation","","",""
"memory-trial","118","306460","0.0-18.0-1.37","5946","approach_avoid_sv1","""event"",""trial"",""time""
""fullscreenenter"",""1"",""2305""
","
","
","""event"",""trial"",""time""
""fullscreenenter"",""1"",""2305""
","
","","","","","","1711.800000011921","images/rodent8.png","","","memory_trial","2","maybe_old",""
"html-keyboard-response","119","306966","0.0-18.0-0.38","5946","approach_avoid_sv1","""event"",""trial"",""time""
""fullscreenenter"",""1"",""2305""
","
","
","""event"",""trial"",""time""
""fullscreenenter"",""1"",""2305""
","
","","","","","","null","<div style=""font-size:60px;"">+</div>","null","","fixation","","",""
"memory-trial","120","310039","0.0-18.0-1.38","5946","approach_avoid_sv1","""event"",""trial"",""time""
""fullscreenenter"",""1"",""2305""
","
","
","""event"",""trial"",""time""
""fullscreenenter"",""1"",""2305""
","
","","","","","","2069.599999964237","images/boat4.png","","","memory_trial","2","maybe_old",""
"html-keyboard-response","121","310545","0.0-18.0-0.39","5946","approach_avoid_sv1","""event"",""trial"",""time""
""fullscreenenter"",""1"",""2305""
","
","
","""event"",""trial"",""time""
""fullscreenenter"",""1"",""2305""
","
","","","","","","null","<div style=""font-size:60px;"">+</div>","null","","fixation","","",""
"memory-trial","122","313005","0.0-18.0-1.39","5946","approach_avoid_sv1","""event"",""trial"",""time""
""fullscreenenter"",""1"",""2305""
","
","
","""event"",""trial"",""time""
""fullscreenenter"",""1"",""2305""
","
","","","","","","1457.300000011921","images/goat2.png","","","memory_trial","2","maybe_old",""
"html-keyboard-response","123","313510","0.0-18.0-0.40","5946","approach_avoid_sv1","""event"",""trial"",""time""
""fullscreenenter"",""1"",""2305""
","
","
","""event"",""trial"",""time""
""fullscreenenter"",""1"",""2305""
","
","","","","","","null","<div style=""font-size:60px;"">+</div>","null","","fixation","","",""
"memory-trial","124","315797","0.0-18.0-1.40","5946","approach_avoid_sv1","""event"",""trial"",""time""
""fullscreenenter"",""1"",""2305""
","
","
","""event"",""trial"",""time""
""fullscreenenter"",""1"",""2305""
","
","","","","","","1281","images/cow6.png","","","memory_trial","1","definitely_old",""
"html-keyboard-response","125","316301","0.0-18.0-0.41","5946","approach_avoid_sv1","""event"",""trial"",""time""
""fullscreenenter"",""1"",""2305""
","
","
","""event"",""trial"",""time""
""fullscreenenter"",""1"",""2305""
","
","","","","","","null","<div style=""font-size:60px;"">+</div>","null","","fixation","","",""
"memory-trial","126","318255","0.0-18.0-1.41","5946","approach_avoid_sv1","""event"",""trial"",""time""
""fullscreenenter"",""1"",""2305""
","
","
","""event"",""trial"",""time""
""fullscreenenter"",""1"",""2305""
","
","","","","","","947.3999999761581","images/bed2.png","","","memory_trial","4","definitely_new",""
"html-button-response","127","320441","0.0-18.0-2.41-0.41","5946","approach_avoid_sv1","""event"",""trial"",""time""
""fullscreenenter"",""1"",""2305""
","
","
","""event"",""trial"",""time""
""fullscreenenter"",""1"",""2305""
","
","","","","","","2185.399999976158","<p> Take a break! </p><p> Click the button to continue. </p>","0","","break","","",""
"html-keyboard-response","128","320945","0.0-18.0-0.42","5946","approach_avoid_sv1","""event"",""trial"",""time""
""fullscreenenter"",""1"",""2305""
","
","
","""event"",""trial"",""time""
""fullscreenenter"",""1"",""2305""
","
","","","","","","null","<div style=""font-size:60px;"">+</div>","null","","fixation","","",""
"memory-trial","129","324807","0.0-18.0-1.42","5946","approach_avoid_sv1","""event"",""trial"",""time""
""fullscreenenter"",""1"",""2305""
","
","
","""event"",""trial"",""time""
""fullscreenenter"",""1"",""2305""
","
","","","","","","2857.600000023842","images/rodent1.png","","","memory_trial","1","definitely_old",""
"html-keyboard-response","130","325312","0.0-18.0-0.43","5946","approach_avoid_sv1","""event"",""trial"",""time""
""fullscreenenter"",""1"",""2305""
","
","
","""event"",""trial"",""time""
""fullscreenenter"",""1"",""2305""
","
","","","","","","null","<div style=""font-size:60px;"">+</div>","null","","fixation","","",""
"memory-trial","131","327629","0.0-18.0-1.43","5946","approach_avoid_sv1","""event"",""trial"",""time""
""fullscreenenter"",""1"",""2305""
","
","
","""event"",""trial"",""time""
""fullscreenenter"",""1"",""2305""
","
","","","","","","1312.199999988079","images/plane3.png","","","memory_trial","4","definitely_new",""
"html-keyboard-response","132","328133","0.0-18.0-0.44","5946","approach_avoid_sv1","""event"",""trial"",""time""
""fullscreenenter"",""1"",""2305""
","
","
","""event"",""trial"",""time""
""fullscreenenter"",""1"",""2305""
","
","","","","","","null","<div style=""font-size:60px;"">+</div>","null","","fixation","","",""
"memory-trial","133","330460","0.0-18.0-1.44","5946","approach_avoid_sv1","""event"",""trial"",""time""
""fullscreenenter"",""1"",""2305""
","
","
","""event"",""trial"",""time""
""fullscreenenter"",""1"",""2305""
","
","","","","","","1321","images/table8.png","","","memory_trial","1","definitely_old",""
"html-keyboard-response","134","330966","0.0-18.0-0.45","5946","approach_avoid_sv1","""event"",""trial"",""time""
""fullscreenenter"",""1"",""2305""
","
","
","""event"",""trial"",""time""
""fullscreenenter"",""1"",""2305""
","
","","","","","","null","<div style=""font-size:60px;"">+</div>","null","","fixation","","",""
"memory-trial","135","334043","0.0-18.0-1.45","5946","approach_avoid_sv1","""event"",""trial"",""time""
""fullscreenenter"",""1"",""2305""
","
","
","""event"",""trial"",""time""
""fullscreenenter"",""1"",""2305""
","
","","","","","","2075","images/chair8.png","","","memory_trial","3","maybe_new",""
"html-keyboard-response","136","334548","0.0-18.0-0.46","5946","approach_avoid_sv1","""event"",""trial"",""time""
""fullscreenenter"",""1"",""2305""
","
","
","""event"",""trial"",""time""
""fullscreenenter"",""1"",""2305""
","
","","","","","","null","<div style=""font-size:60px;"">+</div>","null","","fixation","","",""
"memory-trial","137","336913","0.0-18.0-1.46","5946","approach_avoid_sv1","""event"",""trial"",""time""
""fullscreenenter"",""1"",""2305""
","
","
","""event"",""trial"",""time""
""fullscreenenter"",""1"",""2305""
","
","","","","","","1358.800000011921","images/orange5.png","","","memory_trial","2","maybe_old",""
"html-keyboard-response","138","337418","0.0-18.0-0.47","5946","approach_avoid_sv1","""event"",""trial"",""time""
""fullscreenenter"",""1"",""2305""
","
","
","""event"",""trial"",""time""
""fullscreenenter"",""1"",""2305""
","
","","","","","","null","<div style=""font-size:60px;"">+</div>","null","","fixation","","",""
"memory-trial","139","340327","0.0-18.0-1.47","5946","approach_avoid_sv1","""event"",""trial"",""time""
""fullscreenenter"",""1"",""2305""
","
","
","""event"",""trial"",""time""
""fullscreenenter"",""1"",""2305""
","
","","","","","","1903.0999999642372","images/cat6.png","","","memory_trial","2","maybe_old",""
"html-keyboard-response","140","340832","0.0-18.0-0.48","5946","approach_avoid_sv1","""event"",""trial"",""time""
""fullscreenenter"",""1"",""2305""
","
","
","""event"",""trial"",""time""
""fullscreenenter"",""1"",""2305""
","
","","","","","","null","<div style=""font-size:60px;"">+</div>","null","","fixation","","",""
"memory-trial","141","344432","0.0-18.0-1.48","5946","approach_avoid_sv1","""event"",""trial"",""time""
""fullscreenenter"",""1"",""2305""
","
","
","""event"",""trial"",""time""
""fullscreenenter"",""1"",""2305""
","
","","","","","","2594.5","images/plane4.png","","","memory_trial","4","definitely_new",""
"html-keyboard-response","142","344935","0.0-18.0-0.49","5946","approach_avoid_sv1","""event"",""trial"",""time""
""fullscreenenter"",""1"",""2305""
","
","
","""event"",""trial"",""time""
""fullscreenenter"",""1"",""2305""
","
","","","","","","null","<div style=""font-size:60px;"">+</div>","null","","fixation","","",""
"memory-trial","143","346774","0.0-18.0-1.49","5946","approach_avoid_sv1","""event"",""trial"",""time""
""fullscreenenter"",""1"",""2305""
","
","
","""event"",""trial"",""time""
""fullscreenenter"",""1"",""2305""
","
","","","","","","834","images/bed7.png","","","memory_trial","4","definitely_new",""
"html-keyboard-response","144","347277","0.0-18.0-0.50","5946","approach_avoid_sv1","""event"",""trial"",""time""
""fullscreenenter"",""1"",""2305""
","
","
","""event"",""trial"",""time""
""fullscreenenter"",""1"",""2305""
","
","","","","","","null","<div style=""font-size:60px;"">+</div>","null","","fixation","","",""
"memory-trial","145","351581","0.0-18.0-1.50","5946","approach_avoid_sv1","""event"",""trial"",""time""
""fullscreenenter"",""1"",""2305""
","
","
","""event"",""trial"",""time""
""fullscreenenter"",""1"",""2305""
","
","","","","","","3300.100000023842","images/tree2.png","","","memory_trial","3","maybe_new",""
"html-keyboard-response","146","352086","0.0-18.0-0.51","5946","approach_avoid_sv1","""event"",""trial"",""time""
""fullscreenenter"",""1"",""2305""
","
","
","""event"",""trial"",""time""
""fullscreenenter"",""1"",""2305""
","
","","","","","","null","<div style=""font-size:60px;"">+</div>","null","","fixation","","",""
"memory-trial","147","354724","0.0-18.0-1.51","5946","approach_avoid_sv1","""event"",""trial"",""time""
""fullscreenenter"",""1"",""2305""
","
","
","""event"",""trial"",""time""
""fullscreenenter"",""1"",""2305""
","
","","","","","","1631.6000000238419","images/banana5.png","","","memory_trial","1","definitely_old",""
"html-keyboard-response","148","355226","0.0-18.0-0.52","5946","approach_avoid_sv1","""event"",""trial"",""time""
""fullscreenenter"",""1"",""2305""
","
","
","""event"",""trial"",""time""
""fullscreenenter"",""1"",""2305""
","
","","","","","","null","<div style=""font-size:60px;"">+</div>","null","","fixation","","",""
"memory-trial","149","358543","0.0-18.0-1.52","5946","approach_avoid_sv1","""event"",""trial"",""time""
""fullscreenenter"",""1"",""2305""
","
","
","""event"",""trial"",""time""
""fullscreenenter"",""1"",""2305""
","
","","","","","","2309.800000011921","images/rodent4.png","","","memory_trial","4","definitely_new",""
"html-keyboard-response","150","359047","0.0-18.0-0.53","5946","approach_avoid_sv1","""event"",""trial"",""time""
""fullscreenenter"",""1"",""2305""
","
","
","""event"",""trial"",""time""
""fullscreenenter"",""1"",""2305""
","
","","","","","","null","<div style=""font-size:60px;"">+</div>","null","","fixation","","",""
"memory-trial","151","361643","0.0-18.0-1.53","5946","approach_avoid_sv1","""event"",""trial"",""time""
""fullscreenenter"",""1"",""2305""
","
","
","""event"",""trial"",""time""
""fullscreenenter"",""1"",""2305""
","
","","","","","","1590.300000011921","images/sheep6.png","","","memory_trial","2","maybe_old",""
"html-keyboard-response","152","362149","0.0-18.0-0.54","5946","approach_avoid_sv1","""event"",""trial"",""time""
""fullscreenenter"",""1"",""2305""
","
","
","""event"",""trial"",""time""
""fullscreenenter"",""1"",""2305""
","
","","","","","","null","<div style=""font-size:60px;"">+</div>","null","","fixation","","",""
"memory-trial","153","364087","0.0-18.0-1.54","5946","approach_avoid_sv1","""event"",""trial"",""time""
""fullscreenenter"",""1"",""2305""
","
","
","""event"",""trial"",""time""
""fullscreenenter"",""1"",""2305""
","
","","","","","","933.8000000119209","images/flower1.png","","","memory_trial","4","definitely_new",""
"html-keyboard-response","154","364592","0.0-18.0-0.55","5946","approach_avoid_sv1","""event"",""trial"",""time""
""fullscreenenter"",""1"",""2305""
","
","
","""event"",""trial"",""time""
""fullscreenenter"",""1"",""2305""
","
","","","","","","null","<div style=""font-size:60px;"">+</div>","null","","fixation","","",""
"memory-trial","155","367047","0.0-18.0-1.55","5946","approach_avoid_sv1","""event"",""trial"",""time""
""fullscreenenter"",""1"",""2305""
","
","
","""event"",""trial"",""time""
""fullscreenenter"",""1"",""2305""
","
","","","","","","1448.5999999642372","images/chair5.png","","","memory_trial","2","maybe_old",""
"html-keyboard-response","156","367552","0.0-18.0-0.56","5946","approach_avoid_sv1","""event"",""trial"",""time""
""fullscreenenter"",""1"",""2305""
","
","
","""event"",""trial"",""time""
""fullscreenenter"",""1"",""2305""
","
","","","","","","null","<div style=""font-size:60px;"">+</div>","null","","fixation","","",""
"memory-trial","157","370756","0.0-18.0-1.56","5946","approach_avoid_sv1","""event"",""trial"",""time""
""fullscreenenter"",""1"",""2305""
","
","
","""event"",""trial"",""time""
""fullscreenenter"",""1"",""2305""
","
","","","","","","2198.300000011921","images/tree6.png","","","memory_trial","2","maybe_old",""
"html-keyboard-response","158","371258","0.0-18.0-0.57","5946","approach_avoid_sv1","""event"",""trial"",""time""
""fullscreenenter"",""1"",""2305""
","
","
","""event"",""trial"",""time""
""fullscreenenter"",""1"",""2305""
","
","","","","","","null","<div style=""font-size:60px;"">+</div>","null","","fixation","","",""
"memory-trial","159","374317","0.0-18.0-1.57","5946","approach_avoid_sv1","""event"",""trial"",""time""
""fullscreenenter"",""1"",""2305""
","
","
","""event"",""trial"",""time""
""fullscreenenter"",""1"",""2305""
","
","","","","","","2052.600000023842","images/goat3.png","","","memory_trial","2","maybe_old",""
"html-keyboard-response","160","374823","0.0-18.0-0.58","5946","approach_avoid_sv1","""event"",""trial"",""time""
""fullscreenenter"",""1"",""2305""
","
","
","""event"",""trial"",""time""
""fullscreenenter"",""1"",""2305""
","
","","","","","","null","<div style=""font-size:60px;"">+</div>","null","","fixation","","",""
"memory-trial","161","376950","0.0-18.0-1.58","5946","approach_avoid_sv1","""event"",""trial"",""time""
""fullscreenenter"",""1"",""2305""
","
","
","""event"",""trial"",""time""
""fullscreenenter"",""1"",""2305""
","
","","","","","","1120.8999999761581","images/sheep1.png","","","memory_trial","1","definitely_old",""
"html-keyboard-response","162","377452","0.0-18.0-0.59","5946","approach_avoid_sv1","""event"",""trial"",""time""
""fullscreenenter"",""1"",""2305""
","
","
","""event"",""trial"",""time""
""fullscreenenter"",""1"",""2305""
","
","","","","","","null","<div style=""font-size:60px;"">+</div>","null","","fixation","","",""
"memory-trial","163","380624","0.0-18.0-1.59","5946","approach_avoid_sv1","""event"",""trial"",""time""
""fullscreenenter"",""1"",""2305""
","
","
","""event"",""trial"",""time""
""fullscreenenter"",""1"",""2305""
","
","","","","","","2167.300000011921","images/cat2.png","","","memory_trial","3","maybe_new",""
"html-keyboard-response","164","381126","0.0-18.0-0.60","5946","approach_avoid_sv1","""event"",""trial"",""time""
""fullscreenenter"",""1"",""2305""
","
","
","""event"",""trial"",""time""
""fullscreenenter"",""1"",""2305""
","
","","","","","","null","<div style=""font-size:60px;"">+</div>","null","","fixation","","",""
"memory-trial","165","383378","0.0-18.0-1.60","5946","approach_avoid_sv1","""event"",""trial"",""time""
""fullscreenenter"",""1"",""2305""
","
","
","""event"",""trial"",""time""
""fullscreenenter"",""1"",""2305""
","
","","","","","","1246.7000000476837","images/flower5.png","","","memory_trial","4","definitely_new",""
"html-keyboard-response","166","383883","0.0-18.0-0.61","5946","approach_avoid_sv1","""event"",""trial"",""time""
""fullscreenenter"",""1"",""2305""
","
","
","""event"",""trial"",""time""
""fullscreenenter"",""1"",""2305""
","
","","","","","","null","<div style=""font-size:60px;"">+</div>","null","","fixation","","",""
"memory-trial","167","386384","0.0-18.0-1.61","5946","approach_avoid_sv1","""event"",""trial"",""time""
""fullscreenenter"",""1"",""2305""
","
","
","""event"",""trial"",""time""
""fullscreenenter"",""1"",""2305""
","
","","","","","","1496.5","images/rabbit7.png","","","memory_trial","4","definitely_new",""
"html-keyboard-response","168","386888","0.0-18.0-0.62","5946","approach_avoid_sv1","""event"",""trial"",""time""
""fullscreenenter"",""1"",""2305""
","
","
","""event"",""trial"",""time""
""fullscreenenter"",""1"",""2305""
","
","","","","","","null","<div style=""font-size:60px;"">+</div>","null","","fixation","","",""
"memory-trial","169","389340","0.0-18.0-1.62","5946","approach_avoid_sv1","""event"",""trial"",""time""
""fullscreenenter"",""1"",""2305""
","
","
","""event"",""trial"",""time""
""fullscreenenter"",""1"",""2305""
","
","","","","","","1447.199999988079","images/tree1.png","","","memory_trial","1","definitely_old",""
"html-keyboard-response","170","389845","0.0-18.0-0.63","5946","approach_avoid_sv1","""event"",""trial"",""time""
""fullscreenenter"",""1"",""2305""
","
","
","""event"",""trial"",""time""
""fullscreenenter"",""1"",""2305""
","
","","","","","","null","<div style=""font-size:60px;"">+</div>","null","","fixation","","",""
"memory-trial","171","391938","0.0-18.0-1.63","5946","approach_avoid_sv1","""event"",""trial"",""time""
""fullscreenenter"",""1"",""2305""
","
","
","""event"",""trial"",""time""
""fullscreenenter"",""1"",""2305""
","
","","","","","","1087.3999999761581","images/boat3.png","","","memory_trial","1","definitely_old",""
"html-keyboard-response","172","392443","0.0-18.0-0.64","5946","approach_avoid_sv1","""event"",""trial"",""time""
""fullscreenenter"",""1"",""2305""
","
","
","""event"",""trial"",""time""
""fullscreenenter"",""1"",""2305""
","
","","","","","","null","<div style=""font-size:60px;"">+</div>","null","","fixation","","",""
"memory-trial","173","395205","0.0-18.0-1.64","5946","approach_avoid_sv1","""event"",""trial"",""time""
""fullscreenenter"",""1"",""2305""
","
","
","""event"",""trial"",""time""
""fullscreenenter"",""1"",""2305""
","
","","","","","","1756.9000000357628","images/cat4.png","","","memory_trial","3","maybe_new",""
"html-keyboard-response","174","395708","0.0-18.0-0.65","5946","approach_avoid_sv1","""event"",""trial"",""time""
""fullscreenenter"",""1"",""2305""
","
","
","""event"",""trial"",""time""
""fullscreenenter"",""1"",""2305""
","
","","","","","","null","<div style=""font-size:60px;"">+</div>","null","","fixation","","",""
"memory-trial","175","398368","0.0-18.0-1.65","5946","approach_avoid_sv1","""event"",""trial"",""time""
""fullscreenenter"",""1"",""2305""
","
","
","""event"",""trial"",""time""
""fullscreenenter"",""1"",""2305""
","
","","","","","","1656.1000000238419","images/plane7.png","","","memory_trial","4","definitely_new",""
"html-keyboard-response","176","398871","0.0-18.0-0.66","5946","approach_avoid_sv1","""event"",""trial"",""time""
""fullscreenenter"",""1"",""2305""
","
","
","""event"",""trial"",""time""
""fullscreenenter"",""1"",""2305""
","
","","","","","","null","<div style=""font-size:60px;"">+</div>","null","","fixation","","",""
"memory-trial","177","401136","0.0-18.0-1.66","5946","approach_avoid_sv1","""event"",""trial"",""time""
""fullscreenenter"",""1"",""2305""
","
","
","""event"",""trial"",""time""
""fullscreenenter"",""1"",""2305""
","
","","","","","","1259.7999999523163","images/rodent3.png","","","memory_trial","4","definitely_new",""
"html-keyboard-response","178","401637","0.0-18.0-0.67","5946","approach_avoid_sv1","""event"",""trial"",""time""
""fullscreenenter"",""1"",""2305""
","
","
","""event"",""trial"",""time""
""fullscreenenter"",""1"",""2305""
","
","","","","","","null","<div style=""font-size:60px;"">+</div>","null","","fixation","","",""
"memory-trial","179","404829","0.0-18.0-1.67","5946","approach_avoid_sv1","""event"",""trial"",""time""
""fullscreenenter"",""1"",""2305""
","
","
","""event"",""trial"",""time""
""fullscreenenter"",""1"",""2305""
","
","","","","","","2186.699999988079","images/rabbit2.png","","","memory_trial","3","maybe_new",""
"html-keyboard-response","180","405334","0.0-18.0-0.68","5946","approach_avoid_sv1","""event"",""trial"",""time""
""fullscreenenter"",""1"",""2305""
","
","
","""event"",""trial"",""time""
""fullscreenenter"",""1"",""2305""
","
","","","","","","null","<div style=""font-size:60px;"">+</div>","null","","fixation","","",""
"memory-trial","181","407701","0.0-18.0-1.68","5946","approach_avoid_sv1","""event"",""trial"",""time""
""fullscreenenter"",""1"",""2305""
","
","
","""event"",""trial"",""time""
""fullscreenenter"",""1"",""2305""
","
","","","","","","1359.5999999642372","images/horse6.png","","","memory_trial","3","maybe_new",""
"html-keyboard-response","182","408204","0.0-18.0-0.69","5946","approach_avoid_sv1","""event"",""trial"",""time""
""fullscreenenter"",""1"",""2305""
","
","
","""event"",""trial"",""time""
""fullscreenenter"",""1"",""2305""
","
","","","","","","null","<div style=""font-size:60px;"">+</div>","null","","fixation","","",""
"memory-trial","183","410299","0.0-18.0-1.69","5946","approach_avoid_sv1","""event"",""trial"",""time""
""fullscreenenter"",""1"",""2305""
","
","
","""event"",""trial"",""time""
""fullscreenenter"",""1"",""2305""
","
","","","","","","1088.300000011921","images/train6.png","","","memory_trial","1","definitely_old",""
"html-keyboard-response","184","410799","0.0-18.0-0.70","5946","approach_avoid_sv1","""event"",""trial"",""time""
""fullscreenenter"",""1"",""2305""
","
","
","""event"",""trial"",""time""
""fullscreenenter"",""1"",""2305""
","
","","","","","","null","<div style=""font-size:60px;"">+</div>","null","","fixation","","",""
"memory-trial","185","412777","0.0-18.0-1.70","5946","approach_avoid_sv1","""event"",""trial"",""time""
""fullscreenenter"",""1"",""2305""
","
","
","""event"",""trial"",""time""
""fullscreenenter"",""1"",""2305""
","
","","","","","","970.1999999880791","images/orange8.png","","","memory_trial","2","maybe_old",""
"html-keyboard-response","186","413280","0.0-18.0-0.71","5946","approach_avoid_sv1","""event"",""trial"",""time""
""fullscreenenter"",""1"",""2305""
","
","
","""event"",""trial"",""time""
""fullscreenenter"",""1"",""2305""
","
","","","","","","null","<div style=""font-size:60px;"">+</div>","null","","fixation","","",""
"memory-trial","187","415899","0.0-18.0-1.71","5946","approach_avoid_sv1","""event"",""trial"",""time""
""fullscreenenter"",""1"",""2305""
","
","
","""event"",""trial"",""time""
""fullscreenenter"",""1"",""2305""
","
","","","","","","1615.9000000357628","images/bush6.png","","","memory_trial","2","maybe_old",""
"html-keyboard-response","188","416402","0.0-18.0-0.72","5946","approach_avoid_sv1","""event"",""trial"",""time""
""fullscreenenter"",""1"",""2305""
","
","
","""event"",""trial"",""time""
""fullscreenenter"",""1"",""2305""
","
","","","","","","null","<div style=""font-size:60px;"">+</div>","null","","fixation","","",""
"memory-trial","189","418822","0.0-18.0-1.72","5946","approach_avoid_sv1","""event"",""trial"",""time""
""fullscreenenter"",""1"",""2305""
","
","
","""event"",""trial"",""time""
""fullscreenenter"",""1"",""2305""
","
","","","","","","1414.2999999523163","images/cat3.png","","","memory_trial","1","definitely_old",""
"html-keyboard-response","190","419328","0.0-18.0-0.73","5946","approach_avoid_sv1","""event"",""trial"",""time""
""fullscreenenter"",""1"",""2305""
","
","
","""event"",""trial"",""time""
""fullscreenenter"",""1"",""2305""
","
","","","","","","null","<div style=""font-size:60px;"">+</div>","null","","fixation","","",""
"memory-trial","191","422006","0.0-18.0-1.73","5946","approach_avoid_sv1","""event"",""trial"",""time""
""fullscreenenter"",""1"",""2305""
","
","
","""event"",""trial"",""time""
""fullscreenenter"",""1"",""2305""
","
","","","","","","1675.2999999523163","images/dog1.png","","","memory_trial","2","maybe_old",""
"html-keyboard-response","192","422511","0.0-18.0-0.74","5946","approach_avoid_sv1","""event"",""trial"",""time""
""fullscreenenter"",""1"",""2305""
","
","
","""event"",""trial"",""time""
""fullscreenenter"",""1"",""2305""
","
","","","","","","null","<div style=""font-size:60px;"">+</div>","null","","fixation","","",""
"memory-trial","193","424655","0.0-18.0-1.74","5946","approach_avoid_sv1","""event"",""trial"",""time""
""fullscreenenter"",""1"",""2305""
","
","
","""event"",""trial"",""time""
""fullscreenenter"",""1"",""2305""
","
","","","","","","1140.5999999642372","images/table4.png","","","memory_trial","2","maybe_old",""
"html-keyboard-response","194","425157","0.0-18.0-0.75","5946","approach_avoid_sv1","""event"",""trial"",""time""
""fullscreenenter"",""1"",""2305""
","
","
","""event"",""trial"",""time""
""fullscreenenter"",""1"",""2305""
","
","","","","","","null","<div style=""font-size:60px;"">+</div>","null","","fixation","","",""
"memory-trial","195","428000","0.0-18.0-1.75","5946","approach_avoid_sv1","""event"",""trial"",""time""
""fullscreenenter"",""1"",""2305""
","
","
","""event"",""trial"",""time""
""fullscreenenter"",""1"",""2305""
","
","","","","","","1840.199999988079","images/rabbit6.png","","","memory_trial","3","maybe_new",""
"html-keyboard-response","196","428501","0.0-18.0-0.76","5946","approach_avoid_sv1","""event"",""trial"",""time""
""fullscreenenter"",""1"",""2305""
","
","
","""event"",""trial"",""time""
""fullscreenenter"",""1"",""2305""
","
","","","","","","null","<div style=""font-size:60px;"">+</div>","null","","fixation","","",""
"memory-trial","197","431594","0.0-18.0-1.76","5946","approach_avoid_sv1","""event"",""trial"",""time""
""fullscreenenter"",""1"",""2305""
","
","
","""event"",""trial"",""time""
""fullscreenenter"",""1"",""2305""
","
","","","","","","2087.699999988079","images/bed5.png","","","memory_trial","4","definitely_new",""
"html-keyboard-response","198","432096","0.0-18.0-0.77","5946","approach_avoid_sv1","""event"",""trial"",""time""
""fullscreenenter"",""1"",""2305""
","
","
","""event"",""trial"",""time""
""fullscreenenter"",""1"",""2305""
","
","","","","","","null","<div style=""font-size:60px;"">+</div>","null","","fixation","","",""
"memory-trial","199","435669","0.0-18.0-1.77","5946","approach_avoid_sv1","""event"",""trial"",""time""
""fullscreenenter"",""1"",""2305""
","
","
","""event"",""trial"",""time""
""fullscreenenter"",""1"",""2305""
","
","","","","","","2568.5","images/cactus8.png","","","memory_trial","3","maybe_new",""
"html-keyboard-response","200","436171","0.0-18.0-0.78","5946","approach_avoid_sv1","""event"",""trial"",""time""
""fullscreenenter"",""1"",""2305""
","
","
","""event"",""trial"",""time""
""fullscreenenter"",""1"",""2305""
","
","","","","","","null","<div style=""font-size:60px;"">+</div>","null","","fixation","","",""
"memory-trial","201","438672","0.0-18.0-1.78","5946","approach_avoid_sv1","""event"",""trial"",""time""
""fullscreenenter"",""1"",""2305""
","
","
","""event"",""trial"",""time""
""fullscreenenter"",""1"",""2305""
","
","","","","","","1492.8999999761581","images/sheep2.png","","","memory_trial","1","definitely_old",""
"html-keyboard-response","202","439177","0.0-18.0-0.79","5946","approach_avoid_sv1","""event"",""trial"",""time""
""fullscreenenter"",""1"",""2305""
","
","
","""event"",""trial"",""time""
""fullscreenenter"",""1"",""2305""
","
","","","","","","null","<div style=""font-size:60px;"">+</div>","null","","fixation","","",""
"memory-trial","203","441893","0.0-18.0-1.79","5946","approach_avoid_sv1","""event"",""trial"",""time""
""fullscreenenter"",""1"",""2305""
","
","
","""event"",""trial"",""time""
""fullscreenenter"",""1"",""2305""
","
","","","","","","1711.5","images/cow8.png","","","memory_trial","2","maybe_old",""
"html-keyboard-response","204","442397","0.0-18.0-0.80","5946","approach_avoid_sv1","""event"",""trial"",""time""
""fullscreenenter"",""1"",""2305""
","
","
","""event"",""trial"",""time""
""fullscreenenter"",""1"",""2305""
","
","","","","","","null","<div style=""font-size:60px;"">+</div>","null","","fixation","","",""
"memory-trial","205","444901","0.0-18.0-1.80","5946","approach_avoid_sv1","""event"",""trial"",""time""
""fullscreenenter"",""1"",""2305""
","
","
","""event"",""trial"",""time""
""fullscreenenter"",""1"",""2305""
","
","","","","","","1500.800000011921","images/rabbit1.png","","","memory_trial","4","definitely_new",""
"html-keyboard-response","206","445406","0.0-18.0-0.81","5946","approach_avoid_sv1","""event"",""trial"",""time""
""fullscreenenter"",""1"",""2305""
","
","
","""event"",""trial"",""time""
""fullscreenenter"",""1"",""2305""
","
","","","","","","null","<div style=""font-size:60px;"">+</div>","null","","fixation","","",""
"memory-trial","207","448999","0.0-18.0-1.81","5946","approach_avoid_sv1","""event"",""trial"",""time""
""fullscreenenter"",""1"",""2305""
","
","
","""event"",""trial"",""time""
""fullscreenenter"",""1"",""2305""
","
","","","","","","2589.7999999523163","images/banana7.png","","","memory_trial","2","maybe_old",""
"html-keyboard-response","208","449503","0.0-18.0-0.82","5946","approach_avoid_sv1","""event"",""trial"",""time""
""fullscreenenter"",""1"",""2305""
","
","
","""event"",""trial"",""time""
""fullscreenenter"",""1"",""2305""
","
","","","","","","null","<div style=""font-size:60px;"">+</div>","null","","fixation","","",""
"memory-trial","209","451642","0.0-18.0-1.82","5946","approach_avoid_sv1","""event"",""trial"",""time""
""fullscreenenter"",""1"",""2305""
","
","
","""event"",""trial"",""time""
""fullscreenenter"",""1"",""2305""
","
","","","","","","1134.699999988079","images/banana3.png","","","memory_trial","1","definitely_old",""
"html-keyboard-response","210","452147","0.0-18.0-0.83","5946","approach_avoid_sv1","""event"",""trial"",""time""
""fullscreenenter"",""1"",""2305""
","
","
","""event"",""trial"",""time""
""fullscreenenter"",""1"",""2305""
","
","","","","","","null","<div style=""font-size:60px;"">+</div>","null","","fixation","","",""
"memory-trial","211","455218","0.0-18.0-1.83","5946","approach_avoid_sv1","""event"",""trial"",""time""
""fullscreenenter"",""1"",""2305""
","
","
","""event"",""trial"",""time""
""fullscreenenter"",""1"",""2305""
","
","","","","","","2065.899999976158","images/rabbit3.png","","","memory_trial","3","maybe_new",""
"html-keyboard-response","212","455722","0.0-18.0-0.84","5946","approach_avoid_sv1","""event"",""trial"",""time""
""fullscreenenter"",""1"",""2305""
","
","
","""event"",""trial"",""time""
""fullscreenenter"",""1"",""2305""
","
","","","","","","null","<div style=""font-size:60px;"">+</div>","null","","fixation","","",""
"memory-trial","213","457628","0.0-18.0-1.84","5946","approach_avoid_sv1","""event"",""trial"",""time""
""fullscreenenter"",""1"",""2305""
","
","
","""event"",""trial"",""time""
""fullscreenenter"",""1"",""2305""
","
","","","","","","900.1999999880791","images/rabbit4.png","","","memory_trial","4","definitely_new",""
"html-keyboard-response","214","458133","0.0-18.0-0.85","5946","approach_avoid_sv1","""event"",""trial"",""time""
""fullscreenenter"",""1"",""2305""
","
","
","""event"",""trial"",""time""
""fullscreenenter"",""1"",""2305""
","
","","","","","","null","<div style=""font-size:60px;"">+</div>","null","","fixation","","",""
"memory-trial","215","459946","0.0-18.0-1.85","5946","approach_avoid_sv1","""event"",""trial"",""time""
""fullscreenenter"",""1"",""2305""
","
","
","""event"",""trial"",""time""
""fullscreenenter"",""1"",""2305""
","
","","","","","","806.8999999761581","images/sofa2.png","","","memory_trial","4","definitely_new",""
"html-keyboard-response","216","460448","0.0-18.0-0.86","5946","approach_avoid_sv1","""event"",""trial"",""time""
""fullscreenenter"",""1"",""2305""
","
","
","""event"",""trial"",""time""
""fullscreenenter"",""1"",""2305""
","
","","","","","","null","<div style=""font-size:60px;"">+</div>","null","","fixation","","",""
"memory-trial","217","462896","0.0-18.0-1.86","5946","approach_avoid_sv1","""event"",""trial"",""time""
""fullscreenenter"",""1"",""2305""
","
","
","""event"",""trial"",""time""
""fullscreenenter"",""1"",""2305""
","
","","","","","","1442.5","images/horse5.png","","","memory_trial","2","maybe_old",""
"html-keyboard-response","218","463397","0.0-18.0-0.87","5946","approach_avoid_sv1","""event"",""trial"",""time""
""fullscreenenter"",""1"",""2305""
","
","
","""event"",""trial"",""time""
""fullscreenenter"",""1"",""2305""
","
","","","","","","null","<div style=""font-size:60px;"">+</div>","null","","fixation","","",""
"memory-trial","219","465845","0.0-18.0-1.87","5946","approach_avoid_sv1","""event"",""trial"",""time""
""fullscreenenter"",""1"",""2305""
","
","
","""event"",""trial"",""time""
""fullscreenenter"",""1"",""2305""
","
","","","","","","1442.8999999761581","images/bush5.png","","","memory_trial","2","maybe_old",""
"html-keyboard-response","220","466349","0.0-18.0-0.88","5946","approach_avoid_sv1","""event"",""trial"",""time""
""fullscreenenter"",""1"",""2305""
","
","
","""event"",""trial"",""time""
""fullscreenenter"",""1"",""2305""
","
","","","","","","null","<div style=""font-size:60px;"">+</div>","null","","fixation","","",""
"memory-trial","221","469147","0.0-18.0-1.88","5946","approach_avoid_sv1","""event"",""trial"",""time""
""fullscreenenter"",""1"",""2305""
","
","
","""event"",""trial"",""time""
""fullscreenenter"",""1"",""2305""
","
","","","","","","1795.0999999642372","images/boat2.png","","","memory_trial","4","definitely_new",""
"html-keyboard-response","222","469652","0.0-18.0-0.89","5946","approach_avoid_sv1","""event"",""trial"",""time""
""fullscreenenter"",""1"",""2305""
","
","
","""event"",""trial"",""time""
""fullscreenenter"",""1"",""2305""
","
","","","","","","null","<div style=""font-size:60px;"">+</div>","null","","fixation","","",""
"memory-trial","223","471941","0.0-18.0-1.89","5946","approach_avoid_sv1","""event"",""trial"",""time""
""fullscreenenter"",""1"",""2305""
","
","
","""event"",""trial"",""time""
""fullscreenenter"",""1"",""2305""
","
","","","","","","1284.8999999761581","images/goat1.png","","","memory_trial","2","maybe_old",""
"html-keyboard-response","224","472444","0.0-18.0-0.90","5946","approach_avoid_sv1","""event"",""trial"",""time""
""fullscreenenter"",""1"",""2305""
","
","
","""event"",""trial"",""time""
""fullscreenenter"",""1"",""2305""
","
","","","","","","null","<div style=""font-size:60px;"">+</div>","null","","fixation","","",""
"memory-trial","225","475163","0.0-18.0-1.90","5946","approach_avoid_sv1","""event"",""trial"",""time""
""fullscreenenter"",""1"",""2305""
","
","
","""event"",""trial"",""time""
""fullscreenenter"",""1"",""2305""
","
","","","","","","1714.199999988079","images/bush7.png","","","memory_trial","3","maybe_new",""
"html-keyboard-response","226","475669","0.0-18.0-0.91","5946","approach_avoid_sv1","""event"",""trial"",""time""
""fullscreenenter"",""1"",""2305""
","
","
","""event"",""trial"",""time""
""fullscreenenter"",""1"",""2305""
","
","","","","","","null","<div style=""font-size:60px;"">+</div>","null","","fixation","","",""
"memory-trial","227","478188","0.0-18.0-1.91","5946","approach_avoid_sv1","""event"",""trial"",""time""
""fullscreenenter"",""1"",""2305""
","
","
","""event"",""trial"",""time""
""fullscreenenter"",""1"",""2305""
","
","","","","","","1515.2000000476837","images/table6.png","","","memory_trial","4","definitely_new",""
"html-button-response","228","485710","0.0-18.0-2.91-0.91","5946","approach_avoid_sv1","""event"",""trial"",""time""
""fullscreenenter"",""1"",""2305""
","
","
","""event"",""trial"",""time""
""fullscreenenter"",""1"",""2305""
","
","","","","","","7520.699999988079","<p> Take a break! </p><p> Click the button to continue. </p>","0","","break","","",""
"html-keyboard-response","229","486214","0.0-18.0-0.92","5946","approach_avoid_sv1","""event"",""trial"",""time""
""fullscreenenter"",""1"",""2305""
","
","
","""event"",""trial"",""time""
""fullscreenenter"",""1"",""2305""
","
","","","","","","null","<div style=""font-size:60px;"">+</div>","null","","fixation","","",""
"memory-trial","230","488331","0.0-18.0-1.92","5946","approach_avoid_sv1","""event"",""trial"",""time""
""fullscreenenter"",""1"",""2305""
","
","
","""event"",""trial"",""time""
""fullscreenenter"",""1"",""2305""
","
","","","","","","1112.0999999642372","images/train5.png","","","memory_trial","1","definitely_old",""
"html-keyboard-response","231","488836","0.0-18.0-0.93","5946","approach_avoid_sv1","""event"",""trial"",""time""
""fullscreenenter"",""1"",""2305""
","
","
","""event"",""trial"",""time""
""fullscreenenter"",""1"",""2305""
","
","","","","","","null","<div style=""font-size:60px;"">+</div>","null","","fixation","","",""
"memory-trial","232","491276","0.0-18.0-1.93","5946","approach_avoid_sv1","""event"",""trial"",""time""
""fullscreenenter"",""1"",""2305""
","
","
","""event"",""trial"",""time""
""fullscreenenter"",""1"",""2305""
","
","","","","","","1434.2000000476837","images/plane2.png","","","memory_trial","4","definitely_new",""
"html-keyboard-response","233","491780","0.0-18.0-0.94","5946","approach_avoid_sv1","""event"",""trial"",""time""
""fullscreenenter"",""1"",""2305""
","
","
","""event"",""trial"",""time""
""fullscreenenter"",""1"",""2305""
","
","","","","","","null","<div style=""font-size:60px;"">+</div>","null","","fixation","","",""
"memory-trial","234","494413","0.0-18.0-1.94","5946","approach_avoid_sv1","""event"",""trial"",""time""
""fullscreenenter"",""1"",""2305""
","
","
","""event"",""trial"",""time""
""fullscreenenter"",""1"",""2305""
","
","","","","","","1627","images/boat7.png","","","memory_trial","3","maybe_new",""
"html-keyboard-response","235","494916","0.0-18.0-0.95","5946","approach_avoid_sv1","""event"",""trial"",""time""
""fullscreenenter"",""1"",""2305""
","
","
","""event"",""trial"",""time""
""fullscreenenter"",""1"",""2305""
","
","","","","","","null","<div style=""font-size:60px;"">+</div>","null","","fixation","","",""
"memory-trial","236","497156","0.0-18.0-1.95","5946","approach_avoid_sv1","""event"",""trial"",""time""
""fullscreenenter"",""1"",""2305""
","
","
","""event"",""trial"",""time""
""fullscreenenter"",""1"",""2305""
","
","","","","","","1231.699999988079","images/rabbit5.png","","","memory_trial","4","definitely_new",""
"html-keyboard-response","237","497658","0.0-18.0-0.96","5946","approach_avoid_sv1","""event"",""trial"",""time""
""fullscreenenter"",""1"",""2305""
","
","
","""event"",""trial"",""time""
""fullscreenenter"",""1"",""2305""
","
","","","","","","null","<div style=""font-size:60px;"">+</div>","null","","fixation","","",""
"memory-trial","238","499857","0.0-18.0-1.96","5946","approach_avoid_sv1","""event"",""trial"",""time""
""fullscreenenter"",""1"",""2305""
","
","
","""event"",""trial"",""time""
""fullscreenenter"",""1"",""2305""
","
","","","","","","1192.800000011921","images/truck6.png","","","memory_trial","1","definitely_old",""
"html-keyboard-response","239","500362","0.0-18.0-0.97","5946","approach_avoid_sv1","""event"",""trial"",""time""
""fullscreenenter"",""1"",""2305""
","
","
","""event"",""trial"",""time""
""fullscreenenter"",""1"",""2305""
","
","","","","","","null","<div style=""font-size:60px;"">+</div>","null","","fixation","","",""
"memory-trial","240","502908","0.0-18.0-1.97","5946","approach_avoid_sv1","""event"",""trial"",""time""
""fullscreenenter"",""1"",""2305""
","
","
","""event"",""trial"",""time""
""fullscreenenter"",""1"",""2305""
","
","","","","","","1541","images/goat6.png","","","memory_trial","1","definitely_old",""
"html-keyboard-response","241","503412","0.0-18.0-0.98","5946","approach_avoid_sv1","""event"",""trial"",""time""
""fullscreenenter"",""1"",""2305""
","
","
","""event"",""trial"",""time""
""fullscreenenter"",""1"",""2305""
","
","","","","","","null","<div style=""font-size:60px;"">+</div>","null","","fixation","","",""
"memory-trial","242","505647","0.0-18.0-1.98","5946","approach_avoid_sv1","""event"",""trial"",""time""
""fullscreenenter"",""1"",""2305""
","
","
","""event"",""trial"",""time""
""fullscreenenter"",""1"",""2305""
","
","","","","","","1229.7000000476837","images/apple7.png","","","memory_trial","2","maybe_old",""
"html-keyboard-response","243","506150","0.0-18.0-0.99","5946","approach_avoid_sv1","""event"",""trial"",""time""
""fullscreenenter"",""1"",""2305""
","
","
","""event"",""trial"",""time""
""fullscreenenter"",""1"",""2305""
","
","","","","","","null","<div style=""font-size:60px;"">+</div>","null","","fixation","","",""
"memory-trial","244","508388","0.0-18.0-1.99","5946","approach_avoid_sv1","""event"",""trial"",""time""
""fullscreenenter"",""1"",""2305""
","
","
","""event"",""trial"",""time""
""fullscreenenter"",""1"",""2305""
","
","","","","","","1233.300000011921","images/cactus3.png","","","memory_trial","1","definitely_old",""
"html-keyboard-response","245","508890","0.0-18.0-0.100","5946","approach_avoid_sv1","""event"",""trial"",""time""
""fullscreenenter"",""1"",""2305""
","
","
","""event"",""trial"",""time""
""fullscreenenter"",""1"",""2305""
","
","","","","","","null","<div style=""font-size:60px;"">+</div>","null","","fixation","","",""
"memory-trial","246","511412","0.0-18.0-1.100","5946","approach_avoid_sv1","""event"",""trial"",""time""
""fullscreenenter"",""1"",""2305""
","
","
","""event"",""trial"",""time""
""fullscreenenter"",""1"",""2305""
","
","","","","","","1519","images/table3.png","","","memory_trial","2","maybe_old",""
"html-keyboard-response","247","511916","0.0-18.0-0.101","5946","approach_avoid_sv1","""event"",""trial"",""time""
""fullscreenenter"",""1"",""2305""
","
","
","""event"",""trial"",""time""
""fullscreenenter"",""1"",""2305""
","
","","","","","","null","<div style=""font-size:60px;"">+</div>","null","","fixation","","",""
"memory-trial","248","514784","0.0-18.0-1.101","5946","approach_avoid_sv1","""event"",""trial"",""time""
""fullscreenenter"",""1"",""2305""
","
","
","""event"",""trial"",""time""
""fullscreenenter"",""1"",""2305""
","
","","","","","","1864.9000000357628","images/straw3.png","","","memory_trial","3","maybe_new",""
"html-keyboard-response","249","515290","0.0-18.0-0.102","5946","approach_avoid_sv1","""event"",""trial"",""time""
""fullscreenenter"",""1"",""2305""
","
","
","""event"",""trial"",""time""
""fullscreenenter"",""1"",""2305""
","
","","","","","","null","<div style=""font-size:60px;"">+</div>","null","","fixation","","",""
"memory-trial","250","518093","0.0-18.0-1.102","5946","approach_avoid_sv1","""event"",""trial"",""time""
""fullscreenenter"",""1"",""2305""
","
","
","""event"",""trial"",""time""
""fullscreenenter"",""1"",""2305""
","
","","","","","","1797.1000000238419","images/boat6.png","","","memory_trial","3","maybe_new",""
"html-keyboard-response","251","518596","0.0-18.0-0.103","5946","approach_avoid_sv1","""event"",""trial"",""time""
""fullscreenenter"",""1"",""2305""
","
","
","""event"",""trial"",""time""
""fullscreenenter"",""1"",""2305""
","
","","","","","","null","<div style=""font-size:60px;"">+</div>","null","","fixation","","",""
"memory-trial","252","521489","0.0-18.0-1.103","5946","approach_avoid_sv1","""event"",""trial"",""time""
""fullscreenenter"",""1"",""2305""
","
","
","""event"",""trial"",""time""
""fullscreenenter"",""1"",""2305""
","
","","","","","","1887.300000011921","images/truck2.png","","","memory_trial","1","definitely_old",""
"html-keyboard-response","253","521994","0.0-18.0-0.104","5946","approach_avoid_sv1","""event"",""trial"",""time""
""fullscreenenter"",""1"",""2305""
","
","
","""event"",""trial"",""time""
""fullscreenenter"",""1"",""2305""
","
","","","","","","null","<div style=""font-size:60px;"">+</div>","null","","fixation","","",""
"memory-trial","254","525506","0.0-18.0-1.104","5946","approach_avoid_sv1","""event"",""trial"",""time""
""fullscreenenter"",""1"",""2305""
","
","
","""event"",""trial"",""time""
""fullscreenenter"",""1"",""2305""
","
","","","","","","2506","images/banana6.png","","","memory_trial","3","maybe_new",""
"html-keyboard-response","255","526008","0.0-18.0-0.105","5946","approach_avoid_sv1","""event"",""trial"",""time""
""fullscreenenter"",""1"",""2305""
","
","
","""event"",""trial"",""time""
""fullscreenenter"",""1"",""2305""
","
","","","","","","null","<div style=""font-size:60px;"">+</div>","null","","fixation","","",""
"memory-trial","256","528575","0.0-18.0-1.105","5946","approach_avoid_sv1","""event"",""trial"",""time""
""fullscreenenter"",""1"",""2305""
","
","
","""event"",""trial"",""time""
""fullscreenenter"",""1"",""2305""
","
","","","","","","1563.1000000238419","images/horse7.png","","","memory_trial","3","maybe_new",""
"html-keyboard-response","257","529080","0.0-18.0-0.106","5946","approach_avoid_sv1","""event"",""trial"",""time""
""fullscreenenter"",""1"",""2305""
","
","
","""event"",""trial"",""time""
""fullscreenenter"",""1"",""2305""
","
","","","","","","null","<div style=""font-size:60px;"">+</div>","null","","fixation","","",""
"memory-trial","258","532084","0.0-18.0-1.106","5946","approach_avoid_sv1","""event"",""trial"",""time""
""fullscreenenter"",""1"",""2305""
","
","
","""event"",""trial"",""time""
""fullscreenenter"",""1"",""2305""
","
","","","","","","1997.5999999642372","images/truck1.png","","","memory_trial","4","definitely_new",""
"html-keyboard-response","259","532585","0.0-18.0-0.107","5946","approach_avoid_sv1","""event"",""trial"",""time""
""fullscreenenter"",""1"",""2305""
","
","
","""event"",""trial"",""time""
""fullscreenenter"",""1"",""2305""
","
","","","","","","null","<div style=""font-size:60px;"">+</div>","null","","fixation","","",""
"memory-trial","260","535039","0.0-18.0-1.107","5946","approach_avoid_sv1","""event"",""trial"",""time""
""fullscreenenter"",""1"",""2305""
","
","
","""event"",""trial"",""time""
""fullscreenenter"",""1"",""2305""
","
","","","","","","1447.2999999523163","images/dog2.png","","","memory_trial","2","maybe_old",""
"html-keyboard-response","261","535544","0.0-18.0-0.108","5946","approach_avoid_sv1","""event"",""trial"",""time""
""fullscreenenter"",""1"",""2305""
","
","
","""event"",""trial"",""time""
""fullscreenenter"",""1"",""2305""
","
","","","","","","null","<div style=""font-size:60px;"">+</div>","null","","fixation","","",""
"memory-trial","262","538156","0.0-18.0-1.108","5946","approach_avoid_sv1","""event"",""trial"",""time""
""fullscreenenter"",""1"",""2305""
","
","
","""event"",""trial"",""time""
""fullscreenenter"",""1"",""2305""
","
","","","","","","1607.199999988079","images/bed4.png","","","memory_trial","4","definitely_new",""
"html-keyboard-response","263","538660","0.0-18.0-0.109","5946","approach_avoid_sv1","""event"",""trial"",""time""
""fullscreenenter"",""1"",""2305""
","
","
","""event"",""trial"",""time""
""fullscreenenter"",""1"",""2305""
","
","","","","","","null","<div style=""font-size:60px;"">+</div>","null","","fixation","","",""
"memory-trial","264","540831","0.0-18.0-1.109","5946","approach_avoid_sv1","""event"",""trial"",""time""
""fullscreenenter"",""1"",""2305""
","
","
","""event"",""trial"",""time""
""fullscreenenter"",""1"",""2305""
","
","","","","","","1165","images/dog5.png","","","memory_trial","1","definitely_old",""
"html-keyboard-response","265","541333","0.0-18.0-0.110","5946","approach_avoid_sv1","""event"",""trial"",""time""
""fullscreenenter"",""1"",""2305""
","
","
","""event"",""trial"",""time""
""fullscreenenter"",""1"",""2305""
","
","","","","","","null","<div style=""font-size:60px;"">+</div>","null","","fixation","","",""
"memory-trial","266","543272","0.0-18.0-1.110","5946","approach_avoid_sv1","""event"",""trial"",""time""
""fullscreenenter"",""1"",""2305""
","
","
","""event"",""trial"",""time""
""fullscreenenter"",""1"",""2305""
","
","","","","","","933","images/sofa8.png","","","memory_trial","4","definitely_new",""
"html-keyboard-response","267","543775","0.0-18.0-0.111","5946","approach_avoid_sv1","""event"",""trial"",""time""
""fullscreenenter"",""1"",""2305""
","
","
","""event"",""trial"",""time""
""fullscreenenter"",""1"",""2305""
","
","","","","","","null","<div style=""font-size:60px;"">+</div>","null","","fixation","","",""
"memory-trial","268","546451","0.0-18.0-1.111","5946","approach_avoid_sv1","""event"",""trial"",""time""
""fullscreenenter"",""1"",""2305""
","
","
","""event"",""trial"",""time""
""fullscreenenter"",""1"",""2305""
","
","","","","","","1670.1000000238419","images/tree8.png","","","memory_trial","2","maybe_old",""
"html-keyboard-response","269","546955","0.0-18.0-0.112","5946","approach_avoid_sv1","""event"",""trial"",""time""
""fullscreenenter"",""1"",""2305""
","
","
","""event"",""trial"",""time""
""fullscreenenter"",""1"",""2305""
","
","","","","","","null","<div style=""font-size:60px;"">+</div>","null","","fixation","","",""
"memory-trial","270","550227","0.0-18.0-1.112","5946","approach_avoid_sv1","""event"",""trial"",""time""
""fullscreenenter"",""1"",""2305""
","
","
","""event"",""trial"",""time""
""fullscreenenter"",""1"",""2305""
","
","","","","","","2264.5","images/horse3.png","","","memory_trial","3","maybe_new",""
"html-keyboard-response","271","550730","0.0-18.0-0.113","5946","approach_avoid_sv1","""event"",""trial"",""time""
""fullscreenenter"",""1"",""2305""
","
","
","""event"",""trial"",""time""
""fullscreenenter"",""1"",""2305""
","
","","","","","","null","<div style=""font-size:60px;"">+</div>","null","","fixation","","",""
"memory-trial","272","553364","0.0-18.0-1.113","5946","approach_avoid_sv1","""event"",""trial"",""time""
""fullscreenenter"",""1"",""2305""
","
","
","""event"",""trial"",""time""
""fullscreenenter"",""1"",""2305""
","
","","","","","","1630.3999999761581","images/table1.png","","","memory_trial","2","maybe_old",""
"html-keyboard-response","273","553867","0.0-18.0-0.114","5946","approach_avoid_sv1","""event"",""trial"",""time""
""fullscreenenter"",""1"",""2305""
","
","
","""event"",""trial"",""time""
""fullscreenenter"",""1"",""2305""
","
","","","","","","null","<div style=""font-size:60px;"">+</div>","null","","fixation","","",""
"memory-trial","274","555851","0.0-18.0-1.114","5946","approach_avoid_sv1","""event"",""trial"",""time""
""fullscreenenter"",""1"",""2305""
","
","
","""event"",""trial"",""time""
""fullscreenenter"",""1"",""2305""
","
","","","","","","980.3999999761581","images/truck8.png","","","memory_trial","1","definitely_old",""
"html-keyboard-response","275","556356","0.0-18.0-0.115","5946","approach_avoid_sv1","""event"",""trial"",""time""
""fullscreenenter"",""1"",""2305""
","
","
","""event"",""trial"",""time""
""fullscreenenter"",""1"",""2305""
","
","","","","","","null","<div style=""font-size:60px;"">+</div>","null","","fixation","","",""
"memory-trial","276","558943","0.0-18.0-1.115","5946","approach_avoid_sv1","""event"",""trial"",""time""
""fullscreenenter"",""1"",""2305""
","
","
","""event"",""trial"",""time""
""fullscreenenter"",""1"",""2305""
","
","","","","","","1580.300000011921","images/boat1.png","","","memory_trial","2","maybe_old",""
"html-keyboard-response","277","559446","0.0-18.0-0.116","5946","approach_avoid_sv1","""event"",""trial"",""time""
""fullscreenenter"",""1"",""2305""
","
","
","""event"",""trial"",""time""
""fullscreenenter"",""1"",""2305""
","
","","","","","","null","<div style=""font-size:60px;"">+</div>","null","","fixation","","",""
"memory-trial","278","561857","0.0-18.0-1.116","5946","approach_avoid_sv1","""event"",""trial"",""time""
""fullscreenenter"",""1"",""2305""
","
","
","""event"",""trial"",""time""
""fullscreenenter"",""1"",""2305""
","
","","","","","","1404.8999999761581","images/orange7.png","","","memory_trial","2","maybe_old",""
"html-keyboard-response","279","562361","0.0-18.0-0.117","5946","approach_avoid_sv1","""event"",""trial"",""time""
""fullscreenenter"",""1"",""2305""
","
","
","""event"",""trial"",""time""
""fullscreenenter"",""1"",""2305""
","
","","","","","","null","<div style=""font-size:60px;"">+</div>","null","","fixation","","",""
"memory-trial","280","564895","0.0-18.0-1.117","5946","approach_avoid_sv1","""event"",""trial"",""time""
""fullscreenenter"",""1"",""2305""
","
","
","""event"",""trial"",""time""
""fullscreenenter"",""1"",""2305""
","
","","","","","","1528.300000011921","images/tree3.png","","","memory_trial","3","maybe_new",""
"html-keyboard-response","281","565396","0.0-18.0-0.118","5946","approach_avoid_sv1","""event"",""trial"",""time""
""fullscreenenter"",""1"",""2305""
","
","
","""event"",""trial"",""time""
""fullscreenenter"",""1"",""2305""
","
","","","","","","null","<div style=""font-size:60px;"">+</div>","null","","fixation","","",""
"memory-trial","282","567607","0.0-18.0-1.118","5946","approach_avoid_sv1","""event"",""trial"",""time""
""fullscreenenter"",""1"",""2305""
","
","
","""event"",""trial"",""time""
""fullscreenenter"",""1"",""2305""
","
","","","","","","1206.2000000476837","images/bush3.png","","","memory_trial","1","definitely_old",""
"html-keyboard-response","283","568110","0.0-18.0-0.119","5946","approach_avoid_sv1","""event"",""trial"",""time""
""fullscreenenter"",""1"",""2305""
","
","
","""event"",""trial"",""time""
""fullscreenenter"",""1"",""2305""
","
","","","","","","null","<div style=""font-size:60px;"">+</div>","null","","fixation","","",""
"memory-trial","284","570485","0.0-18.0-1.119","5946","approach_avoid_sv1","""event"",""trial"",""time""
""fullscreenenter"",""1"",""2305""
","
","
","""event"",""trial"",""time""
""fullscreenenter"",""1"",""2305""
","
","","","","","","1370.5","images/cow1.png","","","memory_trial","1","definitely_old",""
"html-keyboard-response","285","570987","0.0-18.0-0.120","5946","approach_avoid_sv1","""event"",""trial"",""time""
""fullscreenenter"",""1"",""2305""
","
","
","""event"",""trial"",""time""
""fullscreenenter"",""1"",""2305""
","
","","","","","","null","<div style=""font-size:60px;"">+</div>","null","","fixation","","",""
"memory-trial","286","573092","0.0-18.0-1.120","5946","approach_avoid_sv1","""event"",""trial"",""time""
""fullscreenenter"",""1"",""2305""
","
","
","""event"",""trial"",""time""
""fullscreenenter"",""1"",""2305""
","
","","","","","","1098.5","images/orange1.png","","","memory_trial","2","maybe_old",""
"html-keyboard-response","287","573593","0.0-18.0-0.121","5946","approach_avoid_sv1","""event"",""trial"",""time""
""fullscreenenter"",""1"",""2305""
","
","
","""event"",""trial"",""time""
""fullscreenenter"",""1"",""2305""
","
","","","","","","null","<div style=""font-size:60px;"">+</div>","null","","fixation","","",""
"memory-trial","288","575865","0.0-18.0-1.121","5946","approach_avoid_sv1","""event"",""trial"",""time""
""fullscreenenter"",""1"",""2305""
","
","
","""event"",""trial"",""time""
""fullscreenenter"",""1"",""2305""
","
","","","","","","1265.5","images/chair6.png","","","memory_trial","4","definitely_new",""
"html-keyboard-response","289","576366","0.0-18.0-0.122","5946","approach_avoid_sv1","""event"",""trial"",""time""
""fullscreenenter"",""1"",""2305""
","
","
","""event"",""trial"",""time""
""fullscreenenter"",""1"",""2305""
","
","","","","","","null","<div style=""font-size:60px;"">+</div>","null","","fixation","","",""
"memory-trial","290","578452","0.0-18.0-1.122","5946","approach_avoid_sv1","""event"",""trial"",""time""
""fullscreenenter"",""1"",""2305""
","
","
","""event"",""trial"",""time""
""fullscreenenter"",""1"",""2305""
","
","","","","","","1080.800000011921","images/goat8.png","","","memory_trial","1","definitely_old",""
"html-keyboard-response","291","578955","0.0-18.0-0.123","5946","approach_avoid_sv1","""event"",""trial"",""time""
""fullscreenenter"",""1"",""2305""
","
","
","""event"",""trial"",""time""
""fullscreenenter"",""1"",""2305""
","
","","","","","","null","<div style=""font-size:60px;"">+</div>","null","","fixation","","",""
"memory-trial","292","580938","0.0-18.0-1.123","5946","approach_avoid_sv1","""event"",""trial"",""time""
""fullscreenenter"",""1"",""2305""
","
","
","""event"",""trial"",""time""
""fullscreenenter"",""1"",""2305""
","
","","","","","","977.2999999523163","images/dog3.png","","","memory_trial","1","definitely_old",""
"html-keyboard-response","293","581443","0.0-18.0-0.124","5946","approach_avoid_sv1","""event"",""trial"",""time""
""fullscreenenter"",""1"",""2305""
","
","
","""event"",""trial"",""time""
""fullscreenenter"",""1"",""2305""
","
","","","","","","null","<div style=""font-size:60px;"">+</div>","null","","fixation","","",""
"memory-trial","294","584099","0.0-18.0-1.124","5946","approach_avoid_sv1","""event"",""trial"",""time""
""fullscreenenter"",""1"",""2305""
","
","
","""event"",""trial"",""time""
""fullscreenenter"",""1"",""2305""
","
","","","","","","1652.300000011921","images/cow3.png","","","memory_trial","3","maybe_new",""
"html-keyboard-response","295","584604","0.0-18.0-0.125","5946","approach_avoid_sv1","""event"",""trial"",""time""
""fullscreenenter"",""1"",""2305""
","
","
","""event"",""trial"",""time""
""fullscreenenter"",""1"",""2305""
","
","","","","","","null","<div style=""font-size:60px;"">+</div>","null","","fixation","","",""
"memory-trial","296","587707","0.0-18.0-1.125","5946","approach_avoid_sv1","""event"",""trial"",""time""
""fullscreenenter"",""1"",""2305""
","
","
","""event"",""trial"",""time""
""fullscreenenter"",""1"",""2305""
","
","","","","","","2097.199999988079","images/banana1.png","","","memory_trial","3","maybe_new",""
"html-keyboard-response","297","588212","0.0-18.0-0.126","5946","approach_avoid_sv1","""event"",""trial"",""time""
""fullscreenenter"",""1"",""2305""
","
","
","""event"",""trial"",""time""
""fullscreenenter"",""1"",""2305""
","
","","","","","","null","<div style=""font-size:60px;"">+</div>","null","","fixation","","",""
