"trial_type","trial_index","time_elapsed","internal_node_id","subject_id","condition","task_version","interactions","blur_events","focus_events","fullscreenenter_events","fullscreenexit_events","success","timeout","failed_images","failed_audio","failed_video","rt","stimulus","response","button_pressed","task_part","left_choice","middle_choice","right_choice","choice_positions","correct_response","correct_position","key_press","option_selected","points","task_block","correct","stim_cat","block_condition","block_number"
"pavlovia","0","4","0.0-0.0","1841","2","2","""event"",""trial"",""time""
""fullscreenenter"",""1"",""3040""
","
","
","""event"",""trial"",""time""
""fullscreenenter"",""1"",""3040""
","
","","","","","","","","","","","","","","","","","","","","","","","",""
"fullscreen","1","3973","0.0-1.0","1841","2","2","""event"",""trial"",""time""
""fullscreenenter"",""1"",""3040""
","
","
","""event"",""trial"",""time""
""fullscreenenter"",""1"",""3040""
","
","true","","","","","","","","","","","","","","","","","","","","","","",""
"preload","2","14798","0.0-2.0","1841","2","2","""event"",""trial"",""time""
""fullscreenenter"",""1"",""3040""
","
","
","""event"",""trial"",""time""
""fullscreenenter"",""1"",""3040""
","
","true","false","[]","[]","[]","","","","","","","","","","","","","","","","","","",""
"audio-keyboard-response","3","16937","0.0-3.0","1841","2","2","""event"",""trial"",""time""
""fullscreenenter"",""1"",""3040""
","
","
","""event"",""trial"",""time""
""fullscreenenter"",""1"",""3040""
","
","","","","","","2133.333333333333","audio/beep_loop.wav"," ","","","","","","","","","","","","","","","",""
"audio-button-response","4","19316","0.0-4.0","1841","2","2","""event"",""trial"",""time""
""fullscreenenter"",""1"",""3040""
","
","
","""event"",""trial"",""time""
""fullscreenenter"",""1"",""3040""
","
","","","","","","2379","audio/shark.wav","4","","","","","","","","","","","","","","","",""
"audio-button-response","5","21672","0.0-5.0","1841","2","2","""event"",""trial"",""time""
""fullscreenenter"",""1"",""3040""
","
","
","""event"",""trial"",""time""
""fullscreenenter"",""1"",""3040""
","
","","","","","","1349","audio/turtle.wav","1","","","","","","","","","","","","","","","",""
"preload","6","33254","0.0-6.0","1841","2","2","""event"",""trial"",""time""
""fullscreenenter"",""1"",""3040""
","
","
","""event"",""trial"",""time""
""fullscreenenter"",""1"",""3040""
","
","true","false","[]","[]","[]","","","","","","","","","","","","","","","","","","",""
"html-keyboard-response","7","35578","0.0-7.0","1841","2","2","""event"",""trial"",""time""
""fullscreenenter"",""1"",""3040""
","
","
","""event"",""trial"",""time""
""fullscreenenter"",""1"",""3040""
","
","","","","","","2322.0999999046326","Welcome to the experiment. Press any key to begin and to advance the instructions."," ","","","","","","","","","","","","","","","",""
"learning-instructions","8","44281","0.0-8.0-0.0-0.0","1841","2","2","""event"",""trial"",""time""
""fullscreenenter"",""1"",""3040""
","
","
","""event"",""trial"",""time""
""fullscreenenter"",""1"",""3040""
","
","","","","","","956","<p> Welcome! Today you are going to play 6 different rounds of a decision-making game. </p><p> Use the mouse to click next to continue. </p>","","0","instructions","","","","","","","","","","","","","",""
"learning-instructions","9","47816","0.0-8.0-0.0-0.1","1841","2","2","""event"",""trial"",""time""
""fullscreenenter"",""1"",""3040""
","
","
","""event"",""trial"",""time""
""fullscreenenter"",""1"",""3040""
","
","","","","","","533.6999998092651","<p> You will start with a practice round to learn the rules. </p>","","0","instructions","","","","","","","","","","","","","",""
"learning-instructions","10","56791","0.0-8.0-0.0-0.2","1841","2","2","""event"",""trial"",""time""
""fullscreenenter"",""1"",""3040""
","
","
","""event"",""trial"",""time""
""fullscreenenter"",""1"",""3040""
","
","","","","","","1237.5999999046326","<p> Your goal in this round is to deliver sports equipment to three different parks. </p><p> You will need to deliver many types of equipment. </p></div>","","0","instructions","","","","","","","","","","","","","",""
"learning-instructions","11","70566","0.0-8.0-0.0-0.3","1841","2","2","""event"",""trial"",""time""
""fullscreenenter"",""1"",""3040""
","
","
","""event"",""trial"",""time""
""fullscreenenter"",""1"",""3040""
","
","","","","","","5295.400000095367","<p> On each turn, you will see one piece of sports equipment and three different parks.  </p><p> You need to select which park to deliver the equipment to.  </p>","","0","instructions","","","","","","","","","","","","","",""
"learning-instructions","12","86525","0.0-8.0-0.0-0.4","1841","2","2","""event"",""trial"",""time""
""fullscreenenter"",""1"",""3040""
","
","
","""event"",""trial"",""time""
""fullscreenenter"",""1"",""3040""
","
","","","","","","2677.9000000953674","<p> You can select the park on the left by pressing the '1' key on your keyboard. <br>You can select the park in the middle by pressing the '2' key on your keyboard. <br>You can select the park on the right by pressing the '3' key on your keyboard.  </p><br><div class=""choice-instructions-grid""> <div class=""choice-option""><img src=""images/park1.png"" class=""choice-option-img"" stage=""instructions"" position=""0"" ><div class=""choice-option-text""> Press ""1."" </div></div><div class=""choice-option""><img src=""images/park2.png"" class=""choice-option-img"" stage=""instructions"" position=""1"" ><div class=""choice-option-text""> Press ""2."" </div></div><div class=""choice-option""><img src=""images/park3.png"" class=""choice-option-img"" stage=""instructions"" position=""2"" ><div class=""choice-option-text""> Press ""3."" </div></div></div>","","0","instructions","","","","","","","","","","","","","",""
"learning-instructions","13","92573","0.0-8.0-0.0-0.5","1841","2","2","""event"",""trial"",""time""
""fullscreenenter"",""1"",""3040""
","
","
","""event"",""trial"",""time""
""fullscreenenter"",""1"",""3040""
","
","","","","","","663.0999999046326","<p> If the kids in the park you chose like the equipment, they will be very happy! </p><div style='float: center;'><img src='images/check.png' width = '200' height = '200'></img>","","0","instructions","","","","","","","","","","","","","",""
"learning-instructions","14","98870","0.0-8.0-0.0-0.6","1841","2","2","""event"",""trial"",""time""
""fullscreenenter"",""1"",""3040""
","
","
","""event"",""trial"",""time""
""fullscreenenter"",""1"",""3040""
","
","","","","","","709.1999998092651","<p> But, if the kids in the park you chose do not like the equipment, they will be sad. </p><div style='float: center;'><img src='images/x.png' width = '200' height = '200'></img>","","0","instructions","","","","","","","","","","","","","",""
"learning-instructions","15","105921","0.0-8.0-0.0-0.7","1841","2","2","""event"",""trial"",""time""
""fullscreenenter"",""1"",""3040""
","
","
","""event"",""trial"",""time""
""fullscreenenter"",""1"",""3040""
","
","","","","","","625.4000000953674","<p> Importantly, the kids in each park like some pieces of sports equipment more than others. </p>","","0","instructions","","","","","","","","","","","","","",""
"learning-instructions","16","112769","0.0-8.0-0.0-0.8","1841","2","2","""event"",""trial"",""time""
""fullscreenenter"",""1"",""3040""
","
","
","""event"",""trial"",""time""
""fullscreenenter"",""1"",""3040""
","
","","","","","","794.9000000953674","<p> If you choose the best park for each piece of equipment, the kids there will usually be happy. </p>","","0","instructions","","","","","","","","","","","","","",""
"learning-instructions","17","120059","0.0-8.0-0.0-0.9","1841","2","2","""event"",""trial"",""time""
""fullscreenenter"",""1"",""3040""
","
","
","""event"",""trial"",""time""
""fullscreenenter"",""1"",""3040""
","
","","","","","","651.9000000953674","<p> However, even if you choose the best park for the equipment, the kids may sometimes be sad. </p>","","0","instructions","","","","","","","","","","","","","",""
"learning-instructions","18","127966","0.0-8.0-0.0-0.10","1841","2","2","""event"",""trial"",""time""
""fullscreenenter"",""1"",""3040""
","
","
","""event"",""trial"",""time""
""fullscreenenter"",""1"",""3040""
","
","","","","","","681","<p> Similarly, even if you choose the <i>wrong</i> park for the equipment, the kids may still be happy sometimes.","","0","instructions","","","","","","","","","","","","","",""
"learning-instructions","19","136120","0.0-8.0-0.0-0.11","1841","2","2","""event"",""trial"",""time""
""fullscreenenter"",""1"",""3040""
","
","
","""event"",""trial"",""time""
""fullscreenenter"",""1"",""3040""
","
","","","","","","3102.0999999046326","<p> For example, the best park for this soccer ball is this one.<div style='float: center;'><img src='images/i1.png' width = '500' height = '268'></img>","","0","instructions","","","","","","","","","","","","","",""
"learning-instructions","20","142728","0.0-8.0-0.0-0.12","1841","2","2","""event"",""trial"",""time""
""fullscreenenter"",""1"",""3040""
","
","
","""event"",""trial"",""time""
""fullscreenenter"",""1"",""3040""
","
","","","","","","1320.6999998092651","<p> Let's see what happens if you choose this park for the soccer ball five times.","","0","instructions","","","","","","","","","","","","","",""
"learning-instructions","21","145370","0.0-8.0-0.0-0.13","1841","2","2","""event"",""trial"",""time""
""fullscreenenter"",""1"",""3040""
","
","
","""event"",""trial"",""time""
""fullscreenenter"",""1"",""3040""
","
","","","","","","474.40000009536743","<p> The kids are happy.<div style='float: left;'><img src='images/i2.png' width = '640' height = '360'></img>","","0","instructions","","","","","","","","","","","","","",""
"learning-instructions","22","148382","0.0-8.0-0.0-0.14","1841","2","2","""event"",""trial"",""time""
""fullscreenenter"",""1"",""3040""
","
","
","""event"",""trial"",""time""
""fullscreenenter"",""1"",""3040""
","
","","","","","","847","<p> The kids are happy.<div style='float: left;'><img src='images/i3.png' width = '640' height = '360'></img>","","0","instructions","","","","","","","","","","","","","",""
"learning-instructions","23","151091","0.0-8.0-0.0-0.15","1841","2","2","""event"",""trial"",""time""
""fullscreenenter"",""1"",""3040""
","
","
","""event"",""trial"",""time""
""fullscreenenter"",""1"",""3040""
","
","","","","","","542.2000002861023","<p> The kids are happy.<div style='float: left;'><img src='images/i4.png' width = '640' height = '360'></img>","","0","instructions","","","","","","","","","","","","","",""
"learning-instructions","24","154017","0.0-8.0-0.0-0.16","1841","2","2","""event"",""trial"",""time""
""fullscreenenter"",""1"",""3040""
","
","
","""event"",""trial"",""time""
""fullscreenenter"",""1"",""3040""
","
","","","","","","722.1999998092651","<p> The kids are sad.<div style='float: left;'><img src='images/i5.png' width = '640' height = '360'></img>","","0","instructions","","","","","","","","","","","","","",""
"learning-instructions","25","157065","0.0-8.0-0.0-0.17","1841","2","2","""event"",""trial"",""time""
""fullscreenenter"",""1"",""3040""
","
","
","""event"",""trial"",""time""
""fullscreenenter"",""1"",""3040""
","
","","","","","","879","<p> The kids are happy.<div style='float: left;'><img src='images/i6.png' width = '640' height = '360'></img>","","0","instructions","","","","","","","","","","","","","",""
"learning-instructions","26","164940","0.0-8.0-0.0-0.18","1841","2","2","""event"",""trial"",""time""
""fullscreenenter"",""1"",""3040""
","
","
","""event"",""trial"",""time""
""fullscreenenter"",""1"",""3040""
","
","","","","","","605.8000001907349","<p> As you can see, selecting that park for the soccer ball made the kids happy most of the time, but not all the time.","","0","instructions","","","","","","","","","","","","","",""
"learning-instructions","27","171815","0.0-8.0-0.0-0.19","1841","2","2","""event"",""trial"",""time""
""fullscreenenter"",""1"",""3040""
","
","
","""event"",""trial"",""time""
""fullscreenenter"",""1"",""3040""
","
","","","","","","878","<p> Now let's see what happens if you choose a DIFFERENT park for the soccer ball 5 times.","","0","instructions","","","","","","","","","","","","","",""
"learning-instructions","28","174442","0.0-8.0-0.0-0.20","1841","2","2","""event"",""trial"",""time""
""fullscreenenter"",""1"",""3040""
","
","
","""event"",""trial"",""time""
""fullscreenenter"",""1"",""3040""
","
","","","","","","422.09999990463257","<p> The kids are sad.<div style='float: left;'><img src='images/i7.png' width = '640' height = '360'></img>","","0","instructions","","","","","","","","","","","","","",""
"learning-instructions","29","177057","0.0-8.0-0.0-0.21","1841","2","2","""event"",""trial"",""time""
""fullscreenenter"",""1"",""3040""
","
","
","""event"",""trial"",""time""
""fullscreenenter"",""1"",""3040""
","
","","","","","","408","<p> The kids are sad.<div style='float: left;'><img src='images/i8.png' width = '640' height = '360'></img>","","0","instructions","","","","","","","","","","","","","",""
"learning-instructions","30","179657","0.0-8.0-0.0-0.22","1841","2","2","""event"",""trial"",""time""
""fullscreenenter"",""1"",""3040""
","
","
","""event"",""trial"",""time""
""fullscreenenter"",""1"",""3040""
","
","","","","","","431.30000019073486","<p> The kids are happy.<div style='float: left;'><img src='images/i9.png' width = '640' height = '360'></img>","","0","instructions","","","","","","","","","","","","","",""
"learning-instructions","31","182238","0.0-8.0-0.0-0.23","1841","2","2","""event"",""trial"",""time""
""fullscreenenter"",""1"",""3040""
","
","
","""event"",""trial"",""time""
""fullscreenenter"",""1"",""3040""
","
","","","","","","378.69999980926514","<p> The kids are sad.<div style='float: left;'><img src='images/i10.png' width = '640' height = '360'></img>","","0","instructions","","","","","","","","","","","","","",""
"learning-instructions","32","185185","0.0-8.0-0.0-0.24","1841","2","2","""event"",""trial"",""time""
""fullscreenenter"",""1"",""3040""
","
","
","""event"",""trial"",""time""
""fullscreenenter"",""1"",""3040""
","
","","","","","","744","<p> The kids are sad.<div style='float: left;'><img src='images/i11.png' width = '640' height = '360'></img>","","0","instructions","","","","","","","","","","","","","",""
"learning-instructions","33","193925","0.0-8.0-0.0-0.25","1841","2","2","""event"",""trial"",""time""
""fullscreenenter"",""1"",""3040""
","
","
","""event"",""trial"",""time""
""fullscreenenter"",""1"",""3040""
","
","","","","","","620.9000000953674","<p> As you can see, selecting the wrong park for the soccer ball made the kids sad most of the time, but not all the time.","","0","instructions","","","","","","","","","","","","","",""
"learning-instructions","34","204211","0.0-8.0-0.0-0.26","1841","2","2","""event"",""trial"",""time""
""fullscreenenter"",""1"",""3040""
","
","
","""event"",""trial"",""time""
""fullscreenenter"",""1"",""3040""
","
","","","","","","1173.3999996185303","<p> The different pieces of equipment belong in different parks. You need to try to learn which is the best park for each piece of equipment.","","0","instructions","","","","","","","","","","","","","",""
"learning-instructions","35","222134","0.0-8.0-0.0-0.27","1841","2","2","""event"",""trial"",""time""
""fullscreenenter"",""1"",""3040""
","
","
","""event"",""trial"",""time""
""fullscreenenter"",""1"",""3040""
","
","","","","","","1533.5","<p> Try to choose the best park for each piece of equipment, because you will <b> WIN </b> 1 point for each time you make the kids happy and <b>LOSE</b> 1 point for each time you make them sad. </p><p> Remember, if you make the best choice, you will win 1 point most of the time, but not all the time. </p>","","0","instructions","","","","","","","","","","","","","",""
"learning-instructions","36","228109","0.0-8.0-0.0-0.28","1841","2","2","""event"",""trial"",""time""
""fullscreenenter"",""1"",""3040""
","
","
","""event"",""trial"",""time""
""fullscreenenter"",""1"",""3040""
","
","","","","","","495.90000009536743","<p> This is just a practice round, but in the real game, your bonus payment will depend on your total number of points.","","0","instructions","","","","","","","","","","","","","",""
"learning-instructions","37","239143","0.0-8.0-0.0-0.29","1841","2","2","""event"",""trial"",""time""
""fullscreenenter"",""1"",""3040""
","
","
","""event"",""trial"",""time""
""fullscreenenter"",""1"",""3040""
","
","","","","","","714.1999998092651","<p> The position where each park appears will change throughout the game. </p><p> The position where the park appears <i> does not </i> influence how likely the kids are to be happy or sad. </p>","","0","instructions","","","","","","","","","","","","","",""
"learning-instructions","38","250990","0.0-8.0-0.0-0.30","1841","2","2","""event"",""trial"",""time""
""fullscreenenter"",""1"",""3040""
","
","
","""event"",""trial"",""time""
""fullscreenenter"",""1"",""3040""
","
","","","","","","1308.2999997138977","<p> You will have 4 seconds to make each choice. Try to respond before time runs out! </p><p> You will lose 1 point each time you do not make a response. </p>","","0","instructions","","","","","","","","","","","","","",""
"learning-instructions","39","259117","0.0-8.0-0.0-0.31","1841","2","2","""event"",""trial"",""time""
""fullscreenenter"",""1"",""3040""
","
","
","""event"",""trial"",""time""
""fullscreenenter"",""1"",""3040""
","
","","","","","","1339","<p> Remember, you should use the 1, 2, and 3 keys to select the park for each piece of equipment. </p><br><div class=""choice-instructions-grid""> <div class=""choice-option""><img src=""images/park1.png"" class=""choice-option-img"" stage=""instructions"" position=""0"" ><div class=""choice-option-text""> Press ""1."" </div></div><div class=""choice-option""><img src=""images/park2.png"" class=""choice-option-img"" stage=""instructions"" position=""1"" ><div class=""choice-option-text""> Press ""2."" </div></div><div class=""choice-option""><img src=""images/park3.png"" class=""choice-option-img"" stage=""instructions"" position=""2"" ><div class=""choice-option-text""> Press ""3."" </div></div></div>","","0","instructions","","","","","","","","","","","","","",""
"html-button-response","40","260658","0.0-8.0-1.0","1841","2","2","""event"",""trial"",""time""
""fullscreenenter"",""1"",""3040""
","
","
","""event"",""trial"",""time""
""fullscreenenter"",""1"",""3040""
","
","","","","","","1437","<p> Ready to practice? </p>","0","","","","","","","","","","","","","","","",""
"html-keyboard-response","41","261264","0.0-8.0-2.0-0.0","1841","2","2","""event"",""trial"",""time""
""fullscreenenter"",""1"",""3040""
","
","
","""event"",""trial"",""time""
""fullscreenenter"",""1"",""3040""
","
","","","","","","null","<div style=""font-size:60px;"">+</div>","null","","fixation","","","","","","","","","","","","","",""
"learning-trial","42","265270","0.0-8.0-2.0-1.0","1841","2","2","""event"",""trial"",""time""
""fullscreenenter"",""1"",""3040""
","
","
","""event"",""trial"",""time""
""fullscreenenter"",""1"",""3040""
","
","","","","","","1273","images/ball4.png","","","practice","images/park3.png","images/park1.png","images/park2.png","[2,0,1]","2","0","2","images/park1.png","-1","practice","","","",""
"html-keyboard-response","43","265776","0.0-8.0-2.0-0.1","1841","2","2","""event"",""trial"",""time""
""fullscreenenter"",""1"",""3040""
","
","
","""event"",""trial"",""time""
""fullscreenenter"",""1"",""3040""
","
","","","","","","null","<div style=""font-size:60px;"">+</div>","null","","fixation","","","","","","","","","","","","","",""
"learning-trial","44","269782","0.0-8.0-2.0-1.1","1841","2","2","""event"",""trial"",""time""
""fullscreenenter"",""1"",""3040""
","
","
","""event"",""trial"",""time""
""fullscreenenter"",""1"",""3040""
","
","","","","","","1019.2000002861023","images/racket1.png","","","practice","images/park2.png","images/park1.png","images/park3.png","[1,0,2]","2","2","1","images/park2.png","-1","practice","","","",""
"html-keyboard-response","45","270284","0.0-8.0-2.0-0.2","1841","2","2","""event"",""trial"",""time""
""fullscreenenter"",""1"",""3040""
","
","
","""event"",""trial"",""time""
""fullscreenenter"",""1"",""3040""
","
","","","","","","null","<div style=""font-size:60px;"">+</div>","null","","fixation","","","","","","","","","","","","","",""
"learning-trial","46","274293","0.0-8.0-2.0-1.2","1841","2","2","""event"",""trial"",""time""
""fullscreenenter"",""1"",""3040""
","
","
","""event"",""trial"",""time""
""fullscreenenter"",""1"",""3040""
","
","","","","","","1245.9000000953674","images/racket3.png","","","practice","images/park3.png","images/park1.png","images/park2.png","[2,0,1]","1","2","1","images/park3.png","-1","practice","","","",""
"html-keyboard-response","47","274797","0.0-8.0-2.0-0.3","1841","2","2","""event"",""trial"",""time""
""fullscreenenter"",""1"",""3040""
","
","
","""event"",""trial"",""time""
""fullscreenenter"",""1"",""3040""
","
","","","","","","null","<div style=""font-size:60px;"">+</div>","null","","fixation","","","","","","","","","","","","","",""
"learning-trial","48","278805","0.0-8.0-2.0-1.3","1841","2","2","""event"",""trial"",""time""
""fullscreenenter"",""1"",""3040""
","
","
","""event"",""trial"",""time""
""fullscreenenter"",""1"",""3040""
","
","","","","","","1421.3000001907349","images/racket4.png","","","practice","images/park3.png","images/park1.png","images/park2.png","[2,0,1]","0","1","2","images/park1.png","1","practice","","","",""
"html-keyboard-response","49","279310","0.0-8.0-2.0-0.4","1841","2","2","""event"",""trial"",""time""
""fullscreenenter"",""1"",""3040""
","
","
","""event"",""trial"",""time""
""fullscreenenter"",""1"",""3040""
","
","","","","","","null","<div style=""font-size:60px;"">+</div>","null","","fixation","","","","","","","","","","","","","",""
"learning-trial","50","283319","0.0-8.0-2.0-1.4","1841","2","2","""event"",""trial"",""time""
""fullscreenenter"",""1"",""3040""
","
","
","""event"",""trial"",""time""
""fullscreenenter"",""1"",""3040""
","
","","","","","","1788","images/racket1.png","","","practice","images/park2.png","images/park3.png","images/park1.png","[1,2,0]","2","1","3","images/park1.png","-1","practice","","","",""
"html-keyboard-response","51","283824","0.0-8.0-2.0-0.5","1841","2","2","""event"",""trial"",""time""
""fullscreenenter"",""1"",""3040""
","
","
","""event"",""trial"",""time""
""fullscreenenter"",""1"",""3040""
","
","","","","","","null","<div style=""font-size:60px;"">+</div>","null","","fixation","","","","","","","","","","","","","",""
"learning-trial","52","287830","0.0-8.0-2.0-1.5","1841","2","2","""event"",""trial"",""time""
""fullscreenenter"",""1"",""3040""
","
","
","""event"",""trial"",""time""
""fullscreenenter"",""1"",""3040""
","
","","","","","","2321.0999999046326","images/racket2.png","","","practice","images/park1.png","images/park2.png","images/park3.png","[0,1,2]","0","0","1","images/park1.png","1","practice","","","",""
"html-keyboard-response","53","288331","0.0-8.0-2.0-0.6","1841","2","2","""event"",""trial"",""time""
""fullscreenenter"",""1"",""3040""
","
","
","""event"",""trial"",""time""
""fullscreenenter"",""1"",""3040""
","
","","","","","","null","<div style=""font-size:60px;"">+</div>","null","","fixation","","","","","","","","","","","","","",""
"learning-trial","54","292337","0.0-8.0-2.0-1.6","1841","2","2","""event"",""trial"",""time""
""fullscreenenter"",""1"",""3040""
","
","
","""event"",""trial"",""time""
""fullscreenenter"",""1"",""3040""
","
","","","","","","1508.8000001907349","images/ball2.png","","","practice","images/park2.png","images/park1.png","images/park3.png","[1,0,2]","1","0","1","images/park2.png","1","practice","","","",""
"html-keyboard-response","55","292843","0.0-8.0-2.0-0.7","1841","2","2","""event"",""trial"",""time""
""fullscreenenter"",""1"",""3040""
","
","
","""event"",""trial"",""time""
""fullscreenenter"",""1"",""3040""
","
","","","","","","null","<div style=""font-size:60px;"">+</div>","null","","fixation","","","","","","","","","","","","","",""
"learning-trial","56","296849","0.0-8.0-2.0-1.7","1841","2","2","""event"",""trial"",""time""
""fullscreenenter"",""1"",""3040""
","
","
","""event"",""trial"",""time""
""fullscreenenter"",""1"",""3040""
","
","","","","","","1259.6000003814697","images/ball4.png","","","practice","images/park3.png","images/park2.png","images/park1.png","[2,1,0]","2","0","2","images/park2.png","-1","practice","","","",""
"html-keyboard-response","57","297355","0.0-8.0-2.0-0.8","1841","2","2","""event"",""trial"",""time""
""fullscreenenter"",""1"",""3040""
","
","
","""event"",""trial"",""time""
""fullscreenenter"",""1"",""3040""
","
","","","","","","null","<div style=""font-size:60px;"">+</div>","null","","fixation","","","","","","","","","","","","","",""
"learning-trial","58","301361","0.0-8.0-2.0-1.8","1841","2","2","""event"",""trial"",""time""
""fullscreenenter"",""1"",""3040""
","
","
","""event"",""trial"",""time""
""fullscreenenter"",""1"",""3040""
","
","","","","","","2070.199999809265","images/racket3.png","","","practice","images/park3.png","images/park2.png","images/park1.png","[2,1,0]","1","1","3","images/park1.png","-1","practice","","","",""
"html-keyboard-response","59","301867","0.0-8.0-2.0-0.9","1841","2","2","""event"",""trial"",""time""
""fullscreenenter"",""1"",""3040""
","
","
","""event"",""trial"",""time""
""fullscreenenter"",""1"",""3040""
","
","","","","","","null","<div style=""font-size:60px;"">+</div>","null","","fixation","","","","","","","","","","","","","",""
"learning-trial","60","305874","0.0-8.0-2.0-1.9","1841","2","2","""event"",""trial"",""time""
""fullscreenenter"",""1"",""3040""
","
","
","""event"",""trial"",""time""
""fullscreenenter"",""1"",""3040""
","
","","","","","","2922.199999809265","images/racket2.png","","","practice","images/park2.png","images/park1.png","images/park3.png","[1,0,2]","0","1","3","images/park3.png","-1","practice","","","",""
"html-keyboard-response","61","306379","0.0-8.0-2.0-0.10","1841","2","2","""event"",""trial"",""time""
""fullscreenenter"",""1"",""3040""
","
","
","""event"",""trial"",""time""
""fullscreenenter"",""1"",""3040""
","
","","","","","","null","<div style=""font-size:60px;"">+</div>","null","","fixation","","","","","","","","","","","","","",""
"learning-trial","62","310385","0.0-8.0-2.0-1.10","1841","2","2","""event"",""trial"",""time""
""fullscreenenter"",""1"",""3040""
","
","
","""event"",""trial"",""time""
""fullscreenenter"",""1"",""3040""
","
","","","","","","2930.199999809265","images/racket4.png","","","practice","images/park2.png","images/park3.png","images/park1.png","[1,2,0]","0","2","3","images/park1.png","-1","practice","","","",""
"html-keyboard-response","63","310886","0.0-8.0-2.0-0.11","1841","2","2","""event"",""trial"",""time""
""fullscreenenter"",""1"",""3040""
","
","
","""event"",""trial"",""time""
""fullscreenenter"",""1"",""3040""
","
","","","","","","null","<div style=""font-size:60px;"">+</div>","null","","fixation","","","","","","","","","","","","","",""
"learning-trial","64","314896","0.0-8.0-2.0-1.11","1841","2","2","""event"",""trial"",""time""
""fullscreenenter"",""1"",""3040""
","
","
","""event"",""trial"",""time""
""fullscreenenter"",""1"",""3040""
","
","","","","","","2109.0999999046326","images/ball2.png","","","practice","images/park3.png","images/park1.png","images/park2.png","[2,0,1]","1","2","3","images/park2.png","1","practice","","","",""
"html-button-response","65","331484","0.0-8.0-3.0","1841","2","2","""event"",""trial"",""time""
""fullscreenenter"",""1"",""3040""
","
","
","""event"",""trial"",""time""
""fullscreenenter"",""1"",""3040""
","
","","","","","","16585.700000286102","<p> You earned -4 points in the practice round! </p>","0","","break","","","","","","","","","","","","","",""
"learning-instructions","66","340740","0.0-8.0-4.0-0.0","1841","2","2","""event"",""trial"",""time""
""fullscreenenter"",""1"",""3040""
","
","
","""event"",""trial"",""time""
""fullscreenenter"",""1"",""3040""
","
","","","","","","1512.3000001907349","<p> It's almost time to start the real game. </p><p> Before you start, we're going to ask you a few questions about how the game works. </p>","","0","instructions","","","","","","","","","","","","","",""
"preload","67","343364","0.0-8.0-5.0","1841","2","2","""event"",""trial"",""time""
""fullscreenenter"",""1"",""3040""
","
","
","""event"",""trial"",""time""
""fullscreenenter"",""1"",""3040""
","
","true","false","[]","[]","[]","","","","","","","","","","","","","","","","","","",""
"comp-q","68","350002","0.0-8.0-6.0-0.0","1841","2","2","""event"",""trial"",""time""
""fullscreenenter"",""1"",""3040""
","
","
","""event"",""trial"",""time""
""fullscreenenter"",""1"",""3040""
","
","","","","","","1184.5999999046326","<p> <b> True or False? </b> </p><p> If you choose the best option, you will always earn 1 point. </p>","","1","comp_question","","","","","","","","","","","true","","",""
"comp-q","69","356987","0.0-8.0-6.0-1.0","1841","2","2","""event"",""trial"",""time""
""fullscreenenter"",""1"",""3040""
","
","
","""event"",""trial"",""time""
""fullscreenenter"",""1"",""3040""
","
","","","","","","1327.9000000953674","<p><b> That's right! </b> Sometimes you will lose 1 point, even if you choose the best option. </p>","","0","comp_answer","","","","","","","","","","","","","",""
"comp-q","70","362063","0.0-8.0-6.0-0.1","1841","2","2","""event"",""trial"",""time""
""fullscreenenter"",""1"",""3040""
","
","
","""event"",""trial"",""time""
""fullscreenenter"",""1"",""3040""
","
","","","","","","445.59999990463257","<p> <b> True or False? </b> </p><p> You will have as much time as you want to make each choice. </p>","","1","comp_question","","","","","","","","","","","true","","",""
"comp-q","71","370964","0.0-8.0-6.0-1.1","1841","2","2","""event"",""trial"",""time""
""fullscreenenter"",""1"",""3040""
","
","
","""event"",""trial"",""time""
""fullscreenenter"",""1"",""3040""
","
","","","","","","4082.699999809265","<p> <b> That's right! </b> You will only have 4 seconds to make each choice. </p>","","0","comp_answer","","","","","","","","","","","","","",""
"comp-q","72","377769","0.0-8.0-6.0-0.2","1841","2","2","""event"",""trial"",""time""
""fullscreenenter"",""1"",""3040""
","
","
","""event"",""trial"",""time""
""fullscreenenter"",""1"",""3040""
","
","","","","","","653.8999996185303","<p> <b> True or False? </b> </p><p> You should use the '1', '2', and '3' keys to make your choices. </p>","","0","comp_question","","","","","","","","","","","true","","",""
"comp-q","73","384507","0.0-8.0-6.0-1.2","1841","2","2","""event"",""trial"",""time""
""fullscreenenter"",""1"",""3040""
","
","
","""event"",""trial"",""time""
""fullscreenenter"",""1"",""3040""
","
","","","","","","1893.3999996185303","<p> <b> That's right! </b> You should use the '1', '2', and '3' keys to make each choice. </p>","","0","comp_answer","","","","","","","","","","","","","",""
"learning-instructions","74","394018","0.0-8.0-7.0-0.0","1841","2","2","""event"",""trial"",""time""
""fullscreenenter"",""1"",""3040""
","
","
","""event"",""trial"",""time""
""fullscreenenter"",""1"",""3040""
","
","","","","","","1025.7000002861023","<p> It's now time to start the real game. </p>Do your best, because the points you earn in the next rounds will influence your bonus payment. </p>","","0","instructions","","","","","","","","","","","","","",""
"preload","75","409918","0.0-9.0-0.0","1841","2","2","""event"",""trial"",""time""
""fullscreenenter"",""1"",""3040""
","
","
","""event"",""trial"",""time""
""fullscreenenter"",""1"",""3040""
","
","true","false","[]","[]","[]","","","","","","","","","","","","","","","","","","",""
"learning-instructions","76","417794","0.0-9.0-1.0-0.0","1841","2","2","""event"",""trial"",""time""
""fullscreenenter"",""1"",""3040""
","
","
","""event"",""trial"",""time""
""fullscreenenter"",""1"",""3040""
","
","","","","","","1044.4000000953674","<p> Your goal in this round is to grow a beautiful garden by watering plants. </p><p> You will need to water many different plants. </p></div>","","0","instructions","","","","","","","","","","","","","",""
"learning-instructions","77","432335","0.0-9.0-1.0-0.1","1841","2","2","""event"",""trial"",""time""
""fullscreenenter"",""1"",""3040""
","
","
","""event"",""trial"",""time""
""fullscreenenter"",""1"",""3040""
","
","","","","","","1265.4000000953674","<p> On each turn, you will see a picture of one of your plants and three different watering cans.  </p><p> Each watering can has a different mixture of water and fertilizer.  </p><p> You need to select which watering can to use for each plant. </p>","","0","instructions","","","","","","","","","","","","","",""
"learning-instructions","78","440963","0.0-9.0-1.0-0.2","1841","2","2","""event"",""trial"",""time""
""fullscreenenter"",""1"",""3040""
","
","
","""event"",""trial"",""time""
""fullscreenenter"",""1"",""3040""
","
","","","","","","890.7000002861023","<p> You can select the watering can on the left by pressing 1, the watering can in the middle by pressing 2, and the watering can on the right by pressing 3. </p><br><div class=""choice-instructions-grid""> <div class=""choice-option""><img src=""images/plants_choice1.png"" class=""choice-option-img"" stage=""instructions"" position=""0"" ><div class=""choice-option-text""> Press ""1."" </div></div><div class=""choice-option""><img src=""images/plants_choice2.png"" class=""choice-option-img"" stage=""instructions"" position=""1"" ><div class=""choice-option-text""> Press ""2."" </div></div><div class=""choice-option""><img src=""images/plants_choice3.png"" class=""choice-option-img"" stage=""instructions"" position=""2"" ><div class=""choice-option-text""> Press ""3."" </div></div></div>","","0","instructions","","","","","","","","","","","","","",""
"learning-instructions","79","446659","0.0-9.0-1.0-0.3","1841","2","2","""event"",""trial"",""time""
""fullscreenenter"",""1"",""3040""
","
","
","""event"",""trial"",""time""
""fullscreenenter"",""1"",""3040""
","
","","","","","","1525.5999999046326","<p> If the watering can you chose works for the plant, it will grow! </p><div style='float: center;'><img src='images/check.png' width = '200' height = '200'></img>","","0","instructions","","","","","","","","","","","","","",""
"learning-instructions","80","452115","0.0-9.0-1.0-0.4","1841","2","2","""event"",""trial"",""time""
""fullscreenenter"",""1"",""3040""
","
","
","""event"",""trial"",""time""
""fullscreenenter"",""1"",""3040""
","
","","","","","","657.0999999046326","<p> But, if the watering can you chose does not work, your plant will droop. </p><div style='float: center;'><img src='images/x.png' width = '200' height = '200'></img>","","0","instructions","","","","","","","","","","","","","",""
"learning-instructions","81","468056","0.0-9.0-1.0-0.5","1841","2","2","""event"",""trial"",""time""
""fullscreenenter"",""1"",""3040""
","
","
","""event"",""trial"",""time""
""fullscreenenter"",""1"",""3040""
","
","","","","","","5861.800000190735","<p> Importantly, each plant has one fertilizer mixture that works best for it. </p><p> If you choose the watering can with the right fertilizer, the plant will be more likely to grow. </p>","","0","instructions","","","","","","","","","","","","","",""
"learning-instructions","82","479051","0.0-9.0-1.0-0.6","1841","2","2","""event"",""trial"",""time""
""fullscreenenter"",""1"",""3040""
","
","
","""event"",""trial"",""time""
""fullscreenenter"",""1"",""3040""
","
","","","","","","664.8999996185303","<p> However, even if you choose the best watering can for the plant, the plant may still droop. </p><p> Similarly, even if you choose the <i>wrong</i> watering can, the plant may still grow.","","0","instructions","","","","","","","","","","","","","",""
"learning-instructions","83","491920","0.0-9.0-1.0-0.7","1841","2","2","""event"",""trial"",""time""
""fullscreenenter"",""1"",""3040""
","
","
","""event"",""trial"",""time""
""fullscreenenter"",""1"",""3040""
","
","","","","","","1011.6999998092651","<p> Try to choose the best watering can for each plant, because you will <b> WIN </b> 1 point each time a plant grows and <b>LOSE</b>  1 point each time a plant droops. </p><p> Your bonus payment will depend on your total number of points.","","0","instructions","","","","","","","","","","","","","",""
"learning-instructions","84","500461","0.0-9.0-1.0-0.8","1841","2","2","""event"",""trial"",""time""
""fullscreenenter"",""1"",""3040""
","
","
","""event"",""trial"",""time""
""fullscreenenter"",""1"",""3040""
","
","","","","","","540","<p> The position of each watering can will change throughout the round. </p><p> The watering can's position <i> does not </i> influence how likely each plant is to droop or grow. </p>","","0","instructions","","","","","","","","","","","","","",""
"learning-instructions","85","515390","0.0-9.0-1.0-0.9","1841","2","2","""event"",""trial"",""time""
""fullscreenenter"",""1"",""3040""
","
","
","""event"",""trial"",""time""
""fullscreenenter"",""1"",""3040""
","
","","","","","","5635.200000286102","<p> You will have 4 seconds to make each choice. Try to respond before time runs out! </p><p> You will lose 1 point each time you do not make a response. </p>","","0","instructions","","","","","","","","","","","","","",""
"html-keyboard-response","86","515993","0.0-9.0-2.0-0.0","1841","2","2","""event"",""trial"",""time""
""fullscreenenter"",""1"",""3040""
","
","
","""event"",""trial"",""time""
""fullscreenenter"",""1"",""3040""
","
","","","","","","null","<div style=""font-size:60px;"">+</div>","null","","fixation","","","","","","","","","","","","","",""
"learning-trial","87","519999","0.0-9.0-2.0-1.0","1841","2","2","""event"",""trial"",""time""
""fullscreenenter"",""1"",""3040""
","
","
","""event"",""trial"",""time""
""fullscreenenter"",""1"",""3040""
","
","","","","","","1119.5","images/cactus3.png","","","learning","images/plants_choice3.png","images/plants_choice2.png","images/plants_choice1.png","[2,1,0]","1","1","1","images/plants_choice3.png","-1","plants","","cactus","2","0"
"html-keyboard-response","88","520501","0.0-9.0-2.0-0.1","1841","2","2","""event"",""trial"",""time""
""fullscreenenter"",""1"",""3040""
","
","
","""event"",""trial"",""time""
""fullscreenenter"",""1"",""3040""
","
","","","","","","null","<div style=""font-size:60px;"">+</div>","null","","fixation","","","","","","","","","","","","","",""
"learning-trial","89","524508","0.0-9.0-2.0-1.1","1841","2","2","""event"",""trial"",""time""
""fullscreenenter"",""1"",""3040""
","
","
","""event"",""trial"",""time""
""fullscreenenter"",""1"",""3040""
","
","","","","","","1145.0999999046326","images/flower3.png","","","learning","images/plants_choice1.png","images/plants_choice3.png","images/plants_choice2.png","[0,2,1]","2","1","1","images/plants_choice1.png","-1","plants","","flower","2","0"
"html-keyboard-response","90","525014","0.0-9.0-2.0-0.2","1841","2","2","""event"",""trial"",""time""
""fullscreenenter"",""1"",""3040""
","
","
","""event"",""trial"",""time""
""fullscreenenter"",""1"",""3040""
","
","","","","","","null","<div style=""font-size:60px;"">+</div>","null","","fixation","","","","","","","","","","","","","",""
"learning-trial","91","529021","0.0-9.0-2.0-1.2","1841","2","2","""event"",""trial"",""time""
""fullscreenenter"",""1"",""3040""
","
","
","""event"",""trial"",""time""
""fullscreenenter"",""1"",""3040""
","
","","","","","","1487.5999999046326","images/cactus2.png","","","learning","images/plants_choice1.png","images/plants_choice2.png","images/plants_choice3.png","[0,1,2]","2","2","2","images/plants_choice2.png","-1","plants","","cactus","2","0"
"html-keyboard-response","92","529524","0.0-9.0-2.0-0.3","1841","2","2","""event"",""trial"",""time""
""fullscreenenter"",""1"",""3040""
","
","
","""event"",""trial"",""time""
""fullscreenenter"",""1"",""3040""
","
","","","","","","null","<div style=""font-size:60px;"">+</div>","null","","fixation","","","","","","","","","","","","","",""
"learning-trial","93","533528","0.0-9.0-2.0-1.3","1841","2","2","""event"",""trial"",""time""
""fullscreenenter"",""1"",""3040""
","
","
","""event"",""trial"",""time""
""fullscreenenter"",""1"",""3040""
","
","","","","","","2059.9000000953674","images/tree3.png","","","learning","images/plants_choice2.png","images/plants_choice3.png","images/plants_choice1.png","[1,2,0]","1","0","1","images/plants_choice2.png","1","plants","","tree","2","0"
"html-keyboard-response","94","534031","0.0-9.0-2.0-0.4","1841","2","2","""event"",""trial"",""time""
""fullscreenenter"",""1"",""3040""
","
","
","""event"",""trial"",""time""
""fullscreenenter"",""1"",""3040""
","
","","","","","","null","<div style=""font-size:60px;"">+</div>","null","","fixation","","","","","","","","","","","","","",""
"learning-trial","95","538037","0.0-9.0-2.0-1.4","1841","2","2","""event"",""trial"",""time""
""fullscreenenter"",""1"",""3040""
","
","
","""event"",""trial"",""time""
""fullscreenenter"",""1"",""3040""
","
","","","","","","1211.9000000953674","images/flower2.png","","","learning","images/plants_choice1.png","images/plants_choice3.png","images/plants_choice2.png","[0,2,1]","1","2","2","images/plants_choice3.png","-1","plants","","flower","2","0"
"html-keyboard-response","96","538543","0.0-9.0-2.0-0.5","1841","2","2","""event"",""trial"",""time""
""fullscreenenter"",""1"",""3040""
","
","
","""event"",""trial"",""time""
""fullscreenenter"",""1"",""3040""
","
","","","","","","null","<div style=""font-size:60px;"">+</div>","null","","fixation","","","","","","","","","","","","","",""
"learning-trial","97","542550","0.0-9.0-2.0-1.5","1841","2","2","""event"",""trial"",""time""
""fullscreenenter"",""1"",""3040""
","
","
","""event"",""trial"",""time""
""fullscreenenter"",""1"",""3040""
","
","","","","","","1809.4000000953674","images/tree2.png","","","learning","images/plants_choice2.png","images/plants_choice3.png","images/plants_choice1.png","[1,2,0]","2","1","1","images/plants_choice2.png","-1","plants","","tree","2","0"
"html-keyboard-response","98","543054","0.0-9.0-2.0-0.6","1841","2","2","""event"",""trial"",""time""
""fullscreenenter"",""1"",""3040""
","
","
","""event"",""trial"",""time""
""fullscreenenter"",""1"",""3040""
","
","","","","","","null","<div style=""font-size:60px;"">+</div>","null","","fixation","","","","","","","","","","","","","",""
"learning-trial","99","547062","0.0-9.0-2.0-1.6","1841","2","2","""event"",""trial"",""time""
""fullscreenenter"",""1"",""3040""
","
","
","""event"",""trial"",""time""
""fullscreenenter"",""1"",""3040""
","
","","","","","","2932.2000002861023","images/cactus4.png","","","learning","images/plants_choice1.png","images/plants_choice3.png","images/plants_choice2.png","[0,2,1]","0","0","2","images/plants_choice3.png","-1","plants","","cactus","2","0"
"html-keyboard-response","100","547563","0.0-9.0-2.0-0.7","1841","2","2","""event"",""trial"",""time""
""fullscreenenter"",""1"",""3040""
","
","
","""event"",""trial"",""time""
""fullscreenenter"",""1"",""3040""
","
","","","","","","null","<div style=""font-size:60px;"">+</div>","null","","fixation","","","","","","","","","","","","","",""
"learning-trial","101","551568","0.0-9.0-2.0-1.7","1841","2","2","""event"",""trial"",""time""
""fullscreenenter"",""1"",""3040""
","
","
","""event"",""trial"",""time""
""fullscreenenter"",""1"",""3040""
","
","","","","","","1259.0999999046326","images/tree3.png","","","learning","images/plants_choice2.png","images/plants_choice1.png","images/plants_choice3.png","[1,0,2]","1","0","1","images/plants_choice2.png","1","plants","","tree","2","0"
"html-keyboard-response","102","552070","0.0-9.0-2.0-0.8","1841","2","2","""event"",""trial"",""time""
""fullscreenenter"",""1"",""3040""
","
","
","""event"",""trial"",""time""
""fullscreenenter"",""1"",""3040""
","
","","","","","","null","<div style=""font-size:60px;"">+</div>","null","","fixation","","","","","","","","","","","","","",""
"learning-trial","103","556075","0.0-9.0-2.0-1.8","1841","2","2","""event"",""trial"",""time""
""fullscreenenter"",""1"",""3040""
","
","
","""event"",""trial"",""time""
""fullscreenenter"",""1"",""3040""
","
","","","","","","1715.0999999046326","images/flower3.png","","","learning","images/plants_choice3.png","images/plants_choice2.png","images/plants_choice1.png","[2,1,0]","2","0","1","images/plants_choice3.png","1","plants","","flower","2","0"
"html-keyboard-response","104","556576","0.0-9.0-2.0-0.9","1841","2","2","""event"",""trial"",""time""
""fullscreenenter"",""1"",""3040""
","
","
","""event"",""trial"",""time""
""fullscreenenter"",""1"",""3040""
","
","","","","","","null","<div style=""font-size:60px;"">+</div>","null","","fixation","","","","","","","","","","","","","",""
"learning-trial","105","560582","0.0-9.0-2.0-1.9","1841","2","2","""event"",""trial"",""time""
""fullscreenenter"",""1"",""3040""
","
","
","""event"",""trial"",""time""
""fullscreenenter"",""1"",""3040""
","
","","","","","","1158.5999999046326","images/flower2.png","","","learning","images/plants_choice3.png","images/plants_choice1.png","images/plants_choice2.png","[2,0,1]","1","2","1","images/plants_choice3.png","-1","plants","","flower","2","0"
"html-keyboard-response","106","561083","0.0-9.0-2.0-0.10","1841","2","2","""event"",""trial"",""time""
""fullscreenenter"",""1"",""3040""
","
","
","""event"",""trial"",""time""
""fullscreenenter"",""1"",""3040""
","
","","","","","","null","<div style=""font-size:60px;"">+</div>","null","","fixation","","","","","","","","","","","","","",""
"learning-trial","107","565089","0.0-9.0-2.0-1.10","1841","2","2","""event"",""trial"",""time""
""fullscreenenter"",""1"",""3040""
","
","
","""event"",""trial"",""time""
""fullscreenenter"",""1"",""3040""
","
","","","","","","1606.1999998092651","images/cactus4.png","","","learning","images/plants_choice2.png","images/plants_choice1.png","images/plants_choice3.png","[1,0,2]","0","1","2","images/plants_choice1.png","1","plants","","cactus","2","0"
"html-keyboard-response","108","565590","0.0-9.0-2.0-0.11","1841","2","2","""event"",""trial"",""time""
""fullscreenenter"",""1"",""3040""
","
","
","""event"",""trial"",""time""
""fullscreenenter"",""1"",""3040""
","
","","","","","","null","<div style=""font-size:60px;"">+</div>","null","","fixation","","","","","","","","","","","","","",""
"learning-trial","109","569595","0.0-9.0-2.0-1.11","1841","2","2","""event"",""trial"",""time""
""fullscreenenter"",""1"",""3040""
","
","
","""event"",""trial"",""time""
""fullscreenenter"",""1"",""3040""
","
","","","","","","1930.5999999046326","images/tree1.png","","","learning","images/plants_choice1.png","images/plants_choice3.png","images/plants_choice2.png","[0,2,1]","0","0","3","images/plants_choice2.png","-1","plants","","tree","2","0"
"html-keyboard-response","110","570096","0.0-9.0-2.0-0.12","1841","2","2","""event"",""trial"",""time""
""fullscreenenter"",""1"",""3040""
","
","
","""event"",""trial"",""time""
""fullscreenenter"",""1"",""3040""
","
","","","","","","null","<div style=""font-size:60px;"">+</div>","null","","fixation","","","","","","","","","","","","","",""
"learning-trial","111","574102","0.0-9.0-2.0-1.12","1841","2","2","""event"",""trial"",""time""
""fullscreenenter"",""1"",""3040""
","
","
","""event"",""trial"",""time""
""fullscreenenter"",""1"",""3040""
","
","","","","","","2210.3999996185303","images/flower1.png","","","learning","images/plants_choice2.png","images/plants_choice1.png","images/plants_choice3.png","[1,0,2]","0","1","3","images/plants_choice3.png","-1","plants","","flower","2","0"
"html-keyboard-response","112","574603","0.0-9.0-2.0-0.13","1841","2","2","""event"",""trial"",""time""
""fullscreenenter"",""1"",""3040""
","
","
","""event"",""trial"",""time""
""fullscreenenter"",""1"",""3040""
","
","","","","","","null","<div style=""font-size:60px;"">+</div>","null","","fixation","","","","","","","","","","","","","",""
"learning-trial","113","578609","0.0-9.0-2.0-1.13","1841","2","2","""event"",""trial"",""time""
""fullscreenenter"",""1"",""3040""
","
","
","""event"",""trial"",""time""
""fullscreenenter"",""1"",""3040""
","
","","","","","","1826.4000000953674","images/tree2.png","","","learning","images/plants_choice1.png","images/plants_choice3.png","images/plants_choice2.png","[0,2,1]","2","1","2","images/plants_choice3.png","1","plants","","tree","2","0"
"html-keyboard-response","114","579110","0.0-9.0-2.0-0.14","1841","2","2","""event"",""trial"",""time""
""fullscreenenter"",""1"",""3040""
","
","
","""event"",""trial"",""time""
""fullscreenenter"",""1"",""3040""
","
","","","","","","null","<div style=""font-size:60px;"">+</div>","null","","fixation","","","","","","","","","","","","","",""
"learning-trial","115","583115","0.0-9.0-2.0-1.14","1841","2","2","""event"",""trial"",""time""
""fullscreenenter"",""1"",""3040""
","
","
","""event"",""trial"",""time""
""fullscreenenter"",""1"",""3040""
","
","","","","","","1827.6000003814697","images/cactus2.png","","","learning","images/plants_choice2.png","images/plants_choice3.png","images/plants_choice1.png","[1,2,0]","2","1","2","images/plants_choice3.png","1","plants","","cactus","2","0"
"html-keyboard-response","116","583616","0.0-9.0-2.0-0.15","1841","2","2","""event"",""trial"",""time""
""fullscreenenter"",""1"",""3040""
","
","
","""event"",""trial"",""time""
""fullscreenenter"",""1"",""3040""
","
","","","","","","null","<div style=""font-size:60px;"">+</div>","null","","fixation","","","","","","","","","","","","","",""
"learning-trial","117","587622","0.0-9.0-2.0-1.15","1841","2","2","""event"",""trial"",""time""
""fullscreenenter"",""1"",""3040""
","
","
","""event"",""trial"",""time""
""fullscreenenter"",""1"",""3040""
","
","","","","","","2081.5","images/tree1.png","","","learning","images/plants_choice1.png","images/plants_choice3.png","images/plants_choice2.png","[0,2,1]","0","0","2","images/plants_choice3.png","-1","plants","","tree","2","0"
"html-keyboard-response","118","588123","0.0-9.0-2.0-0.16","1841","2","2","""event"",""trial"",""time""
""fullscreenenter"",""1"",""3040""
","
","
","""event"",""trial"",""time""
""fullscreenenter"",""1"",""3040""
","
","","","","","","null","<div style=""font-size:60px;"">+</div>","null","","fixation","","","","","","","","","","","","","",""
"learning-trial","119","592129","0.0-9.0-2.0-1.16","1841","2","2","""event"",""trial"",""time""
""fullscreenenter"",""1"",""3040""
","
","
","""event"",""trial"",""time""
""fullscreenenter"",""1"",""3040""
","
","","","","","","1388","images/tree2.png","","","learning","images/plants_choice1.png","images/plants_choice3.png","images/plants_choice2.png","[0,2,1]","2","1","2","images/plants_choice3.png","-1","plants","","tree","2","0"
"html-keyboard-response","120","592631","0.0-9.0-2.0-0.17","1841","2","2","""event"",""trial"",""time""
""fullscreenenter"",""1"",""3040""
","
","
","""event"",""trial"",""time""
""fullscreenenter"",""1"",""3040""
","
","","","","","","null","<div style=""font-size:60px;"">+</div>","null","","fixation","","","","","","","","","","","","","",""
"learning-trial","121","596639","0.0-9.0-2.0-1.17","1841","2","2","""event"",""trial"",""time""
""fullscreenenter"",""1"",""3040""
","
","
","""event"",""trial"",""time""
""fullscreenenter"",""1"",""3040""
","
","","","","","","1675.3000001907349","images/flower3.png","","","learning","images/plants_choice1.png","images/plants_choice2.png","images/plants_choice3.png","[0,1,2]","2","2","2","images/plants_choice2.png","1","plants","","flower","2","0"
"html-keyboard-response","122","597142","0.0-9.0-2.0-0.18","1841","2","2","""event"",""trial"",""time""
""fullscreenenter"",""1"",""3040""
","
","
","""event"",""trial"",""time""
""fullscreenenter"",""1"",""3040""
","
","","","","","","null","<div style=""font-size:60px;"">+</div>","null","","fixation","","","","","","","","","","","","","",""
"learning-trial","123","601147","0.0-9.0-2.0-1.18","1841","2","2","""event"",""trial"",""time""
""fullscreenenter"",""1"",""3040""
","
","
","""event"",""trial"",""time""
""fullscreenenter"",""1"",""3040""
","
","","","","","","1777.9000000953674","images/tree2.png","","","learning","images/plants_choice1.png","images/plants_choice3.png","images/plants_choice2.png","[0,2,1]","2","1","3","images/plants_choice2.png","-1","plants","","tree","2","0"
"html-keyboard-response","124","601649","0.0-9.0-2.0-0.19","1841","2","2","""event"",""trial"",""time""
""fullscreenenter"",""1"",""3040""
","
","
","""event"",""trial"",""time""
""fullscreenenter"",""1"",""3040""
","
","","","","","","null","<div style=""font-size:60px;"">+</div>","null","","fixation","","","","","","","","","","","","","",""
"learning-trial","125","605654","0.0-9.0-2.0-1.19","1841","2","2","""event"",""trial"",""time""
""fullscreenenter"",""1"",""3040""
","
","
","""event"",""trial"",""time""
""fullscreenenter"",""1"",""3040""
","
","","","","","","2230","images/tree3.png","","","learning","images/plants_choice1.png","images/plants_choice3.png","images/plants_choice2.png","[0,2,1]","1","2","2","images/plants_choice3.png","-1","plants","","tree","2","0"
"html-keyboard-response","126","606160","0.0-9.0-2.0-0.20","1841","2","2","""event"",""trial"",""time""
""fullscreenenter"",""1"",""3040""
","
","
","""event"",""trial"",""time""
""fullscreenenter"",""1"",""3040""
","
","","","","","","null","<div style=""font-size:60px;"">+</div>","null","","fixation","","","","","","","","","","","","","",""
"learning-trial","127","610166","0.0-9.0-2.0-1.20","1841","2","2","""event"",""trial"",""time""
""fullscreenenter"",""1"",""3040""
","
","
","""event"",""trial"",""time""
""fullscreenenter"",""1"",""3040""
","
","","","","","","2596.9000000953674","images/cactus3.png","","","learning","images/plants_choice1.png","images/plants_choice2.png","images/plants_choice3.png","[0,1,2]","1","1","2","images/plants_choice2.png","-1","plants","","cactus","2","0"
"html-keyboard-response","128","610667","0.0-9.0-2.0-0.21","1841","2","2","""event"",""trial"",""time""
""fullscreenenter"",""1"",""3040""
","
","
","""event"",""trial"",""time""
""fullscreenenter"",""1"",""3040""
","
","","","","","","null","<div style=""font-size:60px;"">+</div>","null","","fixation","","","","","","","","","","","","","",""
"learning-trial","129","614673","0.0-9.0-2.0-1.21","1841","2","2","""event"",""trial"",""time""
""fullscreenenter"",""1"",""3040""
","
","
","""event"",""trial"",""time""
""fullscreenenter"",""1"",""3040""
","
","","","","","","2861.4000000953674","images/flower1.png","","","learning","images/plants_choice2.png","images/plants_choice3.png","images/plants_choice1.png","[1,2,0]","0","2","2","images/plants_choice3.png","-1","plants","","flower","2","0"
"html-keyboard-response","130","615174","0.0-9.0-2.0-0.22","1841","2","2","""event"",""trial"",""time""
""fullscreenenter"",""1"",""3040""
","
","
","""event"",""trial"",""time""
""fullscreenenter"",""1"",""3040""
","
","","","","","","null","<div style=""font-size:60px;"">+</div>","null","","fixation","","","","","","","","","","","","","",""
"learning-trial","131","619180","0.0-9.0-2.0-1.22","1841","2","2","""event"",""trial"",""time""
""fullscreenenter"",""1"",""3040""
","
","
","""event"",""trial"",""time""
""fullscreenenter"",""1"",""3040""
","
","","","","","","1947.0999999046326","images/cactus3.png","","","learning","images/plants_choice2.png","images/plants_choice3.png","images/plants_choice1.png","[1,2,0]","1","0","1","images/plants_choice2.png","1","plants","","cactus","2","0"
"html-keyboard-response","132","619681","0.0-9.0-2.0-0.23","1841","2","2","""event"",""trial"",""time""
""fullscreenenter"",""1"",""3040""
","
","
","""event"",""trial"",""time""
""fullscreenenter"",""1"",""3040""
","
","","","","","","null","<div style=""font-size:60px;"">+</div>","null","","fixation","","","","","","","","","","","","","",""
"learning-trial","133","623687","0.0-9.0-2.0-1.23","1841","2","2","""event"",""trial"",""time""
""fullscreenenter"",""1"",""3040""
","
","
","""event"",""trial"",""time""
""fullscreenenter"",""1"",""3040""
","
","","","","","","2572.7999997138977","images/flower2.png","","","learning","images/plants_choice3.png","images/plants_choice2.png","images/plants_choice1.png","[2,1,0]","1","1","3","images/plants_choice1.png","-1","plants","","flower","2","0"
"html-keyboard-response","134","624193","0.0-9.0-2.0-0.24","1841","2","2","""event"",""trial"",""time""
""fullscreenenter"",""1"",""3040""
","
","
","""event"",""trial"",""time""
""fullscreenenter"",""1"",""3040""
","
","","","","","","null","<div style=""font-size:60px;"">+</div>","null","","fixation","","","","","","","","","","","","","",""
"learning-trial","135","628198","0.0-9.0-2.0-1.24","1841","2","2","""event"",""trial"",""time""
""fullscreenenter"",""1"",""3040""
","
","
","""event"",""trial"",""time""
""fullscreenenter"",""1"",""3040""
","
","","","","","","2329.4000000953674","images/tree2.png","","","learning","images/plants_choice1.png","images/plants_choice2.png","images/plants_choice3.png","[0,1,2]","2","2","2","images/plants_choice2.png","-1","plants","","tree","2","0"
"html-keyboard-response","136","628700","0.0-9.0-2.0-0.25","1841","2","2","""event"",""trial"",""time""
""fullscreenenter"",""1"",""3040""
","
","
","""event"",""trial"",""time""
""fullscreenenter"",""1"",""3040""
","
","","","","","","null","<div style=""font-size:60px;"">+</div>","null","","fixation","","","","","","","","","","","","","",""
"learning-trial","137","632705","0.0-9.0-2.0-1.25","1841","2","2","""event"",""trial"",""time""
""fullscreenenter"",""1"",""3040""
","
","
","""event"",""trial"",""time""
""fullscreenenter"",""1"",""3040""
","
","","","","","","2433","images/cactus2.png","","","learning","images/plants_choice1.png","images/plants_choice2.png","images/plants_choice3.png","[0,1,2]","2","2","1","images/plants_choice1.png","1","plants","","cactus","2","0"
"html-keyboard-response","138","633206","0.0-9.0-2.0-0.26","1841","2","2","""event"",""trial"",""time""
""fullscreenenter"",""1"",""3040""
","
","
","""event"",""trial"",""time""
""fullscreenenter"",""1"",""3040""
","
","","","","","","null","<div style=""font-size:60px;"">+</div>","null","","fixation","","","","","","","","","","","","","",""
"learning-trial","139","637212","0.0-9.0-2.0-1.26","1841","2","2","""event"",""trial"",""time""
""fullscreenenter"",""1"",""3040""
","
","
","""event"",""trial"",""time""
""fullscreenenter"",""1"",""3040""
","
","","","","","","1219.1999998092651","images/flower3.png","","","learning","images/plants_choice1.png","images/plants_choice3.png","images/plants_choice2.png","[0,2,1]","2","1","3","images/plants_choice2.png","1","plants","","flower","2","0"
"html-keyboard-response","140","637713","0.0-9.0-2.0-0.27","1841","2","2","""event"",""trial"",""time""
""fullscreenenter"",""1"",""3040""
","
","
","""event"",""trial"",""time""
""fullscreenenter"",""1"",""3040""
","
","","","","","","null","<div style=""font-size:60px;"">+</div>","null","","fixation","","","","","","","","","","","","","",""
"learning-trial","141","641718","0.0-9.0-2.0-1.27","1841","2","2","""event"",""trial"",""time""
""fullscreenenter"",""1"",""3040""
","
","
","""event"",""trial"",""time""
""fullscreenenter"",""1"",""3040""
","
","","","","","","1301.2999997138977","images/flower3.png","","","learning","images/plants_choice2.png","images/plants_choice1.png","images/plants_choice3.png","[1,0,2]","2","2","1","images/plants_choice2.png","1","plants","","flower","2","0"
"html-keyboard-response","142","642224","0.0-9.0-2.0-0.28","1841","2","2","""event"",""trial"",""time""
""fullscreenenter"",""1"",""3040""
","
","
","""event"",""trial"",""time""
""fullscreenenter"",""1"",""3040""
","
","","","","","","null","<div style=""font-size:60px;"">+</div>","null","","fixation","","","","","","","","","","","","","",""
"learning-trial","143","646230","0.0-9.0-2.0-1.28","1841","2","2","""event"",""trial"",""time""
""fullscreenenter"",""1"",""3040""
","
","
","""event"",""trial"",""time""
""fullscreenenter"",""1"",""3040""
","
","","","","","","1200.5999999046326","images/tree1.png","","","learning","images/plants_choice2.png","images/plants_choice3.png","images/plants_choice1.png","[1,2,0]","0","2","2","images/plants_choice3.png","-1","plants","","tree","2","0"
"html-keyboard-response","144","646735","0.0-9.0-2.0-0.29","1841","2","2","""event"",""trial"",""time""
""fullscreenenter"",""1"",""3040""
","
","
","""event"",""trial"",""time""
""fullscreenenter"",""1"",""3040""
","
","","","","","","null","<div style=""font-size:60px;"">+</div>","null","","fixation","","","","","","","","","","","","","",""
"learning-trial","145","650741","0.0-9.0-2.0-1.29","1841","2","2","""event"",""trial"",""time""
""fullscreenenter"",""1"",""3040""
","
","
","""event"",""trial"",""time""
""fullscreenenter"",""1"",""3040""
","
","","","","","","1506.3999996185303","images/cactus3.png","","","learning","images/plants_choice2.png","images/plants_choice1.png","images/plants_choice3.png","[1,0,2]","1","0","1","images/plants_choice2.png","1","plants","","cactus","2","0"
"html-keyboard-response","146","651244","0.0-9.0-2.0-0.30","1841","2","2","""event"",""trial"",""time""
""fullscreenenter"",""1"",""3040""
","
","
","""event"",""trial"",""time""
""fullscreenenter"",""1"",""3040""
","
","","","","","","null","<div style=""font-size:60px;"">+</div>","null","","fixation","","","","","","","","","","","","","",""
"learning-trial","147","655249","0.0-9.0-2.0-1.30","1841","2","2","""event"",""trial"",""time""
""fullscreenenter"",""1"",""3040""
","
","
","""event"",""trial"",""time""
""fullscreenenter"",""1"",""3040""
","
","","","","","","2230.4000000953674","images/tree3.png","","","learning","images/plants_choice3.png","images/plants_choice2.png","images/plants_choice1.png","[2,1,0]","1","1","3","images/plants_choice1.png","-1","plants","","tree","2","0"
"html-keyboard-response","148","655755","0.0-9.0-2.0-0.31","1841","2","2","""event"",""trial"",""time""
""fullscreenenter"",""1"",""3040""
","
","
","""event"",""trial"",""time""
""fullscreenenter"",""1"",""3040""
","
","","","","","","null","<div style=""font-size:60px;"">+</div>","null","","fixation","","","","","","","","","","","","","",""
"learning-trial","149","659761","0.0-9.0-2.0-1.31","1841","2","2","""event"",""trial"",""time""
""fullscreenenter"",""1"",""3040""
","
","
","""event"",""trial"",""time""
""fullscreenenter"",""1"",""3040""
","
","","","","","","1216.2000002861023","images/cactus3.png","","","learning","images/plants_choice1.png","images/plants_choice3.png","images/plants_choice2.png","[0,2,1]","1","2","3","images/plants_choice2.png","1","plants","","cactus","2","0"
"html-keyboard-response","150","660267","0.0-9.0-2.0-0.32","1841","2","2","""event"",""trial"",""time""
""fullscreenenter"",""1"",""3040""
","
","
","""event"",""trial"",""time""
""fullscreenenter"",""1"",""3040""
","
","","","","","","null","<div style=""font-size:60px;"">+</div>","null","","fixation","","","","","","","","","","","","","",""
"learning-trial","151","664273","0.0-9.0-2.0-1.32","1841","2","2","""event"",""trial"",""time""
""fullscreenenter"",""1"",""3040""
","
","
","""event"",""trial"",""time""
""fullscreenenter"",""1"",""3040""
","
","","","","","","1566.8000001907349","images/flower2.png","","","learning","images/plants_choice2.png","images/plants_choice1.png","images/plants_choice3.png","[1,0,2]","1","0","2","images/plants_choice1.png","-1","plants","","flower","2","0"
"html-keyboard-response","152","664778","0.0-9.0-2.0-0.33","1841","2","2","""event"",""trial"",""time""
""fullscreenenter"",""1"",""3040""
","
","
","""event"",""trial"",""time""
""fullscreenenter"",""1"",""3040""
","
","","","","","","null","<div style=""font-size:60px;"">+</div>","null","","fixation","","","","","","","","","","","","","",""
"learning-trial","153","668785","0.0-9.0-2.0-1.33","1841","2","2","""event"",""trial"",""time""
""fullscreenenter"",""1"",""3040""
","
","
","""event"",""trial"",""time""
""fullscreenenter"",""1"",""3040""
","
","","","","","","1839.0999999046326","images/cactus4.png","","","learning","images/plants_choice1.png","images/plants_choice3.png","images/plants_choice2.png","[0,2,1]","0","0","2","images/plants_choice3.png","-1","plants","","cactus","2","0"
"html-keyboard-response","154","669287","0.0-9.0-2.0-0.34","1841","2","2","""event"",""trial"",""time""
""fullscreenenter"",""1"",""3040""
","
","
","""event"",""trial"",""time""
""fullscreenenter"",""1"",""3040""
","
","","","","","","null","<div style=""font-size:60px;"">+</div>","null","","fixation","","","","","","","","","","","","","",""
"learning-trial","155","673292","0.0-9.0-2.0-1.34","1841","2","2","""event"",""trial"",""time""
""fullscreenenter"",""1"",""3040""
","
","
","""event"",""trial"",""time""
""fullscreenenter"",""1"",""3040""
","
","","","","","","2039.2000002861023","images/cactus2.png","","","learning","images/plants_choice2.png","images/plants_choice3.png","images/plants_choice1.png","[1,2,0]","2","1","2","images/plants_choice3.png","1","plants","","cactus","2","0"
"html-keyboard-response","156","673793","0.0-9.0-2.0-0.35","1841","2","2","""event"",""trial"",""time""
""fullscreenenter"",""1"",""3040""
","
","
","""event"",""trial"",""time""
""fullscreenenter"",""1"",""3040""
","
","","","","","","null","<div style=""font-size:60px;"">+</div>","null","","fixation","","","","","","","","","","","","","",""
"learning-trial","157","677799","0.0-9.0-2.0-1.35","1841","2","2","""event"",""trial"",""time""
""fullscreenenter"",""1"",""3040""
","
","
","""event"",""trial"",""time""
""fullscreenenter"",""1"",""3040""
","
","","","","","","1712.4000000953674","images/flower1.png","","","learning","images/plants_choice3.png","images/plants_choice1.png","images/plants_choice2.png","[2,0,1]","0","1","2","images/plants_choice1.png","1","plants","","flower","2","0"
"html-keyboard-response","158","678300","0.0-9.0-2.0-0.36","1841","2","2","""event"",""trial"",""time""
""fullscreenenter"",""1"",""3040""
","
","
","""event"",""trial"",""time""
""fullscreenenter"",""1"",""3040""
","
","","","","","","null","<div style=""font-size:60px;"">+</div>","null","","fixation","","","","","","","","","","","","","",""
"learning-trial","159","682305","0.0-9.0-2.0-1.36","1841","2","2","""event"",""trial"",""time""
""fullscreenenter"",""1"",""3040""
","
","
","""event"",""trial"",""time""
""fullscreenenter"",""1"",""3040""
","
","","","","","","1927.5","images/cactus2.png","","","learning","images/plants_choice1.png","images/plants_choice2.png","images/plants_choice3.png","[0,1,2]","2","2","2","images/plants_choice2.png","-1","plants","","cactus","2","0"
"html-keyboard-response","160","682806","0.0-9.0-2.0-0.37","1841","2","2","""event"",""trial"",""time""
""fullscreenenter"",""1"",""3040""
","
","
","""event"",""trial"",""time""
""fullscreenenter"",""1"",""3040""
","
","","","","","","null","<div style=""font-size:60px;"">+</div>","null","","fixation","","","","","","","","","","","","","",""
"learning-trial","161","686815","0.0-9.0-2.0-1.37","1841","2","2","""event"",""trial"",""time""
""fullscreenenter"",""1"",""3040""
","
","
","""event"",""trial"",""time""
""fullscreenenter"",""1"",""3040""
","
","","","","","","1873.7999997138977","images/flower1.png","","","learning","images/plants_choice1.png","images/plants_choice2.png","images/plants_choice3.png","[0,1,2]","0","0","2","images/plants_choice2.png","1","plants","","flower","2","0"
"html-keyboard-response","162","687319","0.0-9.0-2.0-0.38","1841","2","2","""event"",""trial"",""time""
""fullscreenenter"",""1"",""3040""
","
","
","""event"",""trial"",""time""
""fullscreenenter"",""1"",""3040""
","
","","","","","","null","<div style=""font-size:60px;"">+</div>","null","","fixation","","","","","","","","","","","","","",""
"learning-trial","163","691324","0.0-9.0-2.0-1.38","1841","2","2","""event"",""trial"",""time""
""fullscreenenter"",""1"",""3040""
","
","
","""event"",""trial"",""time""
""fullscreenenter"",""1"",""3040""
","
","","","","","","1912.5","images/cactus4.png","","","learning","images/plants_choice3.png","images/plants_choice2.png","images/plants_choice1.png","[2,1,0]","0","2","1","images/plants_choice3.png","-1","plants","","cactus","2","0"
"html-keyboard-response","164","691825","0.0-9.0-2.0-0.39","1841","2","2","""event"",""trial"",""time""
""fullscreenenter"",""1"",""3040""
","
","
","""event"",""trial"",""time""
""fullscreenenter"",""1"",""3040""
","
","","","","","","null","<div style=""font-size:60px;"">+</div>","null","","fixation","","","","","","","","","","","","","",""
"learning-trial","165","695831","0.0-9.0-2.0-1.39","1841","2","2","""event"",""trial"",""time""
""fullscreenenter"",""1"",""3040""
","
","
","""event"",""trial"",""time""
""fullscreenenter"",""1"",""3040""
","
","","","","","","1285.8000001907349","images/tree2.png","","","learning","images/plants_choice1.png","images/plants_choice3.png","images/plants_choice2.png","[0,2,1]","2","1","3","images/plants_choice2.png","-1","plants","","tree","2","0"
"html-keyboard-response","166","696332","0.0-9.0-2.0-0.40","1841","2","2","""event"",""trial"",""time""
""fullscreenenter"",""1"",""3040""
","
","
","""event"",""trial"",""time""
""fullscreenenter"",""1"",""3040""
","
","","","","","","null","<div style=""font-size:60px;"">+</div>","null","","fixation","","","","","","","","","","","","","",""
"learning-trial","167","700337","0.0-9.0-2.0-1.40","1841","2","2","""event"",""trial"",""time""
""fullscreenenter"",""1"",""3040""
","
","
","""event"",""trial"",""time""
""fullscreenenter"",""1"",""3040""
","
","","","","","","1174.3999996185303","images/tree2.png","","","learning","images/plants_choice3.png","images/plants_choice2.png","images/plants_choice1.png","[2,1,0]","2","0","3","images/plants_choice1.png","-1","plants","","tree","2","0"
"html-keyboard-response","168","700839","0.0-9.0-2.0-0.41","1841","2","2","""event"",""trial"",""time""
""fullscreenenter"",""1"",""3040""
","
","
","""event"",""trial"",""time""
""fullscreenenter"",""1"",""3040""
","
","","","","","","null","<div style=""font-size:60px;"">+</div>","null","","fixation","","","","","","","","","","","","","",""
"learning-trial","169","704844","0.0-9.0-2.0-1.41","1841","2","2","""event"",""trial"",""time""
""fullscreenenter"",""1"",""3040""
","
","
","""event"",""trial"",""time""
""fullscreenenter"",""1"",""3040""
","
","","","","","","1900","images/flower2.png","","","learning","images/plants_choice3.png","images/plants_choice2.png","images/plants_choice1.png","[2,1,0]","1","1","1","images/plants_choice3.png","-1","plants","","flower","2","0"
"html-keyboard-response","170","705345","0.0-9.0-2.0-0.42","1841","2","2","""event"",""trial"",""time""
""fullscreenenter"",""1"",""3040""
","
","
","""event"",""trial"",""time""
""fullscreenenter"",""1"",""3040""
","
","","","","","","null","<div style=""font-size:60px;"">+</div>","null","","fixation","","","","","","","","","","","","","",""
"learning-trial","171","709351","0.0-9.0-2.0-1.42","1841","2","2","""event"",""trial"",""time""
""fullscreenenter"",""1"",""3040""
","
","
","""event"",""trial"",""time""
""fullscreenenter"",""1"",""3040""
","
","","","","","","1061.7000002861023","images/flower2.png","","","learning","images/plants_choice3.png","images/plants_choice1.png","images/plants_choice2.png","[2,0,1]","1","2","2","images/plants_choice1.png","1","plants","","flower","2","0"
"html-keyboard-response","172","709856","0.0-9.0-2.0-0.43","1841","2","2","""event"",""trial"",""time""
""fullscreenenter"",""1"",""3040""
","
","
","""event"",""trial"",""time""
""fullscreenenter"",""1"",""3040""
","
","","","","","","null","<div style=""font-size:60px;"">+</div>","null","","fixation","","","","","","","","","","","","","",""
"learning-trial","173","713863","0.0-9.0-2.0-1.43","1841","2","2","""event"",""trial"",""time""
""fullscreenenter"",""1"",""3040""
","
","
","""event"",""trial"",""time""
""fullscreenenter"",""1"",""3040""
","
","","","","","","1494.5","images/tree3.png","","","learning","images/plants_choice3.png","images/plants_choice2.png","images/plants_choice1.png","[2,1,0]","1","1","3","images/plants_choice1.png","-1","plants","","tree","2","0"
"html-keyboard-response","174","714364","0.0-9.0-2.0-0.44","1841","2","2","""event"",""trial"",""time""
""fullscreenenter"",""1"",""3040""
","
","
","""event"",""trial"",""time""
""fullscreenenter"",""1"",""3040""
","
","","","","","","null","<div style=""font-size:60px;"">+</div>","null","","fixation","","","","","","","","","","","","","",""
"learning-trial","175","718372","0.0-9.0-2.0-1.44","1841","2","2","""event"",""trial"",""time""
""fullscreenenter"",""1"",""3040""
","
","
","""event"",""trial"",""time""
""fullscreenenter"",""1"",""3040""
","
","","","","","","1354.5","images/tree1.png","","","learning","images/plants_choice1.png","images/plants_choice2.png","images/plants_choice3.png","[0,1,2]","0","0","1","images/plants_choice1.png","1","plants","","tree","2","0"
"html-keyboard-response","176","718876","0.0-9.0-2.0-0.45","1841","2","2","""event"",""trial"",""time""
""fullscreenenter"",""1"",""3040""
","
","
","""event"",""trial"",""time""
""fullscreenenter"",""1"",""3040""
","
","","","","","","null","<div style=""font-size:60px;"">+</div>","null","","fixation","","","","","","","","","","","","","",""
"learning-trial","177","722881","0.0-9.0-2.0-1.45","1841","2","2","""event"",""trial"",""time""
""fullscreenenter"",""1"",""3040""
","
","
","""event"",""trial"",""time""
""fullscreenenter"",""1"",""3040""
","
","","","","","","2358.2999997138977","images/flower1.png","","","learning","images/plants_choice1.png","images/plants_choice3.png","images/plants_choice2.png","[0,2,1]","0","0","3","images/plants_choice2.png","-1","plants","","flower","2","0"
"html-keyboard-response","178","723383","0.0-9.0-2.0-0.46","1841","2","2","""event"",""trial"",""time""
""fullscreenenter"",""1"",""3040""
","
","
","""event"",""trial"",""time""
""fullscreenenter"",""1"",""3040""
","
","","","","","","null","<div style=""font-size:60px;"">+</div>","null","","fixation","","","","","","","","","","","","","",""
"learning-trial","179","727388","0.0-9.0-2.0-1.46","1841","2","2","""event"",""trial"",""time""
""fullscreenenter"",""1"",""3040""
","
","
","""event"",""trial"",""time""
""fullscreenenter"",""1"",""3040""
","
","","","","","","2013.5999999046326","images/cactus2.png","","","learning","images/plants_choice2.png","images/plants_choice3.png","images/plants_choice1.png","[1,2,0]","2","1","2","images/plants_choice3.png","1","plants","","cactus","2","0"
"html-keyboard-response","180","727889","0.0-9.0-2.0-0.47","1841","2","2","""event"",""trial"",""time""
""fullscreenenter"",""1"",""3040""
","
","
","""event"",""trial"",""time""
""fullscreenenter"",""1"",""3040""
","
","","","","","","null","<div style=""font-size:60px;"">+</div>","null","","fixation","","","","","","","","","","","","","",""
"learning-trial","181","731895","0.0-9.0-2.0-1.47","1841","2","2","""event"",""trial"",""time""
""fullscreenenter"",""1"",""3040""
","
","
","""event"",""trial"",""time""
""fullscreenenter"",""1"",""3040""
","
","","","","","","1191.5","images/cactus3.png","","","learning","images/plants_choice3.png","images/plants_choice1.png","images/plants_choice2.png","[2,0,1]","1","2","1","images/plants_choice3.png","1","plants","","cactus","2","0"
"html-keyboard-response","182","732396","0.0-9.0-2.0-0.48","1841","2","2","""event"",""trial"",""time""
""fullscreenenter"",""1"",""3040""
","
","
","""event"",""trial"",""time""
""fullscreenenter"",""1"",""3040""
","
","","","","","","null","<div style=""font-size:60px;"">+</div>","null","","fixation","","","","","","","","","","","","","",""
"learning-trial","183","736400","0.0-9.0-2.0-1.48","1841","2","2","""event"",""trial"",""time""
""fullscreenenter"",""1"",""3040""
","
","
","""event"",""trial"",""time""
""fullscreenenter"",""1"",""3040""
","
","","","","","","2171.5","images/tree3.png","","","learning","images/plants_choice3.png","images/plants_choice2.png","images/plants_choice1.png","[2,1,0]","1","1","2","images/plants_choice2.png","1","plants","","tree","2","0"
"html-keyboard-response","184","736902","0.0-9.0-2.0-0.49","1841","2","2","""event"",""trial"",""time""
""fullscreenenter"",""1"",""3040""
","
","
","""event"",""trial"",""time""
""fullscreenenter"",""1"",""3040""
","
","","","","","","null","<div style=""font-size:60px;"">+</div>","null","","fixation","","","","","","","","","","","","","",""
"learning-trial","185","740908","0.0-9.0-2.0-1.49","1841","2","2","""event"",""trial"",""time""
""fullscreenenter"",""1"",""3040""
","
","
","""event"",""trial"",""time""
""fullscreenenter"",""1"",""3040""
","
","","","","","","3132.6000003814697","images/cactus4.png","","","learning","images/plants_choice1.png","images/plants_choice2.png","images/plants_choice3.png","[0,1,2]","0","0","1","images/plants_choice1.png","1","plants","","cactus","2","0"
"html-keyboard-response","186","741409","0.0-9.0-2.0-0.50","1841","2","2","""event"",""trial"",""time""
""fullscreenenter"",""1"",""3040""
","
","
","""event"",""trial"",""time""
""fullscreenenter"",""1"",""3040""
","
","","","","","","null","<div style=""font-size:60px;"">+</div>","null","","fixation","","","","","","","","","","","","","",""
"learning-trial","187","745415","0.0-9.0-2.0-1.50","1841","2","2","""event"",""trial"",""time""
""fullscreenenter"",""1"",""3040""
","
","
","""event"",""trial"",""time""
""fullscreenenter"",""1"",""3040""
","
","","","","","","2245.7000002861023","images/cactus3.png","","","learning","images/plants_choice1.png","images/plants_choice3.png","images/plants_choice2.png","[0,2,1]","1","2","2","images/plants_choice3.png","-1","plants","","cactus","2","0"
"html-keyboard-response","188","745916","0.0-9.0-2.0-0.51","1841","2","2","""event"",""trial"",""time""
""fullscreenenter"",""1"",""3040""
","
","
","""event"",""trial"",""time""
""fullscreenenter"",""1"",""3040""
","
","","","","","","null","<div style=""font-size:60px;"">+</div>","null","","fixation","","","","","","","","","","","","","",""
"learning-trial","189","749922","0.0-9.0-2.0-1.51","1841","2","2","""event"",""trial"",""time""
""fullscreenenter"",""1"",""3040""
","
","
","""event"",""trial"",""time""
""fullscreenenter"",""1"",""3040""
","
","","","","","","849.9000000953674","images/cactus4.png","","","learning","images/plants_choice1.png","images/plants_choice2.png","images/plants_choice3.png","[0,1,2]","0","0","1","images/plants_choice1.png","1","plants","","cactus","2","0"
"html-keyboard-response","190","750423","0.0-9.0-2.0-0.52","1841","2","2","""event"",""trial"",""time""
""fullscreenenter"",""1"",""3040""
","
","
","""event"",""trial"",""time""
""fullscreenenter"",""1"",""3040""
","
","","","","","","null","<div style=""font-size:60px;"">+</div>","null","","fixation","","","","","","","","","","","","","",""
"learning-trial","191","754428","0.0-9.0-2.0-1.52","1841","2","2","""event"",""trial"",""time""
""fullscreenenter"",""1"",""3040""
","
","
","""event"",""trial"",""time""
""fullscreenenter"",""1"",""3040""
","
","","","","","","1446.4000000953674","images/flower3.png","","","learning","images/plants_choice1.png","images/plants_choice2.png","images/plants_choice3.png","[0,1,2]","2","2","2","images/plants_choice2.png","-1","plants","","flower","2","0"
"html-keyboard-response","192","754929","0.0-9.0-2.0-0.53","1841","2","2","""event"",""trial"",""time""
""fullscreenenter"",""1"",""3040""
","
","
","""event"",""trial"",""time""
""fullscreenenter"",""1"",""3040""
","
","","","","","","null","<div style=""font-size:60px;"">+</div>","null","","fixation","","","","","","","","","","","","","",""
"learning-trial","193","758935","0.0-9.0-2.0-1.53","1841","2","2","""event"",""trial"",""time""
""fullscreenenter"",""1"",""3040""
","
","
","""event"",""trial"",""time""
""fullscreenenter"",""1"",""3040""
","
","","","","","","2535.300000190735","images/cactus2.png","","","learning","images/plants_choice1.png","images/plants_choice3.png","images/plants_choice2.png","[0,2,1]","2","1","2","images/plants_choice3.png","-1","plants","","cactus","2","0"
"html-keyboard-response","194","759438","0.0-9.0-2.0-0.54","1841","2","2","""event"",""trial"",""time""
""fullscreenenter"",""1"",""3040""
","
","
","""event"",""trial"",""time""
""fullscreenenter"",""1"",""3040""
","
","","","","","","null","<div style=""font-size:60px;"">+</div>","null","","fixation","","","","","","","","","","","","","",""
"learning-trial","195","763442","0.0-9.0-2.0-1.54","1841","2","2","""event"",""trial"",""time""
""fullscreenenter"",""1"",""3040""
","
","
","""event"",""trial"",""time""
""fullscreenenter"",""1"",""3040""
","
","","","","","","1037.1999998092651","images/flower3.png","","","learning","images/plants_choice1.png","images/plants_choice3.png","images/plants_choice2.png","[0,2,1]","2","1","3","images/plants_choice2.png","1","plants","","flower","2","0"
"html-keyboard-response","196","763943","0.0-9.0-2.0-0.55","1841","2","2","""event"",""trial"",""time""
""fullscreenenter"",""1"",""3040""
","
","
","""event"",""trial"",""time""
""fullscreenenter"",""1"",""3040""
","
","","","","","","null","<div style=""font-size:60px;"">+</div>","null","","fixation","","","","","","","","","","","","","",""
"learning-trial","197","767948","0.0-9.0-2.0-1.55","1841","2","2","""event"",""trial"",""time""
""fullscreenenter"",""1"",""3040""
","
","
","""event"",""trial"",""time""
""fullscreenenter"",""1"",""3040""
","
","","","","","","1874","images/cactus3.png","","","learning","images/plants_choice2.png","images/plants_choice3.png","images/plants_choice1.png","[1,2,0]","1","0","2","images/plants_choice3.png","-1","plants","","cactus","2","0"
"html-keyboard-response","198","768450","0.0-9.0-2.0-0.56","1841","2","2","""event"",""trial"",""time""
""fullscreenenter"",""1"",""3040""
","
","
","""event"",""trial"",""time""
""fullscreenenter"",""1"",""3040""
","
","","","","","","null","<div style=""font-size:60px;"">+</div>","null","","fixation","","","","","","","","","","","","","",""
"learning-trial","199","772455","0.0-9.0-2.0-1.56","1841","2","2","""event"",""trial"",""time""
""fullscreenenter"",""1"",""3040""
","
","
","""event"",""trial"",""time""
""fullscreenenter"",""1"",""3040""
","
","","","","","","2068","images/tree2.png","","","learning","images/plants_choice2.png","images/plants_choice3.png","images/plants_choice1.png","[1,2,0]","2","1","1","images/plants_choice2.png","-1","plants","","tree","2","0"
"html-keyboard-response","200","772956","0.0-9.0-2.0-0.57","1841","2","2","""event"",""trial"",""time""
""fullscreenenter"",""1"",""3040""
","
","
","""event"",""trial"",""time""
""fullscreenenter"",""1"",""3040""
","
","","","","","","null","<div style=""font-size:60px;"">+</div>","null","","fixation","","","","","","","","","","","","","",""
"learning-trial","201","776962","0.0-9.0-2.0-1.57","1841","2","2","""event"",""trial"",""time""
""fullscreenenter"",""1"",""3040""
","
","
","""event"",""trial"",""time""
""fullscreenenter"",""1"",""3040""
","
","","","","","","2511.0999999046326","images/tree1.png","","","learning","images/plants_choice1.png","images/plants_choice3.png","images/plants_choice2.png","[0,2,1]","0","0","1","images/plants_choice1.png","1","plants","","tree","2","0"
"html-keyboard-response","202","777463","0.0-9.0-2.0-0.58","1841","2","2","""event"",""trial"",""time""
""fullscreenenter"",""1"",""3040""
","
","
","""event"",""trial"",""time""
""fullscreenenter"",""1"",""3040""
","
","","","","","","null","<div style=""font-size:60px;"">+</div>","null","","fixation","","","","","","","","","","","","","",""
"learning-trial","203","781471","0.0-9.0-2.0-1.58","1841","2","2","""event"",""trial"",""time""
""fullscreenenter"",""1"",""3040""
","
","
","""event"",""trial"",""time""
""fullscreenenter"",""1"",""3040""
","
","","","","","","1588","images/tree1.png","","","learning","images/plants_choice3.png","images/plants_choice2.png","images/plants_choice1.png","[2,1,0]","0","2","3","images/plants_choice1.png","1","plants","","tree","2","0"
"html-keyboard-response","204","781975","0.0-9.0-2.0-0.59","1841","2","2","""event"",""trial"",""time""
""fullscreenenter"",""1"",""3040""
","
","
","""event"",""trial"",""time""
""fullscreenenter"",""1"",""3040""
","
","","","","","","null","<div style=""font-size:60px;"">+</div>","null","","fixation","","","","","","","","","","","","","",""
"learning-trial","205","785982","0.0-9.0-2.0-1.59","1841","2","2","""event"",""trial"",""time""
""fullscreenenter"",""1"",""3040""
","
","
","""event"",""trial"",""time""
""fullscreenenter"",""1"",""3040""
","
","","","","","","2790","images/cactus2.png","","","learning","images/plants_choice3.png","images/plants_choice1.png","images/plants_choice2.png","[2,0,1]","2","0","2","images/plants_choice1.png","1","plants","","cactus","2","0"
"html-keyboard-response","206","786487","0.0-9.0-2.0-0.60","1841","2","2","""event"",""trial"",""time""
""fullscreenenter"",""1"",""3040""
","
","
","""event"",""trial"",""time""
""fullscreenenter"",""1"",""3040""
","
","","","","","","null","<div style=""font-size:60px;"">+</div>","null","","fixation","","","","","","","","","","","","","",""
"learning-trial","207","790492","0.0-9.0-2.0-1.60","1841","2","2","""event"",""trial"",""time""
""fullscreenenter"",""1"",""3040""
","
","
","""event"",""trial"",""time""
""fullscreenenter"",""1"",""3040""
","
","","","","","","2936.2999997138977","images/flower2.png","","","learning","images/plants_choice2.png","images/plants_choice3.png","images/plants_choice1.png","[1,2,0]","1","0","3","images/plants_choice1.png","-1","plants","","flower","2","0"
"html-keyboard-response","208","790993","0.0-9.0-2.0-0.61","1841","2","2","""event"",""trial"",""time""
""fullscreenenter"",""1"",""3040""
","
","
","""event"",""trial"",""time""
""fullscreenenter"",""1"",""3040""
","
","","","","","","null","<div style=""font-size:60px;"">+</div>","null","","fixation","","","","","","","","","","","","","",""
"learning-trial","209","794999","0.0-9.0-2.0-1.61","1841","2","2","""event"",""trial"",""time""
""fullscreenenter"",""1"",""3040""
","
","
","""event"",""trial"",""time""
""fullscreenenter"",""1"",""3040""
","
","","","","","","1791","images/tree3.png","","","learning","images/plants_choice1.png","images/plants_choice2.png","images/plants_choice3.png","[0,1,2]","1","1","1","images/plants_choice1.png","-1","plants","","tree","2","0"
"html-keyboard-response","210","795505","0.0-9.0-2.0-0.62","1841","2","2","""event"",""trial"",""time""
""fullscreenenter"",""1"",""3040""
","
","
","""event"",""trial"",""time""
""fullscreenenter"",""1"",""3040""
","
","","","","","","null","<div style=""font-size:60px;"">+</div>","null","","fixation","","","","","","","","","","","","","",""
"learning-trial","211","799511","0.0-9.0-2.0-1.62","1841","2","2","""event"",""trial"",""time""
""fullscreenenter"",""1"",""3040""
","
","
","""event"",""trial"",""time""
""fullscreenenter"",""1"",""3040""
","
","","","","","","2757.800000190735","images/flower1.png","","","learning","images/plants_choice2.png","images/plants_choice1.png","images/plants_choice3.png","[1,0,2]","0","1","2","images/plants_choice1.png","1","plants","","flower","2","0"
"html-keyboard-response","212","800017","0.0-9.0-2.0-0.63","1841","2","2","""event"",""trial"",""time""
""fullscreenenter"",""1"",""3040""
","
","
","""event"",""trial"",""time""
""fullscreenenter"",""1"",""3040""
","
","","","","","","null","<div style=""font-size:60px;"">+</div>","null","","fixation","","","","","","","","","","","","","",""
"learning-trial","213","804023","0.0-9.0-2.0-1.63","1841","2","2","""event"",""trial"",""time""
""fullscreenenter"",""1"",""3040""
","
","
","""event"",""trial"",""time""
""fullscreenenter"",""1"",""3040""
","
","","","","","","966.3999996185303","images/flower1.png","","","learning","images/plants_choice3.png","images/plants_choice1.png","images/plants_choice2.png","[2,0,1]","0","1","2","images/plants_choice1.png","1","plants","","flower","2","0"
"html-keyboard-response","214","804529","0.0-9.0-2.0-0.64","1841","2","2","""event"",""trial"",""time""
""fullscreenenter"",""1"",""3040""
","
","
","""event"",""trial"",""time""
""fullscreenenter"",""1"",""3040""
","
","","","","","","null","<div style=""font-size:60px;"">+</div>","null","","fixation","","","","","","","","","","","","","",""
"learning-trial","215","808535","0.0-9.0-2.0-1.64","1841","2","2","""event"",""trial"",""time""
""fullscreenenter"",""1"",""3040""
","
","
","""event"",""trial"",""time""
""fullscreenenter"",""1"",""3040""
","
","","","","","","1004.5999999046326","images/flower3.png","","","learning","images/plants_choice1.png","images/plants_choice3.png","images/plants_choice2.png","[0,2,1]","2","1","3","images/plants_choice2.png","1","plants","","flower","2","0"
"html-keyboard-response","216","809038","0.0-9.0-2.0-0.65","1841","2","2","""event"",""trial"",""time""
""fullscreenenter"",""1"",""3040""
","
","
","""event"",""trial"",""time""
""fullscreenenter"",""1"",""3040""
","
","","","","","","null","<div style=""font-size:60px;"">+</div>","null","","fixation","","","","","","","","","","","","","",""
"learning-trial","217","813042","0.0-9.0-2.0-1.65","1841","2","2","""event"",""trial"",""time""
""fullscreenenter"",""1"",""3040""
","
","
","""event"",""trial"",""time""
""fullscreenenter"",""1"",""3040""
","
","","","","","","1919.9000000953674","images/tree3.png","","","learning","images/plants_choice3.png","images/plants_choice1.png","images/plants_choice2.png","[2,0,1]","1","2","2","images/plants_choice1.png","1","plants","","tree","2","0"
"html-keyboard-response","218","813543","0.0-9.0-2.0-0.66","1841","2","2","""event"",""trial"",""time""
""fullscreenenter"",""1"",""3040""
","
","
","""event"",""trial"",""time""
""fullscreenenter"",""1"",""3040""
","
","","","","","","null","<div style=""font-size:60px;"">+</div>","null","","fixation","","","","","","","","","","","","","",""
"learning-trial","219","817552","0.0-9.0-2.0-1.66","1841","2","2","""event"",""trial"",""time""
""fullscreenenter"",""1"",""3040""
","
","
","""event"",""trial"",""time""
""fullscreenenter"",""1"",""3040""
","
","","","","","","1076.8000001907349","images/flower1.png","","","learning","images/plants_choice1.png","images/plants_choice2.png","images/plants_choice3.png","[0,1,2]","0","0","1","images/plants_choice1.png","1","plants","","flower","2","0"
"html-keyboard-response","220","818056","0.0-9.0-2.0-0.67","1841","2","2","""event"",""trial"",""time""
""fullscreenenter"",""1"",""3040""
","
","
","""event"",""trial"",""time""
""fullscreenenter"",""1"",""3040""
","
","","","","","","null","<div style=""font-size:60px;"">+</div>","null","","fixation","","","","","","","","","","","","","",""
"learning-trial","221","822061","0.0-9.0-2.0-1.67","1841","2","2","""event"",""trial"",""time""
""fullscreenenter"",""1"",""3040""
","
","
","""event"",""trial"",""time""
""fullscreenenter"",""1"",""3040""
","
","","","","","","2178.300000190735","images/flower2.png","","","learning","images/plants_choice2.png","images/plants_choice3.png","images/plants_choice1.png","[1,2,0]","1","0","1","images/plants_choice2.png","-1","plants","","flower","2","0"
"html-keyboard-response","222","822564","0.0-9.0-2.0-0.68","1841","2","2","""event"",""trial"",""time""
""fullscreenenter"",""1"",""3040""
","
","
","""event"",""trial"",""time""
""fullscreenenter"",""1"",""3040""
","
","","","","","","null","<div style=""font-size:60px;"">+</div>","null","","fixation","","","","","","","","","","","","","",""
"learning-trial","223","826571","0.0-9.0-2.0-1.68","1841","2","2","""event"",""trial"",""time""
""fullscreenenter"",""1"",""3040""
","
","
","""event"",""trial"",""time""
""fullscreenenter"",""1"",""3040""
","
","","","","","","931.4000000953674","images/cactus4.png","","","learning","images/plants_choice1.png","images/plants_choice3.png","images/plants_choice2.png","[0,2,1]","0","0","1","images/plants_choice1.png","1","plants","","cactus","2","0"
"html-keyboard-response","224","827074","0.0-9.0-2.0-0.69","1841","2","2","""event"",""trial"",""time""
""fullscreenenter"",""1"",""3040""
","
","
","""event"",""trial"",""time""
""fullscreenenter"",""1"",""3040""
","
","","","","","","null","<div style=""font-size:60px;"">+</div>","null","","fixation","","","","","","","","","","","","","",""
"learning-trial","225","831079","0.0-9.0-2.0-1.69","1841","2","2","""event"",""trial"",""time""
""fullscreenenter"",""1"",""3040""
","
","
","""event"",""trial"",""time""
""fullscreenenter"",""1"",""3040""
","
","","","","","","920.4000000953674","images/cactus4.png","","","learning","images/plants_choice2.png","images/plants_choice1.png","images/plants_choice3.png","[1,0,2]","0","1","2","images/plants_choice1.png","1","plants","","cactus","2","0"
"html-keyboard-response","226","831583","0.0-9.0-2.0-0.70","1841","2","2","""event"",""trial"",""time""
""fullscreenenter"",""1"",""3040""
","
","
","""event"",""trial"",""time""
""fullscreenenter"",""1"",""3040""
","
","","","","","","null","<div style=""font-size:60px;"">+</div>","null","","fixation","","","","","","","","","","","","","",""
"learning-trial","227","835592","0.0-9.0-2.0-1.70","1841","2","2","""event"",""trial"",""time""
""fullscreenenter"",""1"",""3040""
","
","
","""event"",""trial"",""time""
""fullscreenenter"",""1"",""3040""
","
","","","","","","1317","images/tree1.png","","","learning","images/plants_choice3.png","images/plants_choice2.png","images/plants_choice1.png","[2,1,0]","0","2","3","images/plants_choice1.png","1","plants","","tree","2","0"
"html-keyboard-response","228","836093","0.0-9.0-2.0-0.71","1841","2","2","""event"",""trial"",""time""
""fullscreenenter"",""1"",""3040""
","
","
","""event"",""trial"",""time""
""fullscreenenter"",""1"",""3040""
","
","","","","","","null","<div style=""font-size:60px;"">+</div>","null","","fixation","","","","","","","","","","","","","",""
"learning-trial","229","840098","0.0-9.0-2.0-1.71","1841","2","2","""event"",""trial"",""time""
""fullscreenenter"",""1"",""3040""
","
","
","""event"",""trial"",""time""
""fullscreenenter"",""1"",""3040""
","
","","","","","","824.6999998092651","images/tree1.png","","","learning","images/plants_choice1.png","images/plants_choice2.png","images/plants_choice3.png","[0,1,2]","0","0","1","images/plants_choice1.png","1","plants","","tree","2","0"
"html-button-response","230","843162","0.0-9.0-3.0","1841","2","2","""event"",""trial"",""time""
""fullscreenenter"",""1"",""3040""
","
","
","""event"",""trial"",""time""
""fullscreenenter"",""1"",""3040""
","
","","","","","","3061.699999809265","<p> You have completed the round! <p> In this round, you earned 0 points! </p>","0","","break","","","","","","","","","","","","","",""
"html-button-response","231","844283","0.0-10.0","1841","2","2","""event"",""trial"",""time""
""fullscreenenter"",""1"",""3040""
","
","
","""event"",""trial"",""time""
""fullscreenenter"",""1"",""3040""
","
","","","","","","1120.3000001907349","<p> Now it's time to play another round. </p>","0","","transition_screen","","","","","","","","","","","","","",""
"preload","232","856921","0.0-11.0-0.0","1841","2","2","""event"",""trial"",""time""
""fullscreenenter"",""1"",""3040""
","
","
","""event"",""trial"",""time""
""fullscreenenter"",""1"",""3040""
","
","true","false","[]","[]","[]","","","","","","","","","","","","","","","","","","",""
"learning-instructions","233","874115","0.0-11.0-1.0-0.0","1841","2","2","""event"",""trial"",""time""
""fullscreenenter"",""1"",""3040""
","
","
","""event"",""trial"",""time""
""fullscreenenter"",""1"",""3040""
","
","","","","","","8803.39999961853","<p> Your goal in this round is to travel the world by putting fuel into different vehicles. </p><p> To travel, you will need to put fuel into many different vehicles. </p></div>","","0","instructions","","","","","","","","","","","","","",""
"learning-instructions","234","883398","0.0-11.0-1.0-0.1","1841","2","2","""event"",""trial"",""time""
""fullscreenenter"",""1"",""3040""
","
","
","""event"",""trial"",""time""
""fullscreenenter"",""1"",""3040""
","
","","","","","","497.30000019073486","<p> On each turn, you will see a picture of one of your vehicles and three different types of fuel.  </p><p> You need to select which kind of fuel to use.  </p>","","0","instructions","","","","","","","","","","","","","",""
"learning-instructions","235","891195","0.0-11.0-1.0-0.2","1841","2","2","""event"",""trial"",""time""
""fullscreenenter"",""1"",""3040""
","
","
","""event"",""trial"",""time""
""fullscreenenter"",""1"",""3040""
","
","","","","","","933.7999997138977","<p> You can select the fuel on the left by pressing 1, the fuel in the middle by pressing 2, and the fuel on the right by pressing 3. </p><br><div class=""choice-instructions-grid""> <div class=""choice-option""><img src=""images/vehicles_choice1.png"" class=""choice-option-img"" stage=""instructions"" position=""0"" ><div class=""choice-option-text""> Press ""1."" </div></div><div class=""choice-option""><img src=""images/vehicles_choice2.png"" class=""choice-option-img"" stage=""instructions"" position=""1"" ><div class=""choice-option-text""> Press ""2."" </div></div><div class=""choice-option""><img src=""images/vehicles_choice3.png"" class=""choice-option-img"" stage=""instructions"" position=""2"" ><div class=""choice-option-text""> Press ""3."" </div></div></div>","","0","instructions","","","","","","","","","","","","","",""
