"trial_type","trial_index","time_elapsed","internal_node_id","subject_id","condition","task_version","interactions","blur_events","focus_events","fullscreenenter_events","fullscreenexit_events","success","timeout","failed_images","failed_audio","failed_video","rt","stimulus","response","button_pressed","task_part","left_choice","middle_choice","right_choice","choice_positions","correct_response","correct_position","key_press","option_selected","points","task_block","correct","stim_cat","block_condition","block_number"
"pavlovia","0","3","0.0-0.0","1502","2","2","""event"",""trial"",""time""
""fullscreenenter"",""1"",""2287""
","
","
","""event"",""trial"",""time""
""fullscreenenter"",""1"",""2287""
","
","","","","","","","","","","","","","","","","","","","","","","","",""
"fullscreen","1","3287","0.0-1.0","1502","2","2","""event"",""trial"",""time""
""fullscreenenter"",""1"",""2287""
","
","
","""event"",""trial"",""time""
""fullscreenenter"",""1"",""2287""
","
","true","","","","","","","","","","","","","","","","","","","","","","",""
"preload","2","5745","0.0-2.0","1502","2","2","""event"",""trial"",""time""
""fullscreenenter"",""1"",""2287""
","
","
","""event"",""trial"",""time""
""fullscreenenter"",""1"",""2287""
","
","true","false","[]","[]","[]","","","","","","","","","","","","","","","","","","",""
"audio-keyboard-response","3","8732","0.0-3.0","1502","2","2","""event"",""trial"",""time""
""fullscreenenter"",""1"",""2287""
","
","
","""event"",""trial"",""time""
""fullscreenenter"",""1"",""2287""
","
","","","","","","2978.6666666666665","audio/beep_loop.wav"," ","","","","","","","","","","","","","","","",""
"audio-button-response","4","10345","0.0-4.0","1502","2","2","""event"",""trial"",""time""
""fullscreenenter"",""1"",""2287""
","
","
","""event"",""trial"",""time""
""fullscreenenter"",""1"",""2287""
","
","","","","","","1611","audio/shark.wav","4","","","","","","","","","","","","","","","",""
"audio-button-response","5","12377","0.0-5.0","1502","2","2","""event"",""trial"",""time""
""fullscreenenter"",""1"",""2287""
","
","
","""event"",""trial"",""time""
""fullscreenenter"",""1"",""2287""
","
","","","","","","1019","audio/turtle.wav","1","","","","","","","","","","","","","","","",""
"preload","6","16929","0.0-6.0","1502","2","2","""event"",""trial"",""time""
""fullscreenenter"",""1"",""2287""
","
","
","""event"",""trial"",""time""
""fullscreenenter"",""1"",""2287""
","
","true","false","[]","[]","[]","","","","","","","","","","","","","","","","","","",""
"html-keyboard-response","7","18324","0.0-7.0","1502","2","2","""event"",""trial"",""time""
""fullscreenenter"",""1"",""2287""
","
","
","""event"",""trial"",""time""
""fullscreenenter"",""1"",""2287""
","
","","","","","","1393.7999999999302","Welcome to the experiment. Press any key to begin and to advance the instructions."," ","","","","","","","","","","","","","","","",""
"learning-instructions","8","27644","0.0-8.0-0.0-0.0","1502","2","2","""event"",""trial"",""time""
""fullscreenenter"",""1"",""2287""
","
","
","""event"",""trial"",""time""
""fullscreenenter"",""1"",""2287""
","
","","","","","","1567.4000000000233","<p> Welcome! Today you are going to play 6 different rounds of a decision-making game. </p><p> Use the mouse to click next to continue. </p>","","0","instructions","","","","","","","","","","","","","",""
"learning-instructions","9","32028","0.0-8.0-0.0-0.1","1502","2","2","""event"",""trial"",""time""
""fullscreenenter"",""1"",""2287""
","
","
","""event"",""trial"",""time""
""fullscreenenter"",""1"",""2287""
","
","","","","","","1392","<p> You will start with a practice round to learn the rules. </p>","","0","instructions","","","","","","","","","","","","","",""
"learning-instructions","10","43303","0.0-8.0-0.0-0.2","1502","2","2","""event"",""trial"",""time""
""fullscreenenter"",""1"",""2287""
","
","
","""event"",""trial"",""time""
""fullscreenenter"",""1"",""2287""
","
","","","","","","3526.9000000000233","<p> Your goal in this round is to deliver sports equipment to three different parks. </p><p> You will need to deliver many types of equipment. </p></div>","","0","instructions","","","","","","","","","","","","","",""
"learning-instructions","11","53532","0.0-8.0-0.0-0.3","1502","2","2","""event"",""trial"",""time""
""fullscreenenter"",""1"",""2287""
","
","
","""event"",""trial"",""time""
""fullscreenenter"",""1"",""2287""
","
","","","","","","1733.6999999999534","<p> On each turn, you will see one piece of sports equipment and three different parks.  </p><p> You need to select which park to deliver the equipment to.  </p>","","0","instructions","","","","","","","","","","","","","",""
"learning-instructions","12","70411","0.0-8.0-0.0-0.4","1502","2","2","""event"",""trial"",""time""
""fullscreenenter"",""1"",""2287""
","
","
","""event"",""trial"",""time""
""fullscreenenter"",""1"",""2287""
","
","","","","","","3593.8000000000466","<p> You can select the park on the left by pressing the '1' key on your keyboard. <br>You can select the park in the middle by pressing the '2' key on your keyboard. <br>You can select the park on the right by pressing the '3' key on your keyboard.  </p><br><div class=""choice-instructions-grid""> <div class=""choice-option""><img src=""images/park1.png"" class=""choice-option-img"" stage=""instructions"" position=""0"" ><div class=""choice-option-text""> Press ""1."" </div></div><div class=""choice-option""><img src=""images/park2.png"" class=""choice-option-img"" stage=""instructions"" position=""1"" ><div class=""choice-option-text""> Press ""2."" </div></div><div class=""choice-option""><img src=""images/park3.png"" class=""choice-option-img"" stage=""instructions"" position=""2"" ><div class=""choice-option-text""> Press ""3."" </div></div></div>","","0","instructions","","","","","","","","","","","","","",""
"learning-instructions","13","85756","0.0-8.0-0.0-0.5","1502","2","2","""event"",""trial"",""time""
""fullscreenenter"",""1"",""2287""
","
","
","""event"",""trial"",""time""
""fullscreenenter"",""1"",""2287""
","
","","","","","","9959.5","<p> If the kids in the park you chose like the equipment, they will be very happy! </p><div style='float: center;'><img src='images/check.png' width = '200' height = '200'></img>","","0","instructions","","","","","","","","","","","","","",""
"learning-instructions","14","92241","0.0-8.0-0.0-0.6","1502","2","2","""event"",""trial"",""time""
""fullscreenenter"",""1"",""2287""
","
","
","""event"",""trial"",""time""
""fullscreenenter"",""1"",""2287""
","
","","","","","","884","<p> But, if the kids in the park you chose do not like the equipment, they will be sad. </p><div style='float: center;'><img src='images/x.png' width = '200' height = '200'></img>","","0","instructions","","","","","","","","","","","","","",""
"learning-instructions","15","106104","0.0-8.0-0.0-0.7","1502","2","2","""event"",""trial"",""time""
""fullscreenenter"",""1"",""2287""
","
","
","""event"",""trial"",""time""
""fullscreenenter"",""1"",""2287""
","
","","","","","","7417","<p> Importantly, the kids in each park like some pieces of sports equipment more than others. </p>","","0","instructions","","","","","","","","","","","","","",""
"learning-instructions","16","113063","0.0-8.0-0.0-0.8","1502","2","2","""event"",""trial"",""time""
""fullscreenenter"",""1"",""2287""
","
","
","""event"",""trial"",""time""
""fullscreenenter"",""1"",""2287""
","
","","","","","","916.3000000000466","<p> If you choose the best park for each piece of equipment, the kids there will usually be happy. </p>","","0","instructions","","","","","","","","","","","","","",""
"learning-instructions","17","139115","0.0-8.0-0.0-0.9","1502","2","2","""event"",""trial"",""time""
""fullscreenenter"",""1"",""2287""
","
","
","""event"",""trial"",""time""
""fullscreenenter"",""1"",""2287""
","
","","","","","","19409.100000000093","<p> However, even if you choose the best park for the equipment, the kids may sometimes be sad. </p>","","0","instructions","","","","","","","","","","","","","",""
"learning-instructions","18","148805","0.0-8.0-0.0-0.10","1502","2","2","""event"",""trial"",""time""
""fullscreenenter"",""1"",""2287""
","
","
","""event"",""trial"",""time""
""fullscreenenter"",""1"",""2287""
","
","","","","","","2449.0999999999767","<p> Similarly, even if you choose the <i>wrong</i> park for the equipment, the kids may still be happy sometimes.","","0","instructions","","","","","","","","","","","","","",""
"learning-instructions","19","157624","0.0-8.0-0.0-0.11","1502","2","2","""event"",""trial"",""time""
""fullscreenenter"",""1"",""2287""
","
","
","""event"",""trial"",""time""
""fullscreenenter"",""1"",""2287""
","
","","","","","","3767.0999999999767","<p> For example, the best park for this soccer ball is this one.<div style='float: center;'><img src='images/i1.png' width = '500' height = '268'></img>","","0","instructions","","","","","","","","","","","","","",""
"learning-instructions","20","163645","0.0-8.0-0.0-0.12","1502","2","2","""event"",""trial"",""time""
""fullscreenenter"",""1"",""2287""
","
","
","""event"",""trial"",""time""
""fullscreenenter"",""1"",""2287""
","
","","","","","","718.6000000000931","<p> Let's see what happens if you choose this park for the soccer ball five times.","","0","instructions","","","","","","","","","","","","","",""
"learning-instructions","21","167311","0.0-8.0-0.0-0.13","1502","2","2","""event"",""trial"",""time""
""fullscreenenter"",""1"",""2287""
","
","
","""event"",""trial"",""time""
""fullscreenenter"",""1"",""2287""
","
","","","","","","1494.4000000000233","<p> The kids are happy.<div style='float: left;'><img src='images/i2.png' width = '640' height = '360'></img>","","0","instructions","","","","","","","","","","","","","",""
"learning-instructions","22","170166","0.0-8.0-0.0-0.14","1502","2","2","""event"",""trial"",""time""
""fullscreenenter"",""1"",""2287""
","
","
","""event"",""trial"",""time""
""fullscreenenter"",""1"",""2287""
","
","","","","","","699.1000000000931","<p> The kids are happy.<div style='float: left;'><img src='images/i3.png' width = '640' height = '360'></img>","","0","instructions","","","","","","","","","","","","","",""
"learning-instructions","23","172802","0.0-8.0-0.0-0.15","1502","2","2","""event"",""trial"",""time""
""fullscreenenter"",""1"",""2287""
","
","
","""event"",""trial"",""time""
""fullscreenenter"",""1"",""2287""
","
","","","","","","466.0999999999767","<p> The kids are happy.<div style='float: left;'><img src='images/i4.png' width = '640' height = '360'></img>","","0","instructions","","","","","","","","","","","","","",""
"learning-instructions","24","175766","0.0-8.0-0.0-0.16","1502","2","2","""event"",""trial"",""time""
""fullscreenenter"",""1"",""2287""
","
","
","""event"",""trial"",""time""
""fullscreenenter"",""1"",""2287""
","
","","","","","","770.0999999999767","<p> The kids are sad.<div style='float: left;'><img src='images/i5.png' width = '640' height = '360'></img>","","0","instructions","","","","","","","","","","","","","",""
"learning-instructions","25","180120","0.0-8.0-0.0-0.17","1502","2","2","""event"",""trial"",""time""
""fullscreenenter"",""1"",""2287""
","
","
","""event"",""trial"",""time""
""fullscreenenter"",""1"",""2287""
","
","","","","","","2184.1999999999534","<p> The kids are happy.<div style='float: left;'><img src='images/i6.png' width = '640' height = '360'></img>","","0","instructions","","","","","","","","","","","","","",""
"learning-instructions","26","192982","0.0-8.0-0.0-0.18","1502","2","2","""event"",""trial"",""time""
""fullscreenenter"",""1"",""2287""
","
","
","""event"",""trial"",""time""
""fullscreenenter"",""1"",""2287""
","
","","","","","","5585.300000000047","<p> As you can see, selecting that park for the soccer ball made the kids happy most of the time, but not all the time.","","0","instructions","","","","","","","","","","","","","",""
"learning-instructions","27","203854","0.0-8.0-0.0-0.19","1502","2","2","""event"",""trial"",""time""
""fullscreenenter"",""1"",""2287""
","
","
","""event"",""trial"",""time""
""fullscreenenter"",""1"",""2287""
","
","","","","","","4878","<p> Now let's see what happens if you choose a DIFFERENT park for the soccer ball 5 times.","","0","instructions","","","","","","","","","","","","","",""
"learning-instructions","28","206501","0.0-8.0-0.0-0.20","1502","2","2","""event"",""trial"",""time""
""fullscreenenter"",""1"",""2287""
","
","
","""event"",""trial"",""time""
""fullscreenenter"",""1"",""2287""
","
","","","","","","434.20000000006985","<p> The kids are sad.<div style='float: left;'><img src='images/i7.png' width = '640' height = '360'></img>","","0","instructions","","","","","","","","","","","","","",""
"learning-instructions","29","209326","0.0-8.0-0.0-0.21","1502","2","2","""event"",""trial"",""time""
""fullscreenenter"",""1"",""2287""
","
","
","""event"",""trial"",""time""
""fullscreenenter"",""1"",""2287""
","
","","","","","","619.3000000000466","<p> The kids are sad.<div style='float: left;'><img src='images/i8.png' width = '640' height = '360'></img>","","0","instructions","","","","","","","","","","","","","",""
"learning-instructions","30","213052","0.0-8.0-0.0-0.22","1502","2","2","""event"",""trial"",""time""
""fullscreenenter"",""1"",""2287""
","
","
","""event"",""trial"",""time""
""fullscreenenter"",""1"",""2287""
","
","","","","","","1555.9000000000233","<p> The kids are happy.<div style='float: left;'><img src='images/i9.png' width = '640' height = '360'></img>","","0","instructions","","","","","","","","","","","","","",""
"learning-instructions","31","217730","0.0-8.0-0.0-0.23","1502","2","2","""event"",""trial"",""time""
""fullscreenenter"",""1"",""2287""
","
","
","""event"",""trial"",""time""
""fullscreenenter"",""1"",""2287""
","
","","","","","","2463.3000000000466","<p> The kids are sad.<div style='float: left;'><img src='images/i10.png' width = '640' height = '360'></img>","","0","instructions","","","","","","","","","","","","","",""
"learning-instructions","32","221182","0.0-8.0-0.0-0.24","1502","2","2","""event"",""trial"",""time""
""fullscreenenter"",""1"",""2287""
","
","
","""event"",""trial"",""time""
""fullscreenenter"",""1"",""2287""
","
","","","","","","1245.8999999999069","<p> The kids are sad.<div style='float: left;'><img src='images/i11.png' width = '640' height = '360'></img>","","0","instructions","","","","","","","","","","","","","",""
"learning-instructions","33","229715","0.0-8.0-0.0-0.25","1502","2","2","""event"",""trial"",""time""
""fullscreenenter"",""1"",""2287""
","
","
","""event"",""trial"",""time""
""fullscreenenter"",""1"",""2287""
","
","","","","","","409.30000000004657","<p> As you can see, selecting the wrong park for the soccer ball made the kids sad most of the time, but not all the time.","","0","instructions","","","","","","","","","","","","","",""
"learning-instructions","34","240270","0.0-8.0-0.0-0.26","1502","2","2","""event"",""trial"",""time""
""fullscreenenter"",""1"",""2287""
","
","
","""event"",""trial"",""time""
""fullscreenenter"",""1"",""2287""
","
","","","","","","1443.6999999999534","<p> The different pieces of equipment belong in different parks. You need to try to learn which is the best park for each piece of equipment.","","0","instructions","","","","","","","","","","","","","",""
"learning-instructions","35","257072","0.0-8.0-0.0-0.27","1502","2","2","""event"",""trial"",""time""
""fullscreenenter"",""1"",""2287""
","
","
","""event"",""trial"",""time""
""fullscreenenter"",""1"",""2287""
","
","","","","","","416","<p> Try to choose the best park for each piece of equipment, because you will <b> WIN </b> 1 point for each time you make the kids happy and <b>LOSE</b> 1 point for each time you make them sad. </p><p> Remember, if you make the best choice, you will win 1 point most of the time, but not all the time. </p>","","0","instructions","","","","","","","","","","","","","",""
"learning-instructions","36","263936","0.0-8.0-0.0-0.28","1502","2","2","""event"",""trial"",""time""
""fullscreenenter"",""1"",""2287""
","
","
","""event"",""trial"",""time""
""fullscreenenter"",""1"",""2287""
","
","","","","","","1379.9000000000233","<p> This is just a practice round, but in the real game, your bonus payment will depend on your total number of points.","","0","instructions","","","","","","","","","","","","","",""
"learning-instructions","37","275536","0.0-8.0-0.0-0.29","1502","2","2","""event"",""trial"",""time""
""fullscreenenter"",""1"",""2287""
","
","
","""event"",""trial"",""time""
""fullscreenenter"",""1"",""2287""
","
","","","","","","1279.1000000000931","<p> The position where each park appears will change throughout the game. </p><p> The position where the park appears <i> does not </i> influence how likely the kids are to be happy or sad. </p>","","0","instructions","","","","","","","","","","","","","",""
"learning-instructions","38","286826","0.0-8.0-0.0-0.30","1502","2","2","""event"",""trial"",""time""
""fullscreenenter"",""1"",""2287""
","
","
","""event"",""trial"",""time""
""fullscreenenter"",""1"",""2287""
","
","","","","","","749.4000000000233","<p> You will have 4 seconds to make each choice. Try to respond before time runs out! </p><p> You will lose 1 point each time you do not make a response. </p>","","0","instructions","","","","","","","","","","","","","",""
"learning-instructions","39","294597","0.0-8.0-0.0-0.31","1502","2","2","""event"",""trial"",""time""
""fullscreenenter"",""1"",""2287""
","
","
","""event"",""trial"",""time""
""fullscreenenter"",""1"",""2287""
","
","","","","","","980.3000000000466","<p> Remember, you should use the 1, 2, and 3 keys to select the park for each piece of equipment. </p><br><div class=""choice-instructions-grid""> <div class=""choice-option""><img src=""images/park1.png"" class=""choice-option-img"" stage=""instructions"" position=""0"" ><div class=""choice-option-text""> Press ""1."" </div></div><div class=""choice-option""><img src=""images/park2.png"" class=""choice-option-img"" stage=""instructions"" position=""1"" ><div class=""choice-option-text""> Press ""2."" </div></div><div class=""choice-option""><img src=""images/park3.png"" class=""choice-option-img"" stage=""instructions"" position=""2"" ><div class=""choice-option-text""> Press ""3."" </div></div></div>","","0","instructions","","","","","","","","","","","","","",""
"html-button-response","40","295670","0.0-8.0-1.0","1502","2","2","""event"",""trial"",""time""
""fullscreenenter"",""1"",""2287""
","
","
","""event"",""trial"",""time""
""fullscreenenter"",""1"",""2287""
","
","","","","","","959.1999999999534","<p> Ready to practice? </p>","0","","","","","","","","","","","","","","","",""
"html-keyboard-response","41","296272","0.0-8.0-2.0-0.0","1502","2","2","""event"",""trial"",""time""
""fullscreenenter"",""1"",""2287""
","
","
","""event"",""trial"",""time""
""fullscreenenter"",""1"",""2287""
","
","","","","","","null","<div style=""font-size:60px;"">+</div>","null","","fixation","","","","","","","","","","","","","",""
"learning-trial","42","300274","0.0-8.0-2.0-1.0","1502","2","2","""event"",""trial"",""time""
""fullscreenenter"",""1"",""2287""
","
","
","""event"",""trial"",""time""
""fullscreenenter"",""1"",""2287""
","
","","","","","","3447.5999999999767","images/racket3.png","","","practice","images/park2.png","images/park1.png","images/park3.png","[1,0,2]","1","0","1","images/park2.png","1","practice","","","",""
"html-keyboard-response","43","300788","0.0-8.0-2.0-0.1","1502","2","2","""event"",""trial"",""time""
""fullscreenenter"",""1"",""2287""
","
","
","""event"",""trial"",""time""
""fullscreenenter"",""1"",""2287""
","
","","","","","","null","<div style=""font-size:60px;"">+</div>","null","","fixation","","","","","","","","","","","","","",""
"learning-trial","44","304790","0.0-8.0-2.0-1.1","1502","2","2","""event"",""trial"",""time""
""fullscreenenter"",""1"",""2287""
","
","
","""event"",""trial"",""time""
""fullscreenenter"",""1"",""2287""
","
","","","","","","925.7000000000698","images/ball4.png","","","practice","images/park2.png","images/park1.png","images/park3.png","[1,0,2]","0","1","2","images/park1.png","-1","practice","","","",""
"html-keyboard-response","45","305291","0.0-8.0-2.0-0.2","1502","2","2","""event"",""trial"",""time""
""fullscreenenter"",""1"",""2287""
","
","
","""event"",""trial"",""time""
""fullscreenenter"",""1"",""2287""
","
","","","","","","null","<div style=""font-size:60px;"">+</div>","null","","fixation","","","","","","","","","","","","","",""
"learning-trial","46","309293","0.0-8.0-2.0-1.2","1502","2","2","""event"",""trial"",""time""
""fullscreenenter"",""1"",""2287""
","
","
","""event"",""trial"",""time""
""fullscreenenter"",""1"",""2287""
","
","","","","","","2859.899999999907","images/ball1.png","","","practice","images/park1.png","images/park3.png","images/park2.png","[0,2,1]","1","2","2","images/park3.png","-1","practice","","","",""
"html-keyboard-response","47","309805","0.0-8.0-2.0-0.3","1502","2","2","""event"",""trial"",""time""
""fullscreenenter"",""1"",""2287""
","
","
","""event"",""trial"",""time""
""fullscreenenter"",""1"",""2287""
","
","","","","","","null","<div style=""font-size:60px;"">+</div>","null","","fixation","","","","","","","","","","","","","",""
"learning-trial","48","313814","0.0-8.0-2.0-1.3","1502","2","2","""event"",""trial"",""time""
""fullscreenenter"",""1"",""2287""
","
","
","""event"",""trial"",""time""
""fullscreenenter"",""1"",""2287""
","
","","","","","","2128.6999999999534","images/racket3.png","","","practice","images/park3.png","images/park2.png","images/park1.png","[2,1,0]","1","1","1","images/park3.png","-1","practice","","","",""
"html-keyboard-response","49","314327","0.0-8.0-2.0-0.4","1502","2","2","""event"",""trial"",""time""
""fullscreenenter"",""1"",""2287""
","
","
","""event"",""trial"",""time""
""fullscreenenter"",""1"",""2287""
","
","","","","","","null","<div style=""font-size:60px;"">+</div>","null","","fixation","","","","","","","","","","","","","",""
"learning-trial","50","318331","0.0-8.0-2.0-1.4","1502","2","2","""event"",""trial"",""time""
""fullscreenenter"",""1"",""2287""
","
","
","""event"",""trial"",""time""
""fullscreenenter"",""1"",""2287""
","
","","","","","","3924.3000000000466","images/racket1.png","","","practice","images/park1.png","images/park3.png","images/park2.png","[0,2,1]","2","1","1","images/park1.png","-1","practice","","","",""
"html-keyboard-response","51","318840","0.0-8.0-2.0-0.5","1502","2","2","""event"",""trial"",""time""
""fullscreenenter"",""1"",""2287""
","
","
","""event"",""trial"",""time""
""fullscreenenter"",""1"",""2287""
","
","","","","","","null","<div style=""font-size:60px;"">+</div>","null","","fixation","","","","","","","","","","","","","",""
"learning-trial","52","322855","0.0-8.0-2.0-1.5","1502","2","2","""event"",""trial"",""time""
""fullscreenenter"",""1"",""2287""
","
","
","""event"",""trial"",""time""
""fullscreenenter"",""1"",""2287""
","
","","","","","","2198.0999999999767","images/racket2.png","","","practice","images/park2.png","images/park1.png","images/park3.png","[1,0,2]","0","1","2","images/park1.png","1","practice","","","",""
"html-keyboard-response","53","323356","0.0-8.0-2.0-0.6","1502","2","2","""event"",""trial"",""time""
""fullscreenenter"",""1"",""2287""
","
","
","""event"",""trial"",""time""
""fullscreenenter"",""1"",""2287""
","
","","","","","","null","<div style=""font-size:60px;"">+</div>","null","","fixation","","","","","","","","","","","","","",""
"learning-trial","54","327362","0.0-8.0-2.0-1.6","1502","2","2","""event"",""trial"",""time""
""fullscreenenter"",""1"",""2287""
","
","
","""event"",""trial"",""time""
""fullscreenenter"",""1"",""2287""
","
","","","","","","2891.5","images/ball1.png","","","practice","images/park2.png","images/park1.png","images/park3.png","[1,0,2]","1","0","1","images/park2.png","1","practice","","","",""
"html-keyboard-response","55","327864","0.0-8.0-2.0-0.7","1502","2","2","""event"",""trial"",""time""
""fullscreenenter"",""1"",""2287""
","
","
","""event"",""trial"",""time""
""fullscreenenter"",""1"",""2287""
","
","","","","","","null","<div style=""font-size:60px;"">+</div>","null","","fixation","","","","","","","","","","","","","",""
"learning-trial","56","331867","0.0-8.0-2.0-1.7","1502","2","2","""event"",""trial"",""time""
""fullscreenenter"",""1"",""2287""
","
","
","""event"",""trial"",""time""
""fullscreenenter"",""1"",""2287""
","
","","","","","","2501.4000000000233","images/racket2.png","","","practice","images/park1.png","images/park3.png","images/park2.png","[0,2,1]","0","0","1","images/park1.png","1","practice","","","",""
"html-keyboard-response","57","332369","0.0-8.0-2.0-0.8","1502","2","2","""event"",""trial"",""time""
""fullscreenenter"",""1"",""2287""
","
","
","""event"",""trial"",""time""
""fullscreenenter"",""1"",""2287""
","
","","","","","","null","<div style=""font-size:60px;"">+</div>","null","","fixation","","","","","","","","","","","","","",""
"learning-trial","58","336373","0.0-8.0-2.0-1.8","1502","2","2","""event"",""trial"",""time""
""fullscreenenter"",""1"",""2287""
","
","
","""event"",""trial"",""time""
""fullscreenenter"",""1"",""2287""
","
","","","","","","1308.0999999999767","images/ball4.png","","","practice","images/park1.png","images/park2.png","images/park3.png","[0,1,2]","0","0","1","images/park1.png","1","practice","","","",""
"html-keyboard-response","59","336874","0.0-8.0-2.0-0.9","1502","2","2","""event"",""trial"",""time""
""fullscreenenter"",""1"",""2287""
","
","
","""event"",""trial"",""time""
""fullscreenenter"",""1"",""2287""
","
","","","","","","null","<div style=""font-size:60px;"">+</div>","null","","fixation","","","","","","","","","","","","","",""
"learning-trial","60","340876","0.0-8.0-2.0-1.9","1502","2","2","""event"",""trial"",""time""
""fullscreenenter"",""1"",""2287""
","
","
","""event"",""trial"",""time""
""fullscreenenter"",""1"",""2287""
","
","","","","","","2780.6999999999534","images/ball3.png","","","practice","images/park1.png","images/park3.png","images/park2.png","[0,2,1]","2","1","1","images/park1.png","1","practice","","","",""
"html-keyboard-response","61","341377","0.0-8.0-2.0-0.10","1502","2","2","""event"",""trial"",""time""
""fullscreenenter"",""1"",""2287""
","
","
","""event"",""trial"",""time""
""fullscreenenter"",""1"",""2287""
","
","","","","","","null","<div style=""font-size:60px;"">+</div>","null","","fixation","","","","","","","","","","","","","",""
"learning-trial","62","345381","0.0-8.0-2.0-1.10","1502","2","2","""event"",""trial"",""time""
""fullscreenenter"",""1"",""2287""
","
","
","""event"",""trial"",""time""
""fullscreenenter"",""1"",""2287""
","
","","","","","","2208.5999999999767","images/racket1.png","","","practice","images/park2.png","images/park3.png","images/park1.png","[1,2,0]","2","1","3","images/park1.png","-1","practice","","","",""
"html-keyboard-response","63","345883","0.0-8.0-2.0-0.11","1502","2","2","""event"",""trial"",""time""
""fullscreenenter"",""1"",""2287""
","
","
","""event"",""trial"",""time""
""fullscreenenter"",""1"",""2287""
","
","","","","","","null","<div style=""font-size:60px;"">+</div>","null","","fixation","","","","","","","","","","","","","",""
"learning-trial","64","349886","0.0-8.0-2.0-1.11","1502","2","2","""event"",""trial"",""time""
""fullscreenenter"",""1"",""2287""
","
","
","""event"",""trial"",""time""
""fullscreenenter"",""1"",""2287""
","
","","","","","","1093.6999999999534","images/ball3.png","","","practice","images/park2.png","images/park3.png","images/park1.png","[1,2,0]","2","1","3","images/park1.png","-1","practice","","","",""
"html-button-response","65","351133","0.0-8.0-3.0","1502","2","2","""event"",""trial"",""time""
""fullscreenenter"",""1"",""2287""
","
","
","""event"",""trial"",""time""
""fullscreenenter"",""1"",""2287""
","
","","","","","","1246.1000000000931","<p> You earned 0 points in the practice round! </p>","0","","break","","","","","","","","","","","","","",""
"learning-instructions","66","359871","0.0-8.0-4.0-0.0","1502","2","2","""event"",""trial"",""time""
""fullscreenenter"",""1"",""2287""
","
","
","""event"",""trial"",""time""
""fullscreenenter"",""1"",""2287""
","
","","","","","","1040.5999999998603","<p> It's almost time to start the real game. </p><p> Before you start, we're going to ask you a few questions about how the game works. </p>","","0","instructions","","","","","","","","","","","","","",""
"preload","67","361176","0.0-8.0-5.0","1502","2","2","""event"",""trial"",""time""
""fullscreenenter"",""1"",""2287""
","
","
","""event"",""trial"",""time""
""fullscreenenter"",""1"",""2287""
","
","true","false","[]","[]","[]","","","","","","","","","","","","","","","","","","",""
"comp-q","68","367528","0.0-8.0-6.0-0.0","1502","2","2","""event"",""trial"",""time""
""fullscreenenter"",""1"",""2287""
","
","
","""event"",""trial"",""time""
""fullscreenenter"",""1"",""2287""
","
","","","","","","906.6000000000931","<p> <b> True or False? </b> </p><p> If you choose the best option, you will always earn 1 point. </p>","","1","comp_question","","","","","","","","","","","true","","",""
"comp-q","69","374028","0.0-8.0-6.0-1.0","1502","2","2","""event"",""trial"",""time""
""fullscreenenter"",""1"",""2287""
","
","
","""event"",""trial"",""time""
""fullscreenenter"",""1"",""2287""
","
","","","","","","836.9000000001397","<p><b> That's right! </b> Sometimes you will lose 1 point, even if you choose the best option. </p>","","0","comp_answer","","","","","","","","","","","","","",""
"comp-q","70","379251","0.0-8.0-6.0-0.1","1502","2","2","""event"",""trial"",""time""
""fullscreenenter"",""1"",""2287""
","
","
","""event"",""trial"",""time""
""fullscreenenter"",""1"",""2287""
","
","","","","","","580.6000000000931","<p> <b> True or False? </b> </p><p> You will have as much time as you want to make each choice. </p>","","1","comp_question","","","","","","","","","","","true","","",""
"comp-q","71","385720","0.0-8.0-6.0-1.1","1502","2","2","""event"",""trial"",""time""
""fullscreenenter"",""1"",""2287""
","
","
","""event"",""trial"",""time""
""fullscreenenter"",""1"",""2287""
","
","","","","","","1660","<p> <b> That's right! </b> You will only have 4 seconds to make each choice. </p>","","0","comp_answer","","","","","","","","","","","","","",""
"comp-q","72","392611","0.0-8.0-6.0-0.2","1502","2","2","""event"",""trial"",""time""
""fullscreenenter"",""1"",""2287""
","
","
","""event"",""trial"",""time""
""fullscreenenter"",""1"",""2287""
","
","","","","","","741.1999999999534","<p> <b> True or False? </b> </p><p> You should use the '1', '2', and '3' keys to make your choices. </p>","","0","comp_question","","","","","","","","","","","true","","",""
"comp-q","73","399420","0.0-8.0-6.0-1.2","1502","2","2","""event"",""trial"",""time""
""fullscreenenter"",""1"",""2287""
","
","
","""event"",""trial"",""time""
""fullscreenenter"",""1"",""2287""
","
","","","","","","1970.2999999998137","<p> <b> That's right! </b> You should use the '1', '2', and '3' keys to make each choice. </p>","","0","comp_answer","","","","","","","","","","","","","",""
"learning-instructions","74","409675","0.0-8.0-7.0-0.0","1502","2","2","""event"",""trial"",""time""
""fullscreenenter"",""1"",""2287""
","
","
","""event"",""trial"",""time""
""fullscreenenter"",""1"",""2287""
","
","","","","","","1755.4000000001397","<p> It's now time to start the real game. </p>Do your best, because the points you earn in the next rounds will influence your bonus payment. </p>","","0","instructions","","","","","","","","","","","","","",""
"preload","75","411095","0.0-9.0-0.0","1502","2","2","""event"",""trial"",""time""
""fullscreenenter"",""1"",""2287""
","
","
","""event"",""trial"",""time""
""fullscreenenter"",""1"",""2287""
","
","true","false","[]","[]","[]","","","","","","","","","","","","","","","","","","",""
"learning-instructions","76","418879","0.0-9.0-1.0-0.0","1502","2","2","""event"",""trial"",""time""
""fullscreenenter"",""1"",""2287""
","
","
","""event"",""trial"",""time""
""fullscreenenter"",""1"",""2287""
","
","","","","","","1329.3000000000466","<p> Your goal in this round is to feed all of your pets with the foods they like. </p><p> You will need to feed many pets. </p></div>","","0","instructions","","","","","","","","","","","","","",""
"learning-instructions","77","429186","0.0-9.0-1.0-0.1","1502","2","2","""event"",""trial"",""time""
""fullscreenenter"",""1"",""2287""
","
","
","""event"",""trial"",""time""
""fullscreenenter"",""1"",""2287""
","
","","","","","","2316.1999999999534","<p> On each turn, you will see a picture of one of your pets and three different types of foods.  </p><p> You need to select the food that you want to give to your pet.  </p>","","0","instructions","","","","","","","","","","","","","",""
"learning-instructions","78","436621","0.0-9.0-1.0-0.2","1502","2","2","""event"",""trial"",""time""
""fullscreenenter"",""1"",""2287""
","
","
","""event"",""trial"",""time""
""fullscreenenter"",""1"",""2287""
","
","","","","","","740.6000000000931","<p> You can select the food on the left by pressing 1, the food in the middle by pressing 2, and the food on the right by pressing 3. </p><br><div class=""choice-instructions-grid""> <div class=""choice-option""><img src=""images/pets_choice1.png"" class=""choice-option-img"" stage=""instructions"" position=""0"" ><div class=""choice-option-text""> Press ""1."" </div></div><div class=""choice-option""><img src=""images/pets_choice2.png"" class=""choice-option-img"" stage=""instructions"" position=""1"" ><div class=""choice-option-text""> Press ""2."" </div></div><div class=""choice-option""><img src=""images/pets_choice3.png"" class=""choice-option-img"" stage=""instructions"" position=""2"" ><div class=""choice-option-text""> Press ""3."" </div></div></div>","","0","instructions","","","","","","","","","","","","","",""
"learning-instructions","79","441139","0.0-9.0-1.0-0.3","1502","2","2","""event"",""trial"",""time""
""fullscreenenter"",""1"",""2287""
","
","
","""event"",""trial"",""time""
""fullscreenenter"",""1"",""2287""
","
","","","","","","488.5999999998603","<p> If your pet likes the food you chose, it will be very happy! </p><div style='float: center;'><img src='images/check.png' width = '200' height = '200'></img>","","0","instructions","","","","","","","","","","","","","",""
"learning-instructions","80","446042","0.0-9.0-1.0-0.4","1502","2","2","""event"",""trial"",""time""
""fullscreenenter"",""1"",""2287""
","
","
","""event"",""trial"",""time""
""fullscreenenter"",""1"",""2287""
","
","","","","","","481.5","<p> But, if your pet does not like the food you chose, it will feel sick. </p><div style='float: center;'><img src='images/x.png' width = '200' height = '200'></img>","","0","instructions","","","","","","","","","","","","","",""
"learning-instructions","81","454266","0.0-9.0-1.0-0.5","1502","2","2","""event"",""trial"",""time""
""fullscreenenter"",""1"",""2287""
","
","
","""event"",""trial"",""time""
""fullscreenenter"",""1"",""2287""
","
","","","","","","576.1999999999534","<p> Importantly, each pet has a food that it prefers. </p><p> If you choose the food that the pet prefers, it will be more likely to be happy! </p>","","0","instructions","","","","","","","","","","","","","",""
"learning-instructions","82","465330","0.0-9.0-1.0-0.6","1502","2","2","""event"",""trial"",""time""
""fullscreenenter"",""1"",""2287""
","
","
","""event"",""trial"",""time""
""fullscreenenter"",""1"",""2287""
","
","","","","","","1439.9000000001397","<p> However, even if you choose the food the pet prefers, it may still feel sick sometimes. </p><p> Similarly, even if you choose the <i>wrong</i> food, it may still feel happy.","","0","instructions","","","","","","","","","","","","","",""
"learning-instructions","83","480242","0.0-9.0-1.0-0.7","1502","2","2","""event"",""trial"",""time""
""fullscreenenter"",""1"",""2287""
","
","
","""event"",""trial"",""time""
""fullscreenenter"",""1"",""2287""
","
","","","","","","2112","<p> Try to choose the food each pet prefers, because you will <b> WIN </b> 1 point each time the pet is happy and <b>LOSE</b>  1 point each time the pet feels sick. </p><p> Your bonus payment will depend on your total number of points.","","0","instructions","","","","","","","","","","","","","",""
"learning-instructions","84","490220","0.0-9.0-1.0-0.8","1502","2","2","""event"",""trial"",""time""
""fullscreenenter"",""1"",""2287""
","
","
","""event"",""trial"",""time""
""fullscreenenter"",""1"",""2287""
","
","","","","","","1360.1999999999534","<p> The position of each food will change throughout the round. </p><p> The food's position <i> does not </i> influence how likely the pet is to feel happy or sick. </p>","","0","instructions","","","","","","","","","","","","","",""
"learning-instructions","85","500037","0.0-9.0-1.0-0.9","1502","2","2","""event"",""trial"",""time""
""fullscreenenter"",""1"",""2287""
","
","
","""event"",""trial"",""time""
""fullscreenenter"",""1"",""2287""
","
","","","","","","527.0999999998603","<p> You will have 4 seconds to make each choice. Try to respond before time runs out! </p><p> You will lose 1 point each time you do not make a response. </p>","","0","instructions","","","","","","","","","","","","","",""
"html-keyboard-response","86","500650","0.0-9.0-2.0-0.0","1502","2","2","""event"",""trial"",""time""
""fullscreenenter"",""1"",""2287""
","
","
","""event"",""trial"",""time""
""fullscreenenter"",""1"",""2287""
","
","","","","","","null","<div style=""font-size:60px;"">+</div>","null","","fixation","","","","","","","","","","","","","",""
"learning-trial","87","504664","0.0-9.0-2.0-1.0","1502","2","2","""event"",""trial"",""time""
""fullscreenenter"",""1"",""2287""
","
","
","""event"",""trial"",""time""
""fullscreenenter"",""1"",""2287""
","
","","","","","","1336.0999999998603","images/feline1.png","","","learning","images/pets_choice3.png","images/pets_choice1.png","images/pets_choice2.png","[2,0,1]","2","0","1","images/pets_choice3.png","1","pets","","feline","2","0"
"html-keyboard-response","88","505177","0.0-9.0-2.0-0.1","1502","2","2","""event"",""trial"",""time""
""fullscreenenter"",""1"",""2287""
","
","
","""event"",""trial"",""time""
""fullscreenenter"",""1"",""2287""
","
","","","","","","null","<div style=""font-size:60px;"">+</div>","null","","fixation","","","","","","","","","","","","","",""
"learning-trial","89","509192","0.0-9.0-2.0-1.1","1502","2","2","""event"",""trial"",""time""
""fullscreenenter"",""1"",""2287""
","
","
","""event"",""trial"",""time""
""fullscreenenter"",""1"",""2287""
","
","","","","","","1030.3000000000466","images/rabbit4.png","","","learning","images/pets_choice1.png","images/pets_choice2.png","images/pets_choice3.png","[0,1,2]","1","1","3","images/pets_choice3.png","-1","pets","","rabbit","2","0"
"html-keyboard-response","90","509693","0.0-9.0-2.0-0.2","1502","2","2","""event"",""trial"",""time""
""fullscreenenter"",""1"",""2287""
","
","
","""event"",""trial"",""time""
""fullscreenenter"",""1"",""2287""
","
","","","","","","null","<div style=""font-size:60px;"">+</div>","null","","fixation","","","","","","","","","","","","","",""
"learning-trial","91","513701","0.0-9.0-2.0-1.2","1502","2","2","""event"",""trial"",""time""
""fullscreenenter"",""1"",""2287""
","
","
","""event"",""trial"",""time""
""fullscreenenter"",""1"",""2287""
","
","","","","","","824.3000000000466","images/rabbit3.png","","","learning","images/pets_choice1.png","images/pets_choice2.png","images/pets_choice3.png","[0,1,2]","0","0","3","images/pets_choice3.png","-1","pets","","rabbit","2","0"
"html-keyboard-response","92","514214","0.0-9.0-2.0-0.3","1502","2","2","""event"",""trial"",""time""
""fullscreenenter"",""1"",""2287""
","
","
","""event"",""trial"",""time""
""fullscreenenter"",""1"",""2287""
","
","","","","","","null","<div style=""font-size:60px;"">+</div>","null","","fixation","","","","","","","","","","","","","",""
"learning-trial","93","518228","0.0-9.0-2.0-1.3","1502","2","2","""event"",""trial"",""time""
""fullscreenenter"",""1"",""2287""
","
","
","""event"",""trial"",""time""
""fullscreenenter"",""1"",""2287""
","
","","","","","","2647.399999999907","images/rabbit4.png","","","learning","images/pets_choice2.png","images/pets_choice1.png","images/pets_choice3.png","[1,0,2]","1","0","2","images/pets_choice1.png","-1","pets","","rabbit","2","0"
"html-keyboard-response","94","518741","0.0-9.0-2.0-0.4","1502","2","2","""event"",""trial"",""time""
""fullscreenenter"",""1"",""2287""
","
","
","""event"",""trial"",""time""
""fullscreenenter"",""1"",""2287""
","
","","","","","","null","<div style=""font-size:60px;"">+</div>","null","","fixation","","","","","","","","","","","","","",""
"learning-trial","95","522748","0.0-9.0-2.0-1.4","1502","2","2","""event"",""trial"",""time""
""fullscreenenter"",""1"",""2287""
","
","
","""event"",""trial"",""time""
""fullscreenenter"",""1"",""2287""
","
","","","","","","3024.1999999999534","images/dog5.png","","","learning","images/pets_choice1.png","images/pets_choice2.png","images/pets_choice3.png","[0,1,2]","0","0","3","images/pets_choice3.png","-1","pets","","dog","2","0"
"html-keyboard-response","96","523259","0.0-9.0-2.0-0.5","1502","2","2","""event"",""trial"",""time""
""fullscreenenter"",""1"",""2287""
","
","
","""event"",""trial"",""time""
""fullscreenenter"",""1"",""2287""
","
","","","","","","null","<div style=""font-size:60px;"">+</div>","null","","fixation","","","","","","","","","","","","","",""
"learning-trial","97","527263","0.0-9.0-2.0-1.5","1502","2","2","""event"",""trial"",""time""
""fullscreenenter"",""1"",""2287""
","
","
","""event"",""trial"",""time""
""fullscreenenter"",""1"",""2287""
","
","","","","","","885","images/feline1.png","","","learning","images/pets_choice1.png","images/pets_choice2.png","images/pets_choice3.png","[0,1,2]","2","2","3","images/pets_choice3.png","1","pets","","feline","2","0"
"html-keyboard-response","98","527764","0.0-9.0-2.0-0.6","1502","2","2","""event"",""trial"",""time""
""fullscreenenter"",""1"",""2287""
","
","
","""event"",""trial"",""time""
""fullscreenenter"",""1"",""2287""
","
","","","","","","null","<div style=""font-size:60px;"">+</div>","null","","fixation","","","","","","","","","","","","","",""
"learning-trial","99","531767","0.0-9.0-2.0-1.6","1502","2","2","""event"",""trial"",""time""
""fullscreenenter"",""1"",""2287""
","
","
","""event"",""trial"",""time""
""fullscreenenter"",""1"",""2287""
","
","","","","","","966.9000000001397","images/feline3.png","","","learning","images/pets_choice1.png","images/pets_choice2.png","images/pets_choice3.png","[0,1,2]","1","1","3","images/pets_choice3.png","-1","pets","","feline","2","0"
"html-keyboard-response","100","532269","0.0-9.0-2.0-0.7","1502","2","2","""event"",""trial"",""time""
""fullscreenenter"",""1"",""2287""
","
","
","""event"",""trial"",""time""
""fullscreenenter"",""1"",""2287""
","
","","","","","","null","<div style=""font-size:60px;"">+</div>","null","","fixation","","","","","","","","","","","","","",""
"learning-trial","101","536272","0.0-9.0-2.0-1.7","1502","2","2","""event"",""trial"",""time""
""fullscreenenter"",""1"",""2287""
","
","
","""event"",""trial"",""time""
""fullscreenenter"",""1"",""2287""
","
","","","","","","1125","images/feline1.png","","","learning","images/pets_choice3.png","images/pets_choice2.png","images/pets_choice1.png","[2,1,0]","2","0","1","images/pets_choice3.png","1","pets","","feline","2","0"
"html-keyboard-response","102","536773","0.0-9.0-2.0-0.8","1502","2","2","""event"",""trial"",""time""
""fullscreenenter"",""1"",""2287""
","
","
","""event"",""trial"",""time""
""fullscreenenter"",""1"",""2287""
","
","","","","","","null","<div style=""font-size:60px;"">+</div>","null","","fixation","","","","","","","","","","","","","",""
"learning-trial","103","540776","0.0-9.0-2.0-1.8","1502","2","2","""event"",""trial"",""time""
""fullscreenenter"",""1"",""2287""
","
","
","""event"",""trial"",""time""
""fullscreenenter"",""1"",""2287""
","
","","","","","","1940","images/dog4.png","","","learning","images/pets_choice2.png","images/pets_choice1.png","images/pets_choice3.png","[1,0,2]","1","0","1","images/pets_choice2.png","1","pets","","dog","2","0"
"html-keyboard-response","104","541278","0.0-9.0-2.0-0.9","1502","2","2","""event"",""trial"",""time""
""fullscreenenter"",""1"",""2287""
","
","
","""event"",""trial"",""time""
""fullscreenenter"",""1"",""2287""
","
","","","","","","null","<div style=""font-size:60px;"">+</div>","null","","fixation","","","","","","","","","","","","","",""
"learning-trial","105","545280","0.0-9.0-2.0-1.9","1502","2","2","""event"",""trial"",""time""
""fullscreenenter"",""1"",""2287""
","
","
","""event"",""trial"",""time""
""fullscreenenter"",""1"",""2287""
","
","","","","","","794.1999999999534","images/dog5.png","","","learning","images/pets_choice2.png","images/pets_choice1.png","images/pets_choice3.png","[1,0,2]","0","1","1","images/pets_choice2.png","1","pets","","dog","2","0"
"html-keyboard-response","106","545781","0.0-9.0-2.0-0.10","1502","2","2","""event"",""trial"",""time""
""fullscreenenter"",""1"",""2287""
","
","
","""event"",""trial"",""time""
""fullscreenenter"",""1"",""2287""
","
","","","","","","null","<div style=""font-size:60px;"">+</div>","null","","fixation","","","","","","","","","","","","","",""
"learning-trial","107","549783","0.0-9.0-2.0-1.10","1502","2","2","""event"",""trial"",""time""
""fullscreenenter"",""1"",""2287""
","
","
","""event"",""trial"",""time""
""fullscreenenter"",""1"",""2287""
","
","","","","","","1661.9000000001397","images/dog4.png","","","learning","images/pets_choice1.png","images/pets_choice3.png","images/pets_choice2.png","[0,2,1]","1","2","1","images/pets_choice1.png","-1","pets","","dog","2","0"
"html-keyboard-response","108","550284","0.0-9.0-2.0-0.11","1502","2","2","""event"",""trial"",""time""
""fullscreenenter"",""1"",""2287""
","
","
","""event"",""trial"",""time""
""fullscreenenter"",""1"",""2287""
","
","","","","","","null","<div style=""font-size:60px;"">+</div>","null","","fixation","","","","","","","","","","","","","",""
"learning-trial","109","554287","0.0-9.0-2.0-1.11","1502","2","2","""event"",""trial"",""time""
""fullscreenenter"",""1"",""2287""
","
","
","""event"",""trial"",""time""
""fullscreenenter"",""1"",""2287""
","
","","","","","","1770","images/rabbit1.png","","","learning","images/pets_choice3.png","images/pets_choice1.png","images/pets_choice2.png","[2,0,1]","2","0","2","images/pets_choice1.png","-1","pets","","rabbit","2","0"
"html-keyboard-response","110","554789","0.0-9.0-2.0-0.12","1502","2","2","""event"",""trial"",""time""
""fullscreenenter"",""1"",""2287""
","
","
","""event"",""trial"",""time""
""fullscreenenter"",""1"",""2287""
","
","","","","","","null","<div style=""font-size:60px;"">+</div>","null","","fixation","","","","","","","","","","","","","",""
"learning-trial","111","558792","0.0-9.0-2.0-1.12","1502","2","2","""event"",""trial"",""time""
""fullscreenenter"",""1"",""2287""
","
","
","""event"",""trial"",""time""
""fullscreenenter"",""1"",""2287""
","
","","","","","","902.9000000001397","images/rabbit1.png","","","learning","images/pets_choice3.png","images/pets_choice1.png","images/pets_choice2.png","[2,0,1]","2","0","2","images/pets_choice1.png","-1","pets","","rabbit","2","0"
"html-keyboard-response","112","559294","0.0-9.0-2.0-0.13","1502","2","2","""event"",""trial"",""time""
""fullscreenenter"",""1"",""2287""
","
","
","""event"",""trial"",""time""
""fullscreenenter"",""1"",""2287""
","
","","","","","","null","<div style=""font-size:60px;"">+</div>","null","","fixation","","","","","","","","","","","","","",""
"learning-trial","113","563297","0.0-9.0-2.0-1.13","1502","2","2","""event"",""trial"",""time""
""fullscreenenter"",""1"",""2287""
","
","
","""event"",""trial"",""time""
""fullscreenenter"",""1"",""2287""
","
","","","","","","1218.8000000000466","images/dog4.png","","","learning","images/pets_choice1.png","images/pets_choice2.png","images/pets_choice3.png","[0,1,2]","1","1","2","images/pets_choice2.png","1","pets","","dog","2","0"
"html-keyboard-response","114","563799","0.0-9.0-2.0-0.14","1502","2","2","""event"",""trial"",""time""
""fullscreenenter"",""1"",""2287""
","
","
","""event"",""trial"",""time""
""fullscreenenter"",""1"",""2287""
","
","","","","","","null","<div style=""font-size:60px;"">+</div>","null","","fixation","","","","","","","","","","","","","",""
"learning-trial","115","567803","0.0-9.0-2.0-1.14","1502","2","2","""event"",""trial"",""time""
""fullscreenenter"",""1"",""2287""
","
","
","""event"",""trial"",""time""
""fullscreenenter"",""1"",""2287""
","
","","","","","","1744.1000000000931","images/rabbit1.png","","","learning","images/pets_choice3.png","images/pets_choice1.png","images/pets_choice2.png","[2,0,1]","2","0","3","images/pets_choice2.png","-1","pets","","rabbit","2","0"
"html-keyboard-response","116","568304","0.0-9.0-2.0-0.15","1502","2","2","""event"",""trial"",""time""
""fullscreenenter"",""1"",""2287""
","
","
","""event"",""trial"",""time""
""fullscreenenter"",""1"",""2287""
","
","","","","","","null","<div style=""font-size:60px;"">+</div>","null","","fixation","","","","","","","","","","","","","",""
"learning-trial","117","572307","0.0-9.0-2.0-1.15","1502","2","2","""event"",""trial"",""time""
""fullscreenenter"",""1"",""2287""
","
","
","""event"",""trial"",""time""
""fullscreenenter"",""1"",""2287""
","
","","","","","","849.1999999999534","images/feline1.png","","","learning","images/pets_choice1.png","images/pets_choice3.png","images/pets_choice2.png","[0,2,1]","2","1","2","images/pets_choice3.png","1","pets","","feline","2","0"
"html-keyboard-response","118","572809","0.0-9.0-2.0-0.16","1502","2","2","""event"",""trial"",""time""
""fullscreenenter"",""1"",""2287""
","
","
","""event"",""trial"",""time""
""fullscreenenter"",""1"",""2287""
","
","","","","","","null","<div style=""font-size:60px;"">+</div>","null","","fixation","","","","","","","","","","","","","",""
"learning-trial","119","576812","0.0-9.0-2.0-1.16","1502","2","2","""event"",""trial"",""time""
""fullscreenenter"",""1"",""2287""
","
","
","""event"",""trial"",""time""
""fullscreenenter"",""1"",""2287""
","
","","","","","","826.7000000001863","images/rabbit1.png","","","learning","images/pets_choice2.png","images/pets_choice3.png","images/pets_choice1.png","[1,2,0]","2","1","2","images/pets_choice3.png","1","pets","","rabbit","2","0"
"html-keyboard-response","120","577313","0.0-9.0-2.0-0.17","1502","2","2","""event"",""trial"",""time""
""fullscreenenter"",""1"",""2287""
","
","
","""event"",""trial"",""time""
""fullscreenenter"",""1"",""2287""
","
","","","","","","null","<div style=""font-size:60px;"">+</div>","null","","fixation","","","","","","","","","","","","","",""
"learning-trial","121","581317","0.0-9.0-2.0-1.17","1502","2","2","""event"",""trial"",""time""
""fullscreenenter"",""1"",""2287""
","
","
","""event"",""trial"",""time""
""fullscreenenter"",""1"",""2287""
","
","","","","","","1136.1999999999534","images/dog5.png","","","learning","images/pets_choice1.png","images/pets_choice2.png","images/pets_choice3.png","[0,1,2]","0","0","2","images/pets_choice2.png","-1","pets","","dog","2","0"
"html-keyboard-response","122","581818","0.0-9.0-2.0-0.18","1502","2","2","""event"",""trial"",""time""
""fullscreenenter"",""1"",""2287""
","
","
","""event"",""trial"",""time""
""fullscreenenter"",""1"",""2287""
","
","","","","","","null","<div style=""font-size:60px;"">+</div>","null","","fixation","","","","","","","","","","","","","",""
"learning-trial","123","585822","0.0-9.0-2.0-1.18","1502","2","2","""event"",""trial"",""time""
""fullscreenenter"",""1"",""2287""
","
","
","""event"",""trial"",""time""
""fullscreenenter"",""1"",""2287""
","
","","","","","","1287.4000000001397","images/rabbit4.png","","","learning","images/pets_choice1.png","images/pets_choice3.png","images/pets_choice2.png","[0,2,1]","1","2","2","images/pets_choice3.png","-1","pets","","rabbit","2","0"
"html-keyboard-response","124","586323","0.0-9.0-2.0-0.19","1502","2","2","""event"",""trial"",""time""
""fullscreenenter"",""1"",""2287""
","
","
","""event"",""trial"",""time""
""fullscreenenter"",""1"",""2287""
","
","","","","","","null","<div style=""font-size:60px;"">+</div>","null","","fixation","","","","","","","","","","","","","",""
"learning-trial","125","590327","0.0-9.0-2.0-1.19","1502","2","2","""event"",""trial"",""time""
""fullscreenenter"",""1"",""2287""
","
","
","""event"",""trial"",""time""
""fullscreenenter"",""1"",""2287""
","
","","","","","","3334.8000000000466","images/rabbit1.png","","","learning","images/pets_choice2.png","images/pets_choice3.png","images/pets_choice1.png","[1,2,0]","2","1","1","images/pets_choice2.png","-1","pets","","rabbit","2","0"
"html-keyboard-response","126","590828","0.0-9.0-2.0-0.20","1502","2","2","""event"",""trial"",""time""
""fullscreenenter"",""1"",""2287""
","
","
","""event"",""trial"",""time""
""fullscreenenter"",""1"",""2287""
","
","","","","","","null","<div style=""font-size:60px;"">+</div>","null","","fixation","","","","","","","","","","","","","",""
"learning-trial","127","594832","0.0-9.0-2.0-1.20","1502","2","2","""event"",""trial"",""time""
""fullscreenenter"",""1"",""2287""
","
","
","""event"",""trial"",""time""
""fullscreenenter"",""1"",""2287""
","
","","","","","","1141.9000000001397","images/dog5.png","","","learning","images/pets_choice2.png","images/pets_choice1.png","images/pets_choice3.png","[1,0,2]","0","1","1","images/pets_choice2.png","-1","pets","","dog","2","0"
"html-keyboard-response","128","595333","0.0-9.0-2.0-0.21","1502","2","2","""event"",""trial"",""time""
""fullscreenenter"",""1"",""2287""
","
","
","""event"",""trial"",""time""
""fullscreenenter"",""1"",""2287""
","
","","","","","","null","<div style=""font-size:60px;"">+</div>","null","","fixation","","","","","","","","","","","","","",""
"learning-trial","129","599335","0.0-9.0-2.0-1.21","1502","2","2","""event"",""trial"",""time""
""fullscreenenter"",""1"",""2287""
","
","
","""event"",""trial"",""time""
""fullscreenenter"",""1"",""2287""
","
","","","","","","1677.6000000000931","images/rabbit4.png","","","learning","images/pets_choice3.png","images/pets_choice1.png","images/pets_choice2.png","[2,0,1]","1","2","2","images/pets_choice1.png","-1","pets","","rabbit","2","0"
"html-keyboard-response","130","599837","0.0-9.0-2.0-0.22","1502","2","2","""event"",""trial"",""time""
""fullscreenenter"",""1"",""2287""
","
","
","""event"",""trial"",""time""
""fullscreenenter"",""1"",""2287""
","
","","","","","","null","<div style=""font-size:60px;"">+</div>","null","","fixation","","","","","","","","","","","","","",""
"learning-trial","131","603840","0.0-9.0-2.0-1.22","1502","2","2","""event"",""trial"",""time""
""fullscreenenter"",""1"",""2287""
","
","
","""event"",""trial"",""time""
""fullscreenenter"",""1"",""2287""
","
","","","","","","1931.6999999999534","images/dog3.png","","","learning","images/pets_choice1.png","images/pets_choice3.png","images/pets_choice2.png","[0,2,1]","2","1","3","images/pets_choice2.png","-1","pets","","dog","2","0"
"html-keyboard-response","132","604341","0.0-9.0-2.0-0.23","1502","2","2","""event"",""trial"",""time""
""fullscreenenter"",""1"",""2287""
","
","
","""event"",""trial"",""time""
""fullscreenenter"",""1"",""2287""
","
","","","","","","null","<div style=""font-size:60px;"">+</div>","null","","fixation","","","","","","","","","","","","","",""
"learning-trial","133","608343","0.0-9.0-2.0-1.23","1502","2","2","""event"",""trial"",""time""
""fullscreenenter"",""1"",""2287""
","
","
","""event"",""trial"",""time""
""fullscreenenter"",""1"",""2287""
","
","","","","","","859.3000000000466","images/dog5.png","","","learning","images/pets_choice2.png","images/pets_choice3.png","images/pets_choice1.png","[1,2,0]","0","2","1","images/pets_choice2.png","-1","pets","","dog","2","0"
"html-keyboard-response","134","608844","0.0-9.0-2.0-0.24","1502","2","2","""event"",""trial"",""time""
""fullscreenenter"",""1"",""2287""
","
","
","""event"",""trial"",""time""
""fullscreenenter"",""1"",""2287""
","
","","","","","","null","<div style=""font-size:60px;"">+</div>","null","","fixation","","","","","","","","","","","","","",""
"learning-trial","135","612846","0.0-9.0-2.0-1.24","1502","2","2","""event"",""trial"",""time""
""fullscreenenter"",""1"",""2287""
","
","
","""event"",""trial"",""time""
""fullscreenenter"",""1"",""2287""
","
","","","","","","1416.3000000000466","images/rabbit3.png","","","learning","images/pets_choice2.png","images/pets_choice3.png","images/pets_choice1.png","[1,2,0]","0","2","1","images/pets_choice2.png","-1","pets","","rabbit","2","0"
"html-keyboard-response","136","613346","0.0-9.0-2.0-0.25","1502","2","2","""event"",""trial"",""time""
""fullscreenenter"",""1"",""2287""
","
","
","""event"",""trial"",""time""
""fullscreenenter"",""1"",""2287""
","
","","","","","","null","<div style=""font-size:60px;"">+</div>","null","","fixation","","","","","","","","","","","","","",""
"learning-trial","137","617350","0.0-9.0-2.0-1.25","1502","2","2","""event"",""trial"",""time""
""fullscreenenter"",""1"",""2287""
","
","
","""event"",""trial"",""time""
""fullscreenenter"",""1"",""2287""
","
","","","","","","1440.0999999998603","images/dog4.png","","","learning","images/pets_choice2.png","images/pets_choice3.png","images/pets_choice1.png","[1,2,0]","1","0","3","images/pets_choice1.png","-1","pets","","dog","2","0"
"html-keyboard-response","138","617852","0.0-9.0-2.0-0.26","1502","2","2","""event"",""trial"",""time""
""fullscreenenter"",""1"",""2287""
","
","
","""event"",""trial"",""time""
""fullscreenenter"",""1"",""2287""
","
","","","","","","null","<div style=""font-size:60px;"">+</div>","null","","fixation","","","","","","","","","","","","","",""
"learning-trial","139","621854","0.0-9.0-2.0-1.26","1502","2","2","""event"",""trial"",""time""
""fullscreenenter"",""1"",""2287""
","
","
","""event"",""trial"",""time""
""fullscreenenter"",""1"",""2287""
","
","","","","","","1198.4000000001397","images/rabbit4.png","","","learning","images/pets_choice2.png","images/pets_choice3.png","images/pets_choice1.png","[1,2,0]","1","0","1","images/pets_choice2.png","1","pets","","rabbit","2","0"
"html-keyboard-response","140","622356","0.0-9.0-2.0-0.27","1502","2","2","""event"",""trial"",""time""
""fullscreenenter"",""1"",""2287""
","
","
","""event"",""trial"",""time""
""fullscreenenter"",""1"",""2287""
","
","","","","","","null","<div style=""font-size:60px;"">+</div>","null","","fixation","","","","","","","","","","","","","",""
"learning-trial","141","626360","0.0-9.0-2.0-1.27","1502","2","2","""event"",""trial"",""time""
""fullscreenenter"",""1"",""2287""
","
","
","""event"",""trial"",""time""
""fullscreenenter"",""1"",""2287""
","
","","","","","","1850.6000000000931","images/dog3.png","","","learning","images/pets_choice1.png","images/pets_choice3.png","images/pets_choice2.png","[0,2,1]","2","1","1","images/pets_choice1.png","-1","pets","","dog","2","0"
"html-keyboard-response","142","626862","0.0-9.0-2.0-0.28","1502","2","2","""event"",""trial"",""time""
""fullscreenenter"",""1"",""2287""
","
","
","""event"",""trial"",""time""
""fullscreenenter"",""1"",""2287""
","
","","","","","","null","<div style=""font-size:60px;"">+</div>","null","","fixation","","","","","","","","","","","","","",""
"learning-trial","143","630864","0.0-9.0-2.0-1.28","1502","2","2","""event"",""trial"",""time""
""fullscreenenter"",""1"",""2287""
","
","
","""event"",""trial"",""time""
""fullscreenenter"",""1"",""2287""
","
","","","","","","1439.9000000001397","images/feline1.png","","","learning","images/pets_choice2.png","images/pets_choice1.png","images/pets_choice3.png","[1,0,2]","2","2","3","images/pets_choice3.png","1","pets","","feline","2","0"
"html-keyboard-response","144","631366","0.0-9.0-2.0-0.29","1502","2","2","""event"",""trial"",""time""
""fullscreenenter"",""1"",""2287""
","
","
","""event"",""trial"",""time""
""fullscreenenter"",""1"",""2287""
","
","","","","","","null","<div style=""font-size:60px;"">+</div>","null","","fixation","","","","","","","","","","","","","",""
"learning-trial","145","635369","0.0-9.0-2.0-1.29","1502","2","2","""event"",""trial"",""time""
""fullscreenenter"",""1"",""2287""
","
","
","""event"",""trial"",""time""
""fullscreenenter"",""1"",""2287""
","
","","","","","","952","images/feline5.png","","","learning","images/pets_choice2.png","images/pets_choice3.png","images/pets_choice1.png","[1,2,0]","0","2","2","images/pets_choice3.png","-1","pets","","feline","2","0"
"html-keyboard-response","146","635871","0.0-9.0-2.0-0.30","1502","2","2","""event"",""trial"",""time""
""fullscreenenter"",""1"",""2287""
","
","
","""event"",""trial"",""time""
""fullscreenenter"",""1"",""2287""
","
","","","","","","null","<div style=""font-size:60px;"">+</div>","null","","fixation","","","","","","","","","","","","","",""
"learning-trial","147","639874","0.0-9.0-2.0-1.30","1502","2","2","""event"",""trial"",""time""
""fullscreenenter"",""1"",""2287""
","
","
","""event"",""trial"",""time""
""fullscreenenter"",""1"",""2287""
","
","","","","","","1939.9000000001397","images/dog4.png","","","learning","images/pets_choice2.png","images/pets_choice3.png","images/pets_choice1.png","[1,2,0]","1","0","3","images/pets_choice1.png","-1","pets","","dog","2","0"
"html-keyboard-response","148","640375","0.0-9.0-2.0-0.31","1502","2","2","""event"",""trial"",""time""
""fullscreenenter"",""1"",""2287""
","
","
","""event"",""trial"",""time""
""fullscreenenter"",""1"",""2287""
","
","","","","","","null","<div style=""font-size:60px;"">+</div>","null","","fixation","","","","","","","","","","","","","",""
"learning-trial","149","644378","0.0-9.0-2.0-1.31","1502","2","2","""event"",""trial"",""time""
""fullscreenenter"",""1"",""2287""
","
","
","""event"",""trial"",""time""
""fullscreenenter"",""1"",""2287""
","
","","","","","","536","images/rabbit1.png","","","learning","images/pets_choice1.png","images/pets_choice3.png","images/pets_choice2.png","[0,2,1]","2","1","1","images/pets_choice1.png","-1","pets","","rabbit","2","0"
"html-keyboard-response","150","644880","0.0-9.0-2.0-0.32","1502","2","2","""event"",""trial"",""time""
""fullscreenenter"",""1"",""2287""
","
","
","""event"",""trial"",""time""
""fullscreenenter"",""1"",""2287""
","
","","","","","","null","<div style=""font-size:60px;"">+</div>","null","","fixation","","","","","","","","","","","","","",""
"learning-trial","151","648881","0.0-9.0-2.0-1.32","1502","2","2","""event"",""trial"",""time""
""fullscreenenter"",""1"",""2287""
","
","
","""event"",""trial"",""time""
""fullscreenenter"",""1"",""2287""
","
","","","","","","1631.3000000000466","images/dog4.png","","","learning","images/pets_choice1.png","images/pets_choice2.png","images/pets_choice3.png","[0,1,2]","1","1","1","images/pets_choice1.png","-1","pets","","dog","2","0"
"html-keyboard-response","152","649382","0.0-9.0-2.0-0.33","1502","2","2","""event"",""trial"",""time""
""fullscreenenter"",""1"",""2287""
","
","
","""event"",""trial"",""time""
""fullscreenenter"",""1"",""2287""
","
","","","","","","null","<div style=""font-size:60px;"">+</div>","null","","fixation","","","","","","","","","","","","","",""
"learning-trial","153","653385","0.0-9.0-2.0-1.33","1502","2","2","""event"",""trial"",""time""
""fullscreenenter"",""1"",""2287""
","
","
","""event"",""trial"",""time""
""fullscreenenter"",""1"",""2287""
","
","","","","","","763.7999999998137","images/dog3.png","","","learning","images/pets_choice1.png","images/pets_choice3.png","images/pets_choice2.png","[0,2,1]","2","1","1","images/pets_choice1.png","-1","pets","","dog","2","0"
"html-keyboard-response","154","653887","0.0-9.0-2.0-0.34","1502","2","2","""event"",""trial"",""time""
""fullscreenenter"",""1"",""2287""
","
","
","""event"",""trial"",""time""
""fullscreenenter"",""1"",""2287""
","
","","","","","","null","<div style=""font-size:60px;"">+</div>","null","","fixation","","","","","","","","","","","","","",""
"learning-trial","155","657890","0.0-9.0-2.0-1.34","1502","2","2","""event"",""trial"",""time""
""fullscreenenter"",""1"",""2287""
","
","
","""event"",""trial"",""time""
""fullscreenenter"",""1"",""2287""
","
","","","","","","1026.3000000000466","images/feline1.png","","","learning","images/pets_choice1.png","images/pets_choice2.png","images/pets_choice3.png","[0,1,2]","2","2","3","images/pets_choice3.png","1","pets","","feline","2","0"
"html-keyboard-response","156","658392","0.0-9.0-2.0-0.35","1502","2","2","""event"",""trial"",""time""
""fullscreenenter"",""1"",""2287""
","
","
","""event"",""trial"",""time""
""fullscreenenter"",""1"",""2287""
","
","","","","","","null","<div style=""font-size:60px;"">+</div>","null","","fixation","","","","","","","","","","","","","",""
"learning-trial","157","662395","0.0-9.0-2.0-1.35","1502","2","2","""event"",""trial"",""time""
""fullscreenenter"",""1"",""2287""
","
","
","""event"",""trial"",""time""
""fullscreenenter"",""1"",""2287""
","
","","","","","","779.3999999999069","images/dog4.png","","","learning","images/pets_choice1.png","images/pets_choice2.png","images/pets_choice3.png","[0,1,2]","1","1","1","images/pets_choice1.png","-1","pets","","dog","2","0"
"html-keyboard-response","158","662896","0.0-9.0-2.0-0.36","1502","2","2","""event"",""trial"",""time""
""fullscreenenter"",""1"",""2287""
","
","
","""event"",""trial"",""time""
""fullscreenenter"",""1"",""2287""
","
","","","","","","null","<div style=""font-size:60px;"">+</div>","null","","fixation","","","","","","","","","","","","","",""
"learning-trial","159","666899","0.0-9.0-2.0-1.36","1502","2","2","""event"",""trial"",""time""
""fullscreenenter"",""1"",""2287""
","
","
","""event"",""trial"",""time""
""fullscreenenter"",""1"",""2287""
","
","","","","","","884.3999999999069","images/feline1.png","","","learning","images/pets_choice3.png","images/pets_choice1.png","images/pets_choice2.png","[2,0,1]","2","0","1","images/pets_choice3.png","1","pets","","feline","2","0"
"html-keyboard-response","160","667401","0.0-9.0-2.0-0.37","1502","2","2","""event"",""trial"",""time""
""fullscreenenter"",""1"",""2287""
","
","
","""event"",""trial"",""time""
""fullscreenenter"",""1"",""2287""
","
","","","","","","null","<div style=""font-size:60px;"">+</div>","null","","fixation","","","","","","","","","","","","","",""
"learning-trial","161","671404","0.0-9.0-2.0-1.37","1502","2","2","""event"",""trial"",""time""
""fullscreenenter"",""1"",""2287""
","
","
","""event"",""trial"",""time""
""fullscreenenter"",""1"",""2287""
","
","","","","","","693.2000000001863","images/rabbit4.png","","","learning","images/pets_choice3.png","images/pets_choice1.png","images/pets_choice2.png","[2,0,1]","1","2","1","images/pets_choice3.png","-1","pets","","rabbit","2","0"
"html-keyboard-response","162","671905","0.0-9.0-2.0-0.38","1502","2","2","""event"",""trial"",""time""
""fullscreenenter"",""1"",""2287""
","
","
","""event"",""trial"",""time""
""fullscreenenter"",""1"",""2287""
","
","","","","","","null","<div style=""font-size:60px;"">+</div>","null","","fixation","","","","","","","","","","","","","",""
"learning-trial","163","675908","0.0-9.0-2.0-1.38","1502","2","2","""event"",""trial"",""time""
""fullscreenenter"",""1"",""2287""
","
","
","""event"",""trial"",""time""
""fullscreenenter"",""1"",""2287""
","
","","","","","","1363.5","images/feline5.png","","","learning","images/pets_choice1.png","images/pets_choice3.png","images/pets_choice2.png","[0,2,1]","0","0","2","images/pets_choice3.png","1","pets","","feline","2","0"
"html-keyboard-response","164","676409","0.0-9.0-2.0-0.39","1502","2","2","""event"",""trial"",""time""
""fullscreenenter"",""1"",""2287""
","
","
","""event"",""trial"",""time""
""fullscreenenter"",""1"",""2287""
","
","","","","","","null","<div style=""font-size:60px;"">+</div>","null","","fixation","","","","","","","","","","","","","",""
"learning-trial","165","680413","0.0-9.0-2.0-1.39","1502","2","2","""event"",""trial"",""time""
""fullscreenenter"",""1"",""2287""
","
","
","""event"",""trial"",""time""
""fullscreenenter"",""1"",""2287""
","
","","","","","","537.8000000000466","images/feline5.png","","","learning","images/pets_choice3.png","images/pets_choice1.png","images/pets_choice2.png","[2,0,1]","0","1","1","images/pets_choice3.png","-1","pets","","feline","2","0"
"html-keyboard-response","166","680914","0.0-9.0-2.0-0.40","1502","2","2","""event"",""trial"",""time""
""fullscreenenter"",""1"",""2287""
","
","
","""event"",""trial"",""time""
""fullscreenenter"",""1"",""2287""
","
","","","","","","null","<div style=""font-size:60px;"">+</div>","null","","fixation","","","","","","","","","","","","","",""
"learning-trial","167","684918","0.0-9.0-2.0-1.40","1502","2","2","""event"",""trial"",""time""
""fullscreenenter"",""1"",""2287""
","
","
","""event"",""trial"",""time""
""fullscreenenter"",""1"",""2287""
","
","","","","","","796.1999999999534","images/feline3.png","","","learning","images/pets_choice2.png","images/pets_choice1.png","images/pets_choice3.png","[1,0,2]","1","0","3","images/pets_choice3.png","-1","pets","","feline","2","0"
"html-keyboard-response","168","685419","0.0-9.0-2.0-0.41","1502","2","2","""event"",""trial"",""time""
""fullscreenenter"",""1"",""2287""
","
","
","""event"",""trial"",""time""
""fullscreenenter"",""1"",""2287""
","
","","","","","","null","<div style=""font-size:60px;"">+</div>","null","","fixation","","","","","","","","","","","","","",""
"learning-trial","169","689422","0.0-9.0-2.0-1.41","1502","2","2","""event"",""trial"",""time""
""fullscreenenter"",""1"",""2287""
","
","
","""event"",""trial"",""time""
""fullscreenenter"",""1"",""2287""
","
","","","","","","1192","images/feline3.png","","","learning","images/pets_choice2.png","images/pets_choice1.png","images/pets_choice3.png","[1,0,2]","1","0","3","images/pets_choice3.png","-1","pets","","feline","2","0"
"html-keyboard-response","170","689924","0.0-9.0-2.0-0.42","1502","2","2","""event"",""trial"",""time""
""fullscreenenter"",""1"",""2287""
","
","
","""event"",""trial"",""time""
""fullscreenenter"",""1"",""2287""
","
","","","","","","null","<div style=""font-size:60px;"">+</div>","null","","fixation","","","","","","","","","","","","","",""
"learning-trial","171","693926","0.0-9.0-2.0-1.42","1502","2","2","""event"",""trial"",""time""
""fullscreenenter"",""1"",""2287""
","
","
","""event"",""trial"",""time""
""fullscreenenter"",""1"",""2287""
","
","","","","","","1474.5999999998603","images/feline3.png","","","learning","images/pets_choice2.png","images/pets_choice1.png","images/pets_choice3.png","[1,0,2]","1","0","2","images/pets_choice1.png","-1","pets","","feline","2","0"
"html-keyboard-response","172","694428","0.0-9.0-2.0-0.43","1502","2","2","""event"",""trial"",""time""
""fullscreenenter"",""1"",""2287""
","
","
","""event"",""trial"",""time""
""fullscreenenter"",""1"",""2287""
","
","","","","","","null","<div style=""font-size:60px;"">+</div>","null","","fixation","","","","","","","","","","","","","",""
"learning-trial","173","698432","0.0-9.0-2.0-1.43","1502","2","2","""event"",""trial"",""time""
""fullscreenenter"",""1"",""2287""
","
","
","""event"",""trial"",""time""
""fullscreenenter"",""1"",""2287""
","
","","","","","","1232.5999999998603","images/rabbit1.png","","","learning","images/pets_choice2.png","images/pets_choice3.png","images/pets_choice1.png","[1,2,0]","2","1","3","images/pets_choice1.png","-1","pets","","rabbit","2","0"
"html-keyboard-response","174","698933","0.0-9.0-2.0-0.44","1502","2","2","""event"",""trial"",""time""
""fullscreenenter"",""1"",""2287""
","
","
","""event"",""trial"",""time""
""fullscreenenter"",""1"",""2287""
","
","","","","","","null","<div style=""font-size:60px;"">+</div>","null","","fixation","","","","","","","","","","","","","",""
"learning-trial","175","702939","0.0-9.0-2.0-1.44","1502","2","2","""event"",""trial"",""time""
""fullscreenenter"",""1"",""2287""
","
","
","""event"",""trial"",""time""
""fullscreenenter"",""1"",""2287""
","
","","","","","","1151.3000000000466","images/feline5.png","","","learning","images/pets_choice3.png","images/pets_choice2.png","images/pets_choice1.png","[2,1,0]","0","2","2","images/pets_choice2.png","-1","pets","","feline","2","0"
"html-keyboard-response","176","703441","0.0-9.0-2.0-0.45","1502","2","2","""event"",""trial"",""time""
""fullscreenenter"",""1"",""2287""
","
","
","""event"",""trial"",""time""
""fullscreenenter"",""1"",""2287""
","
","","","","","","null","<div style=""font-size:60px;"">+</div>","null","","fixation","","","","","","","","","","","","","",""
"learning-trial","177","707443","0.0-9.0-2.0-1.45","1502","2","2","""event"",""trial"",""time""
""fullscreenenter"",""1"",""2287""
","
","
","""event"",""trial"",""time""
""fullscreenenter"",""1"",""2287""
","
","","","","","","2252.1999999999534","images/feline5.png","","","learning","images/pets_choice3.png","images/pets_choice1.png","images/pets_choice2.png","[2,0,1]","0","1","2","images/pets_choice1.png","1","pets","","feline","2","0"
"html-keyboard-response","178","707945","0.0-9.0-2.0-0.46","1502","2","2","""event"",""trial"",""time""
""fullscreenenter"",""1"",""2287""
","
","
","""event"",""trial"",""time""
""fullscreenenter"",""1"",""2287""
","
","","","","","","null","<div style=""font-size:60px;"">+</div>","null","","fixation","","","","","","","","","","","","","",""
"learning-trial","179","711948","0.0-9.0-2.0-1.46","1502","2","2","""event"",""trial"",""time""
""fullscreenenter"",""1"",""2287""
","
","
","""event"",""trial"",""time""
""fullscreenenter"",""1"",""2287""
","
","","","","","","1619.0999999998603","images/rabbit4.png","","","learning","images/pets_choice2.png","images/pets_choice1.png","images/pets_choice3.png","[1,0,2]","1","0","3","images/pets_choice3.png","-1","pets","","rabbit","2","0"
"html-keyboard-response","180","712450","0.0-9.0-2.0-0.47","1502","2","2","""event"",""trial"",""time""
""fullscreenenter"",""1"",""2287""
","
","
","""event"",""trial"",""time""
""fullscreenenter"",""1"",""2287""
","
","","","","","","null","<div style=""font-size:60px;"">+</div>","null","","fixation","","","","","","","","","","","","","",""
"learning-trial","181","716453","0.0-9.0-2.0-1.47","1502","2","2","""event"",""trial"",""time""
""fullscreenenter"",""1"",""2287""
","
","
","""event"",""trial"",""time""
""fullscreenenter"",""1"",""2287""
","
","","","","","","985","images/rabbit3.png","","","learning","images/pets_choice1.png","images/pets_choice3.png","images/pets_choice2.png","[0,2,1]","0","0","2","images/pets_choice3.png","-1","pets","","rabbit","2","0"
"html-keyboard-response","182","716954","0.0-9.0-2.0-0.48","1502","2","2","""event"",""trial"",""time""
""fullscreenenter"",""1"",""2287""
","
","
","""event"",""trial"",""time""
""fullscreenenter"",""1"",""2287""
","
","","","","","","null","<div style=""font-size:60px;"">+</div>","null","","fixation","","","","","","","","","","","","","",""
"learning-trial","183","720957","0.0-9.0-2.0-1.48","1502","2","2","""event"",""trial"",""time""
""fullscreenenter"",""1"",""2287""
","
","
","""event"",""trial"",""time""
""fullscreenenter"",""1"",""2287""
","
","","","","","","463.19999999995343","images/feline5.png","","","learning","images/pets_choice3.png","images/pets_choice1.png","images/pets_choice2.png","[2,0,1]","0","1","1","images/pets_choice3.png","1","pets","","feline","2","0"
"html-keyboard-response","184","721458","0.0-9.0-2.0-0.49","1502","2","2","""event"",""trial"",""time""
""fullscreenenter"",""1"",""2287""
","
","
","""event"",""trial"",""time""
""fullscreenenter"",""1"",""2287""
","
","","","","","","null","<div style=""font-size:60px;"">+</div>","null","","fixation","","","","","","","","","","","","","",""
"learning-trial","185","725460","0.0-9.0-2.0-1.49","1502","2","2","""event"",""trial"",""time""
""fullscreenenter"",""1"",""2287""
","
","
","""event"",""trial"",""time""
""fullscreenenter"",""1"",""2287""
","
","","","","","","1185.6999999999534","images/dog4.png","","","learning","images/pets_choice1.png","images/pets_choice2.png","images/pets_choice3.png","[0,1,2]","1","1","2","images/pets_choice2.png","1","pets","","dog","2","0"
"html-keyboard-response","186","725961","0.0-9.0-2.0-0.50","1502","2","2","""event"",""trial"",""time""
""fullscreenenter"",""1"",""2287""
","
","
","""event"",""trial"",""time""
""fullscreenenter"",""1"",""2287""
","
","","","","","","null","<div style=""font-size:60px;"">+</div>","null","","fixation","","","","","","","","","","","","","",""
"learning-trial","187","729965","0.0-9.0-2.0-1.50","1502","2","2","""event"",""trial"",""time""
""fullscreenenter"",""1"",""2287""
","
","
","""event"",""trial"",""time""
""fullscreenenter"",""1"",""2287""
","
","","","","","","1999.1999999999534","images/feline3.png","","","learning","images/pets_choice3.png","images/pets_choice1.png","images/pets_choice2.png","[2,0,1]","1","2","2","images/pets_choice1.png","-1","pets","","feline","2","0"
"html-keyboard-response","188","730467","0.0-9.0-2.0-0.51","1502","2","2","""event"",""trial"",""time""
""fullscreenenter"",""1"",""2287""
","
","
","""event"",""trial"",""time""
""fullscreenenter"",""1"",""2287""
","
","","","","","","null","<div style=""font-size:60px;"">+</div>","null","","fixation","","","","","","","","","","","","","",""
"learning-trial","189","734471","0.0-9.0-2.0-1.51","1502","2","2","""event"",""trial"",""time""
""fullscreenenter"",""1"",""2287""
","
","
","""event"",""trial"",""time""
""fullscreenenter"",""1"",""2287""
","
","","","","","","1621","images/dog5.png","","","learning","images/pets_choice2.png","images/pets_choice1.png","images/pets_choice3.png","[1,0,2]","0","1","1","images/pets_choice2.png","-1","pets","","dog","2","0"
"html-keyboard-response","190","734972","0.0-9.0-2.0-0.52","1502","2","2","""event"",""trial"",""time""
""fullscreenenter"",""1"",""2287""
","
","
","""event"",""trial"",""time""
""fullscreenenter"",""1"",""2287""
","
","","","","","","null","<div style=""font-size:60px;"">+</div>","null","","fixation","","","","","","","","","","","","","",""
"learning-trial","191","738976","0.0-9.0-2.0-1.52","1502","2","2","""event"",""trial"",""time""
""fullscreenenter"",""1"",""2287""
","
","
","""event"",""trial"",""time""
""fullscreenenter"",""1"",""2287""
","
","","","","","","1342.1000000000931","images/feline3.png","","","learning","images/pets_choice3.png","images/pets_choice2.png","images/pets_choice1.png","[2,1,0]","1","1","3","images/pets_choice1.png","-1","pets","","feline","2","0"
"html-keyboard-response","192","739477","0.0-9.0-2.0-0.53","1502","2","2","""event"",""trial"",""time""
""fullscreenenter"",""1"",""2287""
","
","
","""event"",""trial"",""time""
""fullscreenenter"",""1"",""2287""
","
","","","","","","null","<div style=""font-size:60px;"">+</div>","null","","fixation","","","","","","","","","","","","","",""
"learning-trial","193","743478","0.0-9.0-2.0-1.53","1502","2","2","""event"",""trial"",""time""
""fullscreenenter"",""1"",""2287""
","
","
","""event"",""trial"",""time""
""fullscreenenter"",""1"",""2287""
","
","","","","","","1128.3000000000466","images/dog3.png","","","learning","images/pets_choice2.png","images/pets_choice1.png","images/pets_choice3.png","[1,0,2]","2","2","2","images/pets_choice1.png","-1","pets","","dog","2","0"
"html-keyboard-response","194","743979","0.0-9.0-2.0-0.54","1502","2","2","""event"",""trial"",""time""
""fullscreenenter"",""1"",""2287""
","
","
","""event"",""trial"",""time""
""fullscreenenter"",""1"",""2287""
","
","","","","","","null","<div style=""font-size:60px;"">+</div>","null","","fixation","","","","","","","","","","","","","",""
"learning-trial","195","747982","0.0-9.0-2.0-1.54","1502","2","2","""event"",""trial"",""time""
""fullscreenenter"",""1"",""2287""
","
","
","""event"",""trial"",""time""
""fullscreenenter"",""1"",""2287""
","
","","","","","","802","images/dog5.png","","","learning","images/pets_choice1.png","images/pets_choice2.png","images/pets_choice3.png","[0,1,2]","0","0","2","images/pets_choice2.png","-1","pets","","dog","2","0"
"html-keyboard-response","196","748483","0.0-9.0-2.0-0.55","1502","2","2","""event"",""trial"",""time""
""fullscreenenter"",""1"",""2287""
","
","
","""event"",""trial"",""time""
""fullscreenenter"",""1"",""2287""
","
","","","","","","null","<div style=""font-size:60px;"">+</div>","null","","fixation","","","","","","","","","","","","","",""
"learning-trial","197","752485","0.0-9.0-2.0-1.55","1502","2","2","""event"",""trial"",""time""
""fullscreenenter"",""1"",""2287""
","
","
","""event"",""trial"",""time""
""fullscreenenter"",""1"",""2287""
","
","","","","","","870.1000000000931","images/feline1.png","","","learning","images/pets_choice3.png","images/pets_choice1.png","images/pets_choice2.png","[2,0,1]","2","0","1","images/pets_choice3.png","1","pets","","feline","2","0"
"html-keyboard-response","198","752987","0.0-9.0-2.0-0.56","1502","2","2","""event"",""trial"",""time""
""fullscreenenter"",""1"",""2287""
","
","
","""event"",""trial"",""time""
""fullscreenenter"",""1"",""2287""
","
","","","","","","null","<div style=""font-size:60px;"">+</div>","null","","fixation","","","","","","","","","","","","","",""
"learning-trial","199","756991","0.0-9.0-2.0-1.56","1502","2","2","""event"",""trial"",""time""
""fullscreenenter"",""1"",""2287""
","
","
","""event"",""trial"",""time""
""fullscreenenter"",""1"",""2287""
","
","","","","","","924.1999999999534","images/rabbit3.png","","","learning","images/pets_choice3.png","images/pets_choice1.png","images/pets_choice2.png","[2,0,1]","0","1","2","images/pets_choice1.png","1","pets","","rabbit","2","0"
"html-keyboard-response","200","757492","0.0-9.0-2.0-0.57","1502","2","2","""event"",""trial"",""time""
""fullscreenenter"",""1"",""2287""
","
","
","""event"",""trial"",""time""
""fullscreenenter"",""1"",""2287""
","
","","","","","","null","<div style=""font-size:60px;"">+</div>","null","","fixation","","","","","","","","","","","","","",""
"learning-trial","201","761496","0.0-9.0-2.0-1.57","1502","2","2","""event"",""trial"",""time""
""fullscreenenter"",""1"",""2287""
","
","
","""event"",""trial"",""time""
""fullscreenenter"",""1"",""2287""
","
","","","","","","886.7000000001863","images/rabbit3.png","","","learning","images/pets_choice3.png","images/pets_choice2.png","images/pets_choice1.png","[2,1,0]","0","2","3","images/pets_choice1.png","1","pets","","rabbit","2","0"
"html-keyboard-response","202","761997","0.0-9.0-2.0-0.58","1502","2","2","""event"",""trial"",""time""
""fullscreenenter"",""1"",""2287""
","
","
","""event"",""trial"",""time""
""fullscreenenter"",""1"",""2287""
","
","","","","","","null","<div style=""font-size:60px;"">+</div>","null","","fixation","","","","","","","","","","","","","",""
"learning-trial","203","766000","0.0-9.0-2.0-1.58","1502","2","2","""event"",""trial"",""time""
""fullscreenenter"",""1"",""2287""
","
","
","""event"",""trial"",""time""
""fullscreenenter"",""1"",""2287""
","
","","","","","","977.6999999999534","images/dog3.png","","","learning","images/pets_choice3.png","images/pets_choice2.png","images/pets_choice1.png","[2,1,0]","2","0","2","images/pets_choice2.png","-1","pets","","dog","2","0"
"html-keyboard-response","204","766501","0.0-9.0-2.0-0.59","1502","2","2","""event"",""trial"",""time""
""fullscreenenter"",""1"",""2287""
","
","
","""event"",""trial"",""time""
""fullscreenenter"",""1"",""2287""
","
","","","","","","null","<div style=""font-size:60px;"">+</div>","null","","fixation","","","","","","","","","","","","","",""
"learning-trial","205","770504","0.0-9.0-2.0-1.59","1502","2","2","""event"",""trial"",""time""
""fullscreenenter"",""1"",""2287""
","
","
","""event"",""trial"",""time""
""fullscreenenter"",""1"",""2287""
","
","","","","","","1799.5999999998603","images/feline3.png","","","learning","images/pets_choice2.png","images/pets_choice3.png","images/pets_choice1.png","[1,2,0]","1","0","1","images/pets_choice2.png","1","pets","","feline","2","0"
"html-keyboard-response","206","771006","0.0-9.0-2.0-0.60","1502","2","2","""event"",""trial"",""time""
""fullscreenenter"",""1"",""2287""
","
","
","""event"",""trial"",""time""
""fullscreenenter"",""1"",""2287""
","
","","","","","","null","<div style=""font-size:60px;"">+</div>","null","","fixation","","","","","","","","","","","","","",""
"learning-trial","207","775008","0.0-9.0-2.0-1.60","1502","2","2","""event"",""trial"",""time""
""fullscreenenter"",""1"",""2287""
","
","
","""event"",""trial"",""time""
""fullscreenenter"",""1"",""2287""
","
","","","","","","1372.8999999999069","images/dog3.png","","","learning","images/pets_choice2.png","images/pets_choice3.png","images/pets_choice1.png","[1,2,0]","2","1","3","images/pets_choice1.png","-1","pets","","dog","2","0"
"html-keyboard-response","208","775510","0.0-9.0-2.0-0.61","1502","2","2","""event"",""trial"",""time""
""fullscreenenter"",""1"",""2287""
","
","
","""event"",""trial"",""time""
""fullscreenenter"",""1"",""2287""
","
","","","","","","null","<div style=""font-size:60px;"">+</div>","null","","fixation","","","","","","","","","","","","","",""
"learning-trial","209","779512","0.0-9.0-2.0-1.61","1502","2","2","""event"",""trial"",""time""
""fullscreenenter"",""1"",""2287""
","
","
","""event"",""trial"",""time""
""fullscreenenter"",""1"",""2287""
","
","","","","","","2199.3000000000466","images/rabbit3.png","","","learning","images/pets_choice1.png","images/pets_choice2.png","images/pets_choice3.png","[0,1,2]","0","0","1","images/pets_choice1.png","1","pets","","rabbit","2","0"
"html-keyboard-response","210","780015","0.0-9.0-2.0-0.62","1502","2","2","""event"",""trial"",""time""
""fullscreenenter"",""1"",""2287""
","
","
","""event"",""trial"",""time""
""fullscreenenter"",""1"",""2287""
","
","","","","","","null","<div style=""font-size:60px;"">+</div>","null","","fixation","","","","","","","","","","","","","",""
"learning-trial","211","784028","0.0-9.0-2.0-1.62","1502","2","2","""event"",""trial"",""time""
""fullscreenenter"",""1"",""2287""
","
","
","""event"",""trial"",""time""
""fullscreenenter"",""1"",""2287""
","
","","","","","","978.5","images/rabbit1.png","","","learning","images/pets_choice1.png","images/pets_choice3.png","images/pets_choice2.png","[0,2,1]","2","1","2","images/pets_choice3.png","1","pets","","rabbit","2","0"
"html-keyboard-response","212","784529","0.0-9.0-2.0-0.63","1502","2","2","""event"",""trial"",""time""
""fullscreenenter"",""1"",""2287""
","
","
","""event"",""trial"",""time""
""fullscreenenter"",""1"",""2287""
","
","","","","","","null","<div style=""font-size:60px;"">+</div>","null","","fixation","","","","","","","","","","","","","",""
"learning-trial","213","788533","0.0-9.0-2.0-1.63","1502","2","2","""event"",""trial"",""time""
""fullscreenenter"",""1"",""2287""
","
","
","""event"",""trial"",""time""
""fullscreenenter"",""1"",""2287""
","
","","","","","","1387.8000000000466","images/rabbit3.png","","","learning","images/pets_choice3.png","images/pets_choice2.png","images/pets_choice1.png","[2,1,0]","0","2","3","images/pets_choice1.png","-1","pets","","rabbit","2","0"
"html-keyboard-response","214","789035","0.0-9.0-2.0-0.64","1502","2","2","""event"",""trial"",""time""
""fullscreenenter"",""1"",""2287""
","
","
","""event"",""trial"",""time""
""fullscreenenter"",""1"",""2287""
","
","","","","","","null","<div style=""font-size:60px;"">+</div>","null","","fixation","","","","","","","","","","","","","",""
"learning-trial","215","793038","0.0-9.0-2.0-1.64","1502","2","2","""event"",""trial"",""time""
""fullscreenenter"",""1"",""2287""
","
","
","""event"",""trial"",""time""
""fullscreenenter"",""1"",""2287""
","
","","","","","","1439.6999999999534","images/rabbit4.png","","","learning","images/pets_choice3.png","images/pets_choice2.png","images/pets_choice1.png","[2,1,0]","1","1","2","images/pets_choice2.png","-1","pets","","rabbit","2","0"
"html-keyboard-response","216","793539","0.0-9.0-2.0-0.65","1502","2","2","""event"",""trial"",""time""
""fullscreenenter"",""1"",""2287""
","
","
","""event"",""trial"",""time""
""fullscreenenter"",""1"",""2287""
","
","","","","","","null","<div style=""font-size:60px;"">+</div>","null","","fixation","","","","","","","","","","","","","",""
"learning-trial","217","797543","0.0-9.0-2.0-1.65","1502","2","2","""event"",""trial"",""time""
""fullscreenenter"",""1"",""2287""
","
","
","""event"",""trial"",""time""
""fullscreenenter"",""1"",""2287""
","
","","","","","","1488.6999999999534","images/feline5.png","","","learning","images/pets_choice2.png","images/pets_choice1.png","images/pets_choice3.png","[1,0,2]","0","1","1","images/pets_choice2.png","1","pets","","feline","2","0"
"html-keyboard-response","218","798044","0.0-9.0-2.0-0.66","1502","2","2","""event"",""trial"",""time""
""fullscreenenter"",""1"",""2287""
","
","
","""event"",""trial"",""time""
""fullscreenenter"",""1"",""2287""
","
","","","","","","null","<div style=""font-size:60px;"">+</div>","null","","fixation","","","","","","","","","","","","","",""
"learning-trial","219","802048","0.0-9.0-2.0-1.66","1502","2","2","""event"",""trial"",""time""
""fullscreenenter"",""1"",""2287""
","
","
","""event"",""trial"",""time""
""fullscreenenter"",""1"",""2287""
","
","","","","","","724.1999999999534","images/dog5.png","","","learning","images/pets_choice1.png","images/pets_choice3.png","images/pets_choice2.png","[0,2,1]","0","0","2","images/pets_choice3.png","-1","pets","","dog","2","0"
"html-keyboard-response","220","802549","0.0-9.0-2.0-0.67","1502","2","2","""event"",""trial"",""time""
""fullscreenenter"",""1"",""2287""
","
","
","""event"",""trial"",""time""
""fullscreenenter"",""1"",""2287""
","
","","","","","","null","<div style=""font-size:60px;"">+</div>","null","","fixation","","","","","","","","","","","","","",""
"learning-trial","221","806553","0.0-9.0-2.0-1.67","1502","2","2","""event"",""trial"",""time""
""fullscreenenter"",""1"",""2287""
","
","
","""event"",""trial"",""time""
""fullscreenenter"",""1"",""2287""
","
","","","","","","1523.8000000000466","images/rabbit3.png","","","learning","images/pets_choice2.png","images/pets_choice1.png","images/pets_choice3.png","[1,0,2]","0","1","2","images/pets_choice1.png","1","pets","","rabbit","2","0"
"html-keyboard-response","222","807054","0.0-9.0-2.0-0.68","1502","2","2","""event"",""trial"",""time""
""fullscreenenter"",""1"",""2287""
","
","
","""event"",""trial"",""time""
""fullscreenenter"",""1"",""2287""
","
","","","","","","null","<div style=""font-size:60px;"">+</div>","null","","fixation","","","","","","","","","","","","","",""
"learning-trial","223","811057","0.0-9.0-2.0-1.68","1502","2","2","""event"",""trial"",""time""
""fullscreenenter"",""1"",""2287""
","
","
","""event"",""trial"",""time""
""fullscreenenter"",""1"",""2287""
","
","","","","","","1616.5","images/dog3.png","","","learning","images/pets_choice2.png","images/pets_choice1.png","images/pets_choice3.png","[1,0,2]","2","2","1","images/pets_choice2.png","-1","pets","","dog","2","0"
"html-keyboard-response","224","811558","0.0-9.0-2.0-0.69","1502","2","2","""event"",""trial"",""time""
""fullscreenenter"",""1"",""2287""
","
","
","""event"",""trial"",""time""
""fullscreenenter"",""1"",""2287""
","
","","","","","","null","<div style=""font-size:60px;"">+</div>","null","","fixation","","","","","","","","","","","","","",""
"learning-trial","225","815561","0.0-9.0-2.0-1.69","1502","2","2","""event"",""trial"",""time""
""fullscreenenter"",""1"",""2287""
","
","
","""event"",""trial"",""time""
""fullscreenenter"",""1"",""2287""
","
","","","","","","1033.9000000001397","images/dog3.png","","","learning","images/pets_choice3.png","images/pets_choice2.png","images/pets_choice1.png","[2,1,0]","2","0","3","images/pets_choice1.png","-1","pets","","dog","2","0"
"html-keyboard-response","226","816062","0.0-9.0-2.0-0.70","1502","2","2","""event"",""trial"",""time""
""fullscreenenter"",""1"",""2287""
","
","
","""event"",""trial"",""time""
""fullscreenenter"",""1"",""2287""
","
","","","","","","null","<div style=""font-size:60px;"">+</div>","null","","fixation","","","","","","","","","","","","","",""
"learning-trial","227","820066","0.0-9.0-2.0-1.70","1502","2","2","""event"",""trial"",""time""
""fullscreenenter"",""1"",""2287""
","
","
","""event"",""trial"",""time""
""fullscreenenter"",""1"",""2287""
","
","","","","","","2737.1999999999534","images/feline5.png","","","learning","images/pets_choice3.png","images/pets_choice1.png","images/pets_choice2.png","[2,0,1]","0","1","1","images/pets_choice3.png","-1","pets","","feline","2","0"
"html-keyboard-response","228","820567","0.0-9.0-2.0-0.71","1502","2","2","""event"",""trial"",""time""
""fullscreenenter"",""1"",""2287""
","
","
","""event"",""trial"",""time""
""fullscreenenter"",""1"",""2287""
","
","","","","","","null","<div style=""font-size:60px;"">+</div>","null","","fixation","","","","","","","","","","","","","",""
"learning-trial","229","824570","0.0-9.0-2.0-1.71","1502","2","2","""event"",""trial"",""time""
""fullscreenenter"",""1"",""2287""
","
","
","""event"",""trial"",""time""
""fullscreenenter"",""1"",""2287""
","
","","","","","","null","images/feline3.png","","","learning","images/pets_choice1.png","images/pets_choice3.png","images/pets_choice2.png","[0,2,1]","1","2","null","null","-1","pets","","feline","2","0"
"html-button-response","230","826923","0.0-9.0-3.0","1502","2","2","""event"",""trial"",""time""
""fullscreenenter"",""1"",""2287""
","
","
","""event"",""trial"",""time""
""fullscreenenter"",""1"",""2287""
","
","","","","","","2352.3000000000466","<p> You have completed the round! <p> In this round, you earned -24 points! </p>","0","","break","","","","","","","","","","","","","",""
"html-button-response","231","827672","0.0-10.0","1502","2","2","""event"",""trial"",""time""
""fullscreenenter"",""1"",""2287""
","
","
","""event"",""trial"",""time""
""fullscreenenter"",""1"",""2287""
","
","","","","","","748","<p> Now it's time to play another round. </p>","0","","transition_screen","","","","","","","","","","","","","",""
"preload","232","829517","0.0-11.0-0.0","1502","2","2","""event"",""trial"",""time""
""fullscreenenter"",""1"",""2287""
","
","
","""event"",""trial"",""time""
""fullscreenenter"",""1"",""2287""
","
","true","false","[]","[]","[]","","","","","","","","","","","","","","","","","","",""
"learning-instructions","233","838291","0.0-11.0-1.0-0.0","1502","2","2","""event"",""trial"",""time""
""fullscreenenter"",""1"",""2287""
","
","
","""event"",""trial"",""time""
""fullscreenenter"",""1"",""2287""
","
","","","","","","1908.5","<p> Your goal in this round is to grow a beautiful garden by watering plants. </p><p> You will need to water many different plants. </p></div>","","0","instructions","","","","","","","","","","","","","",""
"learning-instructions","234","854347","0.0-11.0-1.0-0.1","1502","2","2","""event"",""trial"",""time""
""fullscreenenter"",""1"",""2287""
","
","
","""event"",""trial"",""time""
""fullscreenenter"",""1"",""2287""
","
","","","","","","2763.9000000001397","<p> On each turn, you will see a picture of one of your plants and three different watering cans.  </p><p> Each watering can has a different mixture of water and fertilizer.  </p><p> You need to select which watering can to use for each plant. </p>","","0","instructions","","","","","","","","","","","","","",""
"learning-instructions","235","864078","0.0-11.0-1.0-0.2","1502","2","2","""event"",""trial"",""time""
""fullscreenenter"",""1"",""2287""
","
","
","""event"",""trial"",""time""
""fullscreenenter"",""1"",""2287""
","
","","","","","","1994.7999999998137","<p> You can select the watering can on the left by pressing 1, the watering can in the middle by pressing 2, and the watering can on the right by pressing 3. </p><br><div class=""choice-instructions-grid""> <div class=""choice-option""><img src=""images/plants_choice1.png"" class=""choice-option-img"" stage=""instructions"" position=""0"" ><div class=""choice-option-text""> Press ""1."" </div></div><div class=""choice-option""><img src=""images/plants_choice2.png"" class=""choice-option-img"" stage=""instructions"" position=""1"" ><div class=""choice-option-text""> Press ""2."" </div></div><div class=""choice-option""><img src=""images/plants_choice3.png"" class=""choice-option-img"" stage=""instructions"" position=""2"" ><div class=""choice-option-text""> Press ""3."" </div></div></div>","","0","instructions","","","","","","","","","","","","","",""
"learning-instructions","236","869509","0.0-11.0-1.0-0.3","1502","2","2","""event"",""trial"",""time""
""fullscreenenter"",""1"",""2287""
","
","
","""event"",""trial"",""time""
""fullscreenenter"",""1"",""2287""
","
","","","","","","1256.1999999999534","<p> If the watering can you chose works for the plant, it will grow! </p><div style='float: center;'><img src='images/check.png' width = '200' height = '200'></img>","","0","instructions","","","","","","","","","","","","","",""
"learning-instructions","237","875161","0.0-11.0-1.0-0.4","1502","2","2","""event"",""trial"",""time""
""fullscreenenter"",""1"",""2287""
","
","
","""event"",""trial"",""time""
""fullscreenenter"",""1"",""2287""
","
