"trial_type","trial_index","time_elapsed","internal_node_id","subject_id","condition","task_version","interactions","blur_events","focus_events","fullscreenenter_events","fullscreenexit_events","success","timeout","failed_images","failed_audio","failed_video","rt","stimulus","response","button_pressed","task_part","left_choice","middle_choice","right_choice","choice_positions","correct_response","correct_position","key_press","option_selected","points","task_block","correct","stim_cat","block_condition","block_number"
"pavlovia","0","11","0.0-0.0","1631","1","2","""event"",""trial"",""time""
""fullscreenenter"",""1"",""4050""
","
","
","""event"",""trial"",""time""
""fullscreenenter"",""1"",""4050""
","
","","","","","","","","","","","","","","","","","","","","","","","",""
"fullscreen","1","5015","0.0-1.0","1631","1","2","""event"",""trial"",""time""
""fullscreenenter"",""1"",""4050""
""blur"",""2"",""7132""
","""event"",""trial"",""time""
""blur"",""2"",""7132""
","
","""event"",""trial"",""time""
""fullscreenenter"",""1"",""4050""
","
","true","","","","","","","","","","","","","","","","","","","","","","",""
"preload","2","13754","0.0-2.0","1631","1","2","""event"",""trial"",""time""
""fullscreenenter"",""1"",""4050""
""blur"",""2"",""7132""
""focus"",""3"",""41895""
","""event"",""trial"",""time""
""blur"",""2"",""7132""
","""event"",""trial"",""time""
""focus"",""3"",""41895""
","""event"",""trial"",""time""
""fullscreenenter"",""1"",""4050""
","
","true","false","[]","[]","[]","","","","","","","","","","","","","","","","","","",""
"audio-keyboard-response","3","43104","0.0-3.0","1631","1","2","""event"",""trial"",""time""
""fullscreenenter"",""1"",""4050""
""blur"",""2"",""7132""
""focus"",""3"",""41895""
","""event"",""trial"",""time""
""blur"",""2"",""7132""
","""event"",""trial"",""time""
""focus"",""3"",""41895""
","""event"",""trial"",""time""
""fullscreenenter"",""1"",""4050""
","
","","","","","","29354.666666666668","audio/beep_loop.wav"," ","","","","","","","","","","","","","","","",""
"audio-button-response","4","46554","0.0-4.0","1631","1","2","""event"",""trial"",""time""
""fullscreenenter"",""1"",""4050""
""blur"",""2"",""7132""
""focus"",""3"",""41895""
","""event"",""trial"",""time""
""blur"",""2"",""7132""
","""event"",""trial"",""time""
""focus"",""3"",""41895""
","""event"",""trial"",""time""
""fullscreenenter"",""1"",""4050""
","
","","","","","","3445","audio/shark.wav","4","","","","","","","","","","","","","","","",""
"audio-button-response","5","49126","0.0-5.0","1631","1","2","""event"",""trial"",""time""
""fullscreenenter"",""1"",""4050""
""blur"",""2"",""7132""
""focus"",""3"",""41895""
","""event"",""trial"",""time""
""blur"",""2"",""7132""
","""event"",""trial"",""time""
""focus"",""3"",""41895""
","""event"",""trial"",""time""
""fullscreenenter"",""1"",""4050""
","
","","","","","","1568","audio/turtle.wav","1","","","","","","","","","","","","","","","",""
"preload","6","59405","0.0-6.0","1631","1","2","""event"",""trial"",""time""
""fullscreenenter"",""1"",""4050""
""blur"",""2"",""7132""
""focus"",""3"",""41895""
","""event"",""trial"",""time""
""blur"",""2"",""7132""
","""event"",""trial"",""time""
""focus"",""3"",""41895""
","""event"",""trial"",""time""
""fullscreenenter"",""1"",""4050""
","
","true","false","[]","[]","[]","","","","","","","","","","","","","","","","","","",""
"html-keyboard-response","7","64881","0.0-7.0","1631","1","2","""event"",""trial"",""time""
""fullscreenenter"",""1"",""4050""
""blur"",""2"",""7132""
""focus"",""3"",""41895""
","""event"",""trial"",""time""
""blur"",""2"",""7132""
","""event"",""trial"",""time""
""focus"",""3"",""41895""
","""event"",""trial"",""time""
""fullscreenenter"",""1"",""4050""
","
","","","","","","5475.5","Welcome to the experiment. Press any key to begin and to advance the instructions."," ","","","","","","","","","","","","","","","",""
"learning-instructions","8","74693","0.0-8.0-0.0-0.0","1631","1","2","""event"",""trial"",""time""
""fullscreenenter"",""1"",""4050""
""blur"",""2"",""7132""
""focus"",""3"",""41895""
","""event"",""trial"",""time""
""blur"",""2"",""7132""
","""event"",""trial"",""time""
""focus"",""3"",""41895""
","""event"",""trial"",""time""
""fullscreenenter"",""1"",""4050""
","
","","","","","","2059","<p> Welcome! Today you are going to play 6 different rounds of a decision-making game. </p><p> Use the mouse to click next to continue. </p>","","0","instructions","","","","","","","","","","","","","",""
"learning-instructions","9","78555","0.0-8.0-0.0-0.1","1631","1","2","""event"",""trial"",""time""
""fullscreenenter"",""1"",""4050""
""blur"",""2"",""7132""
""focus"",""3"",""41895""
","""event"",""trial"",""time""
""blur"",""2"",""7132""
","""event"",""trial"",""time""
""focus"",""3"",""41895""
","""event"",""trial"",""time""
""fullscreenenter"",""1"",""4050""
","
","","","","","","843.6999998092651","<p> You will start with a practice round to learn the rules. </p>","","0","instructions","","","","","","","","","","","","","",""
"learning-instructions","10","88304","0.0-8.0-0.0-0.2","1631","1","2","""event"",""trial"",""time""
""fullscreenenter"",""1"",""4050""
""blur"",""2"",""7132""
""focus"",""3"",""41895""
","""event"",""trial"",""time""
""blur"",""2"",""7132""
","""event"",""trial"",""time""
""focus"",""3"",""41895""
","""event"",""trial"",""time""
""fullscreenenter"",""1"",""4050""
","
","","","","","","1995.2000000476837","<p> Your goal in this round is to deliver sports equipment to three different parks. </p><p> You will need to deliver many types of equipment. </p></div>","","0","instructions","","","","","","","","","","","","","",""
"learning-instructions","11","97598","0.0-8.0-0.0-0.3","1631","1","2","""event"",""trial"",""time""
""fullscreenenter"",""1"",""4050""
""blur"",""2"",""7132""
""focus"",""3"",""41895""
","""event"",""trial"",""time""
""blur"",""2"",""7132""
","""event"",""trial"",""time""
""focus"",""3"",""41895""
","""event"",""trial"",""time""
""fullscreenenter"",""1"",""4050""
","
","","","","","","792.5","<p> On each turn, you will see one piece of sports equipment and three different parks.  </p><p> You need to select which park to deliver the equipment to.  </p>","","0","instructions","","","","","","","","","","","","","",""
"learning-instructions","12","113027","0.0-8.0-0.0-0.4","1631","1","2","""event"",""trial"",""time""
""fullscreenenter"",""1"",""4050""
""blur"",""2"",""7132""
""focus"",""3"",""41895""
","""event"",""trial"",""time""
""blur"",""2"",""7132""
","""event"",""trial"",""time""
""focus"",""3"",""41895""
","""event"",""trial"",""time""
""fullscreenenter"",""1"",""4050""
","
","","","","","","2141.600000143051","<p> You can select the park on the left by pressing the '1' key on your keyboard. <br>You can select the park in the middle by pressing the '2' key on your keyboard. <br>You can select the park on the right by pressing the '3' key on your keyboard.  </p><br><div class=""choice-instructions-grid""> <div class=""choice-option""><img src=""images/park1.png"" class=""choice-option-img"" stage=""instructions"" position=""0"" ><div class=""choice-option-text""> Press ""1."" </div></div><div class=""choice-option""><img src=""images/park2.png"" class=""choice-option-img"" stage=""instructions"" position=""1"" ><div class=""choice-option-text""> Press ""2."" </div></div><div class=""choice-option""><img src=""images/park3.png"" class=""choice-option-img"" stage=""instructions"" position=""2"" ><div class=""choice-option-text""> Press ""3."" </div></div></div>","","0","instructions","","","","","","","","","","","","","",""
"learning-instructions","13","120074","0.0-8.0-0.0-0.5","1631","1","2","""event"",""trial"",""time""
""fullscreenenter"",""1"",""4050""
""blur"",""2"",""7132""
""focus"",""3"",""41895""
","""event"",""trial"",""time""
""blur"",""2"",""7132""
","""event"",""trial"",""time""
""focus"",""3"",""41895""
","""event"",""trial"",""time""
""fullscreenenter"",""1"",""4050""
","
","","","","","","1657.5","<p> If the kids in the park you chose like the equipment, they will be very happy! </p><div style='float: center;'><img src='images/check.png' width = '200' height = '200'></img>","","0","instructions","","","","","","","","","","","","","",""
"learning-instructions","14","126535","0.0-8.0-0.0-0.6","1631","1","2","""event"",""trial"",""time""
""fullscreenenter"",""1"",""4050""
""blur"",""2"",""7132""
""focus"",""3"",""41895""
","""event"",""trial"",""time""
""blur"",""2"",""7132""
","""event"",""trial"",""time""
""focus"",""3"",""41895""
","""event"",""trial"",""time""
""fullscreenenter"",""1"",""4050""
","
","","","","","","865.5999999046326","<p> But, if the kids in the park you chose do not like the equipment, they will be sad. </p><div style='float: center;'><img src='images/x.png' width = '200' height = '200'></img>","","0","instructions","","","","","","","","","","","","","",""
"learning-instructions","15","133727","0.0-8.0-0.0-0.7","1631","1","2","""event"",""trial"",""time""
""fullscreenenter"",""1"",""4050""
""blur"",""2"",""7132""
""focus"",""3"",""41895""
","""event"",""trial"",""time""
""blur"",""2"",""7132""
","""event"",""trial"",""time""
""focus"",""3"",""41895""
","""event"",""trial"",""time""
""fullscreenenter"",""1"",""4050""
","
","","","","","","751.7000000476837","<p> Importantly, the kids in each park like some pieces of sports equipment more than others. </p>","","0","instructions","","","","","","","","","","","","","",""
"learning-instructions","16","146255","0.0-8.0-0.0-0.8","1631","1","2","""event"",""trial"",""time""
""fullscreenenter"",""1"",""4050""
""blur"",""2"",""7132""
""focus"",""3"",""41895""
","""event"",""trial"",""time""
""blur"",""2"",""7132""
","""event"",""trial"",""time""
""focus"",""3"",""41895""
","""event"",""trial"",""time""
""fullscreenenter"",""1"",""4050""
","
","","","","","","6453.099999904633","<p> If you choose the best park for each piece of equipment, the kids there will usually be happy. </p>","","0","instructions","","","","","","","","","","","","","",""
"learning-instructions","17","157293","0.0-8.0-0.0-0.9","1631","1","2","""event"",""trial"",""time""
""fullscreenenter"",""1"",""4050""
""blur"",""2"",""7132""
""focus"",""3"",""41895""
","""event"",""trial"",""time""
""blur"",""2"",""7132""
","""event"",""trial"",""time""
""focus"",""3"",""41895""
","""event"",""trial"",""time""
""fullscreenenter"",""1"",""4050""
","
","","","","","","4381.5","<p> However, even if you choose the best park for the equipment, the kids may sometimes be sad. </p>","","0","instructions","","","","","","","","","","","","","",""
"learning-instructions","18","165134","0.0-8.0-0.0-0.10","1631","1","2","""event"",""trial"",""time""
""fullscreenenter"",""1"",""4050""
""blur"",""2"",""7132""
""focus"",""3"",""41895""
","""event"",""trial"",""time""
""blur"",""2"",""7132""
","""event"",""trial"",""time""
""focus"",""3"",""41895""
","""event"",""trial"",""time""
""fullscreenenter"",""1"",""4050""
","
","","","","","","606.2999999523163","<p> Similarly, even if you choose the <i>wrong</i> park for the equipment, the kids may still be happy sometimes.","","0","instructions","","","","","","","","","","","","","",""
"learning-instructions","19","170809","0.0-8.0-0.0-0.11","1631","1","2","""event"",""trial"",""time""
""fullscreenenter"",""1"",""4050""
""blur"",""2"",""7132""
""focus"",""3"",""41895""
","""event"",""trial"",""time""
""blur"",""2"",""7132""
","""event"",""trial"",""time""
""focus"",""3"",""41895""
","""event"",""trial"",""time""
""fullscreenenter"",""1"",""4050""
","
","","","","","","606.6999998092651","<p> For example, the best park for this soccer ball is this one.<div style='float: center;'><img src='images/i1.png' width = '500' height = '268'></img>","","0","instructions","","","","","","","","","","","","","",""
"learning-instructions","20","176895","0.0-8.0-0.0-0.12","1631","1","2","""event"",""trial"",""time""
""fullscreenenter"",""1"",""4050""
""blur"",""2"",""7132""
""focus"",""3"",""41895""
","""event"",""trial"",""time""
""blur"",""2"",""7132""
","""event"",""trial"",""time""
""focus"",""3"",""41895""
","""event"",""trial"",""time""
""fullscreenenter"",""1"",""4050""
","
","","","","","","794.2999999523163","<p> Let's see what happens if you choose this park for the soccer ball five times.","","0","instructions","","","","","","","","","","","","","",""
"learning-instructions","21","179957","0.0-8.0-0.0-0.13","1631","1","2","""event"",""trial"",""time""
""fullscreenenter"",""1"",""4050""
""blur"",""2"",""7132""
""focus"",""3"",""41895""
","""event"",""trial"",""time""
""blur"",""2"",""7132""
","""event"",""trial"",""time""
""focus"",""3"",""41895""
","""event"",""trial"",""time""
""fullscreenenter"",""1"",""4050""
","
","","","","","","869.6000001430511","<p> The kids are happy.<div style='float: left;'><img src='images/i2.png' width = '640' height = '360'></img>","","0","instructions","","","","","","","","","","","","","",""
"learning-instructions","22","183052","0.0-8.0-0.0-0.14","1631","1","2","""event"",""trial"",""time""
""fullscreenenter"",""1"",""4050""
""blur"",""2"",""7132""
""focus"",""3"",""41895""
","""event"",""trial"",""time""
""blur"",""2"",""7132""
","""event"",""trial"",""time""
""focus"",""3"",""41895""
","""event"",""trial"",""time""
""fullscreenenter"",""1"",""4050""
","
","","","","","","912.8999998569489","<p> The kids are happy.<div style='float: left;'><img src='images/i3.png' width = '640' height = '360'></img>","","0","instructions","","","","","","","","","","","","","",""
"learning-instructions","23","185463","0.0-8.0-0.0-0.15","1631","1","2","""event"",""trial"",""time""
""fullscreenenter"",""1"",""4050""
""blur"",""2"",""7132""
""focus"",""3"",""41895""
","""event"",""trial"",""time""
""blur"",""2"",""7132""
","""event"",""trial"",""time""
""focus"",""3"",""41895""
","""event"",""trial"",""time""
""fullscreenenter"",""1"",""4050""
","
","","","","","","231.19999980926514","<p> The kids are happy.<div style='float: left;'><img src='images/i4.png' width = '640' height = '360'></img>","","0","instructions","","","","","","","","","","","","","",""
"learning-instructions","24","188246","0.0-8.0-0.0-0.16","1631","1","2","""event"",""trial"",""time""
""fullscreenenter"",""1"",""4050""
""blur"",""2"",""7132""
""focus"",""3"",""41895""
","""event"",""trial"",""time""
""blur"",""2"",""7132""
","""event"",""trial"",""time""
""focus"",""3"",""41895""
","""event"",""trial"",""time""
""fullscreenenter"",""1"",""4050""
","
","","","","","","571.2000000476837","<p> The kids are sad.<div style='float: left;'><img src='images/i5.png' width = '640' height = '360'></img>","","0","instructions","","","","","","","","","","","","","",""
"learning-instructions","25","191397","0.0-8.0-0.0-0.17","1631","1","2","""event"",""trial"",""time""
""fullscreenenter"",""1"",""4050""
""blur"",""2"",""7132""
""focus"",""3"",""41895""
","""event"",""trial"",""time""
""blur"",""2"",""7132""
","""event"",""trial"",""time""
""focus"",""3"",""41895""
","""event"",""trial"",""time""
""fullscreenenter"",""1"",""4050""
","
","","","","","","960.2999999523163","<p> The kids are happy.<div style='float: left;'><img src='images/i6.png' width = '640' height = '360'></img>","","0","instructions","","","","","","","","","","","","","",""
"learning-instructions","26","202778","0.0-8.0-0.0-0.18","1631","1","2","""event"",""trial"",""time""
""fullscreenenter"",""1"",""4050""
""blur"",""2"",""7132""
""focus"",""3"",""41895""
","""event"",""trial"",""time""
""blur"",""2"",""7132""
","""event"",""trial"",""time""
""focus"",""3"",""41895""
","""event"",""trial"",""time""
""fullscreenenter"",""1"",""4050""
","
","","","","","","4095.100000143051","<p> As you can see, selecting that park for the soccer ball made the kids happy most of the time, but not all the time.","","0","instructions","","","","","","","","","","","","","",""
"learning-instructions","27","210315","0.0-8.0-0.0-0.19","1631","1","2","""event"",""trial"",""time""
""fullscreenenter"",""1"",""4050""
""blur"",""2"",""7132""
""focus"",""3"",""41895""
","""event"",""trial"",""time""
""blur"",""2"",""7132""
","""event"",""trial"",""time""
""focus"",""3"",""41895""
","""event"",""trial"",""time""
""fullscreenenter"",""1"",""4050""
","
","","","","","","1531.9000000953674","<p> Now let's see what happens if you choose a DIFFERENT park for the soccer ball 5 times.","","0","instructions","","","","","","","","","","","","","",""
"learning-instructions","28","214331","0.0-8.0-0.0-0.20","1631","1","2","""event"",""trial"",""time""
""fullscreenenter"",""1"",""4050""
""blur"",""2"",""7132""
""focus"",""3"",""41895""
","""event"",""trial"",""time""
""blur"",""2"",""7132""
","""event"",""trial"",""time""
""focus"",""3"",""41895""
","""event"",""trial"",""time""
""fullscreenenter"",""1"",""4050""
","
","","","","","","1793","<p> The kids are sad.<div style='float: left;'><img src='images/i7.png' width = '640' height = '360'></img>","","0","instructions","","","","","","","","","","","","","",""
"learning-instructions","29","216720","0.0-8.0-0.0-0.21","1631","1","2","""event"",""trial"",""time""
""fullscreenenter"",""1"",""4050""
""blur"",""2"",""7132""
""focus"",""3"",""41895""
","""event"",""trial"",""time""
""blur"",""2"",""7132""
","""event"",""trial"",""time""
""focus"",""3"",""41895""
","""event"",""trial"",""time""
""fullscreenenter"",""1"",""4050""
","
","","","","","","170.90000009536743","<p> The kids are sad.<div style='float: left;'><img src='images/i8.png' width = '640' height = '360'></img>","","0","instructions","","","","","","","","","","","","","",""
"learning-instructions","30","219101","0.0-8.0-0.0-0.22","1631","1","2","""event"",""trial"",""time""
""fullscreenenter"",""1"",""4050""
""blur"",""2"",""7132""
""focus"",""3"",""41895""
","""event"",""trial"",""time""
""blur"",""2"",""7132""
","""event"",""trial"",""time""
""focus"",""3"",""41895""
","""event"",""trial"",""time""
""fullscreenenter"",""1"",""4050""
","
","","","","","","205.70000004768372","<p> The kids are happy.<div style='float: left;'><img src='images/i9.png' width = '640' height = '360'></img>","","0","instructions","","","","","","","","","","","","","",""
"learning-instructions","31","221825","0.0-8.0-0.0-0.23","1631","1","2","""event"",""trial"",""time""
""fullscreenenter"",""1"",""4050""
""blur"",""2"",""7132""
""focus"",""3"",""41895""
","""event"",""trial"",""time""
""blur"",""2"",""7132""
","""event"",""trial"",""time""
""focus"",""3"",""41895""
","""event"",""trial"",""time""
""fullscreenenter"",""1"",""4050""
","
","","","","","","518.9000000953674","<p> The kids are sad.<div style='float: left;'><img src='images/i10.png' width = '640' height = '360'></img>","","0","instructions","","","","","","","","","","","","","",""
"learning-instructions","32","225249","0.0-8.0-0.0-0.24","1631","1","2","""event"",""trial"",""time""
""fullscreenenter"",""1"",""4050""
""blur"",""2"",""7132""
""focus"",""3"",""41895""
","""event"",""trial"",""time""
""blur"",""2"",""7132""
","""event"",""trial"",""time""
""focus"",""3"",""41895""
","""event"",""trial"",""time""
""fullscreenenter"",""1"",""4050""
","
","","","","","","1201.7000000476837","<p> The kids are sad.<div style='float: left;'><img src='images/i11.png' width = '640' height = '360'></img>","","0","instructions","","","","","","","","","","","","","",""
"learning-instructions","33","235164","0.0-8.0-0.0-0.25","1631","1","2","""event"",""trial"",""time""
""fullscreenenter"",""1"",""4050""
""blur"",""2"",""7132""
""focus"",""3"",""41895""
","""event"",""trial"",""time""
""blur"",""2"",""7132""
","""event"",""trial"",""time""
""focus"",""3"",""41895""
","""event"",""trial"",""time""
""fullscreenenter"",""1"",""4050""
","
","","","","","","1782.6999998092651","<p> As you can see, selecting the wrong park for the soccer ball made the kids sad most of the time, but not all the time.","","0","instructions","","","","","","","","","","","","","",""
"learning-instructions","34","244784","0.0-8.0-0.0-0.26","1631","1","2","""event"",""trial"",""time""
""fullscreenenter"",""1"",""4050""
""blur"",""2"",""7132""
""focus"",""3"",""41895""
","""event"",""trial"",""time""
""blur"",""2"",""7132""
","""event"",""trial"",""time""
""focus"",""3"",""41895""
","""event"",""trial"",""time""
""fullscreenenter"",""1"",""4050""
","
","","","","","","501.7000000476837","<p> The different pieces of equipment belong in different parks. You need to try to learn which is the best park for each piece of equipment.","","0","instructions","","","","","","","","","","","","","",""
"learning-instructions","35","262638","0.0-8.0-0.0-0.27","1631","1","2","""event"",""trial"",""time""
""fullscreenenter"",""1"",""4050""
""blur"",""2"",""7132""
""focus"",""3"",""41895""
","""event"",""trial"",""time""
""blur"",""2"",""7132""
","""event"",""trial"",""time""
""focus"",""3"",""41895""
","""event"",""trial"",""time""
""fullscreenenter"",""1"",""4050""
","
","","","","","","1459.5999999046326","<p> Try to choose the best park for each piece of equipment, because you will <b> WIN </b> 1 point for each time you make the kids happy and <b>LOSE</b> 1 point for each time you make them sad. </p><p> Remember, if you make the best choice, you will win 1 point most of the time, but not all the time. </p>","","0","instructions","","","","","","","","","","","","","",""
"learning-instructions","36","269574","0.0-8.0-0.0-0.28","1631","1","2","""event"",""trial"",""time""
""fullscreenenter"",""1"",""4050""
""blur"",""2"",""7132""
""focus"",""3"",""41895""
","""event"",""trial"",""time""
""blur"",""2"",""7132""
","""event"",""trial"",""time""
""focus"",""3"",""41895""
","""event"",""trial"",""time""
""fullscreenenter"",""1"",""4050""
","
","","","","","","1451.5999999046326","<p> This is just a practice round, but in the real game, your bonus payment will depend on your total number of points.","","0","instructions","","","","","","","","","","","","","",""
"learning-instructions","37","280381","0.0-8.0-0.0-0.29","1631","1","2","""event"",""trial"",""time""
""fullscreenenter"",""1"",""4050""
""blur"",""2"",""7132""
""focus"",""3"",""41895""
","""event"",""trial"",""time""
""blur"",""2"",""7132""
","""event"",""trial"",""time""
""focus"",""3"",""41895""
","""event"",""trial"",""time""
""fullscreenenter"",""1"",""4050""
","
","","","","","","483.40000009536743","<p> The position where each park appears will change throughout the game. </p><p> The position where the park appears <i> does not </i> influence how likely the kids are to be happy or sad. </p>","","0","instructions","","","","","","","","","","","","","",""
"learning-instructions","38","295301","0.0-8.0-0.0-0.30","1631","1","2","""event"",""trial"",""time""
""fullscreenenter"",""1"",""4050""
""blur"",""2"",""7132""
""focus"",""3"",""41895""
","""event"",""trial"",""time""
""blur"",""2"",""7132""
","""event"",""trial"",""time""
""focus"",""3"",""41895""
","""event"",""trial"",""time""
""fullscreenenter"",""1"",""4050""
","
","","","","","","1707.5","<p> You will have 4 seconds to make each choice. Try to respond before time runs out! </p><p> You will lose 1 point each time you do not make a response. </p>","","0","instructions","","","","","","","","","","","","","",""
"learning-instructions","39","303569","0.0-8.0-0.0-0.31","1631","1","2","""event"",""trial"",""time""
""fullscreenenter"",""1"",""4050""
""blur"",""2"",""7132""
""focus"",""3"",""41895""
","""event"",""trial"",""time""
""blur"",""2"",""7132""
","""event"",""trial"",""time""
""focus"",""3"",""41895""
","""event"",""trial"",""time""
""fullscreenenter"",""1"",""4050""
","
","","","","","","1473.2000000476837","<p> Remember, you should use the 1, 2, and 3 keys to select the park for each piece of equipment. </p><br><div class=""choice-instructions-grid""> <div class=""choice-option""><img src=""images/park1.png"" class=""choice-option-img"" stage=""instructions"" position=""0"" ><div class=""choice-option-text""> Press ""1."" </div></div><div class=""choice-option""><img src=""images/park2.png"" class=""choice-option-img"" stage=""instructions"" position=""1"" ><div class=""choice-option-text""> Press ""2."" </div></div><div class=""choice-option""><img src=""images/park3.png"" class=""choice-option-img"" stage=""instructions"" position=""2"" ><div class=""choice-option-text""> Press ""3."" </div></div></div>","","0","instructions","","","","","","","","","","","","","",""
"html-button-response","40","305742","0.0-8.0-1.0","1631","1","2","""event"",""trial"",""time""
""fullscreenenter"",""1"",""4050""
""blur"",""2"",""7132""
""focus"",""3"",""41895""
","""event"",""trial"",""time""
""blur"",""2"",""7132""
","""event"",""trial"",""time""
""focus"",""3"",""41895""
","""event"",""trial"",""time""
""fullscreenenter"",""1"",""4050""
","
","","","","","","2067.300000190735","<p> Ready to practice? </p>","0","","","","","","","","","","","","","","","",""
"html-keyboard-response","41","306361","0.0-8.0-2.0-0.0","1631","1","2","""event"",""trial"",""time""
""fullscreenenter"",""1"",""4050""
""blur"",""2"",""7132""
""focus"",""3"",""41895""
","""event"",""trial"",""time""
""blur"",""2"",""7132""
","""event"",""trial"",""time""
""focus"",""3"",""41895""
","""event"",""trial"",""time""
""fullscreenenter"",""1"",""4050""
","
","","","","","","null","<div style=""font-size:60px;"">+</div>","null","","fixation","","","","","","","","","","","","","",""
"learning-trial","42","310382","0.0-8.0-2.0-1.0","1631","1","2","""event"",""trial"",""time""
""fullscreenenter"",""1"",""4050""
""blur"",""2"",""7132""
""focus"",""3"",""41895""
","""event"",""trial"",""time""
""blur"",""2"",""7132""
","""event"",""trial"",""time""
""focus"",""3"",""41895""
","""event"",""trial"",""time""
""fullscreenenter"",""1"",""4050""
","
","","","","","","2494.7000000476837","images/ball3.png","","","practice","images/park2.png","images/park1.png","images/park3.png","[1,0,2]","1","0","3","images/park3.png","-1","practice","","","",""
"html-keyboard-response","43","310884","0.0-8.0-2.0-0.1","1631","1","2","""event"",""trial"",""time""
""fullscreenenter"",""1"",""4050""
""blur"",""2"",""7132""
""focus"",""3"",""41895""
","""event"",""trial"",""time""
""blur"",""2"",""7132""
","""event"",""trial"",""time""
""focus"",""3"",""41895""
","""event"",""trial"",""time""
""fullscreenenter"",""1"",""4050""
","
","","","","","","null","<div style=""font-size:60px;"">+</div>","null","","fixation","","","","","","","","","","","","","",""
"learning-trial","44","314888","0.0-8.0-2.0-1.1","1631","1","2","""event"",""trial"",""time""
""fullscreenenter"",""1"",""4050""
""blur"",""2"",""7132""
""focus"",""3"",""41895""
","""event"",""trial"",""time""
""blur"",""2"",""7132""
","""event"",""trial"",""time""
""focus"",""3"",""41895""
","""event"",""trial"",""time""
""fullscreenenter"",""1"",""4050""
","
","","","","","","2666.2000000476837","images/ball4.png","","","practice","images/park1.png","images/park2.png","images/park3.png","[0,1,2]","0","0","1","images/park1.png","1","practice","","","",""
"html-keyboard-response","45","315400","0.0-8.0-2.0-0.2","1631","1","2","""event"",""trial"",""time""
""fullscreenenter"",""1"",""4050""
""blur"",""2"",""7132""
""focus"",""3"",""41895""
","""event"",""trial"",""time""
""blur"",""2"",""7132""
","""event"",""trial"",""time""
""focus"",""3"",""41895""
","""event"",""trial"",""time""
""fullscreenenter"",""1"",""4050""
","
","","","","","","null","<div style=""font-size:60px;"">+</div>","null","","fixation","","","","","","","","","","","","","",""
"learning-trial","46","319405","0.0-8.0-2.0-1.2","1631","1","2","""event"",""trial"",""time""
""fullscreenenter"",""1"",""4050""
""blur"",""2"",""7132""
""focus"",""3"",""41895""
","""event"",""trial"",""time""
""blur"",""2"",""7132""
","""event"",""trial"",""time""
""focus"",""3"",""41895""
","""event"",""trial"",""time""
""fullscreenenter"",""1"",""4050""
","
","","","","","","1521.9000000953674","images/ball3.png","","","practice","images/park3.png","images/park1.png","images/park2.png","[2,0,1]","1","2","2","images/park1.png","-1","practice","","","",""
"html-keyboard-response","47","319907","0.0-8.0-2.0-0.3","1631","1","2","""event"",""trial"",""time""
""fullscreenenter"",""1"",""4050""
""blur"",""2"",""7132""
""focus"",""3"",""41895""
","""event"",""trial"",""time""
""blur"",""2"",""7132""
","""event"",""trial"",""time""
""focus"",""3"",""41895""
","""event"",""trial"",""time""
""fullscreenenter"",""1"",""4050""
","
","","","","","","null","<div style=""font-size:60px;"">+</div>","null","","fixation","","","","","","","","","","","","","",""
"learning-trial","48","323913","0.0-8.0-2.0-1.3","1631","1","2","""event"",""trial"",""time""
""fullscreenenter"",""1"",""4050""
""blur"",""2"",""7132""
""focus"",""3"",""41895""
","""event"",""trial"",""time""
""blur"",""2"",""7132""
","""event"",""trial"",""time""
""focus"",""3"",""41895""
","""event"",""trial"",""time""
""fullscreenenter"",""1"",""4050""
","
","","","","","","3024.7000000476837","images/ball2.png","","","practice","images/park1.png","images/park2.png","images/park3.png","[0,1,2]","2","2","1","images/park1.png","-1","practice","","","",""
"html-keyboard-response","49","324430","0.0-8.0-2.0-0.4","1631","1","2","""event"",""trial"",""time""
""fullscreenenter"",""1"",""4050""
""blur"",""2"",""7132""
""focus"",""3"",""41895""
","""event"",""trial"",""time""
""blur"",""2"",""7132""
","""event"",""trial"",""time""
""focus"",""3"",""41895""
","""event"",""trial"",""time""
""fullscreenenter"",""1"",""4050""
","
","","","","","","null","<div style=""font-size:60px;"">+</div>","null","","fixation","","","","","","","","","","","","","",""
"learning-trial","50","328452","0.0-8.0-2.0-1.4","1631","1","2","""event"",""trial"",""time""
""fullscreenenter"",""1"",""4050""
""blur"",""2"",""7132""
""focus"",""3"",""41895""
","""event"",""trial"",""time""
""blur"",""2"",""7132""
","""event"",""trial"",""time""
""focus"",""3"",""41895""
","""event"",""trial"",""time""
""fullscreenenter"",""1"",""4050""
","
","","","","","","2468.699999809265","images/racket2.png","","","practice","images/park1.png","images/park2.png","images/park3.png","[0,1,2]","0","0","3","images/park3.png","-1","practice","","","",""
"html-keyboard-response","51","328974","0.0-8.0-2.0-0.5","1631","1","2","""event"",""trial"",""time""
""fullscreenenter"",""1"",""4050""
""blur"",""2"",""7132""
""focus"",""3"",""41895""
","""event"",""trial"",""time""
""blur"",""2"",""7132""
","""event"",""trial"",""time""
""focus"",""3"",""41895""
","""event"",""trial"",""time""
""fullscreenenter"",""1"",""4050""
","
","","","","","","null","<div style=""font-size:60px;"">+</div>","null","","fixation","","","","","","","","","","","","","",""
"learning-trial","52","332978","0.0-8.0-2.0-1.5","1631","1","2","""event"",""trial"",""time""
""fullscreenenter"",""1"",""4050""
""blur"",""2"",""7132""
""focus"",""3"",""41895""
","""event"",""trial"",""time""
""blur"",""2"",""7132""
","""event"",""trial"",""time""
""focus"",""3"",""41895""
","""event"",""trial"",""time""
""fullscreenenter"",""1"",""4050""
","
","","","","","","2641.600000143051","images/racket4.png","","","practice","images/park3.png","images/park1.png","images/park2.png","[2,0,1]","1","2","2","images/park1.png","-1","practice","","","",""
"html-keyboard-response","53","333480","0.0-8.0-2.0-0.6","1631","1","2","""event"",""trial"",""time""
""fullscreenenter"",""1"",""4050""
""blur"",""2"",""7132""
""focus"",""3"",""41895""
","""event"",""trial"",""time""
""blur"",""2"",""7132""
","""event"",""trial"",""time""
""focus"",""3"",""41895""
","""event"",""trial"",""time""
""fullscreenenter"",""1"",""4050""
","
","","","","","","null","<div style=""font-size:60px;"">+</div>","null","","fixation","","","","","","","","","","","","","",""
"learning-trial","54","337483","0.0-8.0-2.0-1.6","1631","1","2","""event"",""trial"",""time""
""fullscreenenter"",""1"",""4050""
""blur"",""2"",""7132""
""focus"",""3"",""41895""
","""event"",""trial"",""time""
""blur"",""2"",""7132""
","""event"",""trial"",""time""
""focus"",""3"",""41895""
","""event"",""trial"",""time""
""fullscreenenter"",""1"",""4050""
","
","","","","","","1932.7000000476837","images/ball1.png","","","practice","images/park2.png","images/park3.png","images/park1.png","[1,2,0]","2","1","1","images/park2.png","-1","practice","","","",""
"html-keyboard-response","55","337985","0.0-8.0-2.0-0.7","1631","1","2","""event"",""trial"",""time""
""fullscreenenter"",""1"",""4050""
""blur"",""2"",""7132""
""focus"",""3"",""41895""
","""event"",""trial"",""time""
""blur"",""2"",""7132""
","""event"",""trial"",""time""
""focus"",""3"",""41895""
","""event"",""trial"",""time""
""fullscreenenter"",""1"",""4050""
","
","","","","","","null","<div style=""font-size:60px;"">+</div>","null","","fixation","","","","","","","","","","","","","",""
"learning-trial","56","341989","0.0-8.0-2.0-1.7","1631","1","2","""event"",""trial"",""time""
""fullscreenenter"",""1"",""4050""
""blur"",""2"",""7132""
""focus"",""3"",""41895""
","""event"",""trial"",""time""
""blur"",""2"",""7132""
","""event"",""trial"",""time""
""focus"",""3"",""41895""
","""event"",""trial"",""time""
""fullscreenenter"",""1"",""4050""
","
","","","","","","1982","images/racket2.png","","","practice","images/park3.png","images/park2.png","images/park1.png","[2,1,0]","0","2","1","images/park3.png","-1","practice","","","",""
"html-keyboard-response","57","342492","0.0-8.0-2.0-0.8","1631","1","2","""event"",""trial"",""time""
""fullscreenenter"",""1"",""4050""
""blur"",""2"",""7132""
""focus"",""3"",""41895""
","""event"",""trial"",""time""
""blur"",""2"",""7132""
","""event"",""trial"",""time""
""focus"",""3"",""41895""
","""event"",""trial"",""time""
""fullscreenenter"",""1"",""4050""
","
","","","","","","null","<div style=""font-size:60px;"">+</div>","null","","fixation","","","","","","","","","","","","","",""
"learning-trial","58","346496","0.0-8.0-2.0-1.8","1631","1","2","""event"",""trial"",""time""
""fullscreenenter"",""1"",""4050""
""blur"",""2"",""7132""
""focus"",""3"",""41895""
","""event"",""trial"",""time""
""blur"",""2"",""7132""
","""event"",""trial"",""time""
""focus"",""3"",""41895""
","""event"",""trial"",""time""
""fullscreenenter"",""1"",""4050""
","
","","","","","","1671.3000001907349","images/racket4.png","","","practice","images/park1.png","images/park2.png","images/park3.png","[0,1,2]","1","1","2","images/park2.png","1","practice","","","",""
"html-keyboard-response","59","346998","0.0-8.0-2.0-0.9","1631","1","2","""event"",""trial"",""time""
""fullscreenenter"",""1"",""4050""
""blur"",""2"",""7132""
""focus"",""3"",""41895""
","""event"",""trial"",""time""
""blur"",""2"",""7132""
","""event"",""trial"",""time""
""focus"",""3"",""41895""
","""event"",""trial"",""time""
""fullscreenenter"",""1"",""4050""
","
","","","","","","null","<div style=""font-size:60px;"">+</div>","null","","fixation","","","","","","","","","","","","","",""
"learning-trial","60","351002","0.0-8.0-2.0-1.9","1631","1","2","""event"",""trial"",""time""
""fullscreenenter"",""1"",""4050""
""blur"",""2"",""7132""
""focus"",""3"",""41895""
","""event"",""trial"",""time""
""blur"",""2"",""7132""
","""event"",""trial"",""time""
""focus"",""3"",""41895""
","""event"",""trial"",""time""
""fullscreenenter"",""1"",""4050""
","
","","","","","","1916.7000000476837","images/ball2.png","","","practice","images/park3.png","images/park2.png","images/park1.png","[2,1,0]","2","0","2","images/park2.png","-1","practice","","","",""
"html-keyboard-response","61","351504","0.0-8.0-2.0-0.10","1631","1","2","""event"",""trial"",""time""
""fullscreenenter"",""1"",""4050""
""blur"",""2"",""7132""
""focus"",""3"",""41895""
","""event"",""trial"",""time""
""blur"",""2"",""7132""
","""event"",""trial"",""time""
""focus"",""3"",""41895""
","""event"",""trial"",""time""
""fullscreenenter"",""1"",""4050""
","
","","","","","","null","<div style=""font-size:60px;"">+</div>","null","","fixation","","","","","","","","","","","","","",""
"learning-trial","62","355507","0.0-8.0-2.0-1.10","1631","1","2","""event"",""trial"",""time""
""fullscreenenter"",""1"",""4050""
""blur"",""2"",""7132""
""focus"",""3"",""41895""
","""event"",""trial"",""time""
""blur"",""2"",""7132""
","""event"",""trial"",""time""
""focus"",""3"",""41895""
","""event"",""trial"",""time""
""fullscreenenter"",""1"",""4050""
","
","","","","","","1903.2999999523163","images/ball1.png","","","practice","images/park2.png","images/park3.png","images/park1.png","[1,2,0]","2","1","2","images/park3.png","1","practice","","","",""
"html-keyboard-response","63","356010","0.0-8.0-2.0-0.11","1631","1","2","""event"",""trial"",""time""
""fullscreenenter"",""1"",""4050""
""blur"",""2"",""7132""
""focus"",""3"",""41895""
","""event"",""trial"",""time""
""blur"",""2"",""7132""
","""event"",""trial"",""time""
""focus"",""3"",""41895""
","""event"",""trial"",""time""
""fullscreenenter"",""1"",""4050""
","
","","","","","","null","<div style=""font-size:60px;"">+</div>","null","","fixation","","","","","","","","","","","","","",""
"learning-trial","64","360012","0.0-8.0-2.0-1.11","1631","1","2","""event"",""trial"",""time""
""fullscreenenter"",""1"",""4050""
""blur"",""2"",""7132""
""focus"",""3"",""41895""
","""event"",""trial"",""time""
""blur"",""2"",""7132""
","""event"",""trial"",""time""
""focus"",""3"",""41895""
","""event"",""trial"",""time""
""fullscreenenter"",""1"",""4050""
","
","","","","","","2056.4000000953674","images/ball4.png","","","practice","images/park3.png","images/park1.png","images/park2.png","[2,0,1]","0","1","1","images/park3.png","-1","practice","","","",""
"html-button-response","65","362753","0.0-8.0-3.0","1631","1","2","""event"",""trial"",""time""
""fullscreenenter"",""1"",""4050""
""blur"",""2"",""7132""
""focus"",""3"",""41895""
","""event"",""trial"",""time""
""blur"",""2"",""7132""
","""event"",""trial"",""time""
""focus"",""3"",""41895""
","""event"",""trial"",""time""
""fullscreenenter"",""1"",""4050""
","
","","","","","","2738.2000000476837","<p> You earned -6 points in the practice round! </p>","0","","break","","","","","","","","","","","","","",""
"learning-instructions","66","371071","0.0-8.0-4.0-0.0","1631","1","2","""event"",""trial"",""time""
""fullscreenenter"",""1"",""4050""
""blur"",""2"",""7132""
""focus"",""3"",""41895""
","""event"",""trial"",""time""
""blur"",""2"",""7132""
","""event"",""trial"",""time""
""focus"",""3"",""41895""
","""event"",""trial"",""time""
""fullscreenenter"",""1"",""4050""
","
","","","","","","634.2000000476837","<p> It's almost time to start the real game. </p><p> Before you start, we're going to ask you a few questions about how the game works. </p>","","0","instructions","","","","","","","","","","","","","",""
"preload","67","375211","0.0-8.0-5.0","1631","1","2","""event"",""trial"",""time""
""fullscreenenter"",""1"",""4050""
""blur"",""2"",""7132""
""focus"",""3"",""41895""
","""event"",""trial"",""time""
""blur"",""2"",""7132""
","""event"",""trial"",""time""
""focus"",""3"",""41895""
","""event"",""trial"",""time""
""fullscreenenter"",""1"",""4050""
","
","true","false","[]","[]","[]","","","","","","","","","","","","","","","","","","",""
"comp-q","68","382657","0.0-8.0-6.0-0.0","1631","1","2","""event"",""trial"",""time""
""fullscreenenter"",""1"",""4050""
""blur"",""2"",""7132""
""focus"",""3"",""41895""
","""event"",""trial"",""time""
""blur"",""2"",""7132""
","""event"",""trial"",""time""
""focus"",""3"",""41895""
","""event"",""trial"",""time""
""fullscreenenter"",""1"",""4050""
","
","","","","","","2001.1000001430511","<p> <b> True or False? </b> </p><p> If you choose the best option, you will always earn 1 point. </p>","","1","comp_question","","","","","","","","","","","true","","",""
"comp-q","69","390973","0.0-8.0-6.0-1.0","1631","1","2","""event"",""trial"",""time""
""fullscreenenter"",""1"",""4050""
""blur"",""2"",""7132""
""focus"",""3"",""41895""
","""event"",""trial"",""time""
""blur"",""2"",""7132""
","""event"",""trial"",""time""
""focus"",""3"",""41895""
","""event"",""trial"",""time""
""fullscreenenter"",""1"",""4050""
","
","","","","","","2637.4000000953674","<p><b> That's right! </b> Sometimes you will lose 1 point, even if you choose the best option. </p>","","0","comp_answer","","","","","","","","","","","","","",""
"comp-q","70","396365","0.0-8.0-6.0-0.1","1631","1","2","""event"",""trial"",""time""
""fullscreenenter"",""1"",""4050""
""blur"",""2"",""7132""
""focus"",""3"",""41895""
","""event"",""trial"",""time""
""blur"",""2"",""7132""
","""event"",""trial"",""time""
""focus"",""3"",""41895""
","""event"",""trial"",""time""
""fullscreenenter"",""1"",""4050""
","
","","","","","","755","<p> <b> True or False? </b> </p><p> You will have as much time as you want to make each choice. </p>","","1","comp_question","","","","","","","","","","","true","","",""
"comp-q","71","403561","0.0-8.0-6.0-1.1","1631","1","2","""event"",""trial"",""time""
""fullscreenenter"",""1"",""4050""
""blur"",""2"",""7132""
""focus"",""3"",""41895""
","""event"",""trial"",""time""
""blur"",""2"",""7132""
","""event"",""trial"",""time""
""focus"",""3"",""41895""
","""event"",""trial"",""time""
""fullscreenenter"",""1"",""4050""
","
","","","","","","2371.7999999523163","<p> <b> That's right! </b> You will only have 4 seconds to make each choice. </p>","","0","comp_answer","","","","","","","","","","","","","",""
"comp-q","72","410487","0.0-8.0-6.0-0.2","1631","1","2","""event"",""trial"",""time""
""fullscreenenter"",""1"",""4050""
""blur"",""2"",""7132""
""focus"",""3"",""41895""
","""event"",""trial"",""time""
""blur"",""2"",""7132""
","""event"",""trial"",""time""
""focus"",""3"",""41895""
","""event"",""trial"",""time""
""fullscreenenter"",""1"",""4050""
","
","","","","","","764.7999999523163","<p> <b> True or False? </b> </p><p> You should use the '1', '2', and '3' keys to make your choices. </p>","","0","comp_question","","","","","","","","","","","true","","",""
"comp-q","73","417083","0.0-8.0-6.0-1.2","1631","1","2","""event"",""trial"",""time""
""fullscreenenter"",""1"",""4050""
""blur"",""2"",""7132""
""focus"",""3"",""41895""
","""event"",""trial"",""time""
""blur"",""2"",""7132""
","""event"",""trial"",""time""
""focus"",""3"",""41895""
","""event"",""trial"",""time""
""fullscreenenter"",""1"",""4050""
","
","","","","","","1728.7000000476837","<p> <b> That's right! </b> You should use the '1', '2', and '3' keys to make each choice. </p>","","0","comp_answer","","","","","","","","","","","","","",""
"learning-instructions","74","427728","0.0-8.0-7.0-0.0","1631","1","2","""event"",""trial"",""time""
""fullscreenenter"",""1"",""4050""
""blur"",""2"",""7132""
""focus"",""3"",""41895""
","""event"",""trial"",""time""
""blur"",""2"",""7132""
","""event"",""trial"",""time""
""focus"",""3"",""41895""
","""event"",""trial"",""time""
""fullscreenenter"",""1"",""4050""
","
","","","","","","2154.100000143051","<p> It's now time to start the real game. </p>Do your best, because the points you earn in the next rounds will influence your bonus payment. </p>","","0","instructions","","","","","","","","","","","","","",""
"preload","75","432813","0.0-9.0-0.0","1631","1","2","""event"",""trial"",""time""
""fullscreenenter"",""1"",""4050""
""blur"",""2"",""7132""
""focus"",""3"",""41895""
","""event"",""trial"",""time""
""blur"",""2"",""7132""
","""event"",""trial"",""time""
""focus"",""3"",""41895""
","""event"",""trial"",""time""
""fullscreenenter"",""1"",""4050""
","
","true","false","[]","[]","[]","","","","","","","","","","","","","","","","","","",""
"learning-instructions","76","441094","0.0-9.0-1.0-0.0","1631","1","2","""event"",""trial"",""time""
""fullscreenenter"",""1"",""4050""
""blur"",""2"",""7132""
""focus"",""3"",""41895""
","""event"",""trial"",""time""
""blur"",""2"",""7132""
","""event"",""trial"",""time""
""focus"",""3"",""41895""
","""event"",""trial"",""time""
""fullscreenenter"",""1"",""4050""
","
","","","","","","1792.7000000476837","<p> Your goal in this round is to buy different types of fruits. </p><p> You will try to purchase many fruits from different stores. </p></div>","","0","instructions","","","","","","","","","","","","","",""
"learning-instructions","77","451083","0.0-9.0-1.0-0.1","1631","1","2","""event"",""trial"",""time""
""fullscreenenter"",""1"",""4050""
""blur"",""2"",""7132""
""focus"",""3"",""41895""
","""event"",""trial"",""time""
""blur"",""2"",""7132""
","""event"",""trial"",""time""
""focus"",""3"",""41895""
","""event"",""trial"",""time""
""fullscreenenter"",""1"",""4050""
","
","","","","","","1499.7000000476837","<p> On each turn, you will see a picture of a fruit and three different stores.  </p><p> You need to select the store where you can buy that fruit.  </p>","","0","instructions","","","","","","","","","","","","","",""
"learning-instructions","78","460857","0.0-9.0-1.0-0.2","1631","1","2","""event"",""trial"",""time""
""fullscreenenter"",""1"",""4050""
""blur"",""2"",""7132""
""focus"",""3"",""41895""
","""event"",""trial"",""time""
""blur"",""2"",""7132""
","""event"",""trial"",""time""
""focus"",""3"",""41895""
","""event"",""trial"",""time""
""fullscreenenter"",""1"",""4050""
","
","","","","","","2387.2999999523163","<p> You can select the store on the left by pressing 1, the store in the middle by pressing 2, and the store on the right by pressing 3. </p><br><div class=""choice-instructions-grid""> <div class=""choice-option""><img src=""images/fruit_choice1.png"" class=""choice-option-img"" stage=""instructions"" position=""0"" ><div class=""choice-option-text""> Press ""1."" </div></div><div class=""choice-option""><img src=""images/fruit_choice2.png"" class=""choice-option-img"" stage=""instructions"" position=""1"" ><div class=""choice-option-text""> Press ""2."" </div></div><div class=""choice-option""><img src=""images/fruit_choice3.png"" class=""choice-option-img"" stage=""instructions"" position=""2"" ><div class=""choice-option-text""> Press ""3."" </div></div></div>","","0","instructions","","","","","","","","","","","","","",""
"learning-instructions","79","467251","0.0-9.0-1.0-0.3","1631","1","2","""event"",""trial"",""time""
""fullscreenenter"",""1"",""4050""
""blur"",""2"",""7132""
""focus"",""3"",""41895""
","""event"",""trial"",""time""
""blur"",""2"",""7132""
","""event"",""trial"",""time""
""focus"",""3"",""41895""
","""event"",""trial"",""time""
""fullscreenenter"",""1"",""4050""
","
","","","","","","1432.9000000953674","<p> If you find the fruit in the store you chose, you will get to buy and eat it! </p><div style='float: center;'><img src='images/check.png' width = '200' height = '200'></img>","","0","instructions","","","","","","","","","","","","","",""
"learning-instructions","80","472739","0.0-9.0-1.0-0.4","1631","1","2","""event"",""trial"",""time""
""fullscreenenter"",""1"",""4050""
""blur"",""2"",""7132""
""focus"",""3"",""41895""
","""event"",""trial"",""time""
""blur"",""2"",""7132""
","""event"",""trial"",""time""
""focus"",""3"",""41895""
","""event"",""trial"",""time""
""fullscreenenter"",""1"",""4050""
","
","","","","","","1022.4000000953674","<p> But, if the fruit is not in that store, you will be hungry. </p><div style='float: center;'><img src='images/x.png' width = '200' height = '200'></img>","","0","instructions","","","","","","","","","","","","","",""
"learning-instructions","81","485437","0.0-9.0-1.0-0.5","1631","1","2","""event"",""trial"",""time""
""fullscreenenter"",""1"",""4050""
""blur"",""2"",""7132""
""focus"",""3"",""41895""
","""event"",""trial"",""time""
""blur"",""2"",""7132""
","""event"",""trial"",""time""
""focus"",""3"",""41895""
","""event"",""trial"",""time""
""fullscreenenter"",""1"",""4050""
","
","","","","","","2903.9000000953674","<p> Importantly, each fruit is more likely to be found in one of the stores. </p><p> If you choose the correct store, you will be more likely to be able to buy the fruit! </p>","","0","instructions","","","","","","","","","","","","","",""
"learning-instructions","82","500215","0.0-9.0-1.0-0.6","1631","1","2","""event"",""trial"",""time""
""fullscreenenter"",""1"",""4050""
""blur"",""2"",""7132""
""focus"",""3"",""41895""
","""event"",""trial"",""time""
""blur"",""2"",""7132""
","""event"",""trial"",""time""
""focus"",""3"",""41895""
","""event"",""trial"",""time""
""fullscreenenter"",""1"",""4050""
","
","","","","","","4327.299999952316","<p> However, even if you choose the best store for the fruit, the store might not have it sometimes. </p><p> Similarly, even if you choose the <i>wrong</i> store, it might still have the fruit.","","0","instructions","","","","","","","","","","","","","",""
"learning-instructions","83","513202","0.0-9.0-1.0-0.7","1631","1","2","""event"",""trial"",""time""
""fullscreenenter"",""1"",""4050""
""blur"",""2"",""7132""
""focus"",""3"",""41895""
","""event"",""trial"",""time""
""blur"",""2"",""7132""
","""event"",""trial"",""time""
""focus"",""3"",""41895""
","""event"",""trial"",""time""
""fullscreenenter"",""1"",""4050""
","
","","","","","","802","<p> Try to choose the best store for each fruit, because you will <b> WIN </b> 1 point for each fruit you eat and <b>LOSE</b> 1 point each time you are hungry. </p><p> Your bonus payment will depend on your total number of points.","","0","instructions","","","","","","","","","","","","","",""
"learning-instructions","84","521937","0.0-9.0-1.0-0.8","1631","1","2","""event"",""trial"",""time""
""fullscreenenter"",""1"",""4050""
""blur"",""2"",""7132""
""focus"",""3"",""41895""
","""event"",""trial"",""time""
""blur"",""2"",""7132""
","""event"",""trial"",""time""
""focus"",""3"",""41895""
","""event"",""trial"",""time""
""fullscreenenter"",""1"",""4050""
","
","","","","","","524.5999999046326","<p> The position of each store will change throughout the round. </p><p> The store's position <i> does not </i> influence how likely you are to find the fruit. </p>","","0","instructions","","","","","","","","","","","","","",""
"learning-instructions","85","534154","0.0-9.0-1.0-0.9","1631","1","2","""event"",""trial"",""time""
""fullscreenenter"",""1"",""4050""
""blur"",""2"",""7132""
""focus"",""3"",""41895""
","""event"",""trial"",""time""
""blur"",""2"",""7132""
","""event"",""trial"",""time""
""focus"",""3"",""41895""
","""event"",""trial"",""time""
""fullscreenenter"",""1"",""4050""
","
","","","","","","2916.2000000476837","<p> You will have 4 seconds to make each choice. Try to respond before time runs out! </p><p> You will lose 1 point each time you do not make a response. </p>","","0","instructions","","","","","","","","","","","","","",""
"html-keyboard-response","86","534777","0.0-9.0-2.0-0.0","1631","1","2","""event"",""trial"",""time""
""fullscreenenter"",""1"",""4050""
""blur"",""2"",""7132""
""focus"",""3"",""41895""
","""event"",""trial"",""time""
""blur"",""2"",""7132""
","""event"",""trial"",""time""
""focus"",""3"",""41895""
","""event"",""trial"",""time""
""fullscreenenter"",""1"",""4050""
","
","","","","","","null","<div style=""font-size:60px;"">+</div>","null","","fixation","","","","","","","","","","","","","",""
"learning-trial","87","538799","0.0-9.0-2.0-1.0","1631","1","2","""event"",""trial"",""time""
""fullscreenenter"",""1"",""4050""
""blur"",""2"",""7132""
""focus"",""3"",""41895""
","""event"",""trial"",""time""
""blur"",""2"",""7132""
","""event"",""trial"",""time""
""focus"",""3"",""41895""
","""event"",""trial"",""time""
""fullscreenenter"",""1"",""4050""
","
","","","","","","1696.7000000476837","images/straw5.png","","","learning","images/fruit_choice1.png","images/fruit_choice2.png","images/fruit_choice3.png","[0,1,2]","1","1","2","images/fruit_choice2.png","1","fruit","","straw","1","0"
"html-keyboard-response","88","539321","0.0-9.0-2.0-0.1","1631","1","2","""event"",""trial"",""time""
""fullscreenenter"",""1"",""4050""
""blur"",""2"",""7132""
""focus"",""3"",""41895""
","""event"",""trial"",""time""
""blur"",""2"",""7132""
","""event"",""trial"",""time""
""focus"",""3"",""41895""
","""event"",""trial"",""time""
""fullscreenenter"",""1"",""4050""
","
","","","","","","null","<div style=""font-size:60px;"">+</div>","null","","fixation","","","","","","","","","","","","","",""
"learning-trial","89","543343","0.0-9.0-2.0-1.1","1631","1","2","""event"",""trial"",""time""
""fullscreenenter"",""1"",""4050""
""blur"",""2"",""7132""
""focus"",""3"",""41895""
","""event"",""trial"",""time""
""blur"",""2"",""7132""
","""event"",""trial"",""time""
""focus"",""3"",""41895""
","""event"",""trial"",""time""
""fullscreenenter"",""1"",""4050""
","
","","","","","","2416.800000190735","images/straw2.png","","","learning","images/fruit_choice2.png","images/fruit_choice3.png","images/fruit_choice1.png","[1,2,0]","1","0","1","images/fruit_choice2.png","1","fruit","","straw","1","0"
"html-keyboard-response","90","543865","0.0-9.0-2.0-0.2","1631","1","2","""event"",""trial"",""time""
""fullscreenenter"",""1"",""4050""
""blur"",""2"",""7132""
""focus"",""3"",""41895""
","""event"",""trial"",""time""
""blur"",""2"",""7132""
","""event"",""trial"",""time""
""focus"",""3"",""41895""
","""event"",""trial"",""time""
""fullscreenenter"",""1"",""4050""
","
","","","","","","null","<div style=""font-size:60px;"">+</div>","null","","fixation","","","","","","","","","","","","","",""
"learning-trial","91","547886","0.0-9.0-2.0-1.2","1631","1","2","""event"",""trial"",""time""
""fullscreenenter"",""1"",""4050""
""blur"",""2"",""7132""
""focus"",""3"",""41895""
","""event"",""trial"",""time""
""blur"",""2"",""7132""
","""event"",""trial"",""time""
""focus"",""3"",""41895""
","""event"",""trial"",""time""
""fullscreenenter"",""1"",""4050""
","
","","","","","","1712.1000001430511","images/apple4.png","","","learning","images/fruit_choice3.png","images/fruit_choice2.png","images/fruit_choice1.png","[2,1,0]","2","0","3","images/fruit_choice1.png","-1","fruit","","apple","1","0"
"html-keyboard-response","92","548399","0.0-9.0-2.0-0.3","1631","1","2","""event"",""trial"",""time""
""fullscreenenter"",""1"",""4050""
""blur"",""2"",""7132""
""focus"",""3"",""41895""
","""event"",""trial"",""time""
""blur"",""2"",""7132""
","""event"",""trial"",""time""
""focus"",""3"",""41895""
","""event"",""trial"",""time""
""fullscreenenter"",""1"",""4050""
","
","","","","","","null","<div style=""font-size:60px;"">+</div>","null","","fixation","","","","","","","","","","","","","",""
"learning-trial","93","552420","0.0-9.0-2.0-1.3","1631","1","2","""event"",""trial"",""time""
""fullscreenenter"",""1"",""4050""
""blur"",""2"",""7132""
""focus"",""3"",""41895""
","""event"",""trial"",""time""
""blur"",""2"",""7132""
","""event"",""trial"",""time""
""focus"",""3"",""41895""
","""event"",""trial"",""time""
""fullscreenenter"",""1"",""4050""
","
","","","","","","1043.1999998092651","images/banana1.png","","","learning","images/fruit_choice3.png","images/fruit_choice1.png","images/fruit_choice2.png","[2,0,1]","0","1","2","images/fruit_choice1.png","1","fruit","","banana","1","0"
"html-keyboard-response","94","552942","0.0-9.0-2.0-0.4","1631","1","2","""event"",""trial"",""time""
""fullscreenenter"",""1"",""4050""
""blur"",""2"",""7132""
""focus"",""3"",""41895""
","""event"",""trial"",""time""
""blur"",""2"",""7132""
","""event"",""trial"",""time""
""focus"",""3"",""41895""
","""event"",""trial"",""time""
""fullscreenenter"",""1"",""4050""
","
","","","","","","null","<div style=""font-size:60px;"">+</div>","null","","fixation","","","","","","","","","","","","","",""
"learning-trial","95","556953","0.0-9.0-2.0-1.4","1631","1","2","""event"",""trial"",""time""
""fullscreenenter"",""1"",""4050""
""blur"",""2"",""7132""
""focus"",""3"",""41895""
","""event"",""trial"",""time""
""blur"",""2"",""7132""
","""event"",""trial"",""time""
""focus"",""3"",""41895""
","""event"",""trial"",""time""
""fullscreenenter"",""1"",""4050""
","
","","","","","","1279.6000001430511","images/apple4.png","","","learning","images/fruit_choice1.png","images/fruit_choice2.png","images/fruit_choice3.png","[0,1,2]","2","2","1","images/fruit_choice1.png","-1","fruit","","apple","1","0"
"html-keyboard-response","96","557464","0.0-9.0-2.0-0.5","1631","1","2","""event"",""trial"",""time""
""fullscreenenter"",""1"",""4050""
""blur"",""2"",""7132""
""focus"",""3"",""41895""
","""event"",""trial"",""time""
""blur"",""2"",""7132""
","""event"",""trial"",""time""
""focus"",""3"",""41895""
","""event"",""trial"",""time""
""fullscreenenter"",""1"",""4050""
","
","","","","","","null","<div style=""font-size:60px;"">+</div>","null","","fixation","","","","","","","","","","","","","",""
"learning-trial","97","561468","0.0-9.0-2.0-1.5","1631","1","2","""event"",""trial"",""time""
""fullscreenenter"",""1"",""4050""
""blur"",""2"",""7132""
""focus"",""3"",""41895""
","""event"",""trial"",""time""
""blur"",""2"",""7132""
","""event"",""trial"",""time""
""focus"",""3"",""41895""
","""event"",""trial"",""time""
""fullscreenenter"",""1"",""4050""
","
","","","","","","1388","images/apple4.png","","","learning","images/fruit_choice3.png","images/fruit_choice2.png","images/fruit_choice1.png","[2,1,0]","2","0","2","images/fruit_choice2.png","-1","fruit","","apple","1","0"
"html-keyboard-response","98","561970","0.0-9.0-2.0-0.6","1631","1","2","""event"",""trial"",""time""
""fullscreenenter"",""1"",""4050""
""blur"",""2"",""7132""
""focus"",""3"",""41895""
","""event"",""trial"",""time""
""blur"",""2"",""7132""
","""event"",""trial"",""time""
""focus"",""3"",""41895""
","""event"",""trial"",""time""
""fullscreenenter"",""1"",""4050""
","
","","","","","","null","<div style=""font-size:60px;"">+</div>","null","","fixation","","","","","","","","","","","","","",""
"learning-trial","99","565973","0.0-9.0-2.0-1.6","1631","1","2","""event"",""trial"",""time""
""fullscreenenter"",""1"",""4050""
""blur"",""2"",""7132""
""focus"",""3"",""41895""
","""event"",""trial"",""time""
""blur"",""2"",""7132""
","""event"",""trial"",""time""
""focus"",""3"",""41895""
","""event"",""trial"",""time""
""fullscreenenter"",""1"",""4050""
","
","","","","","","1902.3999998569489","images/straw3.png","","","learning","images/fruit_choice1.png","images/fruit_choice3.png","images/fruit_choice2.png","[0,2,1]","1","2","1","images/fruit_choice1.png","-1","fruit","","straw","1","0"
"html-keyboard-response","100","566476","0.0-9.0-2.0-0.7","1631","1","2","""event"",""trial"",""time""
""fullscreenenter"",""1"",""4050""
""blur"",""2"",""7132""
""focus"",""3"",""41895""
","""event"",""trial"",""time""
""blur"",""2"",""7132""
","""event"",""trial"",""time""
""focus"",""3"",""41895""
","""event"",""trial"",""time""
""fullscreenenter"",""1"",""4050""
","
","","","","","","null","<div style=""font-size:60px;"">+</div>","null","","fixation","","","","","","","","","","","","","",""
"learning-trial","101","570478","0.0-9.0-2.0-1.7","1631","1","2","""event"",""trial"",""time""
""fullscreenenter"",""1"",""4050""
""blur"",""2"",""7132""
""focus"",""3"",""41895""
","""event"",""trial"",""time""
""blur"",""2"",""7132""
","""event"",""trial"",""time""
""focus"",""3"",""41895""
","""event"",""trial"",""time""
""fullscreenenter"",""1"",""4050""
","
","","","","","","656.2999999523163","images/straw3.png","","","learning","images/fruit_choice3.png","images/fruit_choice2.png","images/fruit_choice1.png","[2,1,0]","1","1","3","images/fruit_choice1.png","-1","fruit","","straw","1","0"
"html-keyboard-response","102","570980","0.0-9.0-2.0-0.8","1631","1","2","""event"",""trial"",""time""
""fullscreenenter"",""1"",""4050""
""blur"",""2"",""7132""
""focus"",""3"",""41895""
","""event"",""trial"",""time""
""blur"",""2"",""7132""
","""event"",""trial"",""time""
""focus"",""3"",""41895""
","""event"",""trial"",""time""
""fullscreenenter"",""1"",""4050""
","
","","","","","","null","<div style=""font-size:60px;"">+</div>","null","","fixation","","","","","","","","","","","","","",""
"learning-trial","103","574982","0.0-9.0-2.0-1.8","1631","1","2","""event"",""trial"",""time""
""fullscreenenter"",""1"",""4050""
""blur"",""2"",""7132""
""focus"",""3"",""41895""
","""event"",""trial"",""time""
""blur"",""2"",""7132""
","""event"",""trial"",""time""
""focus"",""3"",""41895""
","""event"",""trial"",""time""
""fullscreenenter"",""1"",""4050""
","
","","","","","","967","images/straw2.png","","","learning","images/fruit_choice1.png","images/fruit_choice3.png","images/fruit_choice2.png","[0,2,1]","1","2","2","images/fruit_choice3.png","-1","fruit","","straw","1","0"
"html-keyboard-response","104","575484","0.0-9.0-2.0-0.9","1631","1","2","""event"",""trial"",""time""
""fullscreenenter"",""1"",""4050""
""blur"",""2"",""7132""
""focus"",""3"",""41895""
","""event"",""trial"",""time""
""blur"",""2"",""7132""
","""event"",""trial"",""time""
""focus"",""3"",""41895""
","""event"",""trial"",""time""
""fullscreenenter"",""1"",""4050""
","
","","","","","","null","<div style=""font-size:60px;"">+</div>","null","","fixation","","","","","","","","","","","","","",""
"learning-trial","105","579488","0.0-9.0-2.0-1.9","1631","1","2","""event"",""trial"",""time""
""fullscreenenter"",""1"",""4050""
""blur"",""2"",""7132""
""focus"",""3"",""41895""
","""event"",""trial"",""time""
""blur"",""2"",""7132""
","""event"",""trial"",""time""
""focus"",""3"",""41895""
","""event"",""trial"",""time""
""fullscreenenter"",""1"",""4050""
","
","","","","","","1690.2000000476837","images/banana2.png","","","learning","images/fruit_choice2.png","images/fruit_choice1.png","images/fruit_choice3.png","[1,0,2]","0","1","1","images/fruit_choice2.png","-1","fruit","","banana","1","0"
"html-keyboard-response","106","579990","0.0-9.0-2.0-0.10","1631","1","2","""event"",""trial"",""time""
""fullscreenenter"",""1"",""4050""
""blur"",""2"",""7132""
""focus"",""3"",""41895""
","""event"",""trial"",""time""
""blur"",""2"",""7132""
","""event"",""trial"",""time""
""focus"",""3"",""41895""
","""event"",""trial"",""time""
""fullscreenenter"",""1"",""4050""
","
","","","","","","null","<div style=""font-size:60px;"">+</div>","null","","fixation","","","","","","","","","","","","","",""
"learning-trial","107","583994","0.0-9.0-2.0-1.10","1631","1","2","""event"",""trial"",""time""
""fullscreenenter"",""1"",""4050""
""blur"",""2"",""7132""
""focus"",""3"",""41895""
","""event"",""trial"",""time""
""blur"",""2"",""7132""
","""event"",""trial"",""time""
""focus"",""3"",""41895""
","""event"",""trial"",""time""
""fullscreenenter"",""1"",""4050""
","
","","","","","","846.8999998569489","images/apple1.png","","","learning","images/fruit_choice3.png","images/fruit_choice2.png","images/fruit_choice1.png","[2,1,0]","2","0","3","images/fruit_choice1.png","-1","fruit","","apple","1","0"
"html-keyboard-response","108","584495","0.0-9.0-2.0-0.11","1631","1","2","""event"",""trial"",""time""
""fullscreenenter"",""1"",""4050""
""blur"",""2"",""7132""
""focus"",""3"",""41895""
","""event"",""trial"",""time""
""blur"",""2"",""7132""
","""event"",""trial"",""time""
""focus"",""3"",""41895""
","""event"",""trial"",""time""
""fullscreenenter"",""1"",""4050""
","
","","","","","","null","<div style=""font-size:60px;"">+</div>","null","","fixation","","","","","","","","","","","","","",""
"learning-trial","109","588500","0.0-9.0-2.0-1.11","1631","1","2","""event"",""trial"",""time""
""fullscreenenter"",""1"",""4050""
""blur"",""2"",""7132""
""focus"",""3"",""41895""
","""event"",""trial"",""time""
""blur"",""2"",""7132""
","""event"",""trial"",""time""
""focus"",""3"",""41895""
","""event"",""trial"",""time""
""fullscreenenter"",""1"",""4050""
","
","","","","","","620.3999998569489","images/straw3.png","","","learning","images/fruit_choice1.png","images/fruit_choice3.png","images/fruit_choice2.png","[0,2,1]","1","2","2","images/fruit_choice3.png","-1","fruit","","straw","1","0"
"html-keyboard-response","110","589003","0.0-9.0-2.0-0.12","1631","1","2","""event"",""trial"",""time""
""fullscreenenter"",""1"",""4050""
""blur"",""2"",""7132""
""focus"",""3"",""41895""
","""event"",""trial"",""time""
""blur"",""2"",""7132""
","""event"",""trial"",""time""
""focus"",""3"",""41895""
","""event"",""trial"",""time""
""fullscreenenter"",""1"",""4050""
","
","","","","","","null","<div style=""font-size:60px;"">+</div>","null","","fixation","","","","","","","","","","","","","",""
"learning-trial","111","593006","0.0-9.0-2.0-1.12","1631","1","2","""event"",""trial"",""time""
""fullscreenenter"",""1"",""4050""
""blur"",""2"",""7132""
""focus"",""3"",""41895""
","""event"",""trial"",""time""
""blur"",""2"",""7132""
","""event"",""trial"",""time""
""focus"",""3"",""41895""
","""event"",""trial"",""time""
""fullscreenenter"",""1"",""4050""
","
","","","","","","1639.1000001430511","images/banana2.png","","","learning","images/fruit_choice1.png","images/fruit_choice2.png","images/fruit_choice3.png","[0,1,2]","0","0","1","images/fruit_choice1.png","-1","fruit","","banana","1","0"
"html-keyboard-response","112","593507","0.0-9.0-2.0-0.13","1631","1","2","""event"",""trial"",""time""
""fullscreenenter"",""1"",""4050""
""blur"",""2"",""7132""
""focus"",""3"",""41895""
","""event"",""trial"",""time""
""blur"",""2"",""7132""
","""event"",""trial"",""time""
""focus"",""3"",""41895""
","""event"",""trial"",""time""
""fullscreenenter"",""1"",""4050""
","
","","","","","","null","<div style=""font-size:60px;"">+</div>","null","","fixation","","","","","","","","","","","","","",""
"learning-trial","113","597512","0.0-9.0-2.0-1.13","1631","1","2","""event"",""trial"",""time""
""fullscreenenter"",""1"",""4050""
""blur"",""2"",""7132""
""focus"",""3"",""41895""
","""event"",""trial"",""time""
""blur"",""2"",""7132""
","""event"",""trial"",""time""
""focus"",""3"",""41895""
","""event"",""trial"",""time""
""fullscreenenter"",""1"",""4050""
","
","","","","","","484.5","images/apple1.png","","","learning","images/fruit_choice1.png","images/fruit_choice2.png","images/fruit_choice3.png","[0,1,2]","2","2","3","images/fruit_choice3.png","1","fruit","","apple","1","0"
"html-keyboard-response","114","598013","0.0-9.0-2.0-0.14","1631","1","2","""event"",""trial"",""time""
""fullscreenenter"",""1"",""4050""
""blur"",""2"",""7132""
""focus"",""3"",""41895""
","""event"",""trial"",""time""
""blur"",""2"",""7132""
","""event"",""trial"",""time""
""focus"",""3"",""41895""
","""event"",""trial"",""time""
""fullscreenenter"",""1"",""4050""
","
","","","","","","null","<div style=""font-size:60px;"">+</div>","null","","fixation","","","","","","","","","","","","","",""
"learning-trial","115","602015","0.0-9.0-2.0-1.14","1631","1","2","""event"",""trial"",""time""
""fullscreenenter"",""1"",""4050""
""blur"",""2"",""7132""
""focus"",""3"",""41895""
","""event"",""trial"",""time""
""blur"",""2"",""7132""
","""event"",""trial"",""time""
""focus"",""3"",""41895""
","""event"",""trial"",""time""
""fullscreenenter"",""1"",""4050""
","
","","","","","","1351.3999998569489","images/banana1.png","","","learning","images/fruit_choice1.png","images/fruit_choice3.png","images/fruit_choice2.png","[0,2,1]","0","0","2","images/fruit_choice3.png","-1","fruit","","banana","1","0"
"html-keyboard-response","116","602517","0.0-9.0-2.0-0.15","1631","1","2","""event"",""trial"",""time""
""fullscreenenter"",""1"",""4050""
""blur"",""2"",""7132""
""focus"",""3"",""41895""
","""event"",""trial"",""time""
""blur"",""2"",""7132""
","""event"",""trial"",""time""
""focus"",""3"",""41895""
","""event"",""trial"",""time""
""fullscreenenter"",""1"",""4050""
","
","","","","","","null","<div style=""font-size:60px;"">+</div>","null","","fixation","","","","","","","","","","","","","",""
"learning-trial","117","606520","0.0-9.0-2.0-1.15","1631","1","2","""event"",""trial"",""time""
""fullscreenenter"",""1"",""4050""
""blur"",""2"",""7132""
""focus"",""3"",""41895""
","""event"",""trial"",""time""
""blur"",""2"",""7132""
","""event"",""trial"",""time""
""focus"",""3"",""41895""
","""event"",""trial"",""time""
""fullscreenenter"",""1"",""4050""
","
","","","","","","355.90000009536743","images/apple1.png","","","learning","images/fruit_choice3.png","images/fruit_choice2.png","images/fruit_choice1.png","[2,1,0]","2","0","2","images/fruit_choice2.png","-1","fruit","","apple","1","0"
"html-keyboard-response","118","607022","0.0-9.0-2.0-0.16","1631","1","2","""event"",""trial"",""time""
""fullscreenenter"",""1"",""4050""
""blur"",""2"",""7132""
""focus"",""3"",""41895""
","""event"",""trial"",""time""
""blur"",""2"",""7132""
","""event"",""trial"",""time""
""focus"",""3"",""41895""
","""event"",""trial"",""time""
""fullscreenenter"",""1"",""4050""
","
","","","","","","null","<div style=""font-size:60px;"">+</div>","null","","fixation","","","","","","","","","","","","","",""
"learning-trial","119","611025","0.0-9.0-2.0-1.16","1631","1","2","""event"",""trial"",""time""
""fullscreenenter"",""1"",""4050""
""blur"",""2"",""7132""
""focus"",""3"",""41895""
","""event"",""trial"",""time""
""blur"",""2"",""7132""
","""event"",""trial"",""time""
""focus"",""3"",""41895""
","""event"",""trial"",""time""
""fullscreenenter"",""1"",""4050""
","
","","","","","","1623.5","images/banana2.png","","","learning","images/fruit_choice1.png","images/fruit_choice3.png","images/fruit_choice2.png","[0,2,1]","0","0","2","images/fruit_choice3.png","-1","fruit","","banana","1","0"
"html-keyboard-response","120","611526","0.0-9.0-2.0-0.17","1631","1","2","""event"",""trial"",""time""
""fullscreenenter"",""1"",""4050""
""blur"",""2"",""7132""
""focus"",""3"",""41895""
","""event"",""trial"",""time""
""blur"",""2"",""7132""
","""event"",""trial"",""time""
""focus"",""3"",""41895""
","""event"",""trial"",""time""
""fullscreenenter"",""1"",""4050""
","
","","","","","","null","<div style=""font-size:60px;"">+</div>","null","","fixation","","","","","","","","","","","","","",""
"learning-trial","121","615531","0.0-9.0-2.0-1.17","1631","1","2","""event"",""trial"",""time""
""fullscreenenter"",""1"",""4050""
""blur"",""2"",""7132""
""focus"",""3"",""41895""
","""event"",""trial"",""time""
""blur"",""2"",""7132""
","""event"",""trial"",""time""
""focus"",""3"",""41895""
","""event"",""trial"",""time""
""fullscreenenter"",""1"",""4050""
","
","","","","","","1740.7999999523163","images/straw5.png","","","learning","images/fruit_choice3.png","images/fruit_choice1.png","images/fruit_choice2.png","[2,0,1]","1","2","3","images/fruit_choice2.png","1","fruit","","straw","1","0"
"html-keyboard-response","122","616034","0.0-9.0-2.0-0.18","1631","1","2","""event"",""trial"",""time""
""fullscreenenter"",""1"",""4050""
""blur"",""2"",""7132""
""focus"",""3"",""41895""
","""event"",""trial"",""time""
""blur"",""2"",""7132""
","""event"",""trial"",""time""
""focus"",""3"",""41895""
","""event"",""trial"",""time""
""fullscreenenter"",""1"",""4050""
","
","","","","","","null","<div style=""font-size:60px;"">+</div>","null","","fixation","","","","","","","","","","","","","",""
"learning-trial","123","620039","0.0-9.0-2.0-1.18","1631","1","2","""event"",""trial"",""time""
""fullscreenenter"",""1"",""4050""
""blur"",""2"",""7132""
""focus"",""3"",""41895""
","""event"",""trial"",""time""
""blur"",""2"",""7132""
","""event"",""trial"",""time""
""focus"",""3"",""41895""
","""event"",""trial"",""time""
""fullscreenenter"",""1"",""4050""
","
","","","","","","512.7000000476837","images/apple1.png","","","learning","images/fruit_choice1.png","images/fruit_choice2.png","images/fruit_choice3.png","[0,1,2]","2","2","1","images/fruit_choice1.png","-1","fruit","","apple","1","0"
"html-keyboard-response","124","620540","0.0-9.0-2.0-0.19","1631","1","2","""event"",""trial"",""time""
""fullscreenenter"",""1"",""4050""
""blur"",""2"",""7132""
""focus"",""3"",""41895""
","""event"",""trial"",""time""
""blur"",""2"",""7132""
","""event"",""trial"",""time""
""focus"",""3"",""41895""
","""event"",""trial"",""time""
""fullscreenenter"",""1"",""4050""
","
","","","","","","null","<div style=""font-size:60px;"">+</div>","null","","fixation","","","","","","","","","","","","","",""
"learning-trial","125","624543","0.0-9.0-2.0-1.19","1631","1","2","""event"",""trial"",""time""
""fullscreenenter"",""1"",""4050""
""blur"",""2"",""7132""
""focus"",""3"",""41895""
","""event"",""trial"",""time""
""blur"",""2"",""7132""
","""event"",""trial"",""time""
""focus"",""3"",""41895""
","""event"",""trial"",""time""
""fullscreenenter"",""1"",""4050""
","
","","","","","","764.2000000476837","images/straw3.png","","","learning","images/fruit_choice3.png","images/fruit_choice2.png","images/fruit_choice1.png","[2,1,0]","1","1","2","images/fruit_choice2.png","1","fruit","","straw","1","0"
"html-keyboard-response","126","625046","0.0-9.0-2.0-0.20","1631","1","2","""event"",""trial"",""time""
""fullscreenenter"",""1"",""4050""
""blur"",""2"",""7132""
""focus"",""3"",""41895""
","""event"",""trial"",""time""
""blur"",""2"",""7132""
","""event"",""trial"",""time""
""focus"",""3"",""41895""
","""event"",""trial"",""time""
""fullscreenenter"",""1"",""4050""
","
","","","","","","null","<div style=""font-size:60px;"">+</div>","null","","fixation","","","","","","","","","","","","","",""
"learning-trial","127","629048","0.0-9.0-2.0-1.20","1631","1","2","""event"",""trial"",""time""
""fullscreenenter"",""1"",""4050""
""blur"",""2"",""7132""
""focus"",""3"",""41895""
","""event"",""trial"",""time""
""blur"",""2"",""7132""
","""event"",""trial"",""time""
""focus"",""3"",""41895""
","""event"",""trial"",""time""
""fullscreenenter"",""1"",""4050""
","
","","","","","","651.1999998092651","images/apple3.png","","","learning","images/fruit_choice1.png","images/fruit_choice2.png","images/fruit_choice3.png","[0,1,2]","2","2","3","images/fruit_choice3.png","1","fruit","","apple","1","0"
"html-keyboard-response","128","629550","0.0-9.0-2.0-0.21","1631","1","2","""event"",""trial"",""time""
""fullscreenenter"",""1"",""4050""
""blur"",""2"",""7132""
""focus"",""3"",""41895""
","""event"",""trial"",""time""
""blur"",""2"",""7132""
","""event"",""trial"",""time""
""focus"",""3"",""41895""
","""event"",""trial"",""time""
""fullscreenenter"",""1"",""4050""
","
","","","","","","null","<div style=""font-size:60px;"">+</div>","null","","fixation","","","","","","","","","","","","","",""
"learning-trial","129","633553","0.0-9.0-2.0-1.21","1631","1","2","""event"",""trial"",""time""
""fullscreenenter"",""1"",""4050""
""blur"",""2"",""7132""
""focus"",""3"",""41895""
","""event"",""trial"",""time""
""blur"",""2"",""7132""
","""event"",""trial"",""time""
""focus"",""3"",""41895""
","""event"",""trial"",""time""
""fullscreenenter"",""1"",""4050""
","
","","","","","","1392.1999998092651","images/apple3.png","","","learning","images/fruit_choice3.png","images/fruit_choice2.png","images/fruit_choice1.png","[2,1,0]","2","0","1","images/fruit_choice3.png","1","fruit","","apple","1","0"
"html-keyboard-response","130","634055","0.0-9.0-2.0-0.22","1631","1","2","""event"",""trial"",""time""
""fullscreenenter"",""1"",""4050""
""blur"",""2"",""7132""
""focus"",""3"",""41895""
","""event"",""trial"",""time""
""blur"",""2"",""7132""
","""event"",""trial"",""time""
""focus"",""3"",""41895""
","""event"",""trial"",""time""
""fullscreenenter"",""1"",""4050""
","
","","","","","","null","<div style=""font-size:60px;"">+</div>","null","","fixation","","","","","","","","","","","","","",""
"learning-trial","131","638058","0.0-9.0-2.0-1.22","1631","1","2","""event"",""trial"",""time""
""fullscreenenter"",""1"",""4050""
""blur"",""2"",""7132""
""focus"",""3"",""41895""
","""event"",""trial"",""time""
""blur"",""2"",""7132""
","""event"",""trial"",""time""
""focus"",""3"",""41895""
","""event"",""trial"",""time""
""fullscreenenter"",""1"",""4050""
","
","","","","","","1544.4000000953674","images/apple4.png","","","learning","images/fruit_choice3.png","images/fruit_choice1.png","images/fruit_choice2.png","[2,0,1]","2","0","1","images/fruit_choice3.png","1","fruit","","apple","1","0"
"html-keyboard-response","132","638559","0.0-9.0-2.0-0.23","1631","1","2","""event"",""trial"",""time""
""fullscreenenter"",""1"",""4050""
""blur"",""2"",""7132""
""focus"",""3"",""41895""
","""event"",""trial"",""time""
""blur"",""2"",""7132""
","""event"",""trial"",""time""
""focus"",""3"",""41895""
","""event"",""trial"",""time""
""fullscreenenter"",""1"",""4050""
","
","","","","","","null","<div style=""font-size:60px;"">+</div>","null","","fixation","","","","","","","","","","","","","",""
"learning-trial","133","642562","0.0-9.0-2.0-1.23","1631","1","2","""event"",""trial"",""time""
""fullscreenenter"",""1"",""4050""
""blur"",""2"",""7132""
""focus"",""3"",""41895""
","""event"",""trial"",""time""
""blur"",""2"",""7132""
","""event"",""trial"",""time""
""focus"",""3"",""41895""
","""event"",""trial"",""time""
""fullscreenenter"",""1"",""4050""
","
","","","","","","476.2999999523163","images/banana3.png","","","learning","images/fruit_choice1.png","images/fruit_choice2.png","images/fruit_choice3.png","[0,1,2]","0","0","3","images/fruit_choice3.png","-1","fruit","","banana","1","0"
"html-keyboard-response","134","643064","0.0-9.0-2.0-0.24","1631","1","2","""event"",""trial"",""time""
""fullscreenenter"",""1"",""4050""
""blur"",""2"",""7132""
""focus"",""3"",""41895""
","""event"",""trial"",""time""
""blur"",""2"",""7132""
","""event"",""trial"",""time""
""focus"",""3"",""41895""
","""event"",""trial"",""time""
""fullscreenenter"",""1"",""4050""
","
","","","","","","null","<div style=""font-size:60px;"">+</div>","null","","fixation","","","","","","","","","","","","","",""
"learning-trial","135","647067","0.0-9.0-2.0-1.24","1631","1","2","""event"",""trial"",""time""
""fullscreenenter"",""1"",""4050""
""blur"",""2"",""7132""
""focus"",""3"",""41895""
","""event"",""trial"",""time""
""blur"",""2"",""7132""
","""event"",""trial"",""time""
""focus"",""3"",""41895""
","""event"",""trial"",""time""
""fullscreenenter"",""1"",""4050""
","
","","","","","","609.6999998092651","images/banana2.png","","","learning","images/fruit_choice2.png","images/fruit_choice1.png","images/fruit_choice3.png","[1,0,2]","0","1","2","images/fruit_choice1.png","1","fruit","","banana","1","0"
"html-keyboard-response","136","647569","0.0-9.0-2.0-0.25","1631","1","2","""event"",""trial"",""time""
""fullscreenenter"",""1"",""4050""
""blur"",""2"",""7132""
""focus"",""3"",""41895""
","""event"",""trial"",""time""
""blur"",""2"",""7132""
","""event"",""trial"",""time""
""focus"",""3"",""41895""
","""event"",""trial"",""time""
""fullscreenenter"",""1"",""4050""
","
","","","","","","null","<div style=""font-size:60px;"">+</div>","null","","fixation","","","","","","","","","","","","","",""
"learning-trial","137","651572","0.0-9.0-2.0-1.25","1631","1","2","""event"",""trial"",""time""
""fullscreenenter"",""1"",""4050""
""blur"",""2"",""7132""
""focus"",""3"",""41895""
","""event"",""trial"",""time""
""blur"",""2"",""7132""
","""event"",""trial"",""time""
""focus"",""3"",""41895""
","""event"",""trial"",""time""
""fullscreenenter"",""1"",""4050""
","
","","","","","","426.5","images/straw5.png","","","learning","images/fruit_choice1.png","images/fruit_choice3.png","images/fruit_choice2.png","[0,2,1]","1","2","1","images/fruit_choice1.png","-1","fruit","","straw","1","0"
"html-keyboard-response","138","652074","0.0-9.0-2.0-0.26","1631","1","2","""event"",""trial"",""time""
""fullscreenenter"",""1"",""4050""
""blur"",""2"",""7132""
""focus"",""3"",""41895""
","""event"",""trial"",""time""
""blur"",""2"",""7132""
","""event"",""trial"",""time""
""focus"",""3"",""41895""
","""event"",""trial"",""time""
""fullscreenenter"",""1"",""4050""
","
","","","","","","null","<div style=""font-size:60px;"">+</div>","null","","fixation","","","","","","","","","","","","","",""
"learning-trial","139","656077","0.0-9.0-2.0-1.26","1631","1","2","""event"",""trial"",""time""
""fullscreenenter"",""1"",""4050""
""blur"",""2"",""7132""
""focus"",""3"",""41895""
","""event"",""trial"",""time""
""blur"",""2"",""7132""
","""event"",""trial"",""time""
""focus"",""3"",""41895""
","""event"",""trial"",""time""
""fullscreenenter"",""1"",""4050""
","
","","","","","","1079.9000000953674","images/straw3.png","","","learning","images/fruit_choice1.png","images/fruit_choice2.png","images/fruit_choice3.png","[0,1,2]","1","1","2","images/fruit_choice2.png","1","fruit","","straw","1","0"
"html-keyboard-response","140","656579","0.0-9.0-2.0-0.27","1631","1","2","""event"",""trial"",""time""
""fullscreenenter"",""1"",""4050""
""blur"",""2"",""7132""
""focus"",""3"",""41895""
","""event"",""trial"",""time""
""blur"",""2"",""7132""
","""event"",""trial"",""time""
""focus"",""3"",""41895""
","""event"",""trial"",""time""
""fullscreenenter"",""1"",""4050""
","
","","","","","","null","<div style=""font-size:60px;"">+</div>","null","","fixation","","","","","","","","","","","","","",""
"learning-trial","141","660583","0.0-9.0-2.0-1.27","1631","1","2","""event"",""trial"",""time""
""fullscreenenter"",""1"",""4050""
""blur"",""2"",""7132""
""focus"",""3"",""41895""
","""event"",""trial"",""time""
""blur"",""2"",""7132""
","""event"",""trial"",""time""
""focus"",""3"",""41895""
","""event"",""trial"",""time""
""fullscreenenter"",""1"",""4050""
","
","","","","","","599.2000000476837","images/straw3.png","","","learning","images/fruit_choice3.png","images/fruit_choice1.png","images/fruit_choice2.png","[2,0,1]","1","2","1","images/fruit_choice3.png","-1","fruit","","straw","1","0"
"html-keyboard-response","142","661085","0.0-9.0-2.0-0.28","1631","1","2","""event"",""trial"",""time""
""fullscreenenter"",""1"",""4050""
""blur"",""2"",""7132""
""focus"",""3"",""41895""
","""event"",""trial"",""time""
""blur"",""2"",""7132""
","""event"",""trial"",""time""
""focus"",""3"",""41895""
","""event"",""trial"",""time""
""fullscreenenter"",""1"",""4050""
","
","","","","","","null","<div style=""font-size:60px;"">+</div>","null","","fixation","","","","","","","","","","","","","",""
"learning-trial","143","665088","0.0-9.0-2.0-1.28","1631","1","2","""event"",""trial"",""time""
""fullscreenenter"",""1"",""4050""
""blur"",""2"",""7132""
""focus"",""3"",""41895""
","""event"",""trial"",""time""
""blur"",""2"",""7132""
","""event"",""trial"",""time""
""focus"",""3"",""41895""
","""event"",""trial"",""time""
""fullscreenenter"",""1"",""4050""
","
","","","","","","266.2000000476837","images/apple1.png","","","learning","images/fruit_choice2.png","images/fruit_choice3.png","images/fruit_choice1.png","[1,2,0]","2","1","3","images/fruit_choice1.png","-1","fruit","","apple","1","0"
"html-keyboard-response","144","665590","0.0-9.0-2.0-0.29","1631","1","2","""event"",""trial"",""time""
""fullscreenenter"",""1"",""4050""
""blur"",""2"",""7132""
""focus"",""3"",""41895""
","""event"",""trial"",""time""
""blur"",""2"",""7132""
","""event"",""trial"",""time""
""focus"",""3"",""41895""
","""event"",""trial"",""time""
""fullscreenenter"",""1"",""4050""
","
","","","","","","null","<div style=""font-size:60px;"">+</div>","null","","fixation","","","","","","","","","","","","","",""
"learning-trial","145","669592","0.0-9.0-2.0-1.29","1631","1","2","""event"",""trial"",""time""
""fullscreenenter"",""1"",""4050""
""blur"",""2"",""7132""
""focus"",""3"",""41895""
","""event"",""trial"",""time""
""blur"",""2"",""7132""
","""event"",""trial"",""time""
""focus"",""3"",""41895""
","""event"",""trial"",""time""
""fullscreenenter"",""1"",""4050""
","
","","","","","","1899.7000000476837","images/apple3.png","","","learning","images/fruit_choice1.png","images/fruit_choice3.png","images/fruit_choice2.png","[0,2,1]","2","1","2","images/fruit_choice3.png","1","fruit","","apple","1","0"
"html-keyboard-response","146","670093","0.0-9.0-2.0-0.30","1631","1","2","""event"",""trial"",""time""
""fullscreenenter"",""1"",""4050""
""blur"",""2"",""7132""
""focus"",""3"",""41895""
","""event"",""trial"",""time""
""blur"",""2"",""7132""
","""event"",""trial"",""time""
""focus"",""3"",""41895""
","""event"",""trial"",""time""
""fullscreenenter"",""1"",""4050""
","
","","","","","","null","<div style=""font-size:60px;"">+</div>","null","","fixation","","","","","","","","","","","","","",""
"learning-trial","147","674097","0.0-9.0-2.0-1.30","1631","1","2","""event"",""trial"",""time""
""fullscreenenter"",""1"",""4050""
""blur"",""2"",""7132""
""focus"",""3"",""41895""
","""event"",""trial"",""time""
""blur"",""2"",""7132""
","""event"",""trial"",""time""
""focus"",""3"",""41895""
","""event"",""trial"",""time""
""fullscreenenter"",""1"",""4050""
","
","","","","","","1767","images/apple1.png","","","learning","images/fruit_choice1.png","images/fruit_choice3.png","images/fruit_choice2.png","[0,2,1]","2","1","2","images/fruit_choice3.png","1","fruit","","apple","1","0"
"html-keyboard-response","148","674599","0.0-9.0-2.0-0.31","1631","1","2","""event"",""trial"",""time""
""fullscreenenter"",""1"",""4050""
""blur"",""2"",""7132""
""focus"",""3"",""41895""
","""event"",""trial"",""time""
""blur"",""2"",""7132""
","""event"",""trial"",""time""
""focus"",""3"",""41895""
","""event"",""trial"",""time""
""fullscreenenter"",""1"",""4050""
","
","","","","","","null","<div style=""font-size:60px;"">+</div>","null","","fixation","","","","","","","","","","","","","",""
"learning-trial","149","678603","0.0-9.0-2.0-1.31","1631","1","2","""event"",""trial"",""time""
""fullscreenenter"",""1"",""4050""
""blur"",""2"",""7132""
""focus"",""3"",""41895""
","""event"",""trial"",""time""
""blur"",""2"",""7132""
","""event"",""trial"",""time""
""focus"",""3"",""41895""
","""event"",""trial"",""time""
""fullscreenenter"",""1"",""4050""
","
","","","","","","1671.8999998569489","images/apple3.png","","","learning","images/fruit_choice1.png","images/fruit_choice3.png","images/fruit_choice2.png","[0,2,1]","2","1","1","images/fruit_choice1.png","-1","fruit","","apple","1","0"
"html-keyboard-response","150","679105","0.0-9.0-2.0-0.32","1631","1","2","""event"",""trial"",""time""
""fullscreenenter"",""1"",""4050""
""blur"",""2"",""7132""
""focus"",""3"",""41895""
","""event"",""trial"",""time""
""blur"",""2"",""7132""
","""event"",""trial"",""time""
""focus"",""3"",""41895""
","""event"",""trial"",""time""
""fullscreenenter"",""1"",""4050""
","
","","","","","","null","<div style=""font-size:60px;"">+</div>","null","","fixation","","","","","","","","","","","","","",""
"learning-trial","151","683109","0.0-9.0-2.0-1.32","1631","1","2","""event"",""trial"",""time""
""fullscreenenter"",""1"",""4050""
""blur"",""2"",""7132""
""focus"",""3"",""41895""
","""event"",""trial"",""time""
""blur"",""2"",""7132""
","""event"",""trial"",""time""
""focus"",""3"",""41895""
","""event"",""trial"",""time""
""fullscreenenter"",""1"",""4050""
","
","","","","","","1792.3000001907349","images/banana2.png","","","learning","images/fruit_choice3.png","images/fruit_choice2.png","images/fruit_choice1.png","[2,1,0]","0","2","3","images/fruit_choice1.png","1","fruit","","banana","1","0"
"html-keyboard-response","152","683611","0.0-9.0-2.0-0.33","1631","1","2","""event"",""trial"",""time""
""fullscreenenter"",""1"",""4050""
""blur"",""2"",""7132""
""focus"",""3"",""41895""
","""event"",""trial"",""time""
""blur"",""2"",""7132""
","""event"",""trial"",""time""
""focus"",""3"",""41895""
","""event"",""trial"",""time""
""fullscreenenter"",""1"",""4050""
","
","","","","","","null","<div style=""font-size:60px;"">+</div>","null","","fixation","","","","","","","","","","","","","",""
"learning-trial","153","687616","0.0-9.0-2.0-1.33","1631","1","2","""event"",""trial"",""time""
""fullscreenenter"",""1"",""4050""
""blur"",""2"",""7132""
""focus"",""3"",""41895""
","""event"",""trial"",""time""
""blur"",""2"",""7132""
","""event"",""trial"",""time""
""focus"",""3"",""41895""
","""event"",""trial"",""time""
""fullscreenenter"",""1"",""4050""
","
","","","","","","1281.0999999046326","images/apple4.png","","","learning","images/fruit_choice1.png","images/fruit_choice2.png","images/fruit_choice3.png","[0,1,2]","2","2","2","images/fruit_choice2.png","-1","fruit","","apple","1","0"
"html-keyboard-response","154","688118","0.0-9.0-2.0-0.34","1631","1","2","""event"",""trial"",""time""
""fullscreenenter"",""1"",""4050""
""blur"",""2"",""7132""
""focus"",""3"",""41895""
","""event"",""trial"",""time""
""blur"",""2"",""7132""
","""event"",""trial"",""time""
""focus"",""3"",""41895""
","""event"",""trial"",""time""
""fullscreenenter"",""1"",""4050""
","
","","","","","","null","<div style=""font-size:60px;"">+</div>","null","","fixation","","","","","","","","","","","","","",""
"learning-trial","155","692123","0.0-9.0-2.0-1.34","1631","1","2","""event"",""trial"",""time""
""fullscreenenter"",""1"",""4050""
""blur"",""2"",""7132""
""focus"",""3"",""41895""
","""event"",""trial"",""time""
""blur"",""2"",""7132""
","""event"",""trial"",""time""
""focus"",""3"",""41895""
","""event"",""trial"",""time""
""fullscreenenter"",""1"",""4050""
","
","","","","","","2140","images/straw2.png","","","learning","images/fruit_choice1.png","images/fruit_choice2.png","images/fruit_choice3.png","[0,1,2]","1","1","1","images/fruit_choice1.png","-1","fruit","","straw","1","0"
"html-keyboard-response","156","692624","0.0-9.0-2.0-0.35","1631","1","2","""event"",""trial"",""time""
""fullscreenenter"",""1"",""4050""
""blur"",""2"",""7132""
""focus"",""3"",""41895""
","""event"",""trial"",""time""
""blur"",""2"",""7132""
","""event"",""trial"",""time""
""focus"",""3"",""41895""
","""event"",""trial"",""time""
""fullscreenenter"",""1"",""4050""
","
","","","","","","null","<div style=""font-size:60px;"">+</div>","null","","fixation","","","","","","","","","","","","","",""
"learning-trial","157","696628","0.0-9.0-2.0-1.35","1631","1","2","""event"",""trial"",""time""
""fullscreenenter"",""1"",""4050""
""blur"",""2"",""7132""
""focus"",""3"",""41895""
","""event"",""trial"",""time""
""blur"",""2"",""7132""
","""event"",""trial"",""time""
""focus"",""3"",""41895""
","""event"",""trial"",""time""
""fullscreenenter"",""1"",""4050""
","
","","","","","","1701.1000001430511","images/banana1.png","","","learning","images/fruit_choice3.png","images/fruit_choice2.png","images/fruit_choice1.png","[2,1,0]","0","2","2","images/fruit_choice2.png","-1","fruit","","banana","1","0"
"html-keyboard-response","158","697145","0.0-9.0-2.0-0.36","1631","1","2","""event"",""trial"",""time""
""fullscreenenter"",""1"",""4050""
""blur"",""2"",""7132""
""focus"",""3"",""41895""
","""event"",""trial"",""time""
""blur"",""2"",""7132""
","""event"",""trial"",""time""
""focus"",""3"",""41895""
","""event"",""trial"",""time""
""fullscreenenter"",""1"",""4050""
","
","","","","","","null","<div style=""font-size:60px;"">+</div>","null","","fixation","","","","","","","","","","","","","",""
"learning-trial","159","701159","0.0-9.0-2.0-1.36","1631","1","2","""event"",""trial"",""time""
""fullscreenenter"",""1"",""4050""
""blur"",""2"",""7132""
""focus"",""3"",""41895""
","""event"",""trial"",""time""
""blur"",""2"",""7132""
","""event"",""trial"",""time""
""focus"",""3"",""41895""
","""event"",""trial"",""time""
""fullscreenenter"",""1"",""4050""
","
","","","","","","861.4000000953674","images/straw2.png","","","learning","images/fruit_choice1.png","images/fruit_choice3.png","images/fruit_choice2.png","[0,2,1]","1","2","2","images/fruit_choice3.png","-1","fruit","","straw","1","0"
"html-keyboard-response","160","701662","0.0-9.0-2.0-0.37","1631","1","2","""event"",""trial"",""time""
""fullscreenenter"",""1"",""4050""
""blur"",""2"",""7132""
""focus"",""3"",""41895""
","""event"",""trial"",""time""
""blur"",""2"",""7132""
","""event"",""trial"",""time""
""focus"",""3"",""41895""
","""event"",""trial"",""time""
""fullscreenenter"",""1"",""4050""
","
","","","","","","null","<div style=""font-size:60px;"">+</div>","null","","fixation","","","","","","","","","","","","","",""
"learning-trial","161","705665","0.0-9.0-2.0-1.37","1631","1","2","""event"",""trial"",""time""
""fullscreenenter"",""1"",""4050""
""blur"",""2"",""7132""
""focus"",""3"",""41895""
","""event"",""trial"",""time""
""blur"",""2"",""7132""
","""event"",""trial"",""time""
""focus"",""3"",""41895""
","""event"",""trial"",""time""
""fullscreenenter"",""1"",""4050""
","
","","","","","","1708.9000000953674","images/apple1.png","","","learning","images/fruit_choice1.png","images/fruit_choice2.png","images/fruit_choice3.png","[0,1,2]","2","2","3","images/fruit_choice3.png","1","fruit","","apple","1","0"
"html-keyboard-response","162","706167","0.0-9.0-2.0-0.38","1631","1","2","""event"",""trial"",""time""
""fullscreenenter"",""1"",""4050""
""blur"",""2"",""7132""
""focus"",""3"",""41895""
","""event"",""trial"",""time""
""blur"",""2"",""7132""
","""event"",""trial"",""time""
""focus"",""3"",""41895""
","""event"",""trial"",""time""
""fullscreenenter"",""1"",""4050""
","
","","","","","","null","<div style=""font-size:60px;"">+</div>","null","","fixation","","","","","","","","","","","","","",""
"learning-trial","163","710170","0.0-9.0-2.0-1.38","1631","1","2","""event"",""trial"",""time""
""fullscreenenter"",""1"",""4050""
""blur"",""2"",""7132""
""focus"",""3"",""41895""
","""event"",""trial"",""time""
""blur"",""2"",""7132""
","""event"",""trial"",""time""
""focus"",""3"",""41895""
","""event"",""trial"",""time""
""fullscreenenter"",""1"",""4050""
","
","","","","","","1712","images/banana1.png","","","learning","images/fruit_choice2.png","images/fruit_choice1.png","images/fruit_choice3.png","[1,0,2]","0","1","2","images/fruit_choice1.png","1","fruit","","banana","1","0"
"html-keyboard-response","164","710674","0.0-9.0-2.0-0.39","1631","1","2","""event"",""trial"",""time""
""fullscreenenter"",""1"",""4050""
""blur"",""2"",""7132""
""focus"",""3"",""41895""
","""event"",""trial"",""time""
""blur"",""2"",""7132""
","""event"",""trial"",""time""
""focus"",""3"",""41895""
","""event"",""trial"",""time""
""fullscreenenter"",""1"",""4050""
","
","","","","","","null","<div style=""font-size:60px;"">+</div>","null","","fixation","","","","","","","","","","","","","",""
"learning-trial","165","714678","0.0-9.0-2.0-1.39","1631","1","2","""event"",""trial"",""time""
""fullscreenenter"",""1"",""4050""
""blur"",""2"",""7132""
""focus"",""3"",""41895""
","""event"",""trial"",""time""
""blur"",""2"",""7132""
","""event"",""trial"",""time""
""focus"",""3"",""41895""
","""event"",""trial"",""time""
""fullscreenenter"",""1"",""4050""
","
","","","","","","1101.1999998092651","images/banana3.png","","","learning","images/fruit_choice2.png","images/fruit_choice3.png","images/fruit_choice1.png","[1,2,0]","0","2","2","images/fruit_choice3.png","-1","fruit","","banana","1","0"
"html-keyboard-response","166","715180","0.0-9.0-2.0-0.40","1631","1","2","""event"",""trial"",""time""
""fullscreenenter"",""1"",""4050""
""blur"",""2"",""7132""
""focus"",""3"",""41895""
","""event"",""trial"",""time""
""blur"",""2"",""7132""
","""event"",""trial"",""time""
""focus"",""3"",""41895""
","""event"",""trial"",""time""
""fullscreenenter"",""1"",""4050""
","
","","","","","","null","<div style=""font-size:60px;"">+</div>","null","","fixation","","","","","","","","","","","","","",""
"learning-trial","167","719185","0.0-9.0-2.0-1.40","1631","1","2","""event"",""trial"",""time""
""fullscreenenter"",""1"",""4050""
""blur"",""2"",""7132""
""focus"",""3"",""41895""
","""event"",""trial"",""time""
""blur"",""2"",""7132""
","""event"",""trial"",""time""
""focus"",""3"",""41895""
","""event"",""trial"",""time""
""fullscreenenter"",""1"",""4050""
","
","","","","","","1140.0999999046326","images/banana2.png","","","learning","images/fruit_choice3.png","images/fruit_choice1.png","images/fruit_choice2.png","[2,0,1]","0","1","2","images/fruit_choice1.png","1","fruit","","banana","1","0"
"html-keyboard-response","168","719688","0.0-9.0-2.0-0.41","1631","1","2","""event"",""trial"",""time""
""fullscreenenter"",""1"",""4050""
""blur"",""2"",""7132""
""focus"",""3"",""41895""
","""event"",""trial"",""time""
""blur"",""2"",""7132""
","""event"",""trial"",""time""
""focus"",""3"",""41895""
","""event"",""trial"",""time""
""fullscreenenter"",""1"",""4050""
","
","","","","","","null","<div style=""font-size:60px;"">+</div>","null","","fixation","","","","","","","","","","","","","",""
"learning-trial","169","723691","0.0-9.0-2.0-1.41","1631","1","2","""event"",""trial"",""time""
""fullscreenenter"",""1"",""4050""
""blur"",""2"",""7132""
""focus"",""3"",""41895""
","""event"",""trial"",""time""
""blur"",""2"",""7132""
","""event"",""trial"",""time""
""focus"",""3"",""41895""
","""event"",""trial"",""time""
""fullscreenenter"",""1"",""4050""
","
","","","","","","912.2999999523163","images/apple3.png","","","learning","images/fruit_choice2.png","images/fruit_choice3.png","images/fruit_choice1.png","[1,2,0]","2","1","2","images/fruit_choice3.png","-1","fruit","","apple","1","0"
"html-keyboard-response","170","724193","0.0-9.0-2.0-0.42","1631","1","2","""event"",""trial"",""time""
""fullscreenenter"",""1"",""4050""
""blur"",""2"",""7132""
""focus"",""3"",""41895""
","""event"",""trial"",""time""
""blur"",""2"",""7132""
","""event"",""trial"",""time""
""focus"",""3"",""41895""
","""event"",""trial"",""time""
""fullscreenenter"",""1"",""4050""
","
","","","","","","null","<div style=""font-size:60px;"">+</div>","null","","fixation","","","","","","","","","","","","","",""
"learning-trial","171","728198","0.0-9.0-2.0-1.42","1631","1","2","""event"",""trial"",""time""
""fullscreenenter"",""1"",""4050""
""blur"",""2"",""7132""
""focus"",""3"",""41895""
","""event"",""trial"",""time""
""blur"",""2"",""7132""
","""event"",""trial"",""time""
""focus"",""3"",""41895""
","""event"",""trial"",""time""
""fullscreenenter"",""1"",""4050""
","
