"trial_type","trial_index","time_elapsed","internal_node_id","subject_id","condition","task_version","interactions","blur_events","focus_events","fullscreenenter_events","fullscreenexit_events","success","timeout","failed_images","failed_audio","failed_video","rt","stimulus","response","button_pressed","task_part","left_choice","middle_choice","right_choice","choice_positions","correct_response","correct_position","key_press","option_selected","points","task_block","correct","stim_cat","block_condition","block_number"
"pavlovia","0","4","0.0-0.0","1793","1","2","""event"",""trial"",""time""
""fullscreenenter"",""1"",""2768""
","
","
","""event"",""trial"",""time""
""fullscreenenter"",""1"",""2768""
","
","","","","","","","","","","","","","","","","","","","","","","","",""
"fullscreen","1","3702","0.0-1.0","1793","1","2","""event"",""trial"",""time""
""fullscreenenter"",""1"",""2768""
","
","
","""event"",""trial"",""time""
""fullscreenenter"",""1"",""2768""
","
","true","","","","","","","","","","","","","","","","","","","","","","",""
"preload","2","13012","0.0-2.0","1793","1","2","""event"",""trial"",""time""
""fullscreenenter"",""1"",""2768""
","
","
","""event"",""trial"",""time""
""fullscreenenter"",""1"",""2768""
","
","true","false","[]","[]","[]","","","","","","","","","","","","","","","","","","",""
"audio-keyboard-response","3","16274","0.0-3.0","1793","1","2","""event"",""trial"",""time""
""fullscreenenter"",""1"",""2768""
","
","
","""event"",""trial"",""time""
""fullscreenenter"",""1"",""2768""
","
","","","","","","3256.598639455783","audio/beep_loop.wav"," ","","","","","","","","","","","","","","","",""
"audio-button-response","4","19090","0.0-4.0","1793","1","2","""event"",""trial"",""time""
""fullscreenenter"",""1"",""2768""
","
","
","""event"",""trial"",""time""
""fullscreenenter"",""1"",""2768""
","
","","","","","","2815","audio/shark.wav","4","","","","","","","","","","","","","","","",""
"audio-button-response","5","22579","0.0-5.0","1793","1","2","""event"",""trial"",""time""
""fullscreenenter"",""1"",""2768""
","
","
","""event"",""trial"",""time""
""fullscreenenter"",""1"",""2768""
","
","","","","","","2485","audio/turtle.wav","1","","","","","","","","","","","","","","","",""
"preload","6","27906","0.0-6.0","1793","1","2","""event"",""trial"",""time""
""fullscreenenter"",""1"",""2768""
","
","
","""event"",""trial"",""time""
""fullscreenenter"",""1"",""2768""
","
","true","false","[]","[]","[]","","","","","","","","","","","","","","","","","","",""
"html-keyboard-response","7","29781","0.0-7.0","1793","1","2","""event"",""trial"",""time""
""fullscreenenter"",""1"",""2768""
","
","
","""event"",""trial"",""time""
""fullscreenenter"",""1"",""2768""
","
","","","","","","1874.0999999940395","Welcome to the experiment. Press any key to begin and to advance the instructions."," ","","","","","","","","","","","","","","","",""
"learning-instructions","8","42011","0.0-8.0-0.0-0.0","1793","1","2","""event"",""trial"",""time""
""fullscreenenter"",""1"",""2768""
","
","
","""event"",""trial"",""time""
""fullscreenenter"",""1"",""2768""
","
","","","","","","4468.399999991059","<p> Welcome! Today you are going to play 6 different rounds of a decision-making game. </p><p> Use the mouse to click next to continue. </p>","","0","instructions","","","","","","","","","","","","","",""
"learning-instructions","9","48852","0.0-8.0-0.0-0.1","1793","1","2","""event"",""trial"",""time""
""fullscreenenter"",""1"",""2768""
","
","
","""event"",""trial"",""time""
""fullscreenenter"",""1"",""2768""
","
","","","","","","3832.7999999970198","<p> You will start with a practice round to learn the rules. </p>","","0","instructions","","","","","","","","","","","","","",""
"learning-instructions","10","57916","0.0-8.0-0.0-0.2","1793","1","2","""event"",""trial"",""time""
""fullscreenenter"",""1"",""2768""
","
","
","""event"",""trial"",""time""
""fullscreenenter"",""1"",""2768""
","
","","","","","","1321.8999999910593","<p> Your goal in this round is to deliver sports equipment to three different parks. </p><p> You will need to deliver many types of equipment. </p></div>","","0","instructions","","","","","","","","","","","","","",""
"learning-instructions","11","67224","0.0-8.0-0.0-0.3","1793","1","2","""event"",""trial"",""time""
""fullscreenenter"",""1"",""2768""
","
","
","""event"",""trial"",""time""
""fullscreenenter"",""1"",""2768""
","
","","","","","","820.3000000119209","<p> On each turn, you will see one piece of sports equipment and three different parks.  </p><p> You need to select which park to deliver the equipment to.  </p>","","0","instructions","","","","","","","","","","","","","",""
"learning-instructions","12","81195","0.0-8.0-0.0-0.4","1793","1","2","""event"",""trial"",""time""
""fullscreenenter"",""1"",""2768""
","
","
","""event"",""trial"",""time""
""fullscreenenter"",""1"",""2768""
","
","","","","","","689.7000000029802","<p> You can select the park on the left by pressing the '1' key on your keyboard. <br>You can select the park in the middle by pressing the '2' key on your keyboard. <br>You can select the park on the right by pressing the '3' key on your keyboard.  </p><br><div class=""choice-instructions-grid""> <div class=""choice-option""><img src=""images/park1.png"" class=""choice-option-img"" stage=""instructions"" position=""0"" ><div class=""choice-option-text""> Press ""1."" </div></div><div class=""choice-option""><img src=""images/park2.png"" class=""choice-option-img"" stage=""instructions"" position=""1"" ><div class=""choice-option-text""> Press ""2."" </div></div><div class=""choice-option""><img src=""images/park3.png"" class=""choice-option-img"" stage=""instructions"" position=""2"" ><div class=""choice-option-text""> Press ""3."" </div></div></div>","","0","instructions","","","","","","","","","","","","","",""
"learning-instructions","13","87631","0.0-8.0-0.0-0.5","1793","1","2","""event"",""trial"",""time""
""fullscreenenter"",""1"",""2768""
","
","
","""event"",""trial"",""time""
""fullscreenenter"",""1"",""2768""
","
","","","","","","1054.5","<p> If the kids in the park you chose like the equipment, they will be very happy! </p><div style='float: center;'><img src='images/check.png' width = '200' height = '200'></img>","","0","instructions","","","","","","","","","","","","","",""
"learning-instructions","14","93714","0.0-8.0-0.0-0.6","1793","1","2","""event"",""trial"",""time""
""fullscreenenter"",""1"",""2768""
","
","
","""event"",""trial"",""time""
""fullscreenenter"",""1"",""2768""
","
","","","","","","491.29999999701977","<p> But, if the kids in the park you chose do not like the equipment, they will be sad. </p><div style='float: center;'><img src='images/x.png' width = '200' height = '200'></img>","","0","instructions","","","","","","","","","","","","","",""
"learning-instructions","15","100590","0.0-8.0-0.0-0.7","1793","1","2","""event"",""trial"",""time""
""fullscreenenter"",""1"",""2768""
","
","
","""event"",""trial"",""time""
""fullscreenenter"",""1"",""2768""
","
","","","","","","448","<p> Importantly, the kids in each park like some pieces of sports equipment more than others. </p>","","0","instructions","","","","","","","","","","","","","",""
"learning-instructions","16","107169","0.0-8.0-0.0-0.8","1793","1","2","""event"",""trial"",""time""
""fullscreenenter"",""1"",""2768""
","
","
","""event"",""trial"",""time""
""fullscreenenter"",""1"",""2768""
","
","","","","","","530.3000000119209","<p> If you choose the best park for each piece of equipment, the kids there will usually be happy. </p>","","0","instructions","","","","","","","","","","","","","",""
"learning-instructions","17","114282","0.0-8.0-0.0-0.9","1793","1","2","""event"",""trial"",""time""
""fullscreenenter"",""1"",""2768""
","
","
","""event"",""trial"",""time""
""fullscreenenter"",""1"",""2768""
","
","","","","","","468.70000000298023","<p> However, even if you choose the best park for the equipment, the kids may sometimes be sad. </p>","","0","instructions","","","","","","","","","","","","","",""
"learning-instructions","18","121976","0.0-8.0-0.0-0.10","1793","1","2","""event"",""trial"",""time""
""fullscreenenter"",""1"",""2768""
","
","
","""event"",""trial"",""time""
""fullscreenenter"",""1"",""2768""
","
","","","","","","465.90000000596046","<p> Similarly, even if you choose the <i>wrong</i> park for the equipment, the kids may still be happy sometimes.","","0","instructions","","","","","","","","","","","","","",""
"learning-instructions","19","127780","0.0-8.0-0.0-0.11","1793","1","2","""event"",""trial"",""time""
""fullscreenenter"",""1"",""2768""
","
","
","""event"",""trial"",""time""
""fullscreenenter"",""1"",""2768""
","
","","","","","","749.2999999970198","<p> For example, the best park for this soccer ball is this one.<div style='float: center;'><img src='images/i1.png' width = '500' height = '268'></img>","","0","instructions","","","","","","","","","","","","","",""
"learning-instructions","20","133849","0.0-8.0-0.0-0.12","1793","1","2","""event"",""trial"",""time""
""fullscreenenter"",""1"",""2768""
","
","
","""event"",""trial"",""time""
""fullscreenenter"",""1"",""2768""
","
","","","","","","780.5999999940395","<p> Let's see what happens if you choose this park for the soccer ball five times.","","0","instructions","","","","","","","","","","","","","",""
"learning-instructions","21","136975","0.0-8.0-0.0-0.13","1793","1","2","""event"",""trial"",""time""
""fullscreenenter"",""1"",""2768""
","
","
","""event"",""trial"",""time""
""fullscreenenter"",""1"",""2768""
","
","","","","","","963.3999999910593","<p> The kids are happy.<div style='float: left;'><img src='images/i2.png' width = '640' height = '360'></img>","","0","instructions","","","","","","","","","","","","","",""
"learning-instructions","22","139526","0.0-8.0-0.0-0.14","1793","1","2","""event"",""trial"",""time""
""fullscreenenter"",""1"",""2768""
","
","
","""event"",""trial"",""time""
""fullscreenenter"",""1"",""2768""
","
","","","","","","386.5","<p> The kids are happy.<div style='float: left;'><img src='images/i3.png' width = '640' height = '360'></img>","","0","instructions","","","","","","","","","","","","","",""
"learning-instructions","23","142425","0.0-8.0-0.0-0.15","1793","1","2","""event"",""trial"",""time""
""fullscreenenter"",""1"",""2768""
","
","
","""event"",""trial"",""time""
""fullscreenenter"",""1"",""2768""
","
","","","","","","737","<p> The kids are happy.<div style='float: left;'><img src='images/i4.png' width = '640' height = '360'></img>","","0","instructions","","","","","","","","","","","","","",""
"learning-instructions","24","145264","0.0-8.0-0.0-0.16","1793","1","2","""event"",""trial"",""time""
""fullscreenenter"",""1"",""2768""
","
","
","""event"",""trial"",""time""
""fullscreenenter"",""1"",""2768""
","
","","","","","","631.9000000059605","<p> The kids are sad.<div style='float: left;'><img src='images/i5.png' width = '640' height = '360'></img>","","0","instructions","","","","","","","","","","","","","",""
"learning-instructions","25","148120","0.0-8.0-0.0-0.17","1793","1","2","""event"",""trial"",""time""
""fullscreenenter"",""1"",""2768""
","
","
","""event"",""trial"",""time""
""fullscreenenter"",""1"",""2768""
","
","","","","","","690.2999999970198","<p> The kids are happy.<div style='float: left;'><img src='images/i6.png' width = '640' height = '360'></img>","","0","instructions","","","","","","","","","","","","","",""
"learning-instructions","26","156545","0.0-8.0-0.0-0.18","1793","1","2","""event"",""trial"",""time""
""fullscreenenter"",""1"",""2768""
","
","
","""event"",""trial"",""time""
""fullscreenenter"",""1"",""2768""
","
","","","","","","1157.5","<p> As you can see, selecting that park for the soccer ball made the kids happy most of the time, but not all the time.","","0","instructions","","","","","","","","","","","","","",""
"learning-instructions","27","162995","0.0-8.0-0.0-0.19","1793","1","2","""event"",""trial"",""time""
""fullscreenenter"",""1"",""2768""
","
","
","""event"",""trial"",""time""
""fullscreenenter"",""1"",""2768""
","
","","","","","","449.80000001192093","<p> Now let's see what happens if you choose a DIFFERENT park for the soccer ball 5 times.","","0","instructions","","","","","","","","","","","","","",""
"learning-instructions","28","165588","0.0-8.0-0.0-0.20","1793","1","2","""event"",""trial"",""time""
""fullscreenenter"",""1"",""2768""
","
","
","""event"",""trial"",""time""
""fullscreenenter"",""1"",""2768""
","
","","","","","","389.59999999403954","<p> The kids are sad.<div style='float: left;'><img src='images/i7.png' width = '640' height = '360'></img>","","0","instructions","","","","","","","","","","","","","",""
"learning-instructions","29","168237","0.0-8.0-0.0-0.21","1793","1","2","""event"",""trial"",""time""
""fullscreenenter"",""1"",""2768""
","
","
","""event"",""trial"",""time""
""fullscreenenter"",""1"",""2768""
","
","","","","","","443.90000000596046","<p> The kids are sad.<div style='float: left;'><img src='images/i8.png' width = '640' height = '360'></img>","","0","instructions","","","","","","","","","","","","","",""
"learning-instructions","30","171244","0.0-8.0-0.0-0.22","1793","1","2","""event"",""trial"",""time""
""fullscreenenter"",""1"",""2768""
","
","
","""event"",""trial"",""time""
""fullscreenenter"",""1"",""2768""
","
","","","","","","845","<p> The kids are happy.<div style='float: left;'><img src='images/i9.png' width = '640' height = '360'></img>","","0","instructions","","","","","","","","","","","","","",""
"learning-instructions","31","174499","0.0-8.0-0.0-0.23","1793","1","2","""event"",""trial"",""time""
""fullscreenenter"",""1"",""2768""
","
","
","""event"",""trial"",""time""
""fullscreenenter"",""1"",""2768""
","
","","","","","","1052","<p> The kids are sad.<div style='float: left;'><img src='images/i10.png' width = '640' height = '360'></img>","","0","instructions","","","","","","","","","","","","","",""
"learning-instructions","32","180096","0.0-8.0-0.0-0.24","1793","1","2","""event"",""trial"",""time""
""fullscreenenter"",""1"",""2768""
","
","
","""event"",""trial"",""time""
""fullscreenenter"",""1"",""2768""
","
","","","","","","3392.7999999970198","<p> The kids are sad.<div style='float: left;'><img src='images/i11.png' width = '640' height = '360'></img>","","0","instructions","","","","","","","","","","","","","",""
"learning-instructions","33","190492","0.0-8.0-0.0-0.25","1793","1","2","""event"",""trial"",""time""
""fullscreenenter"",""1"",""2768""
","
","
","""event"",""trial"",""time""
""fullscreenenter"",""1"",""2768""
","
","","","","","","2277.2000000029802","<p> As you can see, selecting the wrong park for the soccer ball made the kids sad most of the time, but not all the time.","","0","instructions","","","","","","","","","","","","","",""
"learning-instructions","34","200528","0.0-8.0-0.0-0.26","1793","1","2","""event"",""trial"",""time""
""fullscreenenter"",""1"",""2768""
","
","
","""event"",""trial"",""time""
""fullscreenenter"",""1"",""2768""
","
","","","","","","924","<p> The different pieces of equipment belong in different parks. You need to try to learn which is the best park for each piece of equipment.","","0","instructions","","","","","","","","","","","","","",""
"learning-instructions","35","217443","0.0-8.0-0.0-0.27","1793","1","2","""event"",""trial"",""time""
""fullscreenenter"",""1"",""2768""
","
","
","""event"",""trial"",""time""
""fullscreenenter"",""1"",""2768""
","
","","","","","","529","<p> Try to choose the best park for each piece of equipment, because you will <b> WIN </b> 1 point for each time you make the kids happy and <b>LOSE</b> 1 point for each time you make them sad. </p><p> Remember, if you make the best choice, you will win 1 point most of the time, but not all the time. </p>","","0","instructions","","","","","","","","","","","","","",""
"learning-instructions","36","223406","0.0-8.0-0.0-0.28","1793","1","2","""event"",""trial"",""time""
""fullscreenenter"",""1"",""2768""
","
","
","""event"",""trial"",""time""
""fullscreenenter"",""1"",""2768""
","
","","","","","","484.5","<p> This is just a practice round, but in the real game, your bonus payment will depend on your total number of points.","","0","instructions","","","","","","","","","","","","","",""
"learning-instructions","37","234295","0.0-8.0-0.0-0.29","1793","1","2","""event"",""trial"",""time""
""fullscreenenter"",""1"",""2768""
","
","
","""event"",""trial"",""time""
""fullscreenenter"",""1"",""2768""
","
","","","","","","564.2000000029802","<p> The position where each park appears will change throughout the game. </p><p> The position where the park appears <i> does not </i> influence how likely the kids are to be happy or sad. </p>","","0","instructions","","","","","","","","","","","","","",""
"learning-instructions","38","245615","0.0-8.0-0.0-0.30","1793","1","2","""event"",""trial"",""time""
""fullscreenenter"",""1"",""2768""
","
","
","""event"",""trial"",""time""
""fullscreenenter"",""1"",""2768""
","
","","","","","","361.30000001192093","<p> You will have 4 seconds to make each choice. Try to respond before time runs out! </p><p> You will lose 1 point each time you do not make a response. </p>","","0","instructions","","","","","","","","","","","","","",""
"learning-instructions","39","253619","0.0-8.0-0.0-0.31","1793","1","2","""event"",""trial"",""time""
""fullscreenenter"",""1"",""2768""
","
","
","""event"",""trial"",""time""
""fullscreenenter"",""1"",""2768""
","
","","","","","","1218.4000000059605","<p> Remember, you should use the 1, 2, and 3 keys to select the park for each piece of equipment. </p><br><div class=""choice-instructions-grid""> <div class=""choice-option""><img src=""images/park1.png"" class=""choice-option-img"" stage=""instructions"" position=""0"" ><div class=""choice-option-text""> Press ""1."" </div></div><div class=""choice-option""><img src=""images/park2.png"" class=""choice-option-img"" stage=""instructions"" position=""1"" ><div class=""choice-option-text""> Press ""2."" </div></div><div class=""choice-option""><img src=""images/park3.png"" class=""choice-option-img"" stage=""instructions"" position=""2"" ><div class=""choice-option-text""> Press ""3."" </div></div></div>","","0","instructions","","","","","","","","","","","","","",""
"html-button-response","40","255971","0.0-8.0-1.0","1793","1","2","""event"",""trial"",""time""
""fullscreenenter"",""1"",""2768""
","
","
","""event"",""trial"",""time""
""fullscreenenter"",""1"",""2768""
","
","","","","","","2247.0999999940395","<p> Ready to practice? </p>","0","","","","","","","","","","","","","","","",""
"html-keyboard-response","41","256578","0.0-8.0-2.0-0.0","1793","1","2","""event"",""trial"",""time""
""fullscreenenter"",""1"",""2768""
","
","
","""event"",""trial"",""time""
""fullscreenenter"",""1"",""2768""
","
","","","","","","null","<div style=""font-size:60px;"">+</div>","null","","fixation","","","","","","","","","","","","","",""
"learning-trial","42","260583","0.0-8.0-2.0-1.0","1793","1","2","""event"",""trial"",""time""
""fullscreenenter"",""1"",""2768""
","
","
","""event"",""trial"",""time""
""fullscreenenter"",""1"",""2768""
","
","","","","","","488.09999999403954","images/racket1.png","","","practice","images/park1.png","images/park2.png","images/park3.png","[0,1,2]","1","1","1","images/park1.png","-1","practice","","","",""
"html-keyboard-response","43","261088","0.0-8.0-2.0-0.1","1793","1","2","""event"",""trial"",""time""
""fullscreenenter"",""1"",""2768""
","
","
","""event"",""trial"",""time""
""fullscreenenter"",""1"",""2768""
","
","","","","","","null","<div style=""font-size:60px;"">+</div>","null","","fixation","","","","","","","","","","","","","",""
"learning-trial","44","265094","0.0-8.0-2.0-1.1","1793","1","2","""event"",""trial"",""time""
""fullscreenenter"",""1"",""2768""
","
","
","""event"",""trial"",""time""
""fullscreenenter"",""1"",""2768""
","
","","","","","","903.3000000119209","images/ball2.png","","","practice","images/park1.png","images/park2.png","images/park3.png","[0,1,2]","1","1","2","images/park2.png","1","practice","","","",""
"html-keyboard-response","45","265599","0.0-8.0-2.0-0.2","1793","1","2","""event"",""trial"",""time""
""fullscreenenter"",""1"",""2768""
","
","
","""event"",""trial"",""time""
""fullscreenenter"",""1"",""2768""
","
","","","","","","null","<div style=""font-size:60px;"">+</div>","null","","fixation","","","","","","","","","","","","","",""
"learning-trial","46","269605","0.0-8.0-2.0-1.2","1793","1","2","""event"",""trial"",""time""
""fullscreenenter"",""1"",""2768""
","
","
","""event"",""trial"",""time""
""fullscreenenter"",""1"",""2768""
","
","","","","","","732.5","images/racket4.png","","","practice","images/park2.png","images/park1.png","images/park3.png","[1,0,2]","0","1","3","images/park3.png","-1","practice","","","",""
"html-keyboard-response","47","270109","0.0-8.0-2.0-0.3","1793","1","2","""event"",""trial"",""time""
""fullscreenenter"",""1"",""2768""
","
","
","""event"",""trial"",""time""
""fullscreenenter"",""1"",""2768""
","
","","","","","","null","<div style=""font-size:60px;"">+</div>","null","","fixation","","","","","","","","","","","","","",""
"learning-trial","48","274115","0.0-8.0-2.0-1.3","1793","1","2","""event"",""trial"",""time""
""fullscreenenter"",""1"",""2768""
","
","
","""event"",""trial"",""time""
""fullscreenenter"",""1"",""2768""
","
","","","","","","840.3000000119209","images/ball1.png","","","practice","images/park3.png","images/park1.png","images/park2.png","[2,0,1]","2","0","1","images/park3.png","1","practice","","","",""
"html-keyboard-response","49","274616","0.0-8.0-2.0-0.4","1793","1","2","""event"",""trial"",""time""
""fullscreenenter"",""1"",""2768""
","
","
","""event"",""trial"",""time""
""fullscreenenter"",""1"",""2768""
","
","","","","","","null","<div style=""font-size:60px;"">+</div>","null","","fixation","","","","","","","","","","","","","",""
"learning-trial","50","278619","0.0-8.0-2.0-1.4","1793","1","2","""event"",""trial"",""time""
""fullscreenenter"",""1"",""2768""
","
","
","""event"",""trial"",""time""
""fullscreenenter"",""1"",""2768""
","
","","","","","","1341.7999999970198","images/ball1.png","","","practice","images/park2.png","images/park1.png","images/park3.png","[1,0,2]","2","2","1","images/park2.png","-1","practice","","","",""
"html-keyboard-response","51","279124","0.0-8.0-2.0-0.5","1793","1","2","""event"",""trial"",""time""
""fullscreenenter"",""1"",""2768""
","
","
","""event"",""trial"",""time""
""fullscreenenter"",""1"",""2768""
","
","","","","","","null","<div style=""font-size:60px;"">+</div>","null","","fixation","","","","","","","","","","","","","",""
"learning-trial","52","283130","0.0-8.0-2.0-1.5","1793","1","2","""event"",""trial"",""time""
""fullscreenenter"",""1"",""2768""
","
","
","""event"",""trial"",""time""
""fullscreenenter"",""1"",""2768""
","
","","","","","","727.3999999910593","images/ball4.png","","","practice","images/park1.png","images/park2.png","images/park3.png","[0,1,2]","0","0","2","images/park2.png","-1","practice","","","",""
"html-keyboard-response","53","283635","0.0-8.0-2.0-0.6","1793","1","2","""event"",""trial"",""time""
""fullscreenenter"",""1"",""2768""
","
","
","""event"",""trial"",""time""
""fullscreenenter"",""1"",""2768""
","
","","","","","","null","<div style=""font-size:60px;"">+</div>","null","","fixation","","","","","","","","","","","","","",""
"learning-trial","54","287643","0.0-8.0-2.0-1.6","1793","1","2","""event"",""trial"",""time""
""fullscreenenter"",""1"",""2768""
","
","
","""event"",""trial"",""time""
""fullscreenenter"",""1"",""2768""
","
","","","","","","1426.5999999940395","images/racket3.png","","","practice","images/park2.png","images/park3.png","images/park1.png","[1,2,0]","2","1","1","images/park2.png","-1","practice","","","",""
"html-keyboard-response","55","288145","0.0-8.0-2.0-0.7","1793","1","2","""event"",""trial"",""time""
""fullscreenenter"",""1"",""2768""
","
","
","""event"",""trial"",""time""
""fullscreenenter"",""1"",""2768""
","
","","","","","","null","<div style=""font-size:60px;"">+</div>","null","","fixation","","","","","","","","","","","","","",""
"learning-trial","56","292151","0.0-8.0-2.0-1.7","1793","1","2","""event"",""trial"",""time""
""fullscreenenter"",""1"",""2768""
","
","
","""event"",""trial"",""time""
""fullscreenenter"",""1"",""2768""
","
","","","","","","1784.1000000089407","images/racket1.png","","","practice","images/park1.png","images/park3.png","images/park2.png","[0,2,1]","1","2","2","images/park3.png","-1","practice","","","",""
"html-keyboard-response","57","292655","0.0-8.0-2.0-0.8","1793","1","2","""event"",""trial"",""time""
""fullscreenenter"",""1"",""2768""
","
","
","""event"",""trial"",""time""
""fullscreenenter"",""1"",""2768""
","
","","","","","","null","<div style=""font-size:60px;"">+</div>","null","","fixation","","","","","","","","","","","","","",""
"learning-trial","58","296662","0.0-8.0-2.0-1.8","1793","1","2","""event"",""trial"",""time""
""fullscreenenter"",""1"",""2768""
","
","
","""event"",""trial"",""time""
""fullscreenenter"",""1"",""2768""
","
","","","","","","1326.0999999940395","images/ball2.png","","","practice","images/park1.png","images/park2.png","images/park3.png","[0,1,2]","1","1","2","images/park2.png","1","practice","","","",""
"html-keyboard-response","59","297166","0.0-8.0-2.0-0.9","1793","1","2","""event"",""trial"",""time""
""fullscreenenter"",""1"",""2768""
","
","
","""event"",""trial"",""time""
""fullscreenenter"",""1"",""2768""
","
","","","","","","null","<div style=""font-size:60px;"">+</div>","null","","fixation","","","","","","","","","","","","","",""
"learning-trial","60","301172","0.0-8.0-2.0-1.9","1793","1","2","""event"",""trial"",""time""
""fullscreenenter"",""1"",""2768""
","
","
","""event"",""trial"",""time""
""fullscreenenter"",""1"",""2768""
","
","","","","","","1114.0999999940395","images/racket3.png","","","practice","images/park3.png","images/park2.png","images/park1.png","[2,1,0]","2","0","1","images/park3.png","1","practice","","","",""
"html-keyboard-response","61","301677","0.0-8.0-2.0-0.10","1793","1","2","""event"",""trial"",""time""
""fullscreenenter"",""1"",""2768""
","
","
","""event"",""trial"",""time""
""fullscreenenter"",""1"",""2768""
","
","","","","","","null","<div style=""font-size:60px;"">+</div>","null","","fixation","","","","","","","","","","","","","",""
"learning-trial","62","305682","0.0-8.0-2.0-1.10","1793","1","2","""event"",""trial"",""time""
""fullscreenenter"",""1"",""2768""
","
","
","""event"",""trial"",""time""
""fullscreenenter"",""1"",""2768""
","
","","","","","","1008.7999999970198","images/racket4.png","","","practice","images/park3.png","images/park1.png","images/park2.png","[2,0,1]","0","1","1","images/park3.png","-1","practice","","","",""
"html-keyboard-response","63","306187","0.0-8.0-2.0-0.11","1793","1","2","""event"",""trial"",""time""
""fullscreenenter"",""1"",""2768""
","
","
","""event"",""trial"",""time""
""fullscreenenter"",""1"",""2768""
","
","","","","","","null","<div style=""font-size:60px;"">+</div>","null","","fixation","","","","","","","","","","","","","",""
"learning-trial","64","310193","0.0-8.0-2.0-1.11","1793","1","2","""event"",""trial"",""time""
""fullscreenenter"",""1"",""2768""
","
","
","""event"",""trial"",""time""
""fullscreenenter"",""1"",""2768""
","
","","","","","","995.2999999970198","images/ball4.png","","","practice","images/park3.png","images/park2.png","images/park1.png","[2,1,0]","0","2","2","images/park2.png","-1","practice","","","",""
"html-button-response","65","312098","0.0-8.0-3.0","1793","1","2","""event"",""trial"",""time""
""fullscreenenter"",""1"",""2768""
","
","
","""event"",""trial"",""time""
""fullscreenenter"",""1"",""2768""
","
","","","","","","1902.2999999970198","<p> You earned -4 points in the practice round! </p>","0","","break","","","","","","","","","","","","","",""
"learning-instructions","66","323400","0.0-8.0-4.0-0.0","1793","1","2","""event"",""trial"",""time""
""fullscreenenter"",""1"",""2768""
","
","
","""event"",""trial"",""time""
""fullscreenenter"",""1"",""2768""
","
","","","","","","3476.9000000059605","<p> It's almost time to start the real game. </p><p> Before you start, we're going to ask you a few questions about how the game works. </p>","","0","instructions","","","","","","","","","","","","","",""
"preload","67","325726","0.0-8.0-5.0","1793","1","2","""event"",""trial"",""time""
""fullscreenenter"",""1"",""2768""
","
","
","""event"",""trial"",""time""
""fullscreenenter"",""1"",""2768""
","
","true","false","[]","[]","[]","","","","","","","","","","","","","","","","","","",""
"comp-q","68","332796","0.0-8.0-6.0-0.0","1793","1","2","""event"",""trial"",""time""
""fullscreenenter"",""1"",""2768""
","
","
","""event"",""trial"",""time""
""fullscreenenter"",""1"",""2768""
","
","","","","","","1616","<p> <b> True or False? </b> </p><p> If you choose the best option, you will always earn 1 point. </p>","","0","comp_question","","","","","","","","","","","false","","",""
"comp-q","69","343500","0.0-8.0-6.0-1.0","1793","1","2","""event"",""trial"",""time""
""fullscreenenter"",""1"",""2768""
","
","
","""event"",""trial"",""time""
""fullscreenenter"",""1"",""2768""
","
","","","","","","5151.4000000059605","<p><b> Incorrect. </b> Sometimes you will lose 1 point, even if you choose the best option. </p>","","0","comp_answer","","","","","","","","","","","","","",""
"comp-q","70","349169","0.0-8.0-6.0-0.1","1793","1","2","""event"",""trial"",""time""
""fullscreenenter"",""1"",""2768""
","
","
","""event"",""trial"",""time""
""fullscreenenter"",""1"",""2768""
","
","","","","","","1039.6000000089407","<p> <b> True or False? </b> </p><p> You will have as much time as you want to make each choice. </p>","","1","comp_question","","","","","","","","","","","true","","",""
"comp-q","71","356475","0.0-8.0-6.0-1.1","1793","1","2","""event"",""trial"",""time""
""fullscreenenter"",""1"",""2768""
","
","
","""event"",""trial"",""time""
""fullscreenenter"",""1"",""2768""
","
","","","","","","2487.5999999940395","<p> <b> That's right! </b> You will only have 4 seconds to make each choice. </p>","","0","comp_answer","","","","","","","","","","","","","",""
"comp-q","72","364202","0.0-8.0-6.0-0.2","1793","1","2","""event"",""trial"",""time""
""fullscreenenter"",""1"",""2768""
","
","
","""event"",""trial"",""time""
""fullscreenenter"",""1"",""2768""
","
","","","","","","1577.2000000029802","<p> <b> True or False? </b> </p><p> You should use the '1', '2', and '3' keys to make your choices. </p>","","0","comp_question","","","","","","","","","","","true","","",""
"comp-q","73","372479","0.0-8.0-6.0-1.2","1793","1","2","""event"",""trial"",""time""
""fullscreenenter"",""1"",""2768""
","
","
","""event"",""trial"",""time""
""fullscreenenter"",""1"",""2768""
","
","","","","","","3434.0999999940395","<p> <b> That's right! </b> You should use the '1', '2', and '3' keys to make each choice. </p>","","0","comp_answer","","","","","","","","","","","","","",""
"learning-instructions","74","383605","0.0-8.0-7.0-0.0","1793","1","2","""event"",""trial"",""time""
""fullscreenenter"",""1"",""2768""
","
","
","""event"",""trial"",""time""
""fullscreenenter"",""1"",""2768""
","
","","","","","","2642.7999999970198","<p> It's now time to start the real game. </p>Do your best, because the points you earn in the next rounds will influence your bonus payment. </p>","","0","instructions","","","","","","","","","","","","","",""
"preload","75","386277","0.0-9.0-0.0","1793","1","2","""event"",""trial"",""time""
""fullscreenenter"",""1"",""2768""
","
","
","""event"",""trial"",""time""
""fullscreenenter"",""1"",""2768""
","
","true","false","[]","[]","[]","","","","","","","","","","","","","","","","","","",""
"learning-instructions","76","395300","0.0-9.0-1.0-0.0","1793","1","2","""event"",""trial"",""time""
""fullscreenenter"",""1"",""2768""
","
","
","""event"",""trial"",""time""
""fullscreenenter"",""1"",""2768""
","
","","","","","","696.2999999970198","<p> Your goal in this round is to travel the world by putting fuel into different vehicles. </p><p> To travel, you will need to put fuel into many different vehicles. </p></div>","","0","instructions","","","","","","","","","","","","","",""
"learning-instructions","77","404659","0.0-9.0-1.0-0.1","1793","1","2","""event"",""trial"",""time""
""fullscreenenter"",""1"",""2768""
","
","
","""event"",""trial"",""time""
""fullscreenenter"",""1"",""2768""
","
","","","","","","581.7000000029802","<p> On each turn, you will see a picture of one of your vehicles and three different types of fuel.  </p><p> You need to select which kind of fuel to use.  </p>","","0","instructions","","","","","","","","","","","","","",""
"learning-instructions","78","411994","0.0-9.0-1.0-0.2","1793","1","2","""event"",""trial"",""time""
""fullscreenenter"",""1"",""2768""
","
","
","""event"",""trial"",""time""
""fullscreenenter"",""1"",""2768""
","
","","","","","","468.20000000298023","<p> You can select the fuel on the left by pressing 1, the fuel in the middle by pressing 2, and the fuel on the right by pressing 3. </p><br><div class=""choice-instructions-grid""> <div class=""choice-option""><img src=""images/vehicles_choice1.png"" class=""choice-option-img"" stage=""instructions"" position=""0"" ><div class=""choice-option-text""> Press ""1."" </div></div><div class=""choice-option""><img src=""images/vehicles_choice2.png"" class=""choice-option-img"" stage=""instructions"" position=""1"" ><div class=""choice-option-text""> Press ""2."" </div></div><div class=""choice-option""><img src=""images/vehicles_choice3.png"" class=""choice-option-img"" stage=""instructions"" position=""2"" ><div class=""choice-option-text""> Press ""3."" </div></div></div>","","0","instructions","","","","","","","","","","","","","",""
"learning-instructions","79","418214","0.0-9.0-1.0-0.3","1793","1","2","""event"",""trial"",""time""
""fullscreenenter"",""1"",""2768""
","
","
","""event"",""trial"",""time""
""fullscreenenter"",""1"",""2768""
","
","","","","","","988","<p> If the fuel you chose works for that vehicle, it will start, and </p><p> you will get to travel. </p><div style='float: center;'><img src='images/check.png' width = '200' height = '200'></img>","","0","instructions","","","","","","","","","","","","","",""
"learning-instructions","80","424081","0.0-9.0-1.0-0.4","1793","1","2","""event"",""trial"",""time""
""fullscreenenter"",""1"",""2768""
","
","
","""event"",""trial"",""time""
""fullscreenenter"",""1"",""2768""
","
","","","","","","1329.2000000029802","<p> But, if the fuel you chose does not work, your vehicle will not move. </p><div style='float: center;'><img src='images/x.png' width = '200' height = '200'></img>","","0","instructions","","","","","","","","","","","","","",""
"learning-instructions","81","435434","0.0-9.0-1.0-0.5","1793","1","2","""event"",""trial"",""time""
""fullscreenenter"",""1"",""2768""
","
","
","""event"",""trial"",""time""
""fullscreenenter"",""1"",""2768""
","
","","","","","","671.7999999970198","<p> Importantly, each vehicle has a fuel that works best for it. </p><p> If you choose the fuel that works best for the vehicle, it will be more likely to start. </p>","","0","instructions","","","","","","","","","","","","","",""
"learning-instructions","82","446221","0.0-9.0-1.0-0.6","1793","1","2","""event"",""trial"",""time""
""fullscreenenter"",""1"",""2768""
","
","
","""event"",""trial"",""time""
""fullscreenenter"",""1"",""2768""
","
","","","","","","580.3999999910593","<p> However, even if you choose the best fuel for the vehicle, it may still not move. </p><p> Similarly, even if you choose the <i>wrong</i> fuel, the vehicle may still start and let you travel.","","0","instructions","","","","","","","","","","","","","",""
"learning-instructions","83","459016","0.0-9.0-1.0-0.7","1793","1","2","""event"",""trial"",""time""
""fullscreenenter"",""1"",""2768""
","
","
","""event"",""trial"",""time""
""fullscreenenter"",""1"",""2768""
","
","","","","","","442.20000000298023","<p> Try to choose the best fuel for each vehicle, because you will <b> WIN </b> 1 point each time you get to travel and <b>LOSE</b> 1 point each time a vehicle does not start. </p><p> Your bonus payment will depend on your total number of points.","","0","instructions","","","","","","","","","","","","","",""
"learning-instructions","84","467754","0.0-9.0-1.0-0.8","1793","1","2","""event"",""trial"",""time""
""fullscreenenter"",""1"",""2768""
","
","
","""event"",""trial"",""time""
""fullscreenenter"",""1"",""2768""
","
","","","","","","483.8999999910593","<p> The position of each type of fuel will change throughout the round. </p><p> The fuel's position <i> does not </i> influence how likely it is to make each vehicle start. </p>","","0","instructions","","","","","","","","","","","","","",""
"learning-instructions","85","477415","0.0-9.0-1.0-0.9","1793","1","2","""event"",""trial"",""time""
""fullscreenenter"",""1"",""2768""
","
","
","""event"",""trial"",""time""
""fullscreenenter"",""1"",""2768""
","
","","","","","","369.70000000298023","<p> You will have 4 seconds to make each choice. Try to respond before time runs out! </p><p> You will lose 1 point each time you do not make a response. </p>","","0","instructions","","","","","","","","","","","","","",""
"html-keyboard-response","86","478018","0.0-9.0-2.0-0.0","1793","1","2","""event"",""trial"",""time""
""fullscreenenter"",""1"",""2768""
","
","
","""event"",""trial"",""time""
""fullscreenenter"",""1"",""2768""
","
","","","","","","null","<div style=""font-size:60px;"">+</div>","null","","fixation","","","","","","","","","","","","","",""
"learning-trial","87","482025","0.0-9.0-2.0-1.0","1793","1","2","""event"",""trial"",""time""
""fullscreenenter"",""1"",""2768""
","
","
","""event"",""trial"",""time""
""fullscreenenter"",""1"",""2768""
","
","","","","","","1507.5999999940395","images/boat3.png","","","learning","images/vehicles_choice3.png","images/vehicles_choice1.png","images/vehicles_choice2.png","[2,0,1]","2","0","1","images/vehicles_choice3.png","1","vehicles","","boat","1","0"
"html-keyboard-response","88","482530","0.0-9.0-2.0-0.1","1793","1","2","""event"",""trial"",""time""
""fullscreenenter"",""1"",""2768""
","
","
","""event"",""trial"",""time""
""fullscreenenter"",""1"",""2768""
","
","","","","","","null","<div style=""font-size:60px;"">+</div>","null","","fixation","","","","","","","","","","","","","",""
"learning-trial","89","486538","0.0-9.0-2.0-1.1","1793","1","2","""event"",""trial"",""time""
""fullscreenenter"",""1"",""2768""
","
","
","""event"",""trial"",""time""
""fullscreenenter"",""1"",""2768""
","
","","","","","","600","images/train5.png","","","learning","images/vehicles_choice1.png","images/vehicles_choice3.png","images/vehicles_choice2.png","[0,2,1]","1","2","2","images/vehicles_choice3.png","-1","vehicles","","train","1","0"
"html-keyboard-response","90","487040","0.0-9.0-2.0-0.2","1793","1","2","""event"",""trial"",""time""
""fullscreenenter"",""1"",""2768""
","
","
","""event"",""trial"",""time""
""fullscreenenter"",""1"",""2768""
","
","","","","","","null","<div style=""font-size:60px;"">+</div>","null","","fixation","","","","","","","","","","","","","",""
"learning-trial","91","491046","0.0-9.0-2.0-1.2","1793","1","2","""event"",""trial"",""time""
""fullscreenenter"",""1"",""2768""
","
","
","""event"",""trial"",""time""
""fullscreenenter"",""1"",""2768""
","
","","","","","","1364.5","images/boat5.png","","","learning","images/vehicles_choice1.png","images/vehicles_choice3.png","images/vehicles_choice2.png","[0,2,1]","2","1","2","images/vehicles_choice3.png","1","vehicles","","boat","1","0"
"html-keyboard-response","92","491551","0.0-9.0-2.0-0.3","1793","1","2","""event"",""trial"",""time""
""fullscreenenter"",""1"",""2768""
","
","
","""event"",""trial"",""time""
""fullscreenenter"",""1"",""2768""
","
","","","","","","null","<div style=""font-size:60px;"">+</div>","null","","fixation","","","","","","","","","","","","","",""
"learning-trial","93","495555","0.0-9.0-2.0-1.3","1793","1","2","""event"",""trial"",""time""
""fullscreenenter"",""1"",""2768""
","
","
","""event"",""trial"",""time""
""fullscreenenter"",""1"",""2768""
","
","","","","","","1447.5","images/plane3.png","","","learning","images/vehicles_choice1.png","images/vehicles_choice3.png","images/vehicles_choice2.png","[0,2,1]","0","0","3","images/vehicles_choice2.png","1","vehicles","","plane","1","0"
"html-keyboard-response","94","496061","0.0-9.0-2.0-0.4","1793","1","2","""event"",""trial"",""time""
""fullscreenenter"",""1"",""2768""
","
","
","""event"",""trial"",""time""
""fullscreenenter"",""1"",""2768""
","
","","","","","","null","<div style=""font-size:60px;"">+</div>","null","","fixation","","","","","","","","","","","","","",""
"learning-trial","95","500067","0.0-9.0-2.0-1.4","1793","1","2","""event"",""trial"",""time""
""fullscreenenter"",""1"",""2768""
","
","
","""event"",""trial"",""time""
""fullscreenenter"",""1"",""2768""
","
","","","","","","1949.7000000029802","images/train5.png","","","learning","images/vehicles_choice2.png","images/vehicles_choice1.png","images/vehicles_choice3.png","[1,0,2]","1","0","2","images/vehicles_choice1.png","-1","vehicles","","train","1","0"
"html-keyboard-response","96","500571","0.0-9.0-2.0-0.5","1793","1","2","""event"",""trial"",""time""
""fullscreenenter"",""1"",""2768""
","
","
","""event"",""trial"",""time""
""fullscreenenter"",""1"",""2768""
","
","","","","","","null","<div style=""font-size:60px;"">+</div>","null","","fixation","","","","","","","","","","","","","",""
"learning-trial","97","504575","0.0-9.0-2.0-1.5","1793","1","2","""event"",""trial"",""time""
""fullscreenenter"",""1"",""2768""
","
","
","""event"",""trial"",""time""
""fullscreenenter"",""1"",""2768""
","
","","","","","","1168.7999999970198","images/train1.png","","","learning","images/vehicles_choice2.png","images/vehicles_choice3.png","images/vehicles_choice1.png","[1,2,0]","1","0","1","images/vehicles_choice2.png","-1","vehicles","","train","1","0"
"html-keyboard-response","98","505076","0.0-9.0-2.0-0.6","1793","1","2","""event"",""trial"",""time""
""fullscreenenter"",""1"",""2768""
","
","
","""event"",""trial"",""time""
""fullscreenenter"",""1"",""2768""
","
","","","","","","null","<div style=""font-size:60px;"">+</div>","null","","fixation","","","","","","","","","","","","","",""
"learning-trial","99","509083","0.0-9.0-2.0-1.6","1793","1","2","""event"",""trial"",""time""
""fullscreenenter"",""1"",""2768""
","
","
","""event"",""trial"",""time""
""fullscreenenter"",""1"",""2768""
","
","","","","","","1211.7999999970198","images/boat5.png","","","learning","images/vehicles_choice1.png","images/vehicles_choice3.png","images/vehicles_choice2.png","[0,2,1]","2","1","2","images/vehicles_choice3.png","1","vehicles","","boat","1","0"
"html-keyboard-response","100","509587","0.0-9.0-2.0-0.7","1793","1","2","""event"",""trial"",""time""
""fullscreenenter"",""1"",""2768""
","
","
","""event"",""trial"",""time""
""fullscreenenter"",""1"",""2768""
","
","","","","","","null","<div style=""font-size:60px;"">+</div>","null","","fixation","","","","","","","","","","","","","",""
"learning-trial","101","513593","0.0-9.0-2.0-1.7","1793","1","2","""event"",""trial"",""time""
""fullscreenenter"",""1"",""2768""
","
","
","""event"",""trial"",""time""
""fullscreenenter"",""1"",""2768""
","
","","","","","","1101.2999999970198","images/train1.png","","","learning","images/vehicles_choice1.png","images/vehicles_choice3.png","images/vehicles_choice2.png","[0,2,1]","1","2","1","images/vehicles_choice1.png","-1","vehicles","","train","1","0"
"html-keyboard-response","102","514098","0.0-9.0-2.0-0.8","1793","1","2","""event"",""trial"",""time""
""fullscreenenter"",""1"",""2768""
","
","
","""event"",""trial"",""time""
""fullscreenenter"",""1"",""2768""
","
","","","","","","null","<div style=""font-size:60px;"">+</div>","null","","fixation","","","","","","","","","","","","","",""
"learning-trial","103","518103","0.0-9.0-2.0-1.8","1793","1","2","""event"",""trial"",""time""
""fullscreenenter"",""1"",""2768""
","
","
","""event"",""trial"",""time""
""fullscreenenter"",""1"",""2768""
","
","","","","","","1257.5","images/plane1.png","","","learning","images/vehicles_choice2.png","images/vehicles_choice1.png","images/vehicles_choice3.png","[1,0,2]","0","1","1","images/vehicles_choice2.png","-1","vehicles","","plane","1","0"
"html-keyboard-response","104","518608","0.0-9.0-2.0-0.9","1793","1","2","""event"",""trial"",""time""
""fullscreenenter"",""1"",""2768""
","
","
","""event"",""trial"",""time""
""fullscreenenter"",""1"",""2768""
","
","","","","","","null","<div style=""font-size:60px;"">+</div>","null","","fixation","","","","","","","","","","","","","",""
"learning-trial","105","522614","0.0-9.0-2.0-1.9","1793","1","2","""event"",""trial"",""time""
""fullscreenenter"",""1"",""2768""
","
","
","""event"",""trial"",""time""
""fullscreenenter"",""1"",""2768""
","
","","","","","","1651.8999999910593","images/train5.png","","","learning","images/vehicles_choice1.png","images/vehicles_choice3.png","images/vehicles_choice2.png","[0,2,1]","1","2","2","images/vehicles_choice3.png","-1","vehicles","","train","1","0"
"html-keyboard-response","106","523118","0.0-9.0-2.0-0.10","1793","1","2","""event"",""trial"",""time""
""fullscreenenter"",""1"",""2768""
","
","
","""event"",""trial"",""time""
""fullscreenenter"",""1"",""2768""
","
","","","","","","null","<div style=""font-size:60px;"">+</div>","null","","fixation","","","","","","","","","","","","","",""
"learning-trial","107","527124","0.0-9.0-2.0-1.10","1793","1","2","""event"",""trial"",""time""
""fullscreenenter"",""1"",""2768""
","
","
","""event"",""trial"",""time""
""fullscreenenter"",""1"",""2768""
","
","","","","","","1327.2999999970198","images/plane3.png","","","learning","images/vehicles_choice3.png","images/vehicles_choice1.png","images/vehicles_choice2.png","[2,0,1]","0","1","3","images/vehicles_choice2.png","-1","vehicles","","plane","1","0"
"html-keyboard-response","108","527629","0.0-9.0-2.0-0.11","1793","1","2","""event"",""trial"",""time""
""fullscreenenter"",""1"",""2768""
","
","
","""event"",""trial"",""time""
""fullscreenenter"",""1"",""2768""
","
","","","","","","null","<div style=""font-size:60px;"">+</div>","null","","fixation","","","","","","","","","","","","","",""
"learning-trial","109","531635","0.0-9.0-2.0-1.11","1793","1","2","""event"",""trial"",""time""
""fullscreenenter"",""1"",""2768""
","
","
","""event"",""trial"",""time""
""fullscreenenter"",""1"",""2768""
","
","","","","","","1565.3999999910593","images/plane4.png","","","learning","images/vehicles_choice1.png","images/vehicles_choice3.png","images/vehicles_choice2.png","[0,2,1]","0","0","2","images/vehicles_choice3.png","-1","vehicles","","plane","1","0"
"html-keyboard-response","110","532139","0.0-9.0-2.0-0.12","1793","1","2","""event"",""trial"",""time""
""fullscreenenter"",""1"",""2768""
","
","
","""event"",""trial"",""time""
""fullscreenenter"",""1"",""2768""
","
","","","","","","null","<div style=""font-size:60px;"">+</div>","null","","fixation","","","","","","","","","","","","","",""
"learning-trial","111","536145","0.0-9.0-2.0-1.12","1793","1","2","""event"",""trial"",""time""
""fullscreenenter"",""1"",""2768""
","
","
","""event"",""trial"",""time""
""fullscreenenter"",""1"",""2768""
","
","","","","","","1233.7999999970198","images/train5.png","","","learning","images/vehicles_choice3.png","images/vehicles_choice1.png","images/vehicles_choice2.png","[2,0,1]","1","2","1","images/vehicles_choice3.png","-1","vehicles","","train","1","0"
"html-keyboard-response","112","536650","0.0-9.0-2.0-0.13","1793","1","2","""event"",""trial"",""time""
""fullscreenenter"",""1"",""2768""
","
","
","""event"",""trial"",""time""
""fullscreenenter"",""1"",""2768""
","
","","","","","","null","<div style=""font-size:60px;"">+</div>","null","","fixation","","","","","","","","","","","","","",""
"learning-trial","113","540655","0.0-9.0-2.0-1.13","1793","1","2","""event"",""trial"",""time""
""fullscreenenter"",""1"",""2768""
","
","
","""event"",""trial"",""time""
""fullscreenenter"",""1"",""2768""
","
","","","","","","1373.800000011921","images/boat5.png","","","learning","images/vehicles_choice1.png","images/vehicles_choice2.png","images/vehicles_choice3.png","[0,1,2]","2","2","3","images/vehicles_choice3.png","1","vehicles","","boat","1","0"
"html-keyboard-response","114","541160","0.0-9.0-2.0-0.14","1793","1","2","""event"",""trial"",""time""
""fullscreenenter"",""1"",""2768""
","
","
","""event"",""trial"",""time""
""fullscreenenter"",""1"",""2768""
","
","","","","","","null","<div style=""font-size:60px;"">+</div>","null","","fixation","","","","","","","","","","","","","",""
"learning-trial","115","545166","0.0-9.0-2.0-1.14","1793","1","2","""event"",""trial"",""time""
""fullscreenenter"",""1"",""2768""
","
","
","""event"",""trial"",""time""
""fullscreenenter"",""1"",""2768""
","
","","","","","","2099.7000000029802","images/plane4.png","","","learning","images/vehicles_choice3.png","images/vehicles_choice2.png","images/vehicles_choice1.png","[2,1,0]","0","2","1","images/vehicles_choice3.png","-1","vehicles","","plane","1","0"
"html-keyboard-response","116","545671","0.0-9.0-2.0-0.15","1793","1","2","""event"",""trial"",""time""
""fullscreenenter"",""1"",""2768""
","
","
","""event"",""trial"",""time""
""fullscreenenter"",""1"",""2768""
","
","","","","","","null","<div style=""font-size:60px;"">+</div>","null","","fixation","","","","","","","","","","","","","",""
"learning-trial","117","549676","0.0-9.0-2.0-1.15","1793","1","2","""event"",""trial"",""time""
""fullscreenenter"",""1"",""2768""
","
","
","""event"",""trial"",""time""
""fullscreenenter"",""1"",""2768""
","
","","","","","","2400.7000000029802","images/plane1.png","","","learning","images/vehicles_choice2.png","images/vehicles_choice1.png","images/vehicles_choice3.png","[1,0,2]","0","1","2","images/vehicles_choice1.png","1","vehicles","","plane","1","0"
"html-keyboard-response","118","550181","0.0-9.0-2.0-0.16","1793","1","2","""event"",""trial"",""time""
""fullscreenenter"",""1"",""2768""
","
","
","""event"",""trial"",""time""
""fullscreenenter"",""1"",""2768""
","
","","","","","","null","<div style=""font-size:60px;"">+</div>","null","","fixation","","","","","","","","","","","","","",""
"learning-trial","119","554186","0.0-9.0-2.0-1.16","1793","1","2","""event"",""trial"",""time""
""fullscreenenter"",""1"",""2768""
","
","
","""event"",""trial"",""time""
""fullscreenenter"",""1"",""2768""
","
","","","","","","1554.1000000089407","images/plane3.png","","","learning","images/vehicles_choice3.png","images/vehicles_choice2.png","images/vehicles_choice1.png","[2,1,0]","0","2","2","images/vehicles_choice2.png","-1","vehicles","","plane","1","0"
"html-keyboard-response","120","554691","0.0-9.0-2.0-0.17","1793","1","2","""event"",""trial"",""time""
""fullscreenenter"",""1"",""2768""
","
","
","""event"",""trial"",""time""
""fullscreenenter"",""1"",""2768""
","
","","","","","","null","<div style=""font-size:60px;"">+</div>","null","","fixation","","","","","","","","","","","","","",""
"learning-trial","121","558697","0.0-9.0-2.0-1.17","1793","1","2","""event"",""trial"",""time""
""fullscreenenter"",""1"",""2768""
","
","
","""event"",""trial"",""time""
""fullscreenenter"",""1"",""2768""
","
","","","","","","1352.4000000059605","images/boat5.png","","","learning","images/vehicles_choice1.png","images/vehicles_choice2.png","images/vehicles_choice3.png","[0,1,2]","2","2","3","images/vehicles_choice3.png","1","vehicles","","boat","1","0"
"html-keyboard-response","122","559202","0.0-9.0-2.0-0.18","1793","1","2","""event"",""trial"",""time""
""fullscreenenter"",""1"",""2768""
","
","
","""event"",""trial"",""time""
""fullscreenenter"",""1"",""2768""
","
","","","","","","null","<div style=""font-size:60px;"">+</div>","null","","fixation","","","","","","","","","","","","","",""
"learning-trial","123","563207","0.0-9.0-2.0-1.18","1793","1","2","""event"",""trial"",""time""
""fullscreenenter"",""1"",""2768""
","
","
","""event"",""trial"",""time""
""fullscreenenter"",""1"",""2768""
","
","","","","","","1973.5","images/boat1.png","","","learning","images/vehicles_choice1.png","images/vehicles_choice3.png","images/vehicles_choice2.png","[0,2,1]","2","1","2","images/vehicles_choice3.png","1","vehicles","","boat","1","0"
"html-keyboard-response","124","563712","0.0-9.0-2.0-0.19","1793","1","2","""event"",""trial"",""time""
""fullscreenenter"",""1"",""2768""
","
","
","""event"",""trial"",""time""
""fullscreenenter"",""1"",""2768""
","
","","","","","","null","<div style=""font-size:60px;"">+</div>","null","","fixation","","","","","","","","","","","","","",""
"learning-trial","125","567718","0.0-9.0-2.0-1.19","1793","1","2","""event"",""trial"",""time""
""fullscreenenter"",""1"",""2768""
","
","
","""event"",""trial"",""time""
""fullscreenenter"",""1"",""2768""
","
","","","","","","1736.9000000059605","images/train5.png","","","learning","images/vehicles_choice3.png","images/vehicles_choice1.png","images/vehicles_choice2.png","[2,0,1]","1","2","2","images/vehicles_choice1.png","-1","vehicles","","train","1","0"
"html-keyboard-response","126","568223","0.0-9.0-2.0-0.20","1793","1","2","""event"",""trial"",""time""
""fullscreenenter"",""1"",""2768""
","
","
","""event"",""trial"",""time""
""fullscreenenter"",""1"",""2768""
","
","","","","","","null","<div style=""font-size:60px;"">+</div>","null","","fixation","","","","","","","","","","","","","",""
"learning-trial","127","572228","0.0-9.0-2.0-1.20","1793","1","2","""event"",""trial"",""time""
""fullscreenenter"",""1"",""2768""
","
","
","""event"",""trial"",""time""
""fullscreenenter"",""1"",""2768""
","
","","","","","","1394.0999999940395","images/boat3.png","","","learning","images/vehicles_choice1.png","images/vehicles_choice3.png","images/vehicles_choice2.png","[0,2,1]","2","1","2","images/vehicles_choice3.png","1","vehicles","","boat","1","0"
"html-keyboard-response","128","572733","0.0-9.0-2.0-0.21","1793","1","2","""event"",""trial"",""time""
""fullscreenenter"",""1"",""2768""
","
","
","""event"",""trial"",""time""
""fullscreenenter"",""1"",""2768""
","
","","","","","","null","<div style=""font-size:60px;"">+</div>","null","","fixation","","","","","","","","","","","","","",""
"learning-trial","129","576738","0.0-9.0-2.0-1.21","1793","1","2","""event"",""trial"",""time""
""fullscreenenter"",""1"",""2768""
","
","
","""event"",""trial"",""time""
""fullscreenenter"",""1"",""2768""
","
","","","","","","2123.6000000089407","images/plane4.png","","","learning","images/vehicles_choice1.png","images/vehicles_choice3.png","images/vehicles_choice2.png","[0,2,1]","0","0","2","images/vehicles_choice3.png","-1","vehicles","","plane","1","0"
"html-keyboard-response","130","577243","0.0-9.0-2.0-0.22","1793","1","2","""event"",""trial"",""time""
""fullscreenenter"",""1"",""2768""
","
","
","""event"",""trial"",""time""
""fullscreenenter"",""1"",""2768""
","
","","","","","","null","<div style=""font-size:60px;"">+</div>","null","","fixation","","","","","","","","","","","","","",""
"learning-trial","131","581249","0.0-9.0-2.0-1.22","1793","1","2","""event"",""trial"",""time""
""fullscreenenter"",""1"",""2768""
","
","
","""event"",""trial"",""time""
""fullscreenenter"",""1"",""2768""
","
","","","","","","1525.9000000059605","images/train4.png","","","learning","images/vehicles_choice2.png","images/vehicles_choice1.png","images/vehicles_choice3.png","[1,0,2]","1","0","1","images/vehicles_choice2.png","1","vehicles","","train","1","0"
"html-keyboard-response","132","581754","0.0-9.0-2.0-0.23","1793","1","2","""event"",""trial"",""time""
""fullscreenenter"",""1"",""2768""
","
","
","""event"",""trial"",""time""
""fullscreenenter"",""1"",""2768""
","
","","","","","","null","<div style=""font-size:60px;"">+</div>","null","","fixation","","","","","","","","","","","","","",""
"learning-trial","133","585759","0.0-9.0-2.0-1.23","1793","1","2","""event"",""trial"",""time""
""fullscreenenter"",""1"",""2768""
","
","
","""event"",""trial"",""time""
""fullscreenenter"",""1"",""2768""
","
","","","","","","1616.3999999910593","images/train4.png","","","learning","images/vehicles_choice3.png","images/vehicles_choice2.png","images/vehicles_choice1.png","[2,1,0]","1","1","2","images/vehicles_choice2.png","1","vehicles","","train","1","0"
"html-keyboard-response","134","586264","0.0-9.0-2.0-0.24","1793","1","2","""event"",""trial"",""time""
""fullscreenenter"",""1"",""2768""
","
","
","""event"",""trial"",""time""
""fullscreenenter"",""1"",""2768""
","
","","","","","","null","<div style=""font-size:60px;"">+</div>","null","","fixation","","","","","","","","","","","","","",""
"learning-trial","135","590270","0.0-9.0-2.0-1.24","1793","1","2","""event"",""trial"",""time""
""fullscreenenter"",""1"",""2768""
","
","
","""event"",""trial"",""time""
""fullscreenenter"",""1"",""2768""
","
","","","","","","2256.8999999910593","images/plane3.png","","","learning","images/vehicles_choice1.png","images/vehicles_choice3.png","images/vehicles_choice2.png","[0,2,1]","0","0","3","images/vehicles_choice2.png","-1","vehicles","","plane","1","0"
"html-keyboard-response","136","590774","0.0-9.0-2.0-0.25","1793","1","2","""event"",""trial"",""time""
""fullscreenenter"",""1"",""2768""
","
","
","""event"",""trial"",""time""
""fullscreenenter"",""1"",""2768""
","
","","","","","","null","<div style=""font-size:60px;"">+</div>","null","","fixation","","","","","","","","","","","","","",""
"learning-trial","137","594780","0.0-9.0-2.0-1.25","1793","1","2","""event"",""trial"",""time""
""fullscreenenter"",""1"",""2768""
","
","
","""event"",""trial"",""time""
""fullscreenenter"",""1"",""2768""
","
","","","","","","2636","images/plane4.png","","","learning","images/vehicles_choice2.png","images/vehicles_choice3.png","images/vehicles_choice1.png","[1,2,0]","0","2","3","images/vehicles_choice1.png","1","vehicles","","plane","1","0"
"html-keyboard-response","138","595285","0.0-9.0-2.0-0.26","1793","1","2","""event"",""trial"",""time""
""fullscreenenter"",""1"",""2768""
","
","
","""event"",""trial"",""time""
""fullscreenenter"",""1"",""2768""
","
","","","","","","null","<div style=""font-size:60px;"">+</div>","null","","fixation","","","","","","","","","","","","","",""
"learning-trial","139","599291","0.0-9.0-2.0-1.26","1793","1","2","""event"",""trial"",""time""
""fullscreenenter"",""1"",""2768""
","
","
","""event"",""trial"",""time""
""fullscreenenter"",""1"",""2768""
","
","","","","","","2129.0999999940395","images/train4.png","","","learning","images/vehicles_choice1.png","images/vehicles_choice3.png","images/vehicles_choice2.png","[0,2,1]","1","2","3","images/vehicles_choice2.png","1","vehicles","","train","1","0"
"html-keyboard-response","140","599795","0.0-9.0-2.0-0.27","1793","1","2","""event"",""trial"",""time""
""fullscreenenter"",""1"",""2768""
","
","
","""event"",""trial"",""time""
""fullscreenenter"",""1"",""2768""
","
","","","","","","null","<div style=""font-size:60px;"">+</div>","null","","fixation","","","","","","","","","","","","","",""
"learning-trial","141","603801","0.0-9.0-2.0-1.27","1793","1","2","""event"",""trial"",""time""
""fullscreenenter"",""1"",""2768""
","
","
","""event"",""trial"",""time""
""fullscreenenter"",""1"",""2768""
","
","","","","","","1863.0999999940395","images/train1.png","","","learning","images/vehicles_choice3.png","images/vehicles_choice1.png","images/vehicles_choice2.png","[2,0,1]","1","2","2","images/vehicles_choice1.png","-1","vehicles","","train","1","0"
"html-keyboard-response","142","604306","0.0-9.0-2.0-0.28","1793","1","2","""event"",""trial"",""time""
""fullscreenenter"",""1"",""2768""
","
","
","""event"",""trial"",""time""
""fullscreenenter"",""1"",""2768""
","
","","","","","","null","<div style=""font-size:60px;"">+</div>","null","","fixation","","","","","","","","","","","","","",""
"learning-trial","143","608313","0.0-9.0-2.0-1.28","1793","1","2","""event"",""trial"",""time""
""fullscreenenter"",""1"",""2768""
","
","
","""event"",""trial"",""time""
""fullscreenenter"",""1"",""2768""
","
","","","","","","960.5999999940395","images/boat1.png","","","learning","images/vehicles_choice3.png","images/vehicles_choice2.png","images/vehicles_choice1.png","[2,1,0]","2","0","1","images/vehicles_choice3.png","1","vehicles","","boat","1","0"
"html-keyboard-response","144","608816","0.0-9.0-2.0-0.29","1793","1","2","""event"",""trial"",""time""
""fullscreenenter"",""1"",""2768""
","
","
","""event"",""trial"",""time""
""fullscreenenter"",""1"",""2768""
","
","","","","","","null","<div style=""font-size:60px;"">+</div>","null","","fixation","","","","","","","","","","","","","",""
"learning-trial","145","612822","0.0-9.0-2.0-1.29","1793","1","2","""event"",""trial"",""time""
""fullscreenenter"",""1"",""2768""
","
","
","""event"",""trial"",""time""
""fullscreenenter"",""1"",""2768""
","
","","","","","","1203.7999999970198","images/plane4.png","","","learning","images/vehicles_choice3.png","images/vehicles_choice1.png","images/vehicles_choice2.png","[2,0,1]","0","1","2","images/vehicles_choice1.png","1","vehicles","","plane","1","0"
"html-keyboard-response","146","613327","0.0-9.0-2.0-0.30","1793","1","2","""event"",""trial"",""time""
""fullscreenenter"",""1"",""2768""
","
","
","""event"",""trial"",""time""
""fullscreenenter"",""1"",""2768""
","
","","","","","","null","<div style=""font-size:60px;"">+</div>","null","","fixation","","","","","","","","","","","","","",""
"learning-trial","147","617332","0.0-9.0-2.0-1.30","1793","1","2","""event"",""trial"",""time""
""fullscreenenter"",""1"",""2768""
","
","
","""event"",""trial"",""time""
""fullscreenenter"",""1"",""2768""
","
","","","","","","1187","images/boat3.png","","","learning","images/vehicles_choice1.png","images/vehicles_choice3.png","images/vehicles_choice2.png","[0,2,1]","2","1","2","images/vehicles_choice3.png","1","vehicles","","boat","1","0"
"html-keyboard-response","148","617837","0.0-9.0-2.0-0.31","1793","1","2","""event"",""trial"",""time""
""fullscreenenter"",""1"",""2768""
","
","
","""event"",""trial"",""time""
""fullscreenenter"",""1"",""2768""
","
","","","","","","null","<div style=""font-size:60px;"">+</div>","null","","fixation","","","","","","","","","","","","","",""
"learning-trial","149","621843","0.0-9.0-2.0-1.31","1793","1","2","""event"",""trial"",""time""
""fullscreenenter"",""1"",""2768""
","
","
","""event"",""trial"",""time""
""fullscreenenter"",""1"",""2768""
","
","","","","","","1513.6000000089407","images/boat1.png","","","learning","images/vehicles_choice1.png","images/vehicles_choice2.png","images/vehicles_choice3.png","[0,1,2]","2","2","3","images/vehicles_choice3.png","1","vehicles","","boat","1","0"
"html-keyboard-response","150","622348","0.0-9.0-2.0-0.32","1793","1","2","""event"",""trial"",""time""
""fullscreenenter"",""1"",""2768""
","
","
","""event"",""trial"",""time""
""fullscreenenter"",""1"",""2768""
","
","","","","","","null","<div style=""font-size:60px;"">+</div>","null","","fixation","","","","","","","","","","","","","",""
"learning-trial","151","626353","0.0-9.0-2.0-1.32","1793","1","2","""event"",""trial"",""time""
""fullscreenenter"",""1"",""2768""
","
","
","""event"",""trial"",""time""
""fullscreenenter"",""1"",""2768""
","
","","","","","","2589.9000000059605","images/boat3.png","","","learning","images/vehicles_choice2.png","images/vehicles_choice1.png","images/vehicles_choice3.png","[1,0,2]","2","2","3","images/vehicles_choice3.png","1","vehicles","","boat","1","0"
"html-keyboard-response","152","626858","0.0-9.0-2.0-0.33","1793","1","2","""event"",""trial"",""time""
""fullscreenenter"",""1"",""2768""
","
","
","""event"",""trial"",""time""
""fullscreenenter"",""1"",""2768""
","
","","","","","","null","<div style=""font-size:60px;"">+</div>","null","","fixation","","","","","","","","","","","","","",""
"learning-trial","153","630863","0.0-9.0-2.0-1.33","1793","1","2","""event"",""trial"",""time""
""fullscreenenter"",""1"",""2768""
","
","
","""event"",""trial"",""time""
""fullscreenenter"",""1"",""2768""
","
","","","","","","2125.2000000029802","images/boat3.png","","","learning","images/vehicles_choice1.png","images/vehicles_choice2.png","images/vehicles_choice3.png","[0,1,2]","2","2","3","images/vehicles_choice3.png","1","vehicles","","boat","1","0"
"html-keyboard-response","154","631368","0.0-9.0-2.0-0.34","1793","1","2","""event"",""trial"",""time""
""fullscreenenter"",""1"",""2768""
","
","
","""event"",""trial"",""time""
""fullscreenenter"",""1"",""2768""
","
","","","","","","null","<div style=""font-size:60px;"">+</div>","null","","fixation","","","","","","","","","","","","","",""
"learning-trial","155","635374","0.0-9.0-2.0-1.34","1793","1","2","""event"",""trial"",""time""
""fullscreenenter"",""1"",""2768""
","
","
","""event"",""trial"",""time""
""fullscreenenter"",""1"",""2768""
","
","","","","","","2008.2000000029802","images/train5.png","","","learning","images/vehicles_choice3.png","images/vehicles_choice2.png","images/vehicles_choice1.png","[2,1,0]","1","1","2","images/vehicles_choice2.png","1","vehicles","","train","1","0"
"html-keyboard-response","156","635879","0.0-9.0-2.0-0.35","1793","1","2","""event"",""trial"",""time""
""fullscreenenter"",""1"",""2768""
","
","
","""event"",""trial"",""time""
""fullscreenenter"",""1"",""2768""
","
","","","","","","null","<div style=""font-size:60px;"">+</div>","null","","fixation","","","","","","","","","","","","","",""
"learning-trial","157","639884","0.0-9.0-2.0-1.35","1793","1","2","""event"",""trial"",""time""
""fullscreenenter"",""1"",""2768""
","
","
","""event"",""trial"",""time""
""fullscreenenter"",""1"",""2768""
","
","","","","","","1924.8999999910593","images/boat1.png","","","learning","images/vehicles_choice3.png","images/vehicles_choice2.png","images/vehicles_choice1.png","[2,1,0]","2","0","1","images/vehicles_choice3.png","1","vehicles","","boat","1","0"
"html-keyboard-response","158","640389","0.0-9.0-2.0-0.36","1793","1","2","""event"",""trial"",""time""
""fullscreenenter"",""1"",""2768""
","
","
","""event"",""trial"",""time""
""fullscreenenter"",""1"",""2768""
","
","","","","","","null","<div style=""font-size:60px;"">+</div>","null","","fixation","","","","","","","","","","","","","",""
"learning-trial","159","644395","0.0-9.0-2.0-1.36","1793","1","2","""event"",""trial"",""time""
""fullscreenenter"",""1"",""2768""
","
","
","""event"",""trial"",""time""
""fullscreenenter"",""1"",""2768""
","
","","","","","","1262.3999999910593","images/boat5.png","","","learning","images/vehicles_choice2.png","images/vehicles_choice3.png","images/vehicles_choice1.png","[1,2,0]","2","1","2","images/vehicles_choice3.png","1","vehicles","","boat","1","0"
"html-keyboard-response","160","644900","0.0-9.0-2.0-0.37","1793","1","2","""event"",""trial"",""time""
""fullscreenenter"",""1"",""2768""
","
","
","""event"",""trial"",""time""
""fullscreenenter"",""1"",""2768""
","
","","","","","","null","<div style=""font-size:60px;"">+</div>","null","","fixation","","","","","","","","","","","","","",""
"learning-trial","161","648905","0.0-9.0-2.0-1.37","1793","1","2","""event"",""trial"",""time""
""fullscreenenter"",""1"",""2768""
","
","
","""event"",""trial"",""time""
""fullscreenenter"",""1"",""2768""
","
","","","","","","1615.0999999940395","images/plane4.png","","","learning","images/vehicles_choice3.png","images/vehicles_choice1.png","images/vehicles_choice2.png","[2,0,1]","0","1","3","images/vehicles_choice2.png","1","vehicles","","plane","1","0"
"html-keyboard-response","162","649410","0.0-9.0-2.0-0.38","1793","1","2","""event"",""trial"",""time""
""fullscreenenter"",""1"",""2768""
","
","
","""event"",""trial"",""time""
""fullscreenenter"",""1"",""2768""
","
","","","","","","null","<div style=""font-size:60px;"">+</div>","null","","fixation","","","","","","","","","","","","","",""
"learning-trial","163","653415","0.0-9.0-2.0-1.38","1793","1","2","""event"",""trial"",""time""
""fullscreenenter"",""1"",""2768""
","
","
","""event"",""trial"",""time""
""fullscreenenter"",""1"",""2768""
","
","","","","","","1486","images/plane3.png","","","learning","images/vehicles_choice1.png","images/vehicles_choice2.png","images/vehicles_choice3.png","[0,1,2]","0","0","3","images/vehicles_choice3.png","-1","vehicles","","plane","1","0"
"html-keyboard-response","164","653920","0.0-9.0-2.0-0.39","1793","1","2","""event"",""trial"",""time""
""fullscreenenter"",""1"",""2768""
","
","
","""event"",""trial"",""time""
""fullscreenenter"",""1"",""2768""
","
","","","","","","null","<div style=""font-size:60px;"">+</div>","null","","fixation","","","","","","","","","","","","","",""
"learning-trial","165","657926","0.0-9.0-2.0-1.39","1793","1","2","""event"",""trial"",""time""
""fullscreenenter"",""1"",""2768""
","
","
","""event"",""trial"",""time""
""fullscreenenter"",""1"",""2768""
","
","","","","","","1360.7000000029802","images/plane1.png","","","learning","images/vehicles_choice2.png","images/vehicles_choice1.png","images/vehicles_choice3.png","[1,0,2]","0","1","1","images/vehicles_choice2.png","-1","vehicles","","plane","1","0"
"html-keyboard-response","166","658431","0.0-9.0-2.0-0.40","1793","1","2","""event"",""trial"",""time""
""fullscreenenter"",""1"",""2768""
","
","
","""event"",""trial"",""time""
""fullscreenenter"",""1"",""2768""
","
","","","","","","null","<div style=""font-size:60px;"">+</div>","null","","fixation","","","","","","","","","","","","","",""
"learning-trial","167","662436","0.0-9.0-2.0-1.40","1793","1","2","""event"",""trial"",""time""
""fullscreenenter"",""1"",""2768""
","
","
","""event"",""trial"",""time""
""fullscreenenter"",""1"",""2768""
","
","","","","","","1221.7999999970198","images/boat5.png","","","learning","images/vehicles_choice1.png","images/vehicles_choice3.png","images/vehicles_choice2.png","[0,2,1]","2","1","2","images/vehicles_choice3.png","1","vehicles","","boat","1","0"
"html-keyboard-response","168","662941","0.0-9.0-2.0-0.41","1793","1","2","""event"",""trial"",""time""
""fullscreenenter"",""1"",""2768""
","
","
","""event"",""trial"",""time""
""fullscreenenter"",""1"",""2768""
","
","","","","","","null","<div style=""font-size:60px;"">+</div>","null","","fixation","","","","","","","","","","","","","",""
"learning-trial","169","666947","0.0-9.0-2.0-1.41","1793","1","2","""event"",""trial"",""time""
""fullscreenenter"",""1"",""2768""
","
","
","""event"",""trial"",""time""
""fullscreenenter"",""1"",""2768""
","
","","","","","","882","images/boat1.png","","","learning","images/vehicles_choice2.png","images/vehicles_choice3.png","images/vehicles_choice1.png","[1,2,0]","2","1","2","images/vehicles_choice3.png","-1","vehicles","","boat","1","0"
"html-keyboard-response","170","667452","0.0-9.0-2.0-0.42","1793","1","2","""event"",""trial"",""time""
""fullscreenenter"",""1"",""2768""
","
","
","""event"",""trial"",""time""
""fullscreenenter"",""1"",""2768""
","
","","","","","","null","<div style=""font-size:60px;"">+</div>","null","","fixation","","","","","","","","","","","","","",""
"learning-trial","171","671457","0.0-9.0-2.0-1.42","1793","1","2","""event"",""trial"",""time""
""fullscreenenter"",""1"",""2768""
","
","
","""event"",""trial"",""time""
""fullscreenenter"",""1"",""2768""
","
","","","","","","1287.9000000059605","images/train5.png","","","learning","images/vehicles_choice2.png","images/vehicles_choice1.png","images/vehicles_choice3.png","[1,0,2]","1","0","1","images/vehicles_choice2.png","1","vehicles","","train","1","0"
"html-keyboard-response","172","671962","0.0-9.0-2.0-0.43","1793","1","2","""event"",""trial"",""time""
""fullscreenenter"",""1"",""2768""
","
","
","""event"",""trial"",""time""
""fullscreenenter"",""1"",""2768""
","
","","","","","","null","<div style=""font-size:60px;"">+</div>","null","","fixation","","","","","","","","","","","","","",""
"learning-trial","173","675967","0.0-9.0-2.0-1.43","1793","1","2","""event"",""trial"",""time""
""fullscreenenter"",""1"",""2768""
","
","
","""event"",""trial"",""time""
""fullscreenenter"",""1"",""2768""
","
","","","","","","1617.1000000089407","images/train5.png","","","learning","images/vehicles_choice1.png","images/vehicles_choice3.png","images/vehicles_choice2.png","[0,2,1]","1","2","3","images/vehicles_choice2.png","1","vehicles","","train","1","0"
"html-keyboard-response","174","676472","0.0-9.0-2.0-0.44","1793","1","2","""event"",""trial"",""time""
""fullscreenenter"",""1"",""2768""
","
","
","""event"",""trial"",""time""
""fullscreenenter"",""1"",""2768""
","
","","","","","","null","<div style=""font-size:60px;"">+</div>","null","","fixation","","","","","","","","","","","","","",""
"learning-trial","175","680478","0.0-9.0-2.0-1.44","1793","1","2","""event"",""trial"",""time""
""fullscreenenter"",""1"",""2768""
","
","
","""event"",""trial"",""time""
""fullscreenenter"",""1"",""2768""
","
","","","","","","1334.7999999970198","images/plane1.png","","","learning","images/vehicles_choice2.png","images/vehicles_choice1.png","images/vehicles_choice3.png","[1,0,2]","0","1","2","images/vehicles_choice1.png","1","vehicles","","plane","1","0"
"html-keyboard-response","176","680982","0.0-9.0-2.0-0.45","1793","1","2","""event"",""trial"",""time""
""fullscreenenter"",""1"",""2768""
","
","
","""event"",""trial"",""time""
""fullscreenenter"",""1"",""2768""
","
","","","","","","null","<div style=""font-size:60px;"">+</div>","null","","fixation","","","","","","","","","","","","","",""
"learning-trial","177","684988","0.0-9.0-2.0-1.45","1793","1","2","""event"",""trial"",""time""
""fullscreenenter"",""1"",""2768""
","
","
","""event"",""trial"",""time""
""fullscreenenter"",""1"",""2768""
","
","","","","","","2213.4000000059605","images/plane3.png","","","learning","images/vehicles_choice2.png","images/vehicles_choice1.png","images/vehicles_choice3.png","[1,0,2]","0","1","1","images/vehicles_choice2.png","-1","vehicles","","plane","1","0"
"html-keyboard-response","178","685493","0.0-9.0-2.0-0.46","1793","1","2","""event"",""trial"",""time""
""fullscreenenter"",""1"",""2768""
","
","
","""event"",""trial"",""time""
""fullscreenenter"",""1"",""2768""
","
","","","","","","null","<div style=""font-size:60px;"">+</div>","null","","fixation","","","","","","","","","","","","","",""
"learning-trial","179","689499","0.0-9.0-2.0-1.46","1793","1","2","""event"",""trial"",""time""
""fullscreenenter"",""1"",""2768""
","
","
","""event"",""trial"",""time""
""fullscreenenter"",""1"",""2768""
","
","","","","","","1385.1000000089407","images/plane4.png","","","learning","images/vehicles_choice3.png","images/vehicles_choice1.png","images/vehicles_choice2.png","[2,0,1]","0","1","2","images/vehicles_choice1.png","1","vehicles","","plane","1","0"
"html-keyboard-response","180","690004","0.0-9.0-2.0-0.47","1793","1","2","""event"",""trial"",""time""
""fullscreenenter"",""1"",""2768""
","
","
","""event"",""trial"",""time""
""fullscreenenter"",""1"",""2768""
","
","","","","","","null","<div style=""font-size:60px;"">+</div>","null","","fixation","","","","","","","","","","","","","",""
"learning-trial","181","694009","0.0-9.0-2.0-1.47","1793","1","2","""event"",""trial"",""time""
""fullscreenenter"",""1"",""2768""
","
","
","""event"",""trial"",""time""
""fullscreenenter"",""1"",""2768""
","
","","","","","","964.7999999970198","images/boat3.png","","","learning","images/vehicles_choice3.png","images/vehicles_choice1.png","images/vehicles_choice2.png","[2,0,1]","2","0","1","images/vehicles_choice3.png","1","vehicles","","boat","1","0"
"html-keyboard-response","182","694514","0.0-9.0-2.0-0.48","1793","1","2","""event"",""trial"",""time""
""fullscreenenter"",""1"",""2768""
","
","
","""event"",""trial"",""time""
""fullscreenenter"",""1"",""2768""
","
","","","","","","null","<div style=""font-size:60px;"">+</div>","null","","fixation","","","","","","","","","","","","","",""
"learning-trial","183","698520","0.0-9.0-2.0-1.48","1793","1","2","""event"",""trial"",""time""
""fullscreenenter"",""1"",""2768""
","
","
","""event"",""trial"",""time""
""fullscreenenter"",""1"",""2768""
","
","","","","","","1542.0999999940395","images/plane1.png","","","learning","images/vehicles_choice2.png","images/vehicles_choice3.png","images/vehicles_choice1.png","[1,2,0]","0","2","3","images/vehicles_choice1.png","1","vehicles","","plane","1","0"
"html-keyboard-response","184","699024","0.0-9.0-2.0-0.49","1793","1","2","""event"",""trial"",""time""
""fullscreenenter"",""1"",""2768""
","
","
","""event"",""trial"",""time""
""fullscreenenter"",""1"",""2768""
","
","","","","","","null","<div style=""font-size:60px;"">+</div>","null","","fixation","","","","","","","","","","","","","",""
"learning-trial","185","703030","0.0-9.0-2.0-1.49","1793","1","2","""event"",""trial"",""time""
""fullscreenenter"",""1"",""2768""
","
","
","""event"",""trial"",""time""
""fullscreenenter"",""1"",""2768""
","
","","","","","","1034.5","images/plane1.png","","","learning","images/vehicles_choice1.png","images/vehicles_choice3.png","images/vehicles_choice2.png","[0,2,1]","0","0","2","images/vehicles_choice3.png","-1","vehicles","","plane","1","0"
"html-keyboard-response","186","703535","0.0-9.0-2.0-0.50","1793","1","2","""event"",""trial"",""time""
""fullscreenenter"",""1"",""2768""
","
","
","""event"",""trial"",""time""
""fullscreenenter"",""1"",""2768""
","
","","","","","","null","<div style=""font-size:60px;"">+</div>","null","","fixation","","","","","","","","","","","","","",""
"learning-trial","187","707540","0.0-9.0-2.0-1.50","1793","1","2","""event"",""trial"",""time""
""fullscreenenter"",""1"",""2768""
","
","
","""event"",""trial"",""time""
""fullscreenenter"",""1"",""2768""
","
","","","","","","921.5999999940395","images/train1.png","","","learning","images/vehicles_choice3.png","images/vehicles_choice1.png","images/vehicles_choice2.png","[2,0,1]","1","2","1","images/vehicles_choice3.png","-1","vehicles","","train","1","0"
"html-keyboard-response","188","708045","0.0-9.0-2.0-0.51","1793","1","2","""event"",""trial"",""time""
""fullscreenenter"",""1"",""2768""
","
","
","""event"",""trial"",""time""
""fullscreenenter"",""1"",""2768""
","
","","","","","","null","<div style=""font-size:60px;"">+</div>","null","","fixation","","","","","","","","","","","","","",""
"learning-trial","189","712051","0.0-9.0-2.0-1.51","1793","1","2","""event"",""trial"",""time""
""fullscreenenter"",""1"",""2768""
","
","
","""event"",""trial"",""time""
""fullscreenenter"",""1"",""2768""
","
","","","","","","406.70000000298023","images/boat1.png","","","learning","images/vehicles_choice2.png","images/vehicles_choice3.png","images/vehicles_choice1.png","[1,2,0]","2","1","2","images/vehicles_choice3.png","1","vehicles","","boat","1","0"
"html-keyboard-response","190","712556","0.0-9.0-2.0-0.52","1793","1","2","""event"",""trial"",""time""
""fullscreenenter"",""1"",""2768""
","
","
","""event"",""trial"",""time""
""fullscreenenter"",""1"",""2768""
","
","","","","","","null","<div style=""font-size:60px;"">+</div>","null","","fixation","","","","","","","","","","","","","",""
"learning-trial","191","716561","0.0-9.0-2.0-1.52","1793","1","2","""event"",""trial"",""time""
""fullscreenenter"",""1"",""2768""
","
","
","""event"",""trial"",""time""
""fullscreenenter"",""1"",""2768""
","
","","","","","","1025.2999999970198","images/train1.png","","","learning","images/vehicles_choice2.png","images/vehicles_choice1.png","images/vehicles_choice3.png","[1,0,2]","1","0","1","images/vehicles_choice2.png","1","vehicles","","train","1","0"
"html-keyboard-response","192","717066","0.0-9.0-2.0-0.53","1793","1","2","""event"",""trial"",""time""
""fullscreenenter"",""1"",""2768""
","
","
","""event"",""trial"",""time""
""fullscreenenter"",""1"",""2768""
","
","","","","","","null","<div style=""font-size:60px;"">+</div>","null","","fixation","","","","","","","","","","","","","",""
"learning-trial","193","721074","0.0-9.0-2.0-1.53","1793","1","2","""event"",""trial"",""time""
""fullscreenenter"",""1"",""2768""
","
","
","""event"",""trial"",""time""
""fullscreenenter"",""1"",""2768""
","
","","","","","","1004.2999999970198","images/train4.png","","","learning","images/vehicles_choice1.png","images/vehicles_choice2.png","images/vehicles_choice3.png","[0,1,2]","1","1","3","images/vehicles_choice3.png","-1","vehicles","","train","1","0"
"html-keyboard-response","194","721581","0.0-9.0-2.0-0.54","1793","1","2","""event"",""trial"",""time""
""fullscreenenter"",""1"",""2768""
","
","
","""event"",""trial"",""time""
""fullscreenenter"",""1"",""2768""
","
","","","","","","null","<div style=""font-size:60px;"">+</div>","null","","fixation","","","","","","","","","","","","","",""
"learning-trial","195","725588","0.0-9.0-2.0-1.54","1793","1","2","""event"",""trial"",""time""
""fullscreenenter"",""1"",""2768""
","
","
","""event"",""trial"",""time""
""fullscreenenter"",""1"",""2768""
","
","","","","","","926.2000000029802","images/boat1.png","","","learning","images/vehicles_choice1.png","images/vehicles_choice3.png","images/vehicles_choice2.png","[0,2,1]","2","1","2","images/vehicles_choice3.png","-1","vehicles","","boat","1","0"
"html-keyboard-response","196","726093","0.0-9.0-2.0-0.55","1793","1","2","""event"",""trial"",""time""
""fullscreenenter"",""1"",""2768""
","
","
","""event"",""trial"",""time""
""fullscreenenter"",""1"",""2768""
","
","","","","","","null","<div style=""font-size:60px;"">+</div>","null","","fixation","","","","","","","","","","","","","",""
"learning-trial","197","730098","0.0-9.0-2.0-1.55","1793","1","2","""event"",""trial"",""time""
""fullscreenenter"",""1"",""2768""
","
","
","""event"",""trial"",""time""
""fullscreenenter"",""1"",""2768""
","
","","","","","","1613.7999999970198","images/plane3.png","","","learning","images/vehicles_choice1.png","images/vehicles_choice2.png","images/vehicles_choice3.png","[0,1,2]","0","0","3","images/vehicles_choice3.png","-1","vehicles","","plane","1","0"
"html-keyboard-response","198","730603","0.0-9.0-2.0-0.56","1793","1","2","""event"",""trial"",""time""
""fullscreenenter"",""1"",""2768""
","
","
","""event"",""trial"",""time""
""fullscreenenter"",""1"",""2768""
","
","","","","","","null","<div style=""font-size:60px;"">+</div>","null","","fixation","","","","","","","","","","","","","",""
"learning-trial","199","734609","0.0-9.0-2.0-1.56","1793","1","2","""event"",""trial"",""time""
""fullscreenenter"",""1"",""2768""
","
","
","""event"",""trial"",""time""
""fullscreenenter"",""1"",""2768""
","
","","","","","","1196","images/boat5.png","","","learning","images/vehicles_choice1.png","images/vehicles_choice3.png","images/vehicles_choice2.png","[0,2,1]","2","1","2","images/vehicles_choice3.png","1","vehicles","","boat","1","0"
"html-keyboard-response","200","735114","0.0-9.0-2.0-0.57","1793","1","2","""event"",""trial"",""time""
""fullscreenenter"",""1"",""2768""
","
","
","""event"",""trial"",""time""
""fullscreenenter"",""1"",""2768""
","
","","","","","","null","<div style=""font-size:60px;"">+</div>","null","","fixation","","","","","","","","","","","","","",""
"learning-trial","201","739119","0.0-9.0-2.0-1.57","1793","1","2","""event"",""trial"",""time""
""fullscreenenter"",""1"",""2768""
","
","
","""event"",""trial"",""time""
""fullscreenenter"",""1"",""2768""
","
","","","","","","1011.5999999940395","images/train1.png","","","learning","images/vehicles_choice1.png","images/vehicles_choice2.png","images/vehicles_choice3.png","[0,1,2]","1","1","1","images/vehicles_choice1.png","-1","vehicles","","train","1","0"
"html-keyboard-response","202","739624","0.0-9.0-2.0-0.58","1793","1","2","""event"",""trial"",""time""
""fullscreenenter"",""1"",""2768""
","
","
","""event"",""trial"",""time""
""fullscreenenter"",""1"",""2768""
","
","","","","","","null","<div style=""font-size:60px;"">+</div>","null","","fixation","","","","","","","","","","","","","",""
"learning-trial","203","743629","0.0-9.0-2.0-1.58","1793","1","2","""event"",""trial"",""time""
""fullscreenenter"",""1"",""2768""
","
","
","""event"",""trial"",""time""
""fullscreenenter"",""1"",""2768""
","
","","","","","","1054.5","images/boat5.png","","","learning","images/vehicles_choice3.png","images/vehicles_choice1.png","images/vehicles_choice2.png","[2,0,1]","2","0","1","images/vehicles_choice3.png","1","vehicles","","boat","1","0"
"html-keyboard-response","204","744134","0.0-9.0-2.0-0.59","1793","1","2","""event"",""trial"",""time""
""fullscreenenter"",""1"",""2768""
","
","
","""event"",""trial"",""time""
""fullscreenenter"",""1"",""2768""
","
","","","","","","null","<div style=""font-size:60px;"">+</div>","null","","fixation","","","","","","","","","","","","","",""
"learning-trial","205","748140","0.0-9.0-2.0-1.59","1793","1","2","""event"",""trial"",""time""
""fullscreenenter"",""1"",""2768""
","
","
","""event"",""trial"",""time""
""fullscreenenter"",""1"",""2768""
","
","","","","","","1377.1000000089407","images/plane1.png","","","learning","images/vehicles_choice3.png","images/vehicles_choice1.png","images/vehicles_choice2.png","[2,0,1]","0","1","3","images/vehicles_choice2.png","-1","vehicles","","plane","1","0"
"html-keyboard-response","206","748644","0.0-9.0-2.0-0.60","1793","1","2","""event"",""trial"",""time""
""fullscreenenter"",""1"",""2768""
","
","
","""event"",""trial"",""time""
""fullscreenenter"",""1"",""2768""
","
","","","","","","null","<div style=""font-size:60px;"">+</div>","null","","fixation","","","","","","","","","","","","","",""
"learning-trial","207","752650","0.0-9.0-2.0-1.60","1793","1","2","""event"",""trial"",""time""
""fullscreenenter"",""1"",""2768""
","
","
","""event"",""trial"",""time""
""fullscreenenter"",""1"",""2768""
","
","","","","","","1328.9000000059605","images/plane3.png","","","learning","images/vehicles_choice3.png","images/vehicles_choice2.png","images/vehicles_choice1.png","[2,1,0]","0","2","2","images/vehicles_choice2.png","-1","vehicles","","plane","1","0"
"html-keyboard-response","208","753155","0.0-9.0-2.0-0.61","1793","1","2","""event"",""trial"",""time""
""fullscreenenter"",""1"",""2768""
","
","
","""event"",""trial"",""time""
""fullscreenenter"",""1"",""2768""
","
","","","","","","null","<div style=""font-size:60px;"">+</div>","null","","fixation","","","","","","","","","","","","","",""
"learning-trial","209","757161","0.0-9.0-2.0-1.61","1793","1","2","""event"",""trial"",""time""
""fullscreenenter"",""1"",""2768""
","
","
","""event"",""trial"",""time""
""fullscreenenter"",""1"",""2768""
","
","","","","","","683.4000000059605","images/train4.png","","","learning","images/vehicles_choice2.png","images/vehicles_choice1.png","images/vehicles_choice3.png","[1,0,2]","1","0","1","images/vehicles_choice2.png","1","vehicles","","train","1","0"
"html-keyboard-response","210","757665","0.0-9.0-2.0-0.62","1793","1","2","""event"",""trial"",""time""
""fullscreenenter"",""1"",""2768""
","
","
","""event"",""trial"",""time""
""fullscreenenter"",""1"",""2768""
","
","","","","","","null","<div style=""font-size:60px;"">+</div>","null","","fixation","","","","","","","","","","","","","",""
"learning-trial","211","761671","0.0-9.0-2.0-1.62","1793","1","2","""event"",""trial"",""time""
""fullscreenenter"",""1"",""2768""
","
","
","""event"",""trial"",""time""
""fullscreenenter"",""1"",""2768""
","
","","","","","","1140.7999999970198","images/train1.png","","","learning","images/vehicles_choice2.png","images/vehicles_choice1.png","images/vehicles_choice3.png","[1,0,2]","1","0","1","images/vehicles_choice2.png","-1","vehicles","","train","1","0"
"html-keyboard-response","212","762175","0.0-9.0-2.0-0.63","1793","1","2","""event"",""trial"",""time""
""fullscreenenter"",""1"",""2768""
","
","
","""event"",""trial"",""time""
""fullscreenenter"",""1"",""2768""
","
","","","","","","null","<div style=""font-size:60px;"">+</div>","null","","fixation","","","","","","","","","","","","","",""
"learning-trial","213","766181","0.0-9.0-2.0-1.63","1793","1","2","""event"",""trial"",""time""
""fullscreenenter"",""1"",""2768""
","
","
","""event"",""trial"",""time""
""fullscreenenter"",""1"",""2768""
","
","","","","","","1816.3999999910593","images/train4.png","","","learning","images/vehicles_choice3.png","images/vehicles_choice1.png","images/vehicles_choice2.png","[2,0,1]","1","2","1","images/vehicles_choice3.png","-1","vehicles","","train","1","0"
"html-keyboard-response","214","766686","0.0-9.0-2.0-0.64","1793","1","2","""event"",""trial"",""time""
""fullscreenenter"",""1"",""2768""
","
","
","""event"",""trial"",""time""
""fullscreenenter"",""1"",""2768""
","
","","","","","","null","<div style=""font-size:60px;"">+</div>","null","","fixation","","","","","","","","","","","","","",""
"learning-trial","215","770692","0.0-9.0-2.0-1.64","1793","1","2","""event"",""trial"",""time""
""fullscreenenter"",""1"",""2768""
","
","
","""event"",""trial"",""time""
""fullscreenenter"",""1"",""2768""
","
","","","","","","1278.2999999970198","images/train4.png","","","learning","images/vehicles_choice2.png","images/vehicles_choice1.png","images/vehicles_choice3.png","[1,0,2]","1","0","2","images/vehicles_choice1.png","-1","vehicles","","train","1","0"
"html-keyboard-response","216","771196","0.0-9.0-2.0-0.65","1793","1","2","""event"",""trial"",""time""
""fullscreenenter"",""1"",""2768""
","
","
","""event"",""trial"",""time""
""fullscreenenter"",""1"",""2768""
","
","","","","","","null","<div style=""font-size:60px;"">+</div>","null","","fixation","","","","","","","","","","","","","",""
"learning-trial","217","775202","0.0-9.0-2.0-1.65","1793","1","2","""event"",""trial"",""time""
""fullscreenenter"",""1"",""2768""
","
","
","""event"",""trial"",""time""
""fullscreenenter"",""1"",""2768""
","
","","","","","","1318.7000000029802","images/train4.png","","","learning","images/vehicles_choice3.png","images/vehicles_choice1.png","images/vehicles_choice2.png","[2,0,1]","1","2","3","images/vehicles_choice2.png","1","vehicles","","train","1","0"
"html-keyboard-response","218","775707","0.0-9.0-2.0-0.66","1793","1","2","""event"",""trial"",""time""
""fullscreenenter"",""1"",""2768""
","
","
","""event"",""trial"",""time""
""fullscreenenter"",""1"",""2768""
","
","","","","","","null","<div style=""font-size:60px;"">+</div>","null","","fixation","","","","","","","","","","","","","",""
"learning-trial","219","779713","0.0-9.0-2.0-1.66","1793","1","2","""event"",""trial"",""time""
""fullscreenenter"",""1"",""2768""
","
","
","""event"",""trial"",""time""
""fullscreenenter"",""1"",""2768""
","
","","","","","","1759.8999999910593","images/plane4.png","","","learning","images/vehicles_choice2.png","images/vehicles_choice3.png","images/vehicles_choice1.png","[1,2,0]","0","2","3","images/vehicles_choice1.png","1","vehicles","","plane","1","0"
"html-keyboard-response","220","780217","0.0-9.0-2.0-0.67","1793","1","2","""event"",""trial"",""time""
""fullscreenenter"",""1"",""2768""
","
","
","""event"",""trial"",""time""
""fullscreenenter"",""1"",""2768""
","
","","","","","","null","<div style=""font-size:60px;"">+</div>","null","","fixation","","","","","","","","","","","","","",""
"learning-trial","221","784223","0.0-9.0-2.0-1.67","1793","1","2","""event"",""trial"",""time""
""fullscreenenter"",""1"",""2768""
","
","
","""event"",""trial"",""time""
""fullscreenenter"",""1"",""2768""
","
","","","","","","916","images/boat3.png","","","learning","images/vehicles_choice3.png","images/vehicles_choice2.png","images/vehicles_choice1.png","[2,1,0]","2","0","1","images/vehicles_choice3.png","1","vehicles","","boat","1","0"
"html-keyboard-response","222","784728","0.0-9.0-2.0-0.68","1793","1","2","""event"",""trial"",""time""
""fullscreenenter"",""1"",""2768""
","
","
","""event"",""trial"",""time""
""fullscreenenter"",""1"",""2768""
","
","","","","","","null","<div style=""font-size:60px;"">+</div>","null","","fixation","","","","","","","","","","","","","",""
"learning-trial","223","788734","0.0-9.0-2.0-1.68","1793","1","2","""event"",""trial"",""time""
""fullscreenenter"",""1"",""2768""
","
","
","""event"",""trial"",""time""
""fullscreenenter"",""1"",""2768""
","
","","","","","","913.1000000089407","images/boat1.png","","","learning","images/vehicles_choice2.png","images/vehicles_choice3.png","images/vehicles_choice1.png","[1,2,0]","2","1","2","images/vehicles_choice3.png","1","vehicles","","boat","1","0"
"html-keyboard-response","224","789238","0.0-9.0-2.0-0.69","1793","1","2","""event"",""trial"",""time""
""fullscreenenter"",""1"",""2768""
","
","
","""event"",""trial"",""time""
""fullscreenenter"",""1"",""2768""
","
","","","","","","null","<div style=""font-size:60px;"">+</div>","null","","fixation","","","","","","","","","","","","","",""
"learning-trial","225","793244","0.0-9.0-2.0-1.69","1793","1","2","""event"",""trial"",""time""
""fullscreenenter"",""1"",""2768""
","
","
","""event"",""trial"",""time""
""fullscreenenter"",""1"",""2768""
","
","","","","","","820.2999999970198","images/plane1.png","","","learning","images/vehicles_choice3.png","images/vehicles_choice2.png","images/vehicles_choice1.png","[2,1,0]","0","2","2","images/vehicles_choice2.png","-1","vehicles","","plane","1","0"
"html-keyboard-response","226","793749","0.0-9.0-2.0-0.70","1793","1","2","""event"",""trial"",""time""
""fullscreenenter"",""1"",""2768""
","
","
","""event"",""trial"",""time""
""fullscreenenter"",""1"",""2768""
","
","","","","","","null","<div style=""font-size:60px;"">+</div>","null","","fixation","","","","","","","","","","","","","",""
"learning-trial","227","797754","0.0-9.0-2.0-1.70","1793","1","2","""event"",""trial"",""time""
""fullscreenenter"",""1"",""2768""
","
","
","""event"",""trial"",""time""
""fullscreenenter"",""1"",""2768""
","
","","","","","","818.0999999940395","images/boat3.png","","","learning","images/vehicles_choice2.png","images/vehicles_choice3.png","images/vehicles_choice1.png","[1,2,0]","2","1","2","images/vehicles_choice3.png","1","vehicles","","boat","1","0"
"html-keyboard-response","228","798259","0.0-9.0-2.0-0.71","1793","1","2","""event"",""trial"",""time""
""fullscreenenter"",""1"",""2768""
","
","
","""event"",""trial"",""time""
""fullscreenenter"",""1"",""2768""
","
","","","","","","null","<div style=""font-size:60px;"">+</div>","null","","fixation","","","","","","","","","","","","","",""
"learning-trial","229","802264","0.0-9.0-2.0-1.71","1793","1","2","""event"",""trial"",""time""
""fullscreenenter"",""1"",""2768""
","
","
","""event"",""trial"",""time""
""fullscreenenter"",""1"",""2768""
","
","","","","","","898.8000000119209","images/train1.png","","","learning","images/vehicles_choice1.png","images/vehicles_choice2.png","images/vehicles_choice3.png","[0,1,2]","1","1","2","images/vehicles_choice2.png","1","vehicles","","train","1","0"
"html-button-response","230","804916","0.0-9.0-3.0","1793","1","2","""event"",""trial"",""time""
""fullscreenenter"",""1"",""2768""
","
","
","""event"",""trial"",""time""
""fullscreenenter"",""1"",""2768""
","
","","","","","","2650.5","<p> You have completed the round! <p> In this round, you earned 10 points! </p>","0","","break","","","","","","","","","","","","","",""
"html-button-response","231","806845","0.0-10.0","1793","1","2","""event"",""trial"",""time""
""fullscreenenter"",""1"",""2768""
","
","
","""event"",""trial"",""time""
""fullscreenenter"",""1"",""2768""
","
","","","","","","1927.5999999940395","<p> Now it's time to play another round. </p>","0","","transition_screen","","","","","","","","","","","","","",""
"preload","232","810383","0.0-11.0-0.0","1793","1","2","""event"",""trial"",""time""
""fullscreenenter"",""1"",""2768""
","
","
","""event"",""trial"",""time""
""fullscreenenter"",""1"",""2768""
","
","true","false","[]","[]","[]","","","","","","","","","","","","","","","","","","",""
"learning-instructions","233","821480","0.0-11.0-1.0-0.0","1793","1","2","""event"",""trial"",""time""
""fullscreenenter"",""1"",""2768""
","
","
","""event"",""trial"",""time""
""fullscreenenter"",""1"",""2768""
","
","","","","","","3134.7999999970198","<p> Your goal in this round is to deliver furniture to three different buildings. </p><p> You will need to deliver many pieces of furniture. </p></div>","","0","instructions","","","","","","","","","","","","","",""
"learning-instructions","234","830054","0.0-11.0-1.0-0.1","1793","1","2","""event"",""trial"",""time""
""fullscreenenter"",""1"",""2768""
","
","
","""event"",""trial"",""time""
""fullscreenenter"",""1"",""2768""
","
","","","","","","1138.5","<p> On each turn, you will see a picture of a furniture item and three different buildings.  </p><p> You need to select the building that you want to deliver the furniture to.  </p>","","0","instructions","","","","","","","","","","","","","",""
"learning-instructions","235","838891","0.0-11.0-1.0-0.2","1793","1","2","""event"",""trial"",""time""
""fullscreenenter"",""1"",""2768""
","
","
","""event"",""trial"",""time""
""fullscreenenter"",""1"",""2768""
","
