"trial_type","trial_index","time_elapsed","internal_node_id","subject_id","condition","task_version","interactions","blur_events","focus_events","fullscreenenter_events","fullscreenexit_events","success","timeout","failed_images","failed_audio","failed_video","rt","stimulus","response","button_pressed","task_part","left_choice","middle_choice","right_choice","choice_positions","correct_response","correct_position","key_press","option_selected","points","task_block","correct","stim_cat","block_condition","block_number"
"pavlovia","0","3","0.0-0.0","1574","1","2","""event"",""trial"",""time""
""fullscreenenter"",""1"",""3347""
","
","
","""event"",""trial"",""time""
""fullscreenenter"",""1"",""3347""
","
","","","","","","","","","","","","","","","","","","","","","","","",""
"fullscreen","1","4333","0.0-1.0","1574","1","2","""event"",""trial"",""time""
""fullscreenenter"",""1"",""3347""
","
","
","""event"",""trial"",""time""
""fullscreenenter"",""1"",""3347""
","
","true","","","","","","","","","","","","","","","","","","","","","","",""
"preload","2","12374","0.0-2.0","1574","1","2","""event"",""trial"",""time""
""fullscreenenter"",""1"",""3347""
","
","
","""event"",""trial"",""time""
""fullscreenenter"",""1"",""3347""
","
","true","false","[]","[]","[]","","","","","","","","","","","","","","","","","","",""
"audio-keyboard-response","3","15444","0.0-3.0","1574","1","2","""event"",""trial"",""time""
""fullscreenenter"",""1"",""3347""
","
","
","""event"",""trial"",""time""
""fullscreenenter"",""1"",""3347""
","
","","","","","","3069.333333333333","audio/beep_loop.wav"," ","","","","","","","","","","","","","","","",""
"audio-button-response","4","18316","0.0-4.0","1574","1","2","""event"",""trial"",""time""
""fullscreenenter"",""1"",""3347""
","
","
","""event"",""trial"",""time""
""fullscreenenter"",""1"",""3347""
","
","","","","","","2869","audio/shark.wav","4","","","","","","","","","","","","","","","",""
"audio-button-response","5","21132","0.0-5.0","1574","1","2","""event"",""trial"",""time""
""fullscreenenter"",""1"",""3347""
","
","
","""event"",""trial"",""time""
""fullscreenenter"",""1"",""3347""
","
","","","","","","1811","audio/turtle.wav","1","","","","","","","","","","","","","","","",""
"preload","6","28948","0.0-6.0","1574","1","2","""event"",""trial"",""time""
""fullscreenenter"",""1"",""3347""
","
","
","""event"",""trial"",""time""
""fullscreenenter"",""1"",""3347""
","
","true","false","[]","[]","[]","","","","","","","","","","","","","","","","","","",""
"html-keyboard-response","7","35805","0.0-7.0","1574","1","2","""event"",""trial"",""time""
""fullscreenenter"",""1"",""3347""
","
","
","""event"",""trial"",""time""
""fullscreenenter"",""1"",""3347""
","
","","","","","","6855.699999928474","Welcome to the experiment. Press any key to begin and to advance the instructions."," ","","","","","","","","","","","","","","","",""
"learning-instructions","8","48885","0.0-8.0-0.0-0.0","1574","1","2","""event"",""trial"",""time""
""fullscreenenter"",""1"",""3347""
","
","
","""event"",""trial"",""time""
""fullscreenenter"",""1"",""3347""
","
","","","","","","5337.600000023842","<p> Welcome! Today you are going to play 6 different rounds of a decision-making game. </p><p> Use the mouse to click next to continue. </p>","","0","instructions","","","","","","","","","","","","","",""
"learning-instructions","9","55389","0.0-8.0-0.0-0.1","1574","1","2","""event"",""trial"",""time""
""fullscreenenter"",""1"",""3347""
","
","
","""event"",""trial"",""time""
""fullscreenenter"",""1"",""3347""
","
","","","","","","3502.100000023842","<p> You will start with a practice round to learn the rules. </p>","","0","instructions","","","","","","","","","","","","","",""
"learning-instructions","10","64492","0.0-8.0-0.0-0.2","1574","1","2","""event"",""trial"",""time""
""fullscreenenter"",""1"",""3347""
","
","
","""event"",""trial"",""time""
""fullscreenenter"",""1"",""3347""
","
","","","","","","1355.8999999761581","<p> Your goal in this round is to deliver sports equipment to three different parks. </p><p> You will need to deliver many types of equipment. </p></div>","","0","instructions","","","","","","","","","","","","","",""
"learning-instructions","11","73828","0.0-8.0-0.0-0.3","1574","1","2","""event"",""trial"",""time""
""fullscreenenter"",""1"",""3347""
","
","
","""event"",""trial"",""time""
""fullscreenenter"",""1"",""3347""
","
","","","","","","841.3999999761581","<p> On each turn, you will see one piece of sports equipment and three different parks.  </p><p> You need to select which park to deliver the equipment to.  </p>","","0","instructions","","","","","","","","","","","","","",""
"learning-instructions","12","90692","0.0-8.0-0.0-0.4","1574","1","2","""event"",""trial"",""time""
""fullscreenenter"",""1"",""3347""
","
","
","""event"",""trial"",""time""
""fullscreenenter"",""1"",""3347""
","
","","","","","","3585","<p> You can select the park on the left by pressing the '1' key on your keyboard. <br>You can select the park in the middle by pressing the '2' key on your keyboard. <br>You can select the park on the right by pressing the '3' key on your keyboard.  </p><br><div class=""choice-instructions-grid""> <div class=""choice-option""><img src=""images/park1.png"" class=""choice-option-img"" stage=""instructions"" position=""0"" ><div class=""choice-option-text""> Press ""1."" </div></div><div class=""choice-option""><img src=""images/park2.png"" class=""choice-option-img"" stage=""instructions"" position=""1"" ><div class=""choice-option-text""> Press ""2."" </div></div><div class=""choice-option""><img src=""images/park3.png"" class=""choice-option-img"" stage=""instructions"" position=""2"" ><div class=""choice-option-text""> Press ""3."" </div></div></div>","","0","instructions","","","","","","","","","","","","","",""
"learning-instructions","13","98380","0.0-8.0-0.0-0.5","1574","1","2","""event"",""trial"",""time""
""fullscreenenter"",""1"",""3347""
","
","
","""event"",""trial"",""time""
""fullscreenenter"",""1"",""3347""
","
","","","","","","2303.100000023842","<p> If the kids in the park you chose like the equipment, they will be very happy! </p><div style='float: center;'><img src='images/check.png' width = '200' height = '200'></img>","","0","instructions","","","","","","","","","","","","","",""
"learning-instructions","14","107317","0.0-8.0-0.0-0.6","1574","1","2","""event"",""trial"",""time""
""fullscreenenter"",""1"",""3347""
","
","
","""event"",""trial"",""time""
""fullscreenenter"",""1"",""3347""
","
","","","","","","3339.600000023842","<p> But, if the kids in the park you chose do not like the equipment, they will be sad. </p><div style='float: center;'><img src='images/x.png' width = '200' height = '200'></img>","","0","instructions","","","","","","","","","","","","","",""
"learning-instructions","15","114261","0.0-8.0-0.0-0.7","1574","1","2","""event"",""trial"",""time""
""fullscreenenter"",""1"",""3347""
","
","
","""event"",""trial"",""time""
""fullscreenenter"",""1"",""3347""
","
","","","","","","503.39999997615814","<p> Importantly, the kids in each park like some pieces of sports equipment more than others. </p>","","0","instructions","","","","","","","","","","","","","",""
"learning-instructions","16","121180","0.0-8.0-0.0-0.8","1574","1","2","""event"",""trial"",""time""
""fullscreenenter"",""1"",""3347""
","
","
","""event"",""trial"",""time""
""fullscreenenter"",""1"",""3347""
","
","","","","","","853.3999999761581","<p> If you choose the best park for each piece of equipment, the kids there will usually be happy. </p>","","0","instructions","","","","","","","","","","","","","",""
"learning-instructions","17","129101","0.0-8.0-0.0-0.9","1574","1","2","""event"",""trial"",""time""
""fullscreenenter"",""1"",""3347""
","
","
","""event"",""trial"",""time""
""fullscreenenter"",""1"",""3347""
","
","","","","","","1283.8999999761581","<p> However, even if you choose the best park for the equipment, the kids may sometimes be sad. </p>","","0","instructions","","","","","","","","","","","","","",""
"learning-instructions","18","137053","0.0-8.0-0.0-0.10","1574","1","2","""event"",""trial"",""time""
""fullscreenenter"",""1"",""3347""
","
","
","""event"",""trial"",""time""
""fullscreenenter"",""1"",""3347""
","
","","","","","","725.3999999761581","<p> Similarly, even if you choose the <i>wrong</i> park for the equipment, the kids may still be happy sometimes.","","0","instructions","","","","","","","","","","","","","",""
"learning-instructions","19","145173","0.0-8.0-0.0-0.11","1574","1","2","""event"",""trial"",""time""
""fullscreenenter"",""1"",""3347""
","
","
","""event"",""trial"",""time""
""fullscreenenter"",""1"",""3347""
","
","","","","","","3065.3000000715256","<p> For example, the best park for this soccer ball is this one.<div style='float: center;'><img src='images/i1.png' width = '500' height = '268'></img>","","0","instructions","","","","","","","","","","","","","",""
"learning-instructions","20","151277","0.0-8.0-0.0-0.12","1574","1","2","""event"",""trial"",""time""
""fullscreenenter"",""1"",""3347""
","
","
","""event"",""trial"",""time""
""fullscreenenter"",""1"",""3347""
","
","","","","","","819.5","<p> Let's see what happens if you choose this park for the soccer ball five times.","","0","instructions","","","","","","","","","","","","","",""
"learning-instructions","21","155517","0.0-8.0-0.0-0.13","1574","1","2","""event"",""trial"",""time""
""fullscreenenter"",""1"",""3347""
","
","
","""event"",""trial"",""time""
""fullscreenenter"",""1"",""3347""
","
","","","","","","2069.5","<p> The kids are happy.<div style='float: left;'><img src='images/i2.png' width = '640' height = '360'></img>","","0","instructions","","","","","","","","","","","","","",""
"learning-instructions","22","158125","0.0-8.0-0.0-0.14","1574","1","2","""event"",""trial"",""time""
""fullscreenenter"",""1"",""3347""
","
","
","""event"",""trial"",""time""
""fullscreenenter"",""1"",""3347""
","
","","","","","","437.7000000476837","<p> The kids are happy.<div style='float: left;'><img src='images/i3.png' width = '640' height = '360'></img>","","0","instructions","","","","","","","","","","","","","",""
"learning-instructions","23","160589","0.0-8.0-0.0-0.15","1574","1","2","""event"",""trial"",""time""
""fullscreenenter"",""1"",""3347""
","
","
","""event"",""trial"",""time""
""fullscreenenter"",""1"",""3347""
","
","","","","","","301.10000002384186","<p> The kids are happy.<div style='float: left;'><img src='images/i4.png' width = '640' height = '360'></img>","","0","instructions","","","","","","","","","","","","","",""
"learning-instructions","24","163141","0.0-8.0-0.0-0.16","1574","1","2","""event"",""trial"",""time""
""fullscreenenter"",""1"",""3347""
","
","
","""event"",""trial"",""time""
""fullscreenenter"",""1"",""3347""
","
","","","","","","333.3000000715256","<p> The kids are sad.<div style='float: left;'><img src='images/i5.png' width = '640' height = '360'></img>","","0","instructions","","","","","","","","","","","","","",""
"learning-instructions","25","165629","0.0-8.0-0.0-0.17","1574","1","2","""event"",""trial"",""time""
""fullscreenenter"",""1"",""3347""
","
","
","""event"",""trial"",""time""
""fullscreenenter"",""1"",""3347""
","
","","","","","","311.39999997615814","<p> The kids are happy.<div style='float: left;'><img src='images/i6.png' width = '640' height = '360'></img>","","0","instructions","","","","","","","","","","","","","",""
"learning-instructions","26","173868","0.0-8.0-0.0-0.18","1574","1","2","""event"",""trial"",""time""
""fullscreenenter"",""1"",""3347""
","
","
","""event"",""trial"",""time""
""fullscreenenter"",""1"",""3347""
","
","","","","","","971.3999999761581","<p> As you can see, selecting that park for the soccer ball made the kids happy most of the time, but not all the time.","","0","instructions","","","","","","","","","","","","","",""
"learning-instructions","27","180516","0.0-8.0-0.0-0.19","1574","1","2","""event"",""trial"",""time""
""fullscreenenter"",""1"",""3347""
","
","
","""event"",""trial"",""time""
""fullscreenenter"",""1"",""3347""
","
","","","","","","649.3000000715256","<p> Now let's see what happens if you choose a DIFFERENT park for the soccer ball 5 times.","","0","instructions","","","","","","","","","","","","","",""
"learning-instructions","28","184140","0.0-8.0-0.0-0.20","1574","1","2","""event"",""trial"",""time""
""fullscreenenter"",""1"",""3347""
","
","
","""event"",""trial"",""time""
""fullscreenenter"",""1"",""3347""
","
","","","","","","1413.1999999284744","<p> The kids are sad.<div style='float: left;'><img src='images/i7.png' width = '640' height = '360'></img>","","0","instructions","","","","","","","","","","","","","",""
"learning-instructions","29","186669","0.0-8.0-0.0-0.21","1574","1","2","""event"",""trial"",""time""
""fullscreenenter"",""1"",""3347""
","
","
","""event"",""trial"",""time""
""fullscreenenter"",""1"",""3347""
","
","","","","","","311.40000009536743","<p> The kids are sad.<div style='float: left;'><img src='images/i8.png' width = '640' height = '360'></img>","","0","instructions","","","","","","","","","","","","","",""
"learning-instructions","30","189421","0.0-8.0-0.0-0.22","1574","1","2","""event"",""trial"",""time""
""fullscreenenter"",""1"",""3347""
","
","
","""event"",""trial"",""time""
""fullscreenenter"",""1"",""3347""
","
","","","","","","584","<p> The kids are happy.<div style='float: left;'><img src='images/i9.png' width = '640' height = '360'></img>","","0","instructions","","","","","","","","","","","","","",""
"learning-instructions","31","192189","0.0-8.0-0.0-0.23","1574","1","2","""event"",""trial"",""time""
""fullscreenenter"",""1"",""3347""
","
","
","""event"",""trial"",""time""
""fullscreenenter"",""1"",""3347""
","
","","","","","","551.1000000238419","<p> The kids are sad.<div style='float: left;'><img src='images/i10.png' width = '640' height = '360'></img>","","0","instructions","","","","","","","","","","","","","",""
"learning-instructions","32","195052","0.0-8.0-0.0-0.24","1574","1","2","""event"",""trial"",""time""
""fullscreenenter"",""1"",""3347""
","
","
","""event"",""trial"",""time""
""fullscreenenter"",""1"",""3347""
","
","","","","","","645.1999999284744","<p> The kids are sad.<div style='float: left;'><img src='images/i11.png' width = '640' height = '360'></img>","","0","instructions","","","","","","","","","","","","","",""
"learning-instructions","33","205729","0.0-8.0-0.0-0.25","1574","1","2","""event"",""trial"",""time""
""fullscreenenter"",""1"",""3347""
","
","
","""event"",""trial"",""time""
""fullscreenenter"",""1"",""3347""
","
","","","","","","2551.8000000715256","<p> As you can see, selecting the wrong park for the soccer ball made the kids sad most of the time, but not all the time.","","0","instructions","","","","","","","","","","","","","",""
"learning-instructions","34","216989","0.0-8.0-0.0-0.26","1574","1","2","""event"",""trial"",""time""
""fullscreenenter"",""1"",""3347""
","
","
","""event"",""trial"",""time""
""fullscreenenter"",""1"",""3347""
","
","","","","","","2141.100000023842","<p> The different pieces of equipment belong in different parks. You need to try to learn which is the best park for each piece of equipment.","","0","instructions","","","","","","","","","","","","","",""
"learning-instructions","35","234749","0.0-8.0-0.0-0.27","1574","1","2","""event"",""trial"",""time""
""fullscreenenter"",""1"",""3347""
","
","
","""event"",""trial"",""time""
""fullscreenenter"",""1"",""3347""
","
","","","","","","1371.5","<p> Try to choose the best park for each piece of equipment, because you will <b> WIN </b> 1 point for each time you make the kids happy and <b>LOSE</b> 1 point for each time you make them sad. </p><p> Remember, if you make the best choice, you will win 1 point most of the time, but not all the time. </p>","","0","instructions","","","","","","","","","","","","","",""
"learning-instructions","36","240765","0.0-8.0-0.0-0.28","1574","1","2","""event"",""trial"",""time""
""fullscreenenter"",""1"",""3347""
","
","
","""event"",""trial"",""time""
""fullscreenenter"",""1"",""3347""
","
","","","","","","537.3000000715256","<p> This is just a practice round, but in the real game, your bonus payment will depend on your total number of points.","","0","instructions","","","","","","","","","","","","","",""
"learning-instructions","37","252157","0.0-8.0-0.0-0.29","1574","1","2","""event"",""trial"",""time""
""fullscreenenter"",""1"",""3347""
","
","
","""event"",""trial"",""time""
""fullscreenenter"",""1"",""3347""
","
","","","","","","1069.5","<p> The position where each park appears will change throughout the game. </p><p> The position where the park appears <i> does not </i> influence how likely the kids are to be happy or sad. </p>","","0","instructions","","","","","","","","","","","","","",""
"learning-instructions","38","263781","0.0-8.0-0.0-0.30","1574","1","2","""event"",""trial"",""time""
""fullscreenenter"",""1"",""3347""
","
","
","""event"",""trial"",""time""
""fullscreenenter"",""1"",""3347""
","
","","","","","","873.5999999046326","<p> You will have 4 seconds to make each choice. Try to respond before time runs out! </p><p> You will lose 1 point each time you do not make a response. </p>","","0","instructions","","","","","","","","","","","","","",""
"learning-instructions","39","274508","0.0-8.0-0.0-0.31","1574","1","2","""event"",""trial"",""time""
""fullscreenenter"",""1"",""3347""
","
","
","""event"",""trial"",""time""
""fullscreenenter"",""1"",""3347""
","
","","","","","","3931.2000000476837","<p> Remember, you should use the 1, 2, and 3 keys to select the park for each piece of equipment. </p><br><div class=""choice-instructions-grid""> <div class=""choice-option""><img src=""images/park1.png"" class=""choice-option-img"" stage=""instructions"" position=""0"" ><div class=""choice-option-text""> Press ""1."" </div></div><div class=""choice-option""><img src=""images/park2.png"" class=""choice-option-img"" stage=""instructions"" position=""1"" ><div class=""choice-option-text""> Press ""2."" </div></div><div class=""choice-option""><img src=""images/park3.png"" class=""choice-option-img"" stage=""instructions"" position=""2"" ><div class=""choice-option-text""> Press ""3."" </div></div></div>","","0","instructions","","","","","","","","","","","","","",""
"html-button-response","40","276892","0.0-8.0-1.0","1574","1","2","""event"",""trial"",""time""
""fullscreenenter"",""1"",""3347""
","
","
","""event"",""trial"",""time""
""fullscreenenter"",""1"",""3347""
","
","","","","","","2281.399999976158","<p> Ready to practice? </p>","0","","","","","","","","","","","","","","","",""
"html-keyboard-response","41","277500","0.0-8.0-2.0-0.0","1574","1","2","""event"",""trial"",""time""
""fullscreenenter"",""1"",""3347""
","
","
","""event"",""trial"",""time""
""fullscreenenter"",""1"",""3347""
","
","","","","","","null","<div style=""font-size:60px;"">+</div>","null","","fixation","","","","","","","","","","","","","",""
"learning-trial","42","281502","0.0-8.0-2.0-1.0","1574","1","2","""event"",""trial"",""time""
""fullscreenenter"",""1"",""3347""
","
","
","""event"",""trial"",""time""
""fullscreenenter"",""1"",""3347""
","
","","","","","","1679.6999999284744","images/racket4.png","","","practice","images/park2.png","images/park3.png","images/park1.png","[1,2,0]","0","2","2","images/park3.png","-1","practice","","","",""
"html-keyboard-response","43","282004","0.0-8.0-2.0-0.1","1574","1","2","""event"",""trial"",""time""
""fullscreenenter"",""1"",""3347""
","
","
","""event"",""trial"",""time""
""fullscreenenter"",""1"",""3347""
","
","","","","","","null","<div style=""font-size:60px;"">+</div>","null","","fixation","","","","","","","","","","","","","",""
"learning-trial","44","286005","0.0-8.0-2.0-1.1","1574","1","2","""event"",""trial"",""time""
""fullscreenenter"",""1"",""3347""
","
","
","""event"",""trial"",""time""
""fullscreenenter"",""1"",""3347""
","
","","","","","","1512.1999999284744","images/racket3.png","","","practice","images/park1.png","images/park2.png","images/park3.png","[0,1,2]","0","0","1","images/park1.png","-1","practice","","","",""
"html-keyboard-response","45","286506","0.0-8.0-2.0-0.2","1574","1","2","""event"",""trial"",""time""
""fullscreenenter"",""1"",""3347""
","
","
","""event"",""trial"",""time""
""fullscreenenter"",""1"",""3347""
","
","","","","","","null","<div style=""font-size:60px;"">+</div>","null","","fixation","","","","","","","","","","","","","",""
"learning-trial","46","290508","0.0-8.0-2.0-1.2","1574","1","2","""event"",""trial"",""time""
""fullscreenenter"",""1"",""3347""
","
","
","""event"",""trial"",""time""
""fullscreenenter"",""1"",""3347""
","
","","","","","","1433.5999999046326","images/ball3.png","","","practice","images/park2.png","images/park3.png","images/park1.png","[1,2,0]","2","1","2","images/park3.png","1","practice","","","",""
"html-keyboard-response","47","291009","0.0-8.0-2.0-0.3","1574","1","2","""event"",""trial"",""time""
""fullscreenenter"",""1"",""3347""
","
","
","""event"",""trial"",""time""
""fullscreenenter"",""1"",""3347""
","
","","","","","","null","<div style=""font-size:60px;"">+</div>","null","","fixation","","","","","","","","","","","","","",""
"learning-trial","48","295017","0.0-8.0-2.0-1.3","1574","1","2","""event"",""trial"",""time""
""fullscreenenter"",""1"",""3347""
","
","
","""event"",""trial"",""time""
""fullscreenenter"",""1"",""3347""
","
","","","","","","1106.2000000476837","images/ball2.png","","","practice","images/park3.png","images/park1.png","images/park2.png","[2,0,1]","1","2","1","images/park3.png","-1","practice","","","",""
"html-keyboard-response","49","295518","0.0-8.0-2.0-0.4","1574","1","2","""event"",""trial"",""time""
""fullscreenenter"",""1"",""3347""
","
","
","""event"",""trial"",""time""
""fullscreenenter"",""1"",""3347""
","
","","","","","","null","<div style=""font-size:60px;"">+</div>","null","","fixation","","","","","","","","","","","","","",""
"learning-trial","50","299523","0.0-8.0-2.0-1.4","1574","1","2","""event"",""trial"",""time""
""fullscreenenter"",""1"",""3347""
","
","
","""event"",""trial"",""time""
""fullscreenenter"",""1"",""3347""
","
","","","","","","1750.1999999284744","images/ball1.png","","","practice","images/park1.png","images/park2.png","images/park3.png","[0,1,2]","2","2","2","images/park2.png","-1","practice","","","",""
"html-keyboard-response","51","300037","0.0-8.0-2.0-0.5","1574","1","2","""event"",""trial"",""time""
""fullscreenenter"",""1"",""3347""
","
","
","""event"",""trial"",""time""
""fullscreenenter"",""1"",""3347""
","
","","","","","","null","<div style=""font-size:60px;"">+</div>","null","","fixation","","","","","","","","","","","","","",""
"learning-trial","52","304040","0.0-8.0-2.0-1.5","1574","1","2","""event"",""trial"",""time""
""fullscreenenter"",""1"",""3347""
","
","
","""event"",""trial"",""time""
""fullscreenenter"",""1"",""3347""
","
","","","","","","1542.7000000476837","images/racket3.png","","","practice","images/park2.png","images/park3.png","images/park1.png","[1,2,0]","0","2","3","images/park1.png","-1","practice","","","",""
"html-keyboard-response","53","304541","0.0-8.0-2.0-0.6","1574","1","2","""event"",""trial"",""time""
""fullscreenenter"",""1"",""3347""
","
","
","""event"",""trial"",""time""
""fullscreenenter"",""1"",""3347""
","
","","","","","","null","<div style=""font-size:60px;"">+</div>","null","","fixation","","","","","","","","","","","","","",""
"learning-trial","54","308544","0.0-8.0-2.0-1.6","1574","1","2","""event"",""trial"",""time""
""fullscreenenter"",""1"",""3347""
","
","
","""event"",""trial"",""time""
""fullscreenenter"",""1"",""3347""
","
","","","","","","2134.3000000715256","images/ball3.png","","","practice","images/park3.png","images/park1.png","images/park2.png","[2,0,1]","2","0","1","images/park3.png","1","practice","","","",""
"html-keyboard-response","55","309046","0.0-8.0-2.0-0.7","1574","1","2","""event"",""trial"",""time""
""fullscreenenter"",""1"",""3347""
","
","
","""event"",""trial"",""time""
""fullscreenenter"",""1"",""3347""
","
","","","","","","null","<div style=""font-size:60px;"">+</div>","null","","fixation","","","","","","","","","","","","","",""
"learning-trial","56","313048","0.0-8.0-2.0-1.7","1574","1","2","""event"",""trial"",""time""
""fullscreenenter"",""1"",""3347""
","
","
","""event"",""trial"",""time""
""fullscreenenter"",""1"",""3347""
","
","","","","","","2525.899999976158","images/ball1.png","","","practice","images/park1.png","images/park2.png","images/park3.png","[0,1,2]","2","2","3","images/park3.png","1","practice","","","",""
"html-keyboard-response","57","313549","0.0-8.0-2.0-0.8","1574","1","2","""event"",""trial"",""time""
""fullscreenenter"",""1"",""3347""
","
","
","""event"",""trial"",""time""
""fullscreenenter"",""1"",""3347""
","
","","","","","","null","<div style=""font-size:60px;"">+</div>","null","","fixation","","","","","","","","","","","","","",""
"learning-trial","58","317552","0.0-8.0-2.0-1.8","1574","1","2","""event"",""trial"",""time""
""fullscreenenter"",""1"",""3347""
","
","
","""event"",""trial"",""time""
""fullscreenenter"",""1"",""3347""
","
","","","","","","1710.8000000715256","images/ball4.png","","","practice","images/park1.png","images/park2.png","images/park3.png","[0,1,2]","1","1","1","images/park1.png","-1","practice","","","",""
"html-keyboard-response","59","318053","0.0-8.0-2.0-0.9","1574","1","2","""event"",""trial"",""time""
""fullscreenenter"",""1"",""3347""
","
","
","""event"",""trial"",""time""
""fullscreenenter"",""1"",""3347""
","
","","","","","","null","<div style=""font-size:60px;"">+</div>","null","","fixation","","","","","","","","","","","","","",""
"learning-trial","60","322055","0.0-8.0-2.0-1.9","1574","1","2","""event"",""trial"",""time""
""fullscreenenter"",""1"",""3347""
","
","
","""event"",""trial"",""time""
""fullscreenenter"",""1"",""3347""
","
","","","","","","2078.5","images/ball2.png","","","practice","images/park1.png","images/park2.png","images/park3.png","[0,1,2]","1","1","1","images/park1.png","-1","practice","","","",""
"html-keyboard-response","61","322556","0.0-8.0-2.0-0.10","1574","1","2","""event"",""trial"",""time""
""fullscreenenter"",""1"",""3347""
","
","
","""event"",""trial"",""time""
""fullscreenenter"",""1"",""3347""
","
","","","","","","null","<div style=""font-size:60px;"">+</div>","null","","fixation","","","","","","","","","","","","","",""
"learning-trial","62","326559","0.0-8.0-2.0-1.10","1574","1","2","""event"",""trial"",""time""
""fullscreenenter"",""1"",""3347""
","
","
","""event"",""trial"",""time""
""fullscreenenter"",""1"",""3347""
","
","","","","","","2391.4000000953674","images/racket4.png","","","practice","images/park2.png","images/park1.png","images/park3.png","[1,0,2]","0","1","1","images/park2.png","-1","practice","","","",""
"html-keyboard-response","63","327060","0.0-8.0-2.0-0.11","1574","1","2","""event"",""trial"",""time""
""fullscreenenter"",""1"",""3347""
","
","
","""event"",""trial"",""time""
""fullscreenenter"",""1"",""3347""
","
","","","","","","null","<div style=""font-size:60px;"">+</div>","null","","fixation","","","","","","","","","","","","","",""
"learning-trial","64","331062","0.0-8.0-2.0-1.11","1574","1","2","""event"",""trial"",""time""
""fullscreenenter"",""1"",""3347""
","
","
","""event"",""trial"",""time""
""fullscreenenter"",""1"",""3347""
","
","","","","","","1584.5","images/ball4.png","","","practice","images/park3.png","images/park1.png","images/park2.png","[2,0,1]","1","2","2","images/park1.png","-1","practice","","","",""
"html-button-response","65","333021","0.0-8.0-3.0","1574","1","2","""event"",""trial"",""time""
""fullscreenenter"",""1"",""3347""
","
","
","""event"",""trial"",""time""
""fullscreenenter"",""1"",""3347""
","
","","","","","","1957","<p> You earned -6 points in the practice round! </p>","0","","break","","","","","","","","","","","","","",""
"learning-instructions","66","342530","0.0-8.0-4.0-0.0","1574","1","2","""event"",""trial"",""time""
""fullscreenenter"",""1"",""3347""
","
","
","""event"",""trial"",""time""
""fullscreenenter"",""1"",""3347""
","
","","","","","","1823.1999999284744","<p> It's almost time to start the real game. </p><p> Before you start, we're going to ask you a few questions about how the game works. </p>","","0","instructions","","","","","","","","","","","","","",""
"preload","67","344556","0.0-8.0-5.0","1574","1","2","""event"",""trial"",""time""
""fullscreenenter"",""1"",""3347""
","
","
","""event"",""trial"",""time""
""fullscreenenter"",""1"",""3347""
","
","true","false","[]","[]","[]","","","","","","","","","","","","","","","","","","",""
"comp-q","68","352853","0.0-8.0-6.0-0.0","1574","1","2","""event"",""trial"",""time""
""fullscreenenter"",""1"",""3347""
","
","
","""event"",""trial"",""time""
""fullscreenenter"",""1"",""3347""
","
","","","","","","2845.399999976158","<p> <b> True or False? </b> </p><p> If you choose the best option, you will always earn 1 point. </p>","","1","comp_question","","","","","","","","","","","true","","",""
"comp-q","69","360338","0.0-8.0-6.0-1.0","1574","1","2","""event"",""trial"",""time""
""fullscreenenter"",""1"",""3347""
","
","
","""event"",""trial"",""time""
""fullscreenenter"",""1"",""3347""
","
","","","","","","1831.2999999523163","<p><b> That's right! </b> Sometimes you will lose 1 point, even if you choose the best option. </p>","","0","comp_answer","","","","","","","","","","","","","",""
"comp-q","70","365733","0.0-8.0-6.0-0.1","1574","1","2","""event"",""trial"",""time""
""fullscreenenter"",""1"",""3347""
","
","
","""event"",""trial"",""time""
""fullscreenenter"",""1"",""3347""
","
","","","","","","755.9000000953674","<p> <b> True or False? </b> </p><p> You will have as much time as you want to make each choice. </p>","","1","comp_question","","","","","","","","","","","true","","",""
"comp-q","71","371765","0.0-8.0-6.0-1.1","1574","1","2","""event"",""trial"",""time""
""fullscreenenter"",""1"",""3347""
","
","
","""event"",""trial"",""time""
""fullscreenenter"",""1"",""3347""
","
","","","","","","1217.3999999761581","<p> <b> That's right! </b> You will only have 4 seconds to make each choice. </p>","","0","comp_answer","","","","","","","","","","","","","",""
"comp-q","72","378493","0.0-8.0-6.0-0.2","1574","1","2","""event"",""trial"",""time""
""fullscreenenter"",""1"",""3347""
","
","
","""event"",""trial"",""time""
""fullscreenenter"",""1"",""3347""
","
","","","","","","575.5","<p> <b> True or False? </b> </p><p> You should use the '1', '2', and '3' keys to make your choices. </p>","","0","comp_question","","","","","","","","","","","true","","",""
"comp-q","73","386509","0.0-8.0-6.0-1.2","1574","1","2","""event"",""trial"",""time""
""fullscreenenter"",""1"",""3347""
","
","
","""event"",""trial"",""time""
""fullscreenenter"",""1"",""3347""
","
","","","","","","3171.5","<p> <b> That's right! </b> You should use the '1', '2', and '3' keys to make each choice. </p>","","0","comp_answer","","","","","","","","","","","","","",""
"learning-instructions","74","396933","0.0-8.0-7.0-0.0","1574","1","2","""event"",""trial"",""time""
""fullscreenenter"",""1"",""3347""
","
","
","""event"",""trial"",""time""
""fullscreenenter"",""1"",""3347""
","
","","","","","","1935.6000000238419","<p> It's now time to start the real game. </p>Do your best, because the points you earn in the next rounds will influence your bonus payment. </p>","","0","instructions","","","","","","","","","","","","","",""
"preload","75","399749","0.0-9.0-0.0","1574","1","2","""event"",""trial"",""time""
""fullscreenenter"",""1"",""3347""
","
","
","""event"",""trial"",""time""
""fullscreenenter"",""1"",""3347""
","
","true","false","[]","[]","[]","","","","","","","","","","","","","","","","","","",""
"learning-instructions","76","409732","0.0-9.0-1.0-0.0","1574","1","2","""event"",""trial"",""time""
""fullscreenenter"",""1"",""3347""
","
","
","""event"",""trial"",""time""
""fullscreenenter"",""1"",""3347""
","
","","","","","","2195.2999999523163","<p> Your goal in this round is to deliver furniture to three different buildings. </p><p> You will need to deliver many pieces of furniture. </p></div>","","0","instructions","","","","","","","","","","","","","",""
"learning-instructions","77","417604","0.0-9.0-1.0-0.1","1574","1","2","""event"",""trial"",""time""
""fullscreenenter"",""1"",""3347""
","
","
","""event"",""trial"",""time""
""fullscreenenter"",""1"",""3347""
","
","","","","","","437.60000002384186","<p> On each turn, you will see a picture of a furniture item and three different buildings.  </p><p> You need to select the building that you want to deliver the furniture to.  </p>","","0","instructions","","","","","","","","","","","","","",""
"learning-instructions","78","428538","0.0-9.0-1.0-0.2","1574","1","2","""event"",""trial"",""time""
""fullscreenenter"",""1"",""3347""
","
","
","""event"",""trial"",""time""
""fullscreenenter"",""1"",""3347""
","
","","","","","","2641.2000000476837","<p> You can select the building on the left by pressing 1, the building in the middle by pressing 2, and the building on the right by pressing 3.  </p><br><div class=""choice-instructions-grid""> <div class=""choice-option""><img src=""images/furniture_choice1.png"" class=""choice-option-img"" stage=""instructions"" position=""0"" ><div class=""choice-option-text""> Press ""1."" </div></div><div class=""choice-option""><img src=""images/furniture_choice2.png"" class=""choice-option-img"" stage=""instructions"" position=""1"" ><div class=""choice-option-text""> Press ""2."" </div></div><div class=""choice-option""><img src=""images/furniture_choice3.png"" class=""choice-option-img"" stage=""instructions"" position=""2"" ><div class=""choice-option-text""> Press ""3."" </div></div></div>","","0","instructions","","","","","","","","","","","","","",""
"learning-instructions","79","437804","0.0-9.0-1.0-0.3","1574","1","2","""event"",""trial"",""time""
""fullscreenenter"",""1"",""3347""
","
","
","""event"",""trial"",""time""
""fullscreenenter"",""1"",""3347""
","
","","","","","","3237.7999999523163","<p> If the furniture belongs in the building you chose, the building owner will likely be very happy! </p><div style='float: center;'><img src='images/check.png' width = '200' height = '200'></img>","","0","instructions","","","","","","","","","","","","","",""
"learning-instructions","80","445476","0.0-9.0-1.0-0.4","1574","1","2","""event"",""trial"",""time""
""fullscreenenter"",""1"",""3347""
","
","
","""event"",""trial"",""time""
""fullscreenenter"",""1"",""3347""
","
","","","","","","1679.5999999046326","<p> But, if the furniture does not belong in the building you chose, the owner will likely be mad. </p><div style='float: center;'><img src='images/x.png' width = '200' height = '200'></img>","","0","instructions","","","","","","","","","","","","","",""
"learning-instructions","81","458900","0.0-9.0-1.0-0.5","1574","1","2","""event"",""trial"",""time""
""fullscreenenter"",""1"",""3347""
","
","
","""event"",""trial"",""time""
""fullscreenenter"",""1"",""3347""
","
","","","","","","2203.399999976158","<p> Importantly, each piece of furniture belongs in one of the three buildings. </p><p> If you choose the correct building for the piece of furniture, you will be more likely to make the building owner happy! </p>","","0","instructions","","","","","","","","","","","","","",""
"learning-instructions","82","472772","0.0-9.0-1.0-0.6","1574","1","2","""event"",""trial"",""time""
""fullscreenenter"",""1"",""3347""
","
","
","""event"",""trial"",""time""
""fullscreenenter"",""1"",""3347""
","
","","","","","","2365.399999976158","<p> However, even if you choose the best building for the furniture, the owner may still be mad sometimes. </p><p> Similarly, even if you choose the <i>wrong</i> building, the owner may still be happy.","","0","instructions","","","","","","","","","","","","","",""
"learning-instructions","83","487500","0.0-9.0-1.0-0.7","1574","1","2","""event"",""trial"",""time""
""fullscreenenter"",""1"",""3347""
","
","
","""event"",""trial"",""time""
""fullscreenenter"",""1"",""3347""
","
","","","","","","1493.6999999284744","<p> Try to choose the best building for each piece of furniture, because you will <b> WIN </b> 1 point each time a building owner is happy and <b>LOSE</b>  1 point each time a building owner is mad. </p><p> Your bonus payment will depend on your total number of points.","","0","instructions","","","","","","","","","","","","","",""
"learning-instructions","84","498468","0.0-9.0-1.0-0.8","1574","1","2","""event"",""trial"",""time""
""fullscreenenter"",""1"",""3347""
","
","
","""event"",""trial"",""time""
""fullscreenenter"",""1"",""3347""
","
","","","","","","2011.1000000238419","<p> The position of each building will change throughout the round. </p><p> The building's position <i> does not </i> influence how likely the owner is to be happy or mad. </p>","","0","instructions","","","","","","","","","","","","","",""
"learning-instructions","85","509308","0.0-9.0-1.0-0.9","1574","1","2","""event"",""trial"",""time""
""fullscreenenter"",""1"",""3347""
","
","
","""event"",""trial"",""time""
""fullscreenenter"",""1"",""3347""
","
","","","","","","1551.5999999046326","<p> You will have 4 seconds to make each choice. Try to respond before time runs out! </p><p> You will lose 1 point each time you do not make a response. </p>","","0","instructions","","","","","","","","","","","","","",""
"html-keyboard-response","86","509935","0.0-9.0-2.0-0.0","1574","1","2","""event"",""trial"",""time""
""fullscreenenter"",""1"",""3347""
","
","
","""event"",""trial"",""time""
""fullscreenenter"",""1"",""3347""
","
","","","","","","null","<div style=""font-size:60px;"">+</div>","null","","fixation","","","","","","","","","","","","","",""
"learning-trial","87","513947","0.0-9.0-2.0-1.0","1574","1","2","""event"",""trial"",""time""
""fullscreenenter"",""1"",""3347""
","
","
","""event"",""trial"",""time""
""fullscreenenter"",""1"",""3347""
","
","","","","","","1484.7000000476837","images/table2.png","","","learning","images/furniture_choice3.png","images/furniture_choice2.png","images/furniture_choice1.png","[2,1,0]","1","1","2","images/furniture_choice2.png","-1","furniture","","table","1","0"
"html-keyboard-response","88","514461","0.0-9.0-2.0-0.1","1574","1","2","""event"",""trial"",""time""
""fullscreenenter"",""1"",""3347""
","
","
","""event"",""trial"",""time""
""fullscreenenter"",""1"",""3347""
","
","","","","","","null","<div style=""font-size:60px;"">+</div>","null","","fixation","","","","","","","","","","","","","",""
"learning-trial","89","518476","0.0-9.0-2.0-1.1","1574","1","2","""event"",""trial"",""time""
""fullscreenenter"",""1"",""3347""
","
","
","""event"",""trial"",""time""
""fullscreenenter"",""1"",""3347""
","
","","","","","","870.2000000476837","images/bed2.png","","","learning","images/furniture_choice1.png","images/furniture_choice3.png","images/furniture_choice2.png","[0,2,1]","2","1","1","images/furniture_choice1.png","1","furniture","","bed","1","0"
"html-keyboard-response","90","518977","0.0-9.0-2.0-0.2","1574","1","2","""event"",""trial"",""time""
""fullscreenenter"",""1"",""3347""
","
","
","""event"",""trial"",""time""
""fullscreenenter"",""1"",""3347""
","
","","","","","","null","<div style=""font-size:60px;"">+</div>","null","","fixation","","","","","","","","","","","","","",""
"learning-trial","91","522984","0.0-9.0-2.0-1.2","1574","1","2","""event"",""trial"",""time""
""fullscreenenter"",""1"",""3347""
","
","
","""event"",""trial"",""time""
""fullscreenenter"",""1"",""3347""
","
","","","","","","682.6999999284744","images/chair2.png","","","learning","images/furniture_choice1.png","images/furniture_choice2.png","images/furniture_choice3.png","[0,1,2]","0","0","3","images/furniture_choice3.png","-1","furniture","","chair","1","0"
"html-keyboard-response","92","523498","0.0-9.0-2.0-0.3","1574","1","2","""event"",""trial"",""time""
""fullscreenenter"",""1"",""3347""
","
","
","""event"",""trial"",""time""
""fullscreenenter"",""1"",""3347""
","
","","","","","","null","<div style=""font-size:60px;"">+</div>","null","","fixation","","","","","","","","","","","","","",""
"learning-trial","93","527505","0.0-9.0-2.0-1.3","1574","1","2","""event"",""trial"",""time""
""fullscreenenter"",""1"",""3347""
","
","
","""event"",""trial"",""time""
""fullscreenenter"",""1"",""3347""
","
","","","","","","889.7000000476837","images/bed2.png","","","learning","images/furniture_choice1.png","images/furniture_choice2.png","images/furniture_choice3.png","[0,1,2]","2","2","1","images/furniture_choice1.png","-1","furniture","","bed","1","0"
"html-keyboard-response","94","528017","0.0-9.0-2.0-0.4","1574","1","2","""event"",""trial"",""time""
""fullscreenenter"",""1"",""3347""
","
","
","""event"",""trial"",""time""
""fullscreenenter"",""1"",""3347""
","
","","","","","","null","<div style=""font-size:60px;"">+</div>","null","","fixation","","","","","","","","","","","","","",""
"learning-trial","95","532021","0.0-9.0-2.0-1.4","1574","1","2","""event"",""trial"",""time""
""fullscreenenter"",""1"",""3347""
","
","
","""event"",""trial"",""time""
""fullscreenenter"",""1"",""3347""
","
","","","","","","1234.5","images/table2.png","","","learning","images/furniture_choice1.png","images/furniture_choice2.png","images/furniture_choice3.png","[0,1,2]","1","1","1","images/furniture_choice1.png","-1","furniture","","table","1","0"
"html-keyboard-response","96","532536","0.0-9.0-2.0-0.5","1574","1","2","""event"",""trial"",""time""
""fullscreenenter"",""1"",""3347""
","
","
","""event"",""trial"",""time""
""fullscreenenter"",""1"",""3347""
","
","","","","","","null","<div style=""font-size:60px;"">+</div>","null","","fixation","","","","","","","","","","","","","",""
"learning-trial","97","536539","0.0-9.0-2.0-1.5","1574","1","2","""event"",""trial"",""time""
""fullscreenenter"",""1"",""3347""
","
","
","""event"",""trial"",""time""
""fullscreenenter"",""1"",""3347""
","
","","","","","","1363.3999999761581","images/bed3.png","","","learning","images/furniture_choice1.png","images/furniture_choice2.png","images/furniture_choice3.png","[0,1,2]","2","2","2","images/furniture_choice2.png","1","furniture","","bed","1","0"
"html-keyboard-response","98","537052","0.0-9.0-2.0-0.6","1574","1","2","""event"",""trial"",""time""
""fullscreenenter"",""1"",""3347""
","
","
","""event"",""trial"",""time""
""fullscreenenter"",""1"",""3347""
","
","","","","","","null","<div style=""font-size:60px;"">+</div>","null","","fixation","","","","","","","","","","","","","",""
"learning-trial","99","541055","0.0-9.0-2.0-1.6","1574","1","2","""event"",""trial"",""time""
""fullscreenenter"",""1"",""3347""
","
","
","""event"",""trial"",""time""
""fullscreenenter"",""1"",""3347""
","
","","","","","","1567.5","images/table4.png","","","learning","images/furniture_choice1.png","images/furniture_choice3.png","images/furniture_choice2.png","[0,2,1]","1","2","1","images/furniture_choice1.png","-1","furniture","","table","1","0"
"html-keyboard-response","100","541556","0.0-9.0-2.0-0.7","1574","1","2","""event"",""trial"",""time""
""fullscreenenter"",""1"",""3347""
","
","
","""event"",""trial"",""time""
""fullscreenenter"",""1"",""3347""
","
","","","","","","null","<div style=""font-size:60px;"">+</div>","null","","fixation","","","","","","","","","","","","","",""
"learning-trial","101","545559","0.0-9.0-2.0-1.7","1574","1","2","""event"",""trial"",""time""
""fullscreenenter"",""1"",""3347""
","
","
","""event"",""trial"",""time""
""fullscreenenter"",""1"",""3347""
","
","","","","","","367.8000000715256","images/bed4.png","","","learning","images/furniture_choice3.png","images/furniture_choice2.png","images/furniture_choice1.png","[2,1,0]","2","0","3","images/furniture_choice1.png","1","furniture","","bed","1","0"
"html-keyboard-response","102","546060","0.0-9.0-2.0-0.8","1574","1","2","""event"",""trial"",""time""
""fullscreenenter"",""1"",""3347""
","
","
","""event"",""trial"",""time""
""fullscreenenter"",""1"",""3347""
","
","","","","","","null","<div style=""font-size:60px;"">+</div>","null","","fixation","","","","","","","","","","","","","",""
"learning-trial","103","550063","0.0-9.0-2.0-1.8","1574","1","2","""event"",""trial"",""time""
""fullscreenenter"",""1"",""3347""
","
","
","""event"",""trial"",""time""
""fullscreenenter"",""1"",""3347""
","
","","","","","","920","images/table2.png","","","learning","images/furniture_choice1.png","images/furniture_choice3.png","images/furniture_choice2.png","[0,2,1]","1","2","2","images/furniture_choice3.png","-1","furniture","","table","1","0"
"html-keyboard-response","104","550564","0.0-9.0-2.0-0.9","1574","1","2","""event"",""trial"",""time""
""fullscreenenter"",""1"",""3347""
","
","
","""event"",""trial"",""time""
""fullscreenenter"",""1"",""3347""
","
","","","","","","null","<div style=""font-size:60px;"">+</div>","null","","fixation","","","","","","","","","","","","","",""
"learning-trial","105","554567","0.0-9.0-2.0-1.9","1574","1","2","""event"",""trial"",""time""
""fullscreenenter"",""1"",""3347""
","
","
","""event"",""trial"",""time""
""fullscreenenter"",""1"",""3347""
","
","","","","","","583.3000000715256","images/bed2.png","","","learning","images/furniture_choice2.png","images/furniture_choice1.png","images/furniture_choice3.png","[1,0,2]","2","2","1","images/furniture_choice2.png","-1","furniture","","bed","1","0"
"html-keyboard-response","106","555068","0.0-9.0-2.0-0.10","1574","1","2","""event"",""trial"",""time""
""fullscreenenter"",""1"",""3347""
","
","
","""event"",""trial"",""time""
""fullscreenenter"",""1"",""3347""
","
","","","","","","null","<div style=""font-size:60px;"">+</div>","null","","fixation","","","","","","","","","","","","","",""
"learning-trial","107","559071","0.0-9.0-2.0-1.10","1574","1","2","""event"",""trial"",""time""
""fullscreenenter"",""1"",""3347""
","
","
","""event"",""trial"",""time""
""fullscreenenter"",""1"",""3347""
","
","","","","","","1047.5999999046326","images/chair2.png","","","learning","images/furniture_choice2.png","images/furniture_choice3.png","images/furniture_choice1.png","[1,2,0]","0","2","2","images/furniture_choice3.png","1","furniture","","chair","1","0"
"html-keyboard-response","108","559572","0.0-9.0-2.0-0.11","1574","1","2","""event"",""trial"",""time""
""fullscreenenter"",""1"",""3347""
","
","
","""event"",""trial"",""time""
""fullscreenenter"",""1"",""3347""
","
","","","","","","null","<div style=""font-size:60px;"">+</div>","null","","fixation","","","","","","","","","","","","","",""
"learning-trial","109","563575","0.0-9.0-2.0-1.11","1574","1","2","""event"",""trial"",""time""
""fullscreenenter"",""1"",""3347""
","
","
","""event"",""trial"",""time""
""fullscreenenter"",""1"",""3347""
","
","","","","","","695.6000000238419","images/table3.png","","","learning","images/furniture_choice1.png","images/furniture_choice3.png","images/furniture_choice2.png","[0,2,1]","1","2","3","images/furniture_choice2.png","1","furniture","","table","1","0"
"html-keyboard-response","110","564077","0.0-9.0-2.0-0.12","1574","1","2","""event"",""trial"",""time""
""fullscreenenter"",""1"",""3347""
","
","
","""event"",""trial"",""time""
""fullscreenenter"",""1"",""3347""
","
","","","","","","null","<div style=""font-size:60px;"">+</div>","null","","fixation","","","","","","","","","","","","","",""
"learning-trial","111","568079","0.0-9.0-2.0-1.12","1574","1","2","""event"",""trial"",""time""
""fullscreenenter"",""1"",""3347""
","
","
","""event"",""trial"",""time""
""fullscreenenter"",""1"",""3347""
","
","","","","","","647.7000000476837","images/table3.png","","","learning","images/furniture_choice2.png","images/furniture_choice3.png","images/furniture_choice1.png","[1,2,0]","1","0","3","images/furniture_choice1.png","-1","furniture","","table","1","0"
"html-keyboard-response","112","568581","0.0-9.0-2.0-0.13","1574","1","2","""event"",""trial"",""time""
""fullscreenenter"",""1"",""3347""
","
","
","""event"",""trial"",""time""
""fullscreenenter"",""1"",""3347""
","
","","","","","","null","<div style=""font-size:60px;"">+</div>","null","","fixation","","","","","","","","","","","","","",""
"learning-trial","113","572583","0.0-9.0-2.0-1.13","1574","1","2","""event"",""trial"",""time""
""fullscreenenter"",""1"",""3347""
","
","
","""event"",""trial"",""time""
""fullscreenenter"",""1"",""3347""
","
","","","","","","798.7999999523163","images/bed4.png","","","learning","images/furniture_choice3.png","images/furniture_choice2.png","images/furniture_choice1.png","[2,1,0]","2","0","1","images/furniture_choice3.png","1","furniture","","bed","1","0"
"html-keyboard-response","114","573085","0.0-9.0-2.0-0.14","1574","1","2","""event"",""trial"",""time""
""fullscreenenter"",""1"",""3347""
","
","
","""event"",""trial"",""time""
""fullscreenenter"",""1"",""3347""
","
","","","","","","null","<div style=""font-size:60px;"">+</div>","null","","fixation","","","","","","","","","","","","","",""
"learning-trial","115","577087","0.0-9.0-2.0-1.14","1574","1","2","""event"",""trial"",""time""
""fullscreenenter"",""1"",""3347""
","
","
","""event"",""trial"",""time""
""fullscreenenter"",""1"",""3347""
","
","","","","","","927.7999999523163","images/chair2.png","","","learning","images/furniture_choice1.png","images/furniture_choice3.png","images/furniture_choice2.png","[0,2,1]","0","0","2","images/furniture_choice3.png","-1","furniture","","chair","1","0"
"html-keyboard-response","116","577603","0.0-9.0-2.0-0.15","1574","1","2","""event"",""trial"",""time""
""fullscreenenter"",""1"",""3347""
","
","
","""event"",""trial"",""time""
""fullscreenenter"",""1"",""3347""
","
","","","","","","null","<div style=""font-size:60px;"">+</div>","null","","fixation","","","","","","","","","","","","","",""
"learning-trial","117","581605","0.0-9.0-2.0-1.15","1574","1","2","""event"",""trial"",""time""
""fullscreenenter"",""1"",""3347""
","
","
","""event"",""trial"",""time""
""fullscreenenter"",""1"",""3347""
","
","","","","","","265","images/chair4.png","","","learning","images/furniture_choice2.png","images/furniture_choice3.png","images/furniture_choice1.png","[1,2,0]","0","2","3","images/furniture_choice1.png","1","furniture","","chair","1","0"
"html-keyboard-response","118","582107","0.0-9.0-2.0-0.16","1574","1","2","""event"",""trial"",""time""
""fullscreenenter"",""1"",""3347""
","
","
","""event"",""trial"",""time""
""fullscreenenter"",""1"",""3347""
","
","","","","","","null","<div style=""font-size:60px;"">+</div>","null","","fixation","","","","","","","","","","","","","",""
"learning-trial","119","586109","0.0-9.0-2.0-1.16","1574","1","2","""event"",""trial"",""time""
""fullscreenenter"",""1"",""3347""
","
","
","""event"",""trial"",""time""
""fullscreenenter"",""1"",""3347""
","
","","","","","","1144.7999999523163","images/table2.png","","","learning","images/furniture_choice3.png","images/furniture_choice1.png","images/furniture_choice2.png","[2,0,1]","1","2","1","images/furniture_choice3.png","1","furniture","","table","1","0"
"html-keyboard-response","120","586610","0.0-9.0-2.0-0.17","1574","1","2","""event"",""trial"",""time""
""fullscreenenter"",""1"",""3347""
","
","
","""event"",""trial"",""time""
""fullscreenenter"",""1"",""3347""
","
","","","","","","null","<div style=""font-size:60px;"">+</div>","null","","fixation","","","","","","","","","","","","","",""
"learning-trial","121","590612","0.0-9.0-2.0-1.17","1574","1","2","""event"",""trial"",""time""
""fullscreenenter"",""1"",""3347""
","
","
","""event"",""trial"",""time""
""fullscreenenter"",""1"",""3347""
","
","","","","","","225.60000002384186","images/chair4.png","","","learning","images/furniture_choice2.png","images/furniture_choice1.png","images/furniture_choice3.png","[1,0,2]","0","1","2","images/furniture_choice1.png","1","furniture","","chair","1","0"
"html-keyboard-response","122","591114","0.0-9.0-2.0-0.18","1574","1","2","""event"",""trial"",""time""
""fullscreenenter"",""1"",""3347""
","
","
","""event"",""trial"",""time""
""fullscreenenter"",""1"",""3347""
","
","","","","","","null","<div style=""font-size:60px;"">+</div>","null","","fixation","","","","","","","","","","","","","",""
"learning-trial","123","595116","0.0-9.0-2.0-1.18","1574","1","2","""event"",""trial"",""time""
""fullscreenenter"",""1"",""3347""
","
","
","""event"",""trial"",""time""
""fullscreenenter"",""1"",""3347""
","
","","","","","","506.7999999523163","images/chair1.png","","","learning","images/furniture_choice2.png","images/furniture_choice3.png","images/furniture_choice1.png","[1,2,0]","0","2","2","images/furniture_choice3.png","-1","furniture","","chair","1","0"
"html-keyboard-response","124","595618","0.0-9.0-2.0-0.19","1574","1","2","""event"",""trial"",""time""
""fullscreenenter"",""1"",""3347""
","
","
","""event"",""trial"",""time""
""fullscreenenter"",""1"",""3347""
","
","","","","","","null","<div style=""font-size:60px;"">+</div>","null","","fixation","","","","","","","","","","","","","",""
"learning-trial","125","599621","0.0-9.0-2.0-1.19","1574","1","2","""event"",""trial"",""time""
""fullscreenenter"",""1"",""3347""
","
","
","""event"",""trial"",""time""
""fullscreenenter"",""1"",""3347""
","
","","","","","","321.7999999523163","images/chair1.png","","","learning","images/furniture_choice3.png","images/furniture_choice1.png","images/furniture_choice2.png","[2,0,1]","0","1","1","images/furniture_choice3.png","-1","furniture","","chair","1","0"
"html-keyboard-response","126","600123","0.0-9.0-2.0-0.20","1574","1","2","""event"",""trial"",""time""
""fullscreenenter"",""1"",""3347""
","
","
","""event"",""trial"",""time""
""fullscreenenter"",""1"",""3347""
","
","","","","","","null","<div style=""font-size:60px;"">+</div>","null","","fixation","","","","","","","","","","","","","",""
"learning-trial","127","604127","0.0-9.0-2.0-1.20","1574","1","2","""event"",""trial"",""time""
""fullscreenenter"",""1"",""3347""
","
","
","""event"",""trial"",""time""
""fullscreenenter"",""1"",""3347""
","
","","","","","","280","images/chair2.png","","","learning","images/furniture_choice1.png","images/furniture_choice2.png","images/furniture_choice3.png","[0,1,2]","0","0","3","images/furniture_choice3.png","1","furniture","","chair","1","0"
"html-keyboard-response","128","604629","0.0-9.0-2.0-0.21","1574","1","2","""event"",""trial"",""time""
""fullscreenenter"",""1"",""3347""
","
","
","""event"",""trial"",""time""
""fullscreenenter"",""1"",""3347""
","
","","","","","","null","<div style=""font-size:60px;"">+</div>","null","","fixation","","","","","","","","","","","","","",""
"learning-trial","129","608632","0.0-9.0-2.0-1.21","1574","1","2","""event"",""trial"",""time""
""fullscreenenter"",""1"",""3347""
","
","
","""event"",""trial"",""time""
""fullscreenenter"",""1"",""3347""
","
","","","","","","326.39999997615814","images/table2.png","","","learning","images/furniture_choice2.png","images/furniture_choice3.png","images/furniture_choice1.png","[1,2,0]","1","0","2","images/furniture_choice3.png","1","furniture","","table","1","0"
"html-keyboard-response","130","609133","0.0-9.0-2.0-0.22","1574","1","2","""event"",""trial"",""time""
""fullscreenenter"",""1"",""3347""
","
","
","""event"",""trial"",""time""
""fullscreenenter"",""1"",""3347""
","
","","","","","","null","<div style=""font-size:60px;"">+</div>","null","","fixation","","","","","","","","","","","","","",""
"learning-trial","131","613136","0.0-9.0-2.0-1.22","1574","1","2","""event"",""trial"",""time""
""fullscreenenter"",""1"",""3347""
","
","
","""event"",""trial"",""time""
""fullscreenenter"",""1"",""3347""
","
","","","","","","390.39999997615814","images/table3.png","","","learning","images/furniture_choice3.png","images/furniture_choice1.png","images/furniture_choice2.png","[2,0,1]","1","2","1","images/furniture_choice3.png","-1","furniture","","table","1","0"
"html-keyboard-response","132","613638","0.0-9.0-2.0-0.23","1574","1","2","""event"",""trial"",""time""
""fullscreenenter"",""1"",""3347""
","
","
","""event"",""trial"",""time""
""fullscreenenter"",""1"",""3347""
","
","","","","","","null","<div style=""font-size:60px;"">+</div>","null","","fixation","","","","","","","","","","","","","",""
"learning-trial","133","617640","0.0-9.0-2.0-1.23","1574","1","2","""event"",""trial"",""time""
""fullscreenenter"",""1"",""3347""
","
","
","""event"",""trial"",""time""
""fullscreenenter"",""1"",""3347""
","
","","","","","","77.5","images/chair4.png","","","learning","images/furniture_choice3.png","images/furniture_choice1.png","images/furniture_choice2.png","[2,0,1]","0","1","3","images/furniture_choice2.png","-1","furniture","","chair","1","0"
"html-keyboard-response","134","618143","0.0-9.0-2.0-0.24","1574","1","2","""event"",""trial"",""time""
""fullscreenenter"",""1"",""3347""
","
","
","""event"",""trial"",""time""
""fullscreenenter"",""1"",""3347""
","
","","","","","","null","<div style=""font-size:60px;"">+</div>","null","","fixation","","","","","","","","","","","","","",""
"learning-trial","135","622146","0.0-9.0-2.0-1.24","1574","1","2","""event"",""trial"",""time""
""fullscreenenter"",""1"",""3347""
","
","
","""event"",""trial"",""time""
""fullscreenenter"",""1"",""3347""
","
","","","","","","228.60000002384186","images/bed3.png","","","learning","images/furniture_choice1.png","images/furniture_choice2.png","images/furniture_choice3.png","[0,1,2]","2","2","2","images/furniture_choice2.png","-1","furniture","","bed","1","0"
"html-keyboard-response","136","622648","0.0-9.0-2.0-0.25","1574","1","2","""event"",""trial"",""time""
""fullscreenenter"",""1"",""3347""
","
","
","""event"",""trial"",""time""
""fullscreenenter"",""1"",""3347""
","
","","","","","","null","<div style=""font-size:60px;"">+</div>","null","","fixation","","","","","","","","","","","","","",""
"learning-trial","137","626649","0.0-9.0-2.0-1.25","1574","1","2","""event"",""trial"",""time""
""fullscreenenter"",""1"",""3347""
","
","
","""event"",""trial"",""time""
""fullscreenenter"",""1"",""3347""
","
","","","","","","268.3000000715256","images/bed4.png","","","learning","images/furniture_choice3.png","images/furniture_choice2.png","images/furniture_choice1.png","[2,1,0]","2","0","2","images/furniture_choice2.png","-1","furniture","","bed","1","0"
"html-keyboard-response","138","627151","0.0-9.0-2.0-0.26","1574","1","2","""event"",""trial"",""time""
""fullscreenenter"",""1"",""3347""
","
","
","""event"",""trial"",""time""
""fullscreenenter"",""1"",""3347""
","
","","","","","","null","<div style=""font-size:60px;"">+</div>","null","","fixation","","","","","","","","","","","","","",""
"learning-trial","139","631153","0.0-9.0-2.0-1.26","1574","1","2","""event"",""trial"",""time""
""fullscreenenter"",""1"",""3347""
","
","
","""event"",""trial"",""time""
""fullscreenenter"",""1"",""3347""
","
","","","","","","348.89999997615814","images/bed2.png","","","learning","images/furniture_choice3.png","images/furniture_choice2.png","images/furniture_choice1.png","[2,1,0]","2","0","2","images/furniture_choice2.png","-1","furniture","","bed","1","0"
"html-keyboard-response","140","631654","0.0-9.0-2.0-0.27","1574","1","2","""event"",""trial"",""time""
""fullscreenenter"",""1"",""3347""
","
","
","""event"",""trial"",""time""
""fullscreenenter"",""1"",""3347""
","
","","","","","","null","<div style=""font-size:60px;"">+</div>","null","","fixation","","","","","","","","","","","","","",""
"learning-trial","141","635657","0.0-9.0-2.0-1.27","1574","1","2","""event"",""trial"",""time""
""fullscreenenter"",""1"",""3347""
","
","
","""event"",""trial"",""time""
""fullscreenenter"",""1"",""3347""
","
","","","","","","380.7999999523163","images/chair4.png","","","learning","images/furniture_choice1.png","images/furniture_choice2.png","images/furniture_choice3.png","[0,1,2]","0","0","1","images/furniture_choice1.png","1","furniture","","chair","1","0"
"html-keyboard-response","142","636158","0.0-9.0-2.0-0.28","1574","1","2","""event"",""trial"",""time""
""fullscreenenter"",""1"",""3347""
","
","
","""event"",""trial"",""time""
""fullscreenenter"",""1"",""3347""
","
","","","","","","null","<div style=""font-size:60px;"">+</div>","null","","fixation","","","","","","","","","","","","","",""
"learning-trial","143","640160","0.0-9.0-2.0-1.28","1574","1","2","""event"",""trial"",""time""
""fullscreenenter"",""1"",""3347""
","
","
","""event"",""trial"",""time""
""fullscreenenter"",""1"",""3347""
","
","","","","","","69.10000002384186","images/table4.png","","","learning","images/furniture_choice2.png","images/furniture_choice3.png","images/furniture_choice1.png","[1,2,0]","1","0","3","images/furniture_choice1.png","1","furniture","","table","1","0"
"html-keyboard-response","144","640661","0.0-9.0-2.0-0.29","1574","1","2","""event"",""trial"",""time""
""fullscreenenter"",""1"",""3347""
","
","
","""event"",""trial"",""time""
""fullscreenenter"",""1"",""3347""
","
","","","","","","null","<div style=""font-size:60px;"">+</div>","null","","fixation","","","","","","","","","","","","","",""
"learning-trial","145","644663","0.0-9.0-2.0-1.29","1574","1","2","""event"",""trial"",""time""
""fullscreenenter"",""1"",""3347""
","
","
","""event"",""trial"",""time""
""fullscreenenter"",""1"",""3347""
","
","","","","","","966.5999999046326","images/chair4.png","","","learning","images/furniture_choice2.png","images/furniture_choice3.png","images/furniture_choice1.png","[1,2,0]","0","2","2","images/furniture_choice3.png","-1","furniture","","chair","1","0"
"html-keyboard-response","146","645165","0.0-9.0-2.0-0.30","1574","1","2","""event"",""trial"",""time""
""fullscreenenter"",""1"",""3347""
","
","
","""event"",""trial"",""time""
""fullscreenenter"",""1"",""3347""
","
","","","","","","null","<div style=""font-size:60px;"">+</div>","null","","fixation","","","","","","","","","","","","","",""
"learning-trial","147","649167","0.0-9.0-2.0-1.30","1574","1","2","""event"",""trial"",""time""
""fullscreenenter"",""1"",""3347""
","
","
","""event"",""trial"",""time""
""fullscreenenter"",""1"",""3347""
","
","","","","","","278.5","images/bed2.png","","","learning","images/furniture_choice1.png","images/furniture_choice3.png","images/furniture_choice2.png","[0,2,1]","2","1","1","images/furniture_choice1.png","-1","furniture","","bed","1","0"
"html-keyboard-response","148","649669","0.0-9.0-2.0-0.31","1574","1","2","""event"",""trial"",""time""
""fullscreenenter"",""1"",""3347""
","
","
","""event"",""trial"",""time""
""fullscreenenter"",""1"",""3347""
","
","","","","","","null","<div style=""font-size:60px;"">+</div>","null","","fixation","","","","","","","","","","","","","",""
"learning-trial","149","653671","0.0-9.0-2.0-1.31","1574","1","2","""event"",""trial"",""time""
""fullscreenenter"",""1"",""3347""
","
","
","""event"",""trial"",""time""
""fullscreenenter"",""1"",""3347""
","
","","","","","","6.5","images/table3.png","","","learning","images/furniture_choice2.png","images/furniture_choice3.png","images/furniture_choice1.png","[1,2,0]","1","0","3","images/furniture_choice1.png","-1","furniture","","table","1","0"
"html-keyboard-response","150","654172","0.0-9.0-2.0-0.32","1574","1","2","""event"",""trial"",""time""
""fullscreenenter"",""1"",""3347""
","
","
","""event"",""trial"",""time""
""fullscreenenter"",""1"",""3347""
","
","","","","","","null","<div style=""font-size:60px;"">+</div>","null","","fixation","","","","","","","","","","","","","",""
"learning-trial","151","658175","0.0-9.0-2.0-1.32","1574","1","2","""event"",""trial"",""time""
""fullscreenenter"",""1"",""3347""
","
","
","""event"",""trial"",""time""
""fullscreenenter"",""1"",""3347""
","
","","","","","","374.89999997615814","images/bed4.png","","","learning","images/furniture_choice1.png","images/furniture_choice2.png","images/furniture_choice3.png","[0,1,2]","2","2","2","images/furniture_choice2.png","-1","furniture","","bed","1","0"
"html-keyboard-response","152","658677","0.0-9.0-2.0-0.33","1574","1","2","""event"",""trial"",""time""
""fullscreenenter"",""1"",""3347""
","
","
","""event"",""trial"",""time""
""fullscreenenter"",""1"",""3347""
","
","","","","","","null","<div style=""font-size:60px;"">+</div>","null","","fixation","","","","","","","","","","","","","",""
"learning-trial","153","662679","0.0-9.0-2.0-1.33","1574","1","2","""event"",""trial"",""time""
""fullscreenenter"",""1"",""3347""
","
","
","""event"",""trial"",""time""
""fullscreenenter"",""1"",""3347""
","
","","","","","","358.7000000476837","images/chair1.png","","","learning","images/furniture_choice2.png","images/furniture_choice1.png","images/furniture_choice3.png","[1,0,2]","0","1","1","images/furniture_choice2.png","-1","furniture","","chair","1","0"
"html-keyboard-response","154","663181","0.0-9.0-2.0-0.34","1574","1","2","""event"",""trial"",""time""
""fullscreenenter"",""1"",""3347""
","
","
","""event"",""trial"",""time""
""fullscreenenter"",""1"",""3347""
","
","","","","","","null","<div style=""font-size:60px;"">+</div>","null","","fixation","","","","","","","","","","","","","",""
"learning-trial","155","667183","0.0-9.0-2.0-1.34","1574","1","2","""event"",""trial"",""time""
""fullscreenenter"",""1"",""3347""
","
","
","""event"",""trial"",""time""
""fullscreenenter"",""1"",""3347""
","
","","","","","","303.5","images/bed4.png","","","learning","images/furniture_choice3.png","images/furniture_choice2.png","images/furniture_choice1.png","[2,1,0]","2","0","3","images/furniture_choice1.png","-1","furniture","","bed","1","0"
"html-keyboard-response","156","667684","0.0-9.0-2.0-0.35","1574","1","2","""event"",""trial"",""time""
""fullscreenenter"",""1"",""3347""
","
","
","""event"",""trial"",""time""
""fullscreenenter"",""1"",""3347""
","
","","","","","","null","<div style=""font-size:60px;"">+</div>","null","","fixation","","","","","","","","","","","","","",""
"learning-trial","157","671686","0.0-9.0-2.0-1.35","1574","1","2","""event"",""trial"",""time""
""fullscreenenter"",""1"",""3347""
","
","
","""event"",""trial"",""time""
""fullscreenenter"",""1"",""3347""
","
","","","","","","72","images/bed2.png","","","learning","images/furniture_choice1.png","images/furniture_choice3.png","images/furniture_choice2.png","[0,2,1]","2","1","2","images/furniture_choice3.png","1","furniture","","bed","1","0"
"html-keyboard-response","158","672188","0.0-9.0-2.0-0.36","1574","1","2","""event"",""trial"",""time""
""fullscreenenter"",""1"",""3347""
","
","
","""event"",""trial"",""time""
""fullscreenenter"",""1"",""3347""
","
","","","","","","null","<div style=""font-size:60px;"">+</div>","null","","fixation","","","","","","","","","","","","","",""
"learning-trial","159","676190","0.0-9.0-2.0-1.36","1574","1","2","""event"",""trial"",""time""
""fullscreenenter"",""1"",""3347""
","
","
","""event"",""trial"",""time""
""fullscreenenter"",""1"",""3347""
","
","","","","","","239.89999997615814","images/bed2.png","","","learning","images/furniture_choice2.png","images/furniture_choice1.png","images/furniture_choice3.png","[1,0,2]","2","2","1","images/furniture_choice2.png","-1","furniture","","bed","1","0"
"html-keyboard-response","160","676692","0.0-9.0-2.0-0.37","1574","1","2","""event"",""trial"",""time""
""fullscreenenter"",""1"",""3347""
","
","
","""event"",""trial"",""time""
""fullscreenenter"",""1"",""3347""
","
","","","","","","null","<div style=""font-size:60px;"">+</div>","null","","fixation","","","","","","","","","","","","","",""
"learning-trial","161","680695","0.0-9.0-2.0-1.37","1574","1","2","""event"",""trial"",""time""
""fullscreenenter"",""1"",""3347""
","
","
","""event"",""trial"",""time""
""fullscreenenter"",""1"",""3347""
","
","","","","","","144.09999990463257","images/chair2.png","","","learning","images/furniture_choice1.png","images/furniture_choice3.png","images/furniture_choice2.png","[0,2,1]","0","0","2","images/furniture_choice3.png","-1","furniture","","chair","1","0"
"html-keyboard-response","162","681196","0.0-9.0-2.0-0.38","1574","1","2","""event"",""trial"",""time""
""fullscreenenter"",""1"",""3347""
","
","
","""event"",""trial"",""time""
""fullscreenenter"",""1"",""3347""
","
","","","","","","null","<div style=""font-size:60px;"">+</div>","null","","fixation","","","","","","","","","","","","","",""
"learning-trial","163","685198","0.0-9.0-2.0-1.38","1574","1","2","""event"",""trial"",""time""
""fullscreenenter"",""1"",""3347""
","
","
","""event"",""trial"",""time""
""fullscreenenter"",""1"",""3347""
","
","","","","","","296.10000002384186","images/bed3.png","","","learning","images/furniture_choice2.png","images/furniture_choice3.png","images/furniture_choice1.png","[1,2,0]","2","1","3","images/furniture_choice1.png","-1","furniture","","bed","1","0"
"html-keyboard-response","164","685699","0.0-9.0-2.0-0.39","1574","1","2","""event"",""trial"",""time""
""fullscreenenter"",""1"",""3347""
","
","
","""event"",""trial"",""time""
""fullscreenenter"",""1"",""3347""
","
","","","","","","null","<div style=""font-size:60px;"">+</div>","null","","fixation","","","","","","","","","","","","","",""
"learning-trial","165","689702","0.0-9.0-2.0-1.39","1574","1","2","""event"",""trial"",""time""
""fullscreenenter"",""1"",""3347""
","
","
","""event"",""trial"",""time""
""fullscreenenter"",""1"",""3347""
","
","","","","","","456.7000000476837","images/table4.png","","","learning","images/furniture_choice2.png","images/furniture_choice3.png","images/furniture_choice1.png","[1,2,0]","1","0","3","images/furniture_choice1.png","-1","furniture","","table","1","0"
"html-keyboard-response","166","690203","0.0-9.0-2.0-0.40","1574","1","2","""event"",""trial"",""time""
""fullscreenenter"",""1"",""3347""
","
","
","""event"",""trial"",""time""
""fullscreenenter"",""1"",""3347""
","
","","","","","","null","<div style=""font-size:60px;"">+</div>","null","","fixation","","","","","","","","","","","","","",""
"learning-trial","167","694205","0.0-9.0-2.0-1.40","1574","1","2","""event"",""trial"",""time""
""fullscreenenter"",""1"",""3347""
","
","
","""event"",""trial"",""time""
""fullscreenenter"",""1"",""3347""
","
","","","","","","304.60000002384186","images/table2.png","","","learning","images/furniture_choice1.png","images/furniture_choice3.png","images/furniture_choice2.png","[0,2,1]","1","2","1","images/furniture_choice1.png","-1","furniture","","table","1","0"
"html-keyboard-response","168","694715","0.0-9.0-2.0-0.41","1574","1","2","""event"",""trial"",""time""
""fullscreenenter"",""1"",""3347""
","
","
","""event"",""trial"",""time""
""fullscreenenter"",""1"",""3347""
","
","","","","","","null","<div style=""font-size:60px;"">+</div>","null","","fixation","","","","","","","","","","","","","",""
"learning-trial","169","698718","0.0-9.0-2.0-1.41","1574","1","2","""event"",""trial"",""time""
""fullscreenenter"",""1"",""3347""
","
","
","""event"",""trial"",""time""
""fullscreenenter"",""1"",""3347""
","
","","","","","","328.7999999523163","images/bed4.png","","","learning","images/furniture_choice3.png","images/furniture_choice2.png","images/furniture_choice1.png","[2,1,0]","2","0","2","images/furniture_choice2.png","-1","furniture","","bed","1","0"
"html-keyboard-response","170","699219","0.0-9.0-2.0-0.42","1574","1","2","""event"",""trial"",""time""
""fullscreenenter"",""1"",""3347""
","
","
","""event"",""trial"",""time""
""fullscreenenter"",""1"",""3347""
","
","","","","","","null","<div style=""font-size:60px;"">+</div>","null","","fixation","","","","","","","","","","","","","",""
"learning-trial","171","703221","0.0-9.0-2.0-1.42","1574","1","2","""event"",""trial"",""time""
""fullscreenenter"",""1"",""3347""
","
","
","""event"",""trial"",""time""
""fullscreenenter"",""1"",""3347""
","
","","","","","","384.60000002384186","images/chair4.png","","","learning","images/furniture_choice2.png","images/furniture_choice3.png","images/furniture_choice1.png","[1,2,0]","0","2","3","images/furniture_choice1.png","1","furniture","","chair","1","0"
"html-keyboard-response","172","703723","0.0-9.0-2.0-0.43","1574","1","2","""event"",""trial"",""time""
""fullscreenenter"",""1"",""3347""
","
","
","""event"",""trial"",""time""
""fullscreenenter"",""1"",""3347""
","
","","","","","","null","<div style=""font-size:60px;"">+</div>","null","","fixation","","","","","","","","","","","","","",""
"learning-trial","173","707726","0.0-9.0-2.0-1.43","1574","1","2","""event"",""trial"",""time""
""fullscreenenter"",""1"",""3347""
","
","
","""event"",""trial"",""time""
""fullscreenenter"",""1"",""3347""
","
","","","","","","552.6999999284744","images/table4.png","","","learning","images/furniture_choice2.png","images/furniture_choice1.png","images/furniture_choice3.png","[1,0,2]","1","0","1","images/furniture_choice2.png","1","furniture","","table","1","0"
"html-keyboard-response","174","708227","0.0-9.0-2.0-0.44","1574","1","2","""event"",""trial"",""time""
""fullscreenenter"",""1"",""3347""
","
","
","""event"",""trial"",""time""
""fullscreenenter"",""1"",""3347""
","
","","","","","","null","<div style=""font-size:60px;"">+</div>","null","","fixation","","","","","","","","","","","","","",""
"learning-trial","175","712229","0.0-9.0-2.0-1.44","1574","1","2","""event"",""trial"",""time""
""fullscreenenter"",""1"",""3347""
","
","
","""event"",""trial"",""time""
""fullscreenenter"",""1"",""3347""
","
","","","","","","304.2999999523163","images/table3.png","","","learning","images/furniture_choice1.png","images/furniture_choice3.png","images/furniture_choice2.png","[0,2,1]","1","2","2","images/furniture_choice3.png","-1","furniture","","table","1","0"
"html-keyboard-response","176","712744","0.0-9.0-2.0-0.45","1574","1","2","""event"",""trial"",""time""
""fullscreenenter"",""1"",""3347""
","
","
","""event"",""trial"",""time""
""fullscreenenter"",""1"",""3347""
","
","","","","","","null","<div style=""font-size:60px;"">+</div>","null","","fixation","","","","","","","","","","","","","",""
"learning-trial","177","716747","0.0-9.0-2.0-1.45","1574","1","2","""event"",""trial"",""time""
""fullscreenenter"",""1"",""3347""
","
","
","""event"",""trial"",""time""
""fullscreenenter"",""1"",""3347""
","
","","","","","","244.20000004768372","images/bed3.png","","","learning","images/furniture_choice2.png","images/furniture_choice3.png","images/furniture_choice1.png","[1,2,0]","2","1","3","images/furniture_choice1.png","-1","furniture","","bed","1","0"
"html-keyboard-response","178","717262","0.0-9.0-2.0-0.46","1574","1","2","""event"",""trial"",""time""
""fullscreenenter"",""1"",""3347""
","
","
","""event"",""trial"",""time""
""fullscreenenter"",""1"",""3347""
","
","","","","","","null","<div style=""font-size:60px;"">+</div>","null","","fixation","","","","","","","","","","","","","",""
"learning-trial","179","721264","0.0-9.0-2.0-1.46","1574","1","2","""event"",""trial"",""time""
""fullscreenenter"",""1"",""3347""
","
","
","""event"",""trial"",""time""
""fullscreenenter"",""1"",""3347""
","
","","","","","","309.7000000476837","images/table4.png","","","learning","images/furniture_choice1.png","images/furniture_choice3.png","images/furniture_choice2.png","[0,2,1]","1","2","1","images/furniture_choice1.png","1","furniture","","table","1","0"
"html-keyboard-response","180","721766","0.0-9.0-2.0-0.47","1574","1","2","""event"",""trial"",""time""
""fullscreenenter"",""1"",""3347""
","
","
","""event"",""trial"",""time""
""fullscreenenter"",""1"",""3347""
","
","","","","","","null","<div style=""font-size:60px;"">+</div>","null","","fixation","","","","","","","","","","","","","",""
"learning-trial","181","725769","0.0-9.0-2.0-1.47","1574","1","2","""event"",""trial"",""time""
""fullscreenenter"",""1"",""3347""
","
","
","""event"",""trial"",""time""
""fullscreenenter"",""1"",""3347""
","
","","","","","","429","images/table4.png","","","learning","images/furniture_choice1.png","images/furniture_choice2.png","images/furniture_choice3.png","[0,1,2]","1","1","2","images/furniture_choice2.png","1","furniture","","table","1","0"
"html-keyboard-response","182","726271","0.0-9.0-2.0-0.48","1574","1","2","""event"",""trial"",""time""
""fullscreenenter"",""1"",""3347""
","
","
","""event"",""trial"",""time""
""fullscreenenter"",""1"",""3347""
","
","","","","","","null","<div style=""font-size:60px;"">+</div>","null","","fixation","","","","","","","","","","","","","",""
"learning-trial","183","730273","0.0-9.0-2.0-1.48","1574","1","2","""event"",""trial"",""time""
""fullscreenenter"",""1"",""3347""
","
","
","""event"",""trial"",""time""
""fullscreenenter"",""1"",""3347""
","
","","","","","","100.5","images/chair1.png","","","learning","images/furniture_choice1.png","images/furniture_choice3.png","images/furniture_choice2.png","[0,2,1]","0","0","3","images/furniture_choice2.png","-1","furniture","","chair","1","0"
"html-keyboard-response","184","730775","0.0-9.0-2.0-0.49","1574","1","2","""event"",""trial"",""time""
""fullscreenenter"",""1"",""3347""
","
","
","""event"",""trial"",""time""
""fullscreenenter"",""1"",""3347""
","
","","","","","","null","<div style=""font-size:60px;"">+</div>","null","","fixation","","","","","","","","","","","","","",""
"learning-trial","185","734778","0.0-9.0-2.0-1.49","1574","1","2","""event"",""trial"",""time""
""fullscreenenter"",""1"",""3347""
","
","
","""event"",""trial"",""time""
""fullscreenenter"",""1"",""3347""
","
","","","","","","836.8999999761581","images/table2.png","","","learning","images/furniture_choice2.png","images/furniture_choice1.png","images/furniture_choice3.png","[1,0,2]","1","0","1","images/furniture_choice2.png","-1","furniture","","table","1","0"
"html-keyboard-response","186","735280","0.0-9.0-2.0-0.50","1574","1","2","""event"",""trial"",""time""
""fullscreenenter"",""1"",""3347""
","
","
","""event"",""trial"",""time""
""fullscreenenter"",""1"",""3347""
","
","","","","","","null","<div style=""font-size:60px;"">+</div>","null","","fixation","","","","","","","","","","","","","",""
"learning-trial","187","739282","0.0-9.0-2.0-1.50","1574","1","2","""event"",""trial"",""time""
""fullscreenenter"",""1"",""3347""
","
","
","""event"",""trial"",""time""
""fullscreenenter"",""1"",""3347""
","
","","","","","","828.1999999284744","images/bed3.png","","","learning","images/furniture_choice1.png","images/furniture_choice3.png","images/furniture_choice2.png","[0,2,1]","2","1","2","images/furniture_choice3.png","1","furniture","","bed","1","0"
"html-keyboard-response","188","739783","0.0-9.0-2.0-0.51","1574","1","2","""event"",""trial"",""time""
""fullscreenenter"",""1"",""3347""
","
","
","""event"",""trial"",""time""
""fullscreenenter"",""1"",""3347""
","
","","","","","","null","<div style=""font-size:60px;"">+</div>","null","","fixation","","","","","","","","","","","","","",""
"learning-trial","189","743785","0.0-9.0-2.0-1.51","1574","1","2","""event"",""trial"",""time""
""fullscreenenter"",""1"",""3347""
""blur"",""190"",""744262""
","""event"",""trial"",""time""
""blur"",""190"",""744262""
","
","""event"",""trial"",""time""
""fullscreenenter"",""1"",""3347""
","
","","","","","","372.5","images/bed2.png","","","learning","images/furniture_choice1.png","images/furniture_choice3.png","images/furniture_choice2.png","[0,2,1]","2","1","2","images/furniture_choice3.png","-1","furniture","","bed","1","0"
"html-keyboard-response","190","744286","0.0-9.0-2.0-0.52","1574","1","2","""event"",""trial"",""time""
""fullscreenenter"",""1"",""3347""
""blur"",""190"",""744262""
""focus"",""191"",""746292""
","""event"",""trial"",""time""
""blur"",""190"",""744262""
","""event"",""trial"",""time""
""focus"",""191"",""746292""
","""event"",""trial"",""time""
""fullscreenenter"",""1"",""3347""
","
","","","","","","null","<div style=""font-size:60px;"">+</div>","null","","fixation","","","","","","","","","","","","","",""
"learning-trial","191","748291","0.0-9.0-2.0-1.52","1574","1","2","""event"",""trial"",""time""
""fullscreenenter"",""1"",""3347""
""blur"",""190"",""744262""
""focus"",""191"",""746292""
","""event"",""trial"",""time""
""blur"",""190"",""744262""
","""event"",""trial"",""time""
""focus"",""191"",""746292""
","""event"",""trial"",""time""
""fullscreenenter"",""1"",""3347""
","
","","","","","","2467.399999976158","images/chair1.png","","","learning","images/furniture_choice2.png","images/furniture_choice3.png","images/furniture_choice1.png","[1,2,0]","0","2","1","images/furniture_choice2.png","-1","furniture","","chair","1","0"
"html-keyboard-response","192","748793","0.0-9.0-2.0-0.53","1574","1","2","""event"",""trial"",""time""
""fullscreenenter"",""1"",""3347""
""blur"",""190"",""744262""
""focus"",""191"",""746292""
","""event"",""trial"",""time""
""blur"",""190"",""744262""
","""event"",""trial"",""time""
""focus"",""191"",""746292""
","""event"",""trial"",""time""
""fullscreenenter"",""1"",""3347""
","
","","","","","","null","<div style=""font-size:60px;"">+</div>","null","","fixation","","","","","","","","","","","","","",""
"learning-trial","193","752805","0.0-9.0-2.0-1.53","1574","1","2","""event"",""trial"",""time""
""fullscreenenter"",""1"",""3347""
""blur"",""190"",""744262""
""focus"",""191"",""746292""
","""event"",""trial"",""time""
""blur"",""190"",""744262""
","""event"",""trial"",""time""
""focus"",""191"",""746292""
","""event"",""trial"",""time""
""fullscreenenter"",""1"",""3347""
","
","","","","","","348","images/chair2.png","","","learning","images/furniture_choice1.png","images/furniture_choice3.png","images/furniture_choice2.png","[0,2,1]","0","0","3","images/furniture_choice2.png","-1","furniture","","chair","1","0"
"html-keyboard-response","194","753307","0.0-9.0-2.0-0.54","1574","1","2","""event"",""trial"",""time""
""fullscreenenter"",""1"",""3347""
""blur"",""190"",""744262""
""focus"",""191"",""746292""
","""event"",""trial"",""time""
""blur"",""190"",""744262""
","""event"",""trial"",""time""
""focus"",""191"",""746292""
","""event"",""trial"",""time""
""fullscreenenter"",""1"",""3347""
","
","","","","","","null","<div style=""font-size:60px;"">+</div>","null","","fixation","","","","","","","","","","","","","",""
"learning-trial","195","757309","0.0-9.0-2.0-1.54","1574","1","2","""event"",""trial"",""time""
""fullscreenenter"",""1"",""3347""
""blur"",""190"",""744262""
""focus"",""191"",""746292""
","""event"",""trial"",""time""
""blur"",""190"",""744262""
","""event"",""trial"",""time""
""focus"",""191"",""746292""
","""event"",""trial"",""time""
""fullscreenenter"",""1"",""3347""
","
","","","","","","681.5","images/table2.png","","","learning","images/furniture_choice2.png","images/furniture_choice1.png","images/furniture_choice3.png","[1,0,2]","1","0","2","images/furniture_choice1.png","-1","furniture","","table","1","0"
"html-keyboard-response","196","757810","0.0-9.0-2.0-0.55","1574","1","2","""event"",""trial"",""time""
""fullscreenenter"",""1"",""3347""
""blur"",""190"",""744262""
""focus"",""191"",""746292""
","""event"",""trial"",""time""
""blur"",""190"",""744262""
","""event"",""trial"",""time""
""focus"",""191"",""746292""
","""event"",""trial"",""time""
""fullscreenenter"",""1"",""3347""
","
","","","","","","null","<div style=""font-size:60px;"">+</div>","null","","fixation","","","","","","","","","","","","","",""
"learning-trial","197","761812","0.0-9.0-2.0-1.55","1574","1","2","""event"",""trial"",""time""
""fullscreenenter"",""1"",""3347""
""blur"",""190"",""744262""
""focus"",""191"",""746292""
","""event"",""trial"",""time""
""blur"",""190"",""744262""
","""event"",""trial"",""time""
""focus"",""191"",""746292""
","""event"",""trial"",""time""
""fullscreenenter"",""1"",""3347""
","
","","","","","","25","images/table4.png","","","learning","images/furniture_choice2.png","images/furniture_choice1.png","images/furniture_choice3.png","[1,0,2]","1","0","1","images/furniture_choice2.png","1","furniture","","table","1","0"
"html-keyboard-response","198","762313","0.0-9.0-2.0-0.56","1574","1","2","""event"",""trial"",""time""
""fullscreenenter"",""1"",""3347""
""blur"",""190"",""744262""
""focus"",""191"",""746292""
","""event"",""trial"",""time""
""blur"",""190"",""744262""
","""event"",""trial"",""time""
""focus"",""191"",""746292""
","""event"",""trial"",""time""
""fullscreenenter"",""1"",""3347""
","
","","","","","","null","<div style=""font-size:60px;"">+</div>","null","","fixation","","","","","","","","","","","","","",""
"learning-trial","199","766315","0.0-9.0-2.0-1.56","1574","1","2","""event"",""trial"",""time""
""fullscreenenter"",""1"",""3347""
""blur"",""190"",""744262""
""focus"",""191"",""746292""
","""event"",""trial"",""time""
""blur"",""190"",""744262""
","""event"",""trial"",""time""
""focus"",""191"",""746292""
","""event"",""trial"",""time""
""fullscreenenter"",""1"",""3347""
","
","","","","","","202","images/bed3.png","","","learning","images/furniture_choice3.png","images/furniture_choice1.png","images/furniture_choice2.png","[2,0,1]","2","0","3","images/furniture_choice2.png","-1","furniture","","bed","1","0"
"html-keyboard-response","200","766817","0.0-9.0-2.0-0.57","1574","1","2","""event"",""trial"",""time""
""fullscreenenter"",""1"",""3347""
""blur"",""190"",""744262""
""focus"",""191"",""746292""
","""event"",""trial"",""time""
""blur"",""190"",""744262""
","""event"",""trial"",""time""
""focus"",""191"",""746292""
","""event"",""trial"",""time""
""fullscreenenter"",""1"",""3347""
","
","","","","","","null","<div style=""font-size:60px;"">+</div>","null","","fixation","","","","","","","","","","","","","",""
"learning-trial","201","770819","0.0-9.0-2.0-1.57","1574","1","2","""event"",""trial"",""time""
""fullscreenenter"",""1"",""3347""
""blur"",""190"",""744262""
""focus"",""191"",""746292""
","""event"",""trial"",""time""
""blur"",""190"",""744262""
","""event"",""trial"",""time""
""focus"",""191"",""746292""
","""event"",""trial"",""time""
""fullscreenenter"",""1"",""3347""
","
","","","","","","195.30000007152557","images/table3.png","","","learning","images/furniture_choice1.png","images/furniture_choice3.png","images/furniture_choice2.png","[0,2,1]","1","2","2","images/furniture_choice3.png","-1","furniture","","table","1","0"
"html-keyboard-response","202","771321","0.0-9.0-2.0-0.58","1574","1","2","""event"",""trial"",""time""
""fullscreenenter"",""1"",""3347""
""blur"",""190"",""744262""
""focus"",""191"",""746292""
","""event"",""trial"",""time""
""blur"",""190"",""744262""
","""event"",""trial"",""time""
""focus"",""191"",""746292""
","""event"",""trial"",""time""
""fullscreenenter"",""1"",""3347""
","
","","","","","","null","<div style=""font-size:60px;"">+</div>","null","","fixation","","","","","","","","","","","","","",""
"learning-trial","203","775324","0.0-9.0-2.0-1.58","1574","1","2","""event"",""trial"",""time""
""fullscreenenter"",""1"",""3347""
""blur"",""190"",""744262""
""focus"",""191"",""746292""
","""event"",""trial"",""time""
""blur"",""190"",""744262""
","""event"",""trial"",""time""
""focus"",""191"",""746292""
","""event"",""trial"",""time""
""fullscreenenter"",""1"",""3347""
","
","","","","","","514.8000000715256","images/chair4.png","","","learning","images/furniture_choice3.png","images/furniture_choice2.png","images/furniture_choice1.png","[2,1,0]","0","2","1","images/furniture_choice3.png","-1","furniture","","chair","1","0"
"html-keyboard-response","204","775825","0.0-9.0-2.0-0.59","1574","1","2","""event"",""trial"",""time""
""fullscreenenter"",""1"",""3347""
""blur"",""190"",""744262""
""focus"",""191"",""746292""
","""event"",""trial"",""time""
""blur"",""190"",""744262""
","""event"",""trial"",""time""
""focus"",""191"",""746292""
","""event"",""trial"",""time""
""fullscreenenter"",""1"",""3347""
","
","","","","","","null","<div style=""font-size:60px;"">+</div>","null","","fixation","","","","","","","","","","","","","",""
"learning-trial","205","779827","0.0-9.0-2.0-1.59","1574","1","2","""event"",""trial"",""time""
""fullscreenenter"",""1"",""3347""
""blur"",""190"",""744262""
""focus"",""191"",""746292""
","""event"",""trial"",""time""
""blur"",""190"",""744262""
","""event"",""trial"",""time""
""focus"",""191"",""746292""
","""event"",""trial"",""time""
""fullscreenenter"",""1"",""3347""
","
","","","","","","283","images/table4.png","","","learning","images/furniture_choice1.png","images/furniture_choice2.png","images/furniture_choice3.png","[0,1,2]","1","1","3","images/furniture_choice3.png","-1","furniture","","table","1","0"
"html-keyboard-response","206","780328","0.0-9.0-2.0-0.60","1574","1","2","""event"",""trial"",""time""
""fullscreenenter"",""1"",""3347""
""blur"",""190"",""744262""
""focus"",""191"",""746292""
","""event"",""trial"",""time""
""blur"",""190"",""744262""
","""event"",""trial"",""time""
""focus"",""191"",""746292""
","""event"",""trial"",""time""
""fullscreenenter"",""1"",""3347""
","
","","","","","","null","<div style=""font-size:60px;"">+</div>","null","","fixation","","","","","","","","","","","","","",""
"learning-trial","207","784330","0.0-9.0-2.0-1.60","1574","1","2","""event"",""trial"",""time""
""fullscreenenter"",""1"",""3347""
""blur"",""190"",""744262""
""focus"",""191"",""746292""
","""event"",""trial"",""time""
""blur"",""190"",""744262""
","""event"",""trial"",""time""
""focus"",""191"",""746292""
","""event"",""trial"",""time""
""fullscreenenter"",""1"",""3347""
","
","","","","","","467.6999999284744","images/chair2.png","","","learning","images/furniture_choice3.png","images/furniture_choice1.png","images/furniture_choice2.png","[2,0,1]","0","1","2","images/furniture_choice1.png","1","furniture","","chair","1","0"
"html-keyboard-response","208","784832","0.0-9.0-2.0-0.61","1574","1","2","""event"",""trial"",""time""
""fullscreenenter"",""1"",""3347""
""blur"",""190"",""744262""
""focus"",""191"",""746292""
","""event"",""trial"",""time""
""blur"",""190"",""744262""
","""event"",""trial"",""time""
""focus"",""191"",""746292""
","""event"",""trial"",""time""
""fullscreenenter"",""1"",""3347""
","
","","","","","","null","<div style=""font-size:60px;"">+</div>","null","","fixation","","","","","","","","","","","","","",""
"learning-trial","209","788834","0.0-9.0-2.0-1.61","1574","1","2","""event"",""trial"",""time""
""fullscreenenter"",""1"",""3347""
""blur"",""190"",""744262""
""focus"",""191"",""746292""
","""event"",""trial"",""time""
""blur"",""190"",""744262""
","""event"",""trial"",""time""
""focus"",""191"",""746292""
","""event"",""trial"",""time""
""fullscreenenter"",""1"",""3347""
","
","","","","","","436.5","images/chair1.png","","","learning","images/furniture_choice3.png","images/furniture_choice1.png","images/furniture_choice2.png","[2,0,1]","0","1","2","images/furniture_choice1.png","1","furniture","","chair","1","0"
"html-keyboard-response","210","789336","0.0-9.0-2.0-0.62","1574","1","2","""event"",""trial"",""time""
""fullscreenenter"",""1"",""3347""
""blur"",""190"",""744262""
""focus"",""191"",""746292""
","""event"",""trial"",""time""
""blur"",""190"",""744262""
","""event"",""trial"",""time""
""focus"",""191"",""746292""
","""event"",""trial"",""time""
""fullscreenenter"",""1"",""3347""
","
","","","","","","null","<div style=""font-size:60px;"">+</div>","null","","fixation","","","","","","","","","","","","","",""
"learning-trial","211","793338","0.0-9.0-2.0-1.62","1574","1","2","""event"",""trial"",""time""
""fullscreenenter"",""1"",""3347""
""blur"",""190"",""744262""
""focus"",""191"",""746292""
","""event"",""trial"",""time""
""blur"",""190"",""744262""
","""event"",""trial"",""time""
""focus"",""191"",""746292""
","""event"",""trial"",""time""
""fullscreenenter"",""1"",""3347""
","
","","","","","","524.8000000715256","images/bed4.png","","","learning","images/furniture_choice3.png","images/furniture_choice2.png","images/furniture_choice1.png","[2,1,0]","2","0","1","images/furniture_choice3.png","1","furniture","","bed","1","0"
"html-keyboard-response","212","793840","0.0-9.0-2.0-0.63","1574","1","2","""event"",""trial"",""time""
""fullscreenenter"",""1"",""3347""
""blur"",""190"",""744262""
""focus"",""191"",""746292""
","""event"",""trial"",""time""
""blur"",""190"",""744262""
","""event"",""trial"",""time""
""focus"",""191"",""746292""
","""event"",""trial"",""time""
""fullscreenenter"",""1"",""3347""
","
","","","","","","null","<div style=""font-size:60px;"">+</div>","null","","fixation","","","","","","","","","","","","","",""
"learning-trial","213","797842","0.0-9.0-2.0-1.63","1574","1","2","""event"",""trial"",""time""
""fullscreenenter"",""1"",""3347""
""blur"",""190"",""744262""
""focus"",""191"",""746292""
","""event"",""trial"",""time""
""blur"",""190"",""744262""
","""event"",""trial"",""time""
""focus"",""191"",""746292""
","""event"",""trial"",""time""
""fullscreenenter"",""1"",""3347""
","
","","","","","","692.5999999046326","images/table3.png","","","learning","images/furniture_choice2.png","images/furniture_choice3.png","images/furniture_choice1.png","[1,2,0]","1","0","2","images/furniture_choice3.png","-1","furniture","","table","1","0"
"html-keyboard-response","214","798344","0.0-9.0-2.0-0.64","1574","1","2","""event"",""trial"",""time""
""fullscreenenter"",""1"",""3347""
""blur"",""190"",""744262""
""focus"",""191"",""746292""
","""event"",""trial"",""time""
""blur"",""190"",""744262""
","""event"",""trial"",""time""
""focus"",""191"",""746292""
","""event"",""trial"",""time""
""fullscreenenter"",""1"",""3347""
","
","","","","","","null","<div style=""font-size:60px;"">+</div>","null","","fixation","","","","","","","","","","","","","",""
"learning-trial","215","802347","0.0-9.0-2.0-1.64","1574","1","2","""event"",""trial"",""time""
""fullscreenenter"",""1"",""3347""
""blur"",""190"",""744262""
""focus"",""191"",""746292""
","""event"",""trial"",""time""
""blur"",""190"",""744262""
","""event"",""trial"",""time""
""focus"",""191"",""746292""
","""event"",""trial"",""time""
""fullscreenenter"",""1"",""3347""
","
","","","","","","301","images/bed4.png","","","learning","images/furniture_choice3.png","images/furniture_choice2.png","images/furniture_choice1.png","[2,1,0]","2","0","3","images/furniture_choice1.png","-1","furniture","","bed","1","0"
"html-keyboard-response","216","802849","0.0-9.0-2.0-0.65","1574","1","2","""event"",""trial"",""time""
""fullscreenenter"",""1"",""3347""
""blur"",""190"",""744262""
""focus"",""191"",""746292""
","""event"",""trial"",""time""
""blur"",""190"",""744262""
","""event"",""trial"",""time""
""focus"",""191"",""746292""
","""event"",""trial"",""time""
""fullscreenenter"",""1"",""3347""
","
","","","","","","null","<div style=""font-size:60px;"">+</div>","null","","fixation","","","","","","","","","","","","","",""
"learning-trial","217","806851","0.0-9.0-2.0-1.65","1574","1","2","""event"",""trial"",""time""
""fullscreenenter"",""1"",""3347""
""blur"",""190"",""744262""
""focus"",""191"",""746292""
","""event"",""trial"",""time""
""blur"",""190"",""744262""
","""event"",""trial"",""time""
""focus"",""191"",""746292""
","""event"",""trial"",""time""
""fullscreenenter"",""1"",""3347""
","
","","","","","","643.8999999761581","images/chair2.png","","","learning","images/furniture_choice3.png","images/furniture_choice1.png","images/furniture_choice2.png","[2,0,1]","0","1","1","images/furniture_choice3.png","-1","furniture","","chair","1","0"
"html-keyboard-response","218","807353","0.0-9.0-2.0-0.66","1574","1","2","""event"",""trial"",""time""
""fullscreenenter"",""1"",""3347""
""blur"",""190"",""744262""
""focus"",""191"",""746292""
","""event"",""trial"",""time""
""blur"",""190"",""744262""
","""event"",""trial"",""time""
""focus"",""191"",""746292""
","""event"",""trial"",""time""
""fullscreenenter"",""1"",""3347""
","
","","","","","","null","<div style=""font-size:60px;"">+</div>","null","","fixation","","","","","","","","","","","","","",""
"learning-trial","219","811355","0.0-9.0-2.0-1.66","1574","1","2","""event"",""trial"",""time""
""fullscreenenter"",""1"",""3347""
""blur"",""190"",""744262""
""focus"",""191"",""746292""
","""event"",""trial"",""time""
""blur"",""190"",""744262""
","""event"",""trial"",""time""
""focus"",""191"",""746292""
","""event"",""trial"",""time""
""fullscreenenter"",""1"",""3347""
","
","","","","","","387.7000000476837","images/chair1.png","","","learning","images/furniture_choice1.png","images/furniture_choice3.png","images/furniture_choice2.png","[0,2,1]","0","0","2","images/furniture_choice3.png","-1","furniture","","chair","1","0"
"html-keyboard-response","220","811857","0.0-9.0-2.0-0.67","1574","1","2","""event"",""trial"",""time""
""fullscreenenter"",""1"",""3347""
""blur"",""190"",""744262""
""focus"",""191"",""746292""
","""event"",""trial"",""time""
""blur"",""190"",""744262""
","""event"",""trial"",""time""
""focus"",""191"",""746292""
","""event"",""trial"",""time""
""fullscreenenter"",""1"",""3347""
","
","","","","","","null","<div style=""font-size:60px;"">+</div>","null","","fixation","","","","","","","","","","","","","",""
"learning-trial","221","815862","0.0-9.0-2.0-1.67","1574","1","2","""event"",""trial"",""time""
""fullscreenenter"",""1"",""3347""
""blur"",""190"",""744262""
""focus"",""191"",""746292""
","""event"",""trial"",""time""
""blur"",""190"",""744262""
","""event"",""trial"",""time""
""focus"",""191"",""746292""
","""event"",""trial"",""time""
""fullscreenenter"",""1"",""3347""
","
