"trial_type","trial_index","time_elapsed","internal_node_id","subject_id","condition","task_version","interactions","blur_events","focus_events","fullscreenenter_events","fullscreenexit_events","success","timeout","failed_images","failed_audio","failed_video","rt","stimulus","response","button_pressed","task_part","left_choice","middle_choice","right_choice","choice_positions","correct_response","correct_position","key_press","option_selected","points","task_block","correct","stim_cat","block_condition","block_number"
"pavlovia","0","2","0.0-0.0","1869","1","2","""event"",""trial"",""time""
""fullscreenenter"",""1"",""2314""
","
","
","""event"",""trial"",""time""
""fullscreenenter"",""1"",""2314""
","
","","","","","","","","","","","","","","","","","","","","","","","",""
"fullscreen","1","3268","0.0-1.0","1869","1","2","""event"",""trial"",""time""
""fullscreenenter"",""1"",""2314""
","
","
","""event"",""trial"",""time""
""fullscreenenter"",""1"",""2314""
","
","true","","","","","","","","","","","","","","","","","","","","","","",""
"preload","2","5714","0.0-2.0","1869","1","2","""event"",""trial"",""time""
""fullscreenenter"",""1"",""2314""
","
","
","""event"",""trial"",""time""
""fullscreenenter"",""1"",""2314""
","
","true","false","[]","[]","[]","","","","","","","","","","","","","","","","","","",""
"audio-keyboard-response","3","7202","0.0-3.0","1869","1","2","""event"",""trial"",""time""
""fullscreenenter"",""1"",""2314""
","
","
","""event"",""trial"",""time""
""fullscreenenter"",""1"",""2314""
","
","","","","","","1486.0770975056691","audio/beep_loop.wav"," ","","","","","","","","","","","","","","","",""
"audio-button-response","4","9609","0.0-4.0","1869","1","2","""event"",""trial"",""time""
""fullscreenenter"",""1"",""2314""
","
","
","""event"",""trial"",""time""
""fullscreenenter"",""1"",""2314""
","
","","","","","","2406","audio/shark.wav","4","","","","","","","","","","","","","","","",""
"audio-button-response","5","11914","0.0-5.0","1869","1","2","""event"",""trial"",""time""
""fullscreenenter"",""1"",""2314""
","
","
","""event"",""trial"",""time""
""fullscreenenter"",""1"",""2314""
","
","","","","","","1300","audio/turtle.wav","1","","","","","","","","","","","","","","","",""
"preload","6","15503","0.0-6.0","1869","1","2","""event"",""trial"",""time""
""fullscreenenter"",""1"",""2314""
","
","
","""event"",""trial"",""time""
""fullscreenenter"",""1"",""2314""
","
","true","false","[]","[]","[]","","","","","","","","","","","","","","","","","","",""
"html-keyboard-response","7","17280","0.0-7.0","1869","1","2","""event"",""trial"",""time""
""fullscreenenter"",""1"",""2314""
","
","
","""event"",""trial"",""time""
""fullscreenenter"",""1"",""2314""
","
","","","","","","1776.2999999523163","Welcome to the experiment. Press any key to begin and to advance the instructions."," ","","","","","","","","","","","","","","","",""
"learning-instructions","8","26040","0.0-8.0-0.0-0.0","1869","1","2","""event"",""trial"",""time""
""fullscreenenter"",""1"",""2314""
","
","
","""event"",""trial"",""time""
""fullscreenenter"",""1"",""2314""
","
","","","","","","1010.2999999523163","<p> Welcome! Today you are going to play 6 different rounds of a decision-making game. </p><p> Use the mouse to click next to continue. </p>","","0","instructions","","","","","","","","","","","","","",""
"learning-instructions","9","30854","0.0-8.0-0.0-0.1","1869","1","2","""event"",""trial"",""time""
""fullscreenenter"",""1"",""2314""
","
","
","""event"",""trial"",""time""
""fullscreenenter"",""1"",""2314""
","
","","","","","","1813","<p> You will start with a practice round to learn the rules. </p>","","0","instructions","","","","","","","","","","","","","",""
"learning-instructions","10","40499","0.0-8.0-0.0-0.2","1869","1","2","""event"",""trial"",""time""
""fullscreenenter"",""1"",""2314""
","
","
","""event"",""trial"",""time""
""fullscreenenter"",""1"",""2314""
","
","","","","","","1903","<p> Your goal in this round is to deliver sports equipment to three different parks. </p><p> You will need to deliver many types of equipment. </p></div>","","0","instructions","","","","","","","","","","","","","",""
"learning-instructions","11","49846","0.0-8.0-0.0-0.3","1869","1","2","""event"",""trial"",""time""
""fullscreenenter"",""1"",""2314""
","
","
","""event"",""trial"",""time""
""fullscreenenter"",""1"",""2314""
","
","","","","","","864.6000000238419","<p> On each turn, you will see one piece of sports equipment and three different parks.  </p><p> You need to select which park to deliver the equipment to.  </p>","","0","instructions","","","","","","","","","","","","","",""
"learning-instructions","12","64001","0.0-8.0-0.0-0.4","1869","1","2","""event"",""trial"",""time""
""fullscreenenter"",""1"",""2314""
","
","
","""event"",""trial"",""time""
""fullscreenenter"",""1"",""2314""
","
","","","","","","875.1999999284744","<p> You can select the park on the left by pressing the '1' key on your keyboard. <br>You can select the park in the middle by pressing the '2' key on your keyboard. <br>You can select the park on the right by pressing the '3' key on your keyboard.  </p><br><div class=""choice-instructions-grid""> <div class=""choice-option""><img src=""images/park1.png"" class=""choice-option-img"" stage=""instructions"" position=""0"" ><div class=""choice-option-text""> Press ""1."" </div></div><div class=""choice-option""><img src=""images/park2.png"" class=""choice-option-img"" stage=""instructions"" position=""1"" ><div class=""choice-option-text""> Press ""2."" </div></div><div class=""choice-option""><img src=""images/park3.png"" class=""choice-option-img"" stage=""instructions"" position=""2"" ><div class=""choice-option-text""> Press ""3."" </div></div></div>","","0","instructions","","","","","","","","","","","","","",""
"learning-instructions","13","70238","0.0-8.0-0.0-0.5","1869","1","2","""event"",""trial"",""time""
""fullscreenenter"",""1"",""2314""
","
","
","""event"",""trial"",""time""
""fullscreenenter"",""1"",""2314""
","
","","","","","","856.8999999761581","<p> If the kids in the park you chose like the equipment, they will be very happy! </p><div style='float: center;'><img src='images/check.png' width = '200' height = '200'></img>","","0","instructions","","","","","","","","","","","","","",""
"learning-instructions","14","76630","0.0-8.0-0.0-0.6","1869","1","2","""event"",""trial"",""time""
""fullscreenenter"",""1"",""2314""
","
","
","""event"",""trial"",""time""
""fullscreenenter"",""1"",""2314""
","
","","","","","","804.2999999523163","<p> But, if the kids in the park you chose do not like the equipment, they will be sad. </p><div style='float: center;'><img src='images/x.png' width = '200' height = '200'></img>","","0","instructions","","","","","","","","","","","","","",""
"learning-instructions","15","84350","0.0-8.0-0.0-0.7","1869","1","2","""event"",""trial"",""time""
""fullscreenenter"",""1"",""2314""
","
","
","""event"",""trial"",""time""
""fullscreenenter"",""1"",""2314""
","
","","","","","","1291","<p> Importantly, the kids in each park like some pieces of sports equipment more than others. </p>","","0","instructions","","","","","","","","","","","","","",""
"learning-instructions","16","91905","0.0-8.0-0.0-0.8","1869","1","2","""event"",""trial"",""time""
""fullscreenenter"",""1"",""2314""
","
","
","""event"",""trial"",""time""
""fullscreenenter"",""1"",""2314""
","
","","","","","","1511.0999999046326","<p> If you choose the best park for each piece of equipment, the kids there will usually be happy. </p>","","0","instructions","","","","","","","","","","","","","",""
"learning-instructions","17","98687","0.0-8.0-0.0-0.9","1869","1","2","""event"",""trial"",""time""
""fullscreenenter"",""1"",""2314""
","
","
","""event"",""trial"",""time""
""fullscreenenter"",""1"",""2314""
","
","","","","","","143.20000004768372","<p> However, even if you choose the best park for the equipment, the kids may sometimes be sad. </p>","","0","instructions","","","","","","","","","","","","","",""
"learning-instructions","18","106253","0.0-8.0-0.0-0.10","1869","1","2","""event"",""trial"",""time""
""fullscreenenter"",""1"",""2314""
","
","
","""event"",""trial"",""time""
""fullscreenenter"",""1"",""2314""
","
","","","","","","342","<p> Similarly, even if you choose the <i>wrong</i> park for the equipment, the kids may still be happy sometimes.","","0","instructions","","","","","","","","","","","","","",""
"learning-instructions","19","111653","0.0-8.0-0.0-0.11","1869","1","2","""event"",""trial"",""time""
""fullscreenenter"",""1"",""2314""
","
","
","""event"",""trial"",""time""
""fullscreenenter"",""1"",""2314""
","
","","","","","","349.2000000476837","<p> For example, the best park for this soccer ball is this one.<div style='float: center;'><img src='images/i1.png' width = '500' height = '268'></img>","","0","instructions","","","","","","","","","","","","","",""
"learning-instructions","20","117551","0.0-8.0-0.0-0.12","1869","1","2","""event"",""trial"",""time""
""fullscreenenter"",""1"",""2314""
","
","
","""event"",""trial"",""time""
""fullscreenenter"",""1"",""2314""
","
","","","","","","612.8999999761581","<p> Let's see what happens if you choose this park for the soccer ball five times.","","0","instructions","","","","","","","","","","","","","",""
"learning-instructions","21","121324","0.0-8.0-0.0-0.13","1869","1","2","""event"",""trial"",""time""
""fullscreenenter"",""1"",""2314""
","
","
","""event"",""trial"",""time""
""fullscreenenter"",""1"",""2314""
","
","","","","","","1611","<p> The kids are happy.<div style='float: left;'><img src='images/i2.png' width = '640' height = '360'></img>","","0","instructions","","","","","","","","","","","","","",""
"learning-instructions","22","123613","0.0-8.0-0.0-0.14","1869","1","2","""event"",""trial"",""time""
""fullscreenenter"",""1"",""2314""
","
","
","""event"",""trial"",""time""
""fullscreenenter"",""1"",""2314""
","
","","","","","","127.09999990463257","<p> The kids are happy.<div style='float: left;'><img src='images/i3.png' width = '640' height = '360'></img>","","0","instructions","","","","","","","","","","","","","",""
"learning-instructions","23","126320","0.0-8.0-0.0-0.15","1869","1","2","""event"",""trial"",""time""
""fullscreenenter"",""1"",""2314""
","
","
","""event"",""trial"",""time""
""fullscreenenter"",""1"",""2314""
","
","","","","","","543.1000000238419","<p> The kids are happy.<div style='float: left;'><img src='images/i4.png' width = '640' height = '360'></img>","","0","instructions","","","","","","","","","","","","","",""
"learning-instructions","24","128872","0.0-8.0-0.0-0.16","1869","1","2","""event"",""trial"",""time""
""fullscreenenter"",""1"",""2314""
","
","
","""event"",""trial"",""time""
""fullscreenenter"",""1"",""2314""
","
","","","","","","349.1999999284744","<p> The kids are sad.<div style='float: left;'><img src='images/i5.png' width = '640' height = '360'></img>","","0","instructions","","","","","","","","","","","","","",""
"learning-instructions","25","131438","0.0-8.0-0.0-0.17","1869","1","2","""event"",""trial"",""time""
""fullscreenenter"",""1"",""2314""
","
","
","""event"",""trial"",""time""
""fullscreenenter"",""1"",""2314""
","
","","","","","","402.2999999523163","<p> The kids are happy.<div style='float: left;'><img src='images/i6.png' width = '640' height = '360'></img>","","0","instructions","","","","","","","","","","","","","",""
"learning-instructions","26","138951","0.0-8.0-0.0-0.18","1869","1","2","""event"",""trial"",""time""
""fullscreenenter"",""1"",""2314""
","
","
","""event"",""trial"",""time""
""fullscreenenter"",""1"",""2314""
","
","","","","","","245.89999997615814","<p> As you can see, selecting that park for the soccer ball made the kids happy most of the time, but not all the time.","","0","instructions","","","","","","","","","","","","","",""
"learning-instructions","27","145393","0.0-8.0-0.0-0.19","1869","1","2","""event"",""trial"",""time""
""fullscreenenter"",""1"",""2314""
","
","
","""event"",""trial"",""time""
""fullscreenenter"",""1"",""2314""
","
","","","","","","441.7000000476837","<p> Now let's see what happens if you choose a DIFFERENT park for the soccer ball 5 times.","","0","instructions","","","","","","","","","","","","","",""
"learning-instructions","28","147905","0.0-8.0-0.0-0.20","1869","1","2","""event"",""trial"",""time""
""fullscreenenter"",""1"",""2314""
","
","
","""event"",""trial"",""time""
""fullscreenenter"",""1"",""2314""
","
","","","","","","309.7999999523163","<p> The kids are sad.<div style='float: left;'><img src='images/i7.png' width = '640' height = '360'></img>","","0","instructions","","","","","","","","","","","","","",""
"learning-instructions","29","150226","0.0-8.0-0.0-0.21","1869","1","2","""event"",""trial"",""time""
""fullscreenenter"",""1"",""2314""
","
","
","""event"",""trial"",""time""
""fullscreenenter"",""1"",""2314""
","
","","","","","","117.20000004768372","<p> The kids are sad.<div style='float: left;'><img src='images/i8.png' width = '640' height = '360'></img>","","0","instructions","","","","","","","","","","","","","",""
"learning-instructions","30","152717","0.0-8.0-0.0-0.22","1869","1","2","""event"",""trial"",""time""
""fullscreenenter"",""1"",""2314""
","
","
","""event"",""trial"",""time""
""fullscreenenter"",""1"",""2314""
","
","","","","","","326.09999990463257","<p> The kids are happy.<div style='float: left;'><img src='images/i9.png' width = '640' height = '360'></img>","","0","instructions","","","","","","","","","","","","","",""
"learning-instructions","31","155338","0.0-8.0-0.0-0.23","1869","1","2","""event"",""trial"",""time""
""fullscreenenter"",""1"",""2314""
","
","
","""event"",""trial"",""time""
""fullscreenenter"",""1"",""2314""
","
","","","","","","416.89999997615814","<p> The kids are sad.<div style='float: left;'><img src='images/i10.png' width = '640' height = '360'></img>","","0","instructions","","","","","","","","","","","","","",""
"learning-instructions","32","157863","0.0-8.0-0.0-0.24","1869","1","2","""event"",""trial"",""time""
""fullscreenenter"",""1"",""2314""
","
","
","""event"",""trial"",""time""
""fullscreenenter"",""1"",""2314""
","
","","","","","","317.5","<p> The kids are sad.<div style='float: left;'><img src='images/i11.png' width = '640' height = '360'></img>","","0","instructions","","","","","","","","","","","","","",""
"learning-instructions","33","166327","0.0-8.0-0.0-0.25","1869","1","2","""event"",""trial"",""time""
""fullscreenenter"",""1"",""2314""
","
","
","""event"",""trial"",""time""
""fullscreenenter"",""1"",""2314""
","
","","","","","","344.10000002384186","<p> As you can see, selecting the wrong park for the soccer ball made the kids sad most of the time, but not all the time.","","0","instructions","","","","","","","","","","","","","",""
"learning-instructions","34","175541","0.0-8.0-0.0-0.26","1869","1","2","""event"",""trial"",""time""
""fullscreenenter"",""1"",""2314""
","
","
","""event"",""trial"",""time""
""fullscreenenter"",""1"",""2314""
","
","","","","","","101.39999997615814","<p> The different pieces of equipment belong in different parks. You need to try to learn which is the best park for each piece of equipment.","","0","instructions","","","","","","","","","","","","","",""
"learning-instructions","35","192422","0.0-8.0-0.0-0.27","1869","1","2","""event"",""trial"",""time""
""fullscreenenter"",""1"",""2314""
","
","
","""event"",""trial"",""time""
""fullscreenenter"",""1"",""2314""
","
","","","","","","494.60000002384186","<p> Try to choose the best park for each piece of equipment, because you will <b> WIN </b> 1 point for each time you make the kids happy and <b>LOSE</b> 1 point for each time you make them sad. </p><p> Remember, if you make the best choice, you will win 1 point most of the time, but not all the time. </p>","","0","instructions","","","","","","","","","","","","","",""
"learning-instructions","36","198414","0.0-8.0-0.0-0.28","1869","1","2","""event"",""trial"",""time""
""fullscreenenter"",""1"",""2314""
","
","
","""event"",""trial"",""time""
""fullscreenenter"",""1"",""2314""
","
","","","","","","516.7000000476837","<p> This is just a practice round, but in the real game, your bonus payment will depend on your total number of points.","","0","instructions","","","","","","","","","","","","","",""
"learning-instructions","37","209055","0.0-8.0-0.0-0.29","1869","1","2","""event"",""trial"",""time""
""fullscreenenter"",""1"",""2314""
","
","
","""event"",""trial"",""time""
""fullscreenenter"",""1"",""2314""
","
","","","","","","316","<p> The position where each park appears will change throughout the game. </p><p> The position where the park appears <i> does not </i> influence how likely the kids are to be happy or sad. </p>","","0","instructions","","","","","","","","","","","","","",""
"learning-instructions","38","219936","0.0-8.0-0.0-0.30","1869","1","2","""event"",""trial"",""time""
""fullscreenenter"",""1"",""2314""
","
","
","""event"",""trial"",""time""
""fullscreenenter"",""1"",""2314""
","
","","","","","","398.8000000715256","<p> You will have 4 seconds to make each choice. Try to respond before time runs out! </p><p> You will lose 1 point each time you do not make a response. </p>","","0","instructions","","","","","","","","","","","","","",""
"learning-instructions","39","227140","0.0-8.0-0.0-0.31","1869","1","2","""event"",""trial"",""time""
""fullscreenenter"",""1"",""2314""
","
","
","""event"",""trial"",""time""
""fullscreenenter"",""1"",""2314""
","
","","","","","","418.8000000715256","<p> Remember, you should use the 1, 2, and 3 keys to select the park for each piece of equipment. </p><br><div class=""choice-instructions-grid""> <div class=""choice-option""><img src=""images/park1.png"" class=""choice-option-img"" stage=""instructions"" position=""0"" ><div class=""choice-option-text""> Press ""1."" </div></div><div class=""choice-option""><img src=""images/park2.png"" class=""choice-option-img"" stage=""instructions"" position=""1"" ><div class=""choice-option-text""> Press ""2."" </div></div><div class=""choice-option""><img src=""images/park3.png"" class=""choice-option-img"" stage=""instructions"" position=""2"" ><div class=""choice-option-text""> Press ""3."" </div></div></div>","","0","instructions","","","","","","","","","","","","","",""
"html-button-response","40","229759","0.0-8.0-1.0","1869","1","2","""event"",""trial"",""time""
""fullscreenenter"",""1"",""2314""
","
","
","""event"",""trial"",""time""
""fullscreenenter"",""1"",""2314""
","
","","","","","","2516.600000023842","<p> Ready to practice? </p>","0","","","","","","","","","","","","","","","",""
"html-keyboard-response","41","230362","0.0-8.0-2.0-0.0","1869","1","2","""event"",""trial"",""time""
""fullscreenenter"",""1"",""2314""
","
","
","""event"",""trial"",""time""
""fullscreenenter"",""1"",""2314""
","
","","","","","","null","<div style=""font-size:60px;"">+</div>","null","","fixation","","","","","","","","","","","","","",""
"learning-trial","42","234366","0.0-8.0-2.0-1.0","1869","1","2","""event"",""trial"",""time""
""fullscreenenter"",""1"",""2314""
","
","
","""event"",""trial"",""time""
""fullscreenenter"",""1"",""2314""
","
","","","","","","1706.7000000476837","images/ball2.png","","","practice","images/park3.png","images/park2.png","images/park1.png","[2,1,0]","2","0","3","images/park1.png","-1","practice","","","",""
"html-keyboard-response","43","234868","0.0-8.0-2.0-0.1","1869","1","2","""event"",""trial"",""time""
""fullscreenenter"",""1"",""2314""
","
","
","""event"",""trial"",""time""
""fullscreenenter"",""1"",""2314""
","
","","","","","","null","<div style=""font-size:60px;"">+</div>","null","","fixation","","","","","","","","","","","","","",""
"learning-trial","44","238872","0.0-8.0-2.0-1.1","1869","1","2","""event"",""trial"",""time""
""fullscreenenter"",""1"",""2314""
","
","
","""event"",""trial"",""time""
""fullscreenenter"",""1"",""2314""
","
","","","","","","2816.100000023842","images/ball2.png","","","practice","images/park2.png","images/park3.png","images/park1.png","[1,2,0]","2","1","1","images/park2.png","-1","practice","","","",""
"html-keyboard-response","45","239374","0.0-8.0-2.0-0.2","1869","1","2","""event"",""trial"",""time""
""fullscreenenter"",""1"",""2314""
","
","
","""event"",""trial"",""time""
""fullscreenenter"",""1"",""2314""
","
","","","","","","null","<div style=""font-size:60px;"">+</div>","null","","fixation","","","","","","","","","","","","","",""
"learning-trial","46","243380","0.0-8.0-2.0-1.2","1869","1","2","""event"",""trial"",""time""
""fullscreenenter"",""1"",""2314""
","
","
","""event"",""trial"",""time""
""fullscreenenter"",""1"",""2314""
","
","","","","","","2053.6999999284744","images/racket3.png","","","practice","images/park3.png","images/park2.png","images/park1.png","[2,1,0]","0","2","3","images/park1.png","-1","practice","","","",""
"html-keyboard-response","47","243884","0.0-8.0-2.0-0.3","1869","1","2","""event"",""trial"",""time""
""fullscreenenter"",""1"",""2314""
","
","
","""event"",""trial"",""time""
""fullscreenenter"",""1"",""2314""
","
","","","","","","null","<div style=""font-size:60px;"">+</div>","null","","fixation","","","","","","","","","","","","","",""
"learning-trial","48","247877","0.0-8.0-2.0-1.3","1869","1","2","""event"",""trial"",""time""
""fullscreenenter"",""1"",""2314""
","
","
","""event"",""trial"",""time""
""fullscreenenter"",""1"",""2314""
","
","","","","","","null","images/racket2.png","","","practice","images/park2.png","images/park1.png","images/park3.png","[1,0,2]","0","1","null","null","-1","practice","","","",""
"html-keyboard-response","49","248377","0.0-8.0-2.0-0.4","1869","1","2","""event"",""trial"",""time""
""fullscreenenter"",""1"",""2314""
","
","
","""event"",""trial"",""time""
""fullscreenenter"",""1"",""2314""
","
","","","","","","null","<div style=""font-size:60px;"">+</div>","null","","fixation","","","","","","","","","","","","","",""
"learning-trial","50","252373","0.0-8.0-2.0-1.4","1869","1","2","""event"",""trial"",""time""
""fullscreenenter"",""1"",""2314""
","
","
","""event"",""trial"",""time""
""fullscreenenter"",""1"",""2314""
","
","","","","","","713.5","images/racket2.png","","","practice","images/park3.png","images/park2.png","images/park1.png","[2,1,0]","0","2","3","images/park1.png","1","practice","","","",""
"html-keyboard-response","51","252874","0.0-8.0-2.0-0.5","1869","1","2","""event"",""trial"",""time""
""fullscreenenter"",""1"",""2314""
","
","
","""event"",""trial"",""time""
""fullscreenenter"",""1"",""2314""
","
","","","","","","null","<div style=""font-size:60px;"">+</div>","null","","fixation","","","","","","","","","","","","","",""
"learning-trial","52","256874","0.0-8.0-2.0-1.5","1869","1","2","""event"",""trial"",""time""
""fullscreenenter"",""1"",""2314""
","
","
","""event"",""trial"",""time""
""fullscreenenter"",""1"",""2314""
","
","","","","","","2948","images/racket3.png","","","practice","images/park3.png","images/park1.png","images/park2.png","[2,0,1]","0","1","1","images/park3.png","-1","practice","","","",""
"html-keyboard-response","53","257378","0.0-8.0-2.0-0.6","1869","1","2","""event"",""trial"",""time""
""fullscreenenter"",""1"",""2314""
","
","
","""event"",""trial"",""time""
""fullscreenenter"",""1"",""2314""
","
","","","","","","null","<div style=""font-size:60px;"">+</div>","null","","fixation","","","","","","","","","","","","","",""
"learning-trial","54","261380","0.0-8.0-2.0-1.6","1869","1","2","""event"",""trial"",""time""
""fullscreenenter"",""1"",""2314""
","
","
","""event"",""trial"",""time""
""fullscreenenter"",""1"",""2314""
","
","","","","","","2568.5","images/racket1.png","","","practice","images/park1.png","images/park2.png","images/park3.png","[0,1,2]","2","2","2","images/park2.png","-1","practice","","","",""
"html-keyboard-response","55","261883","0.0-8.0-2.0-0.7","1869","1","2","""event"",""trial"",""time""
""fullscreenenter"",""1"",""2314""
","
","
","""event"",""trial"",""time""
""fullscreenenter"",""1"",""2314""
","
","","","","","","null","<div style=""font-size:60px;"">+</div>","null","","fixation","","","","","","","","","","","","","",""
"learning-trial","56","265883","0.0-8.0-2.0-1.7","1869","1","2","""event"",""trial"",""time""
""fullscreenenter"",""1"",""2314""
","
","
","""event"",""trial"",""time""
""fullscreenenter"",""1"",""2314""
","
","","","","","","2626.7999999523163","images/ball1.png","","","practice","images/park1.png","images/park3.png","images/park2.png","[0,2,1]","1","2","2","images/park3.png","-1","practice","","","",""
"html-keyboard-response","57","266387","0.0-8.0-2.0-0.8","1869","1","2","""event"",""trial"",""time""
""fullscreenenter"",""1"",""2314""
","
","
","""event"",""trial"",""time""
""fullscreenenter"",""1"",""2314""
","
","","","","","","null","<div style=""font-size:60px;"">+</div>","null","","fixation","","","","","","","","","","","","","",""
"learning-trial","58","270391","0.0-8.0-2.0-1.8","1869","1","2","""event"",""trial"",""time""
""fullscreenenter"",""1"",""2314""
","
","
","""event"",""trial"",""time""
""fullscreenenter"",""1"",""2314""
","
","","","","","","2939.899999976158","images/ball3.png","","","practice","images/park3.png","images/park2.png","images/park1.png","[2,1,0]","1","1","2","images/park2.png","-1","practice","","","",""
"html-keyboard-response","59","270896","0.0-8.0-2.0-0.9","1869","1","2","""event"",""trial"",""time""
""fullscreenenter"",""1"",""2314""
","
","
","""event"",""trial"",""time""
""fullscreenenter"",""1"",""2314""
","
","","","","","","null","<div style=""font-size:60px;"">+</div>","null","","fixation","","","","","","","","","","","","","",""
"learning-trial","60","274899","0.0-8.0-2.0-1.9","1869","1","2","""event"",""trial"",""time""
""fullscreenenter"",""1"",""2314""
","
","
","""event"",""trial"",""time""
""fullscreenenter"",""1"",""2314""
","
","","","","","","3075.3000000715256","images/racket1.png","","","practice","images/park3.png","images/park1.png","images/park2.png","[2,0,1]","2","0","1","images/park3.png","1","practice","","","",""
"html-keyboard-response","61","275401","0.0-8.0-2.0-0.10","1869","1","2","""event"",""trial"",""time""
""fullscreenenter"",""1"",""2314""
","
","
","""event"",""trial"",""time""
""fullscreenenter"",""1"",""2314""
","
","","","","","","null","<div style=""font-size:60px;"">+</div>","null","","fixation","","","","","","","","","","","","","",""
"learning-trial","62","279408","0.0-8.0-2.0-1.10","1869","1","2","""event"",""trial"",""time""
""fullscreenenter"",""1"",""2314""
","
","
","""event"",""trial"",""time""
""fullscreenenter"",""1"",""2314""
","
","","","","","","2409.399999976158","images/ball1.png","","","practice","images/park1.png","images/park3.png","images/park2.png","[0,2,1]","1","2","2","images/park3.png","-1","practice","","","",""
"html-keyboard-response","63","279910","0.0-8.0-2.0-0.11","1869","1","2","""event"",""trial"",""time""
""fullscreenenter"",""1"",""2314""
","
","
","""event"",""trial"",""time""
""fullscreenenter"",""1"",""2314""
","
","","","","","","null","<div style=""font-size:60px;"">+</div>","null","","fixation","","","","","","","","","","","","","",""
"learning-trial","64","283918","0.0-8.0-2.0-1.11","1869","1","2","""event"",""trial"",""time""
""fullscreenenter"",""1"",""2314""
","
","
","""event"",""trial"",""time""
""fullscreenenter"",""1"",""2314""
","
","","","","","","1226.2000000476837","images/ball3.png","","","practice","images/park1.png","images/park2.png","images/park3.png","[0,1,2]","1","1","2","images/park2.png","1","practice","","","",""
"html-button-response","65","289087","0.0-8.0-3.0","1869","1","2","""event"",""trial"",""time""
""fullscreenenter"",""1"",""2314""
","
","
","""event"",""trial"",""time""
""fullscreenenter"",""1"",""2314""
","
","","","","","","5166.799999952316","<p> You earned -6 points in the practice round! </p>","0","","break","","","","","","","","","","","","","",""
"learning-instructions","66","297363","0.0-8.0-4.0-0.0","1869","1","2","""event"",""trial"",""time""
""fullscreenenter"",""1"",""2314""
","
","
","""event"",""trial"",""time""
""fullscreenenter"",""1"",""2314""
","
","","","","","","552.7999999523163","<p> It's almost time to start the real game. </p><p> Before you start, we're going to ask you a few questions about how the game works. </p>","","0","instructions","","","","","","","","","","","","","",""
"preload","67","298691","0.0-8.0-5.0","1869","1","2","""event"",""trial"",""time""
""fullscreenenter"",""1"",""2314""
","
","
","""event"",""trial"",""time""
""fullscreenenter"",""1"",""2314""
","
","true","false","[]","[]","[]","","","","","","","","","","","","","","","","","","",""
"comp-q","68","305090","0.0-8.0-6.0-0.0","1869","1","2","""event"",""trial"",""time""
""fullscreenenter"",""1"",""2314""
","
","
","""event"",""trial"",""time""
""fullscreenenter"",""1"",""2314""
","
","","","","","","947.8000000715256","<p> <b> True or False? </b> </p><p> If you choose the best option, you will always earn 1 point. </p>","","1","comp_question","","","","","","","","","","","true","","",""
"comp-q","69","311606","0.0-8.0-6.0-1.0","1869","1","2","""event"",""trial"",""time""
""fullscreenenter"",""1"",""2314""
","
","
","""event"",""trial"",""time""
""fullscreenenter"",""1"",""2314""
","
","","","","","","857.7000000476837","<p><b> That's right! </b> Sometimes you will lose 1 point, even if you choose the best option. </p>","","0","comp_answer","","","","","","","","","","","","","",""
"comp-q","70","317217","0.0-8.0-6.0-0.1","1869","1","2","""event"",""trial"",""time""
""fullscreenenter"",""1"",""2314""
","
","
","""event"",""trial"",""time""
""fullscreenenter"",""1"",""2314""
","
","","","","","","983.1999999284744","<p> <b> True or False? </b> </p><p> You will have as much time as you want to make each choice. </p>","","1","comp_question","","","","","","","","","","","true","","",""
"comp-q","71","322713","0.0-8.0-6.0-1.1","1869","1","2","""event"",""trial"",""time""
""fullscreenenter"",""1"",""2314""
","
","
","""event"",""trial"",""time""
""fullscreenenter"",""1"",""2314""
","
","","","","","","686.2000000476837","<p> <b> That's right! </b> You will only have 4 seconds to make each choice. </p>","","0","comp_answer","","","","","","","","","","","","","",""
"comp-q","72","329408","0.0-8.0-6.0-0.2","1869","1","2","""event"",""trial"",""time""
""fullscreenenter"",""1"",""2314""
","
","
","""event"",""trial"",""time""
""fullscreenenter"",""1"",""2314""
","
","","","","","","547.7000000476837","<p> <b> True or False? </b> </p><p> You should use the '1', '2', and '3' keys to make your choices. </p>","","0","comp_question","","","","","","","","","","","true","","",""
"comp-q","73","335016","0.0-8.0-6.0-1.2","1869","1","2","""event"",""trial"",""time""
""fullscreenenter"",""1"",""2314""
","
","
","""event"",""trial"",""time""
""fullscreenenter"",""1"",""2314""
","
","","","","","","769.2000000476837","<p> <b> That's right! </b> You should use the '1', '2', and '3' keys to make each choice. </p>","","0","comp_answer","","","","","","","","","","","","","",""
"learning-instructions","74","344323","0.0-8.0-7.0-0.0","1869","1","2","""event"",""trial"",""time""
""fullscreenenter"",""1"",""2314""
","
","
","""event"",""trial"",""time""
""fullscreenenter"",""1"",""2314""
","
","","","","","","822.2999999523163","<p> It's now time to start the real game. </p>Do your best, because the points you earn in the next rounds will influence your bonus payment. </p>","","0","instructions","","","","","","","","","","","","","",""
"preload","75","345808","0.0-9.0-0.0","1869","1","2","""event"",""trial"",""time""
""fullscreenenter"",""1"",""2314""
","
","
","""event"",""trial"",""time""
""fullscreenenter"",""1"",""2314""
","
","true","false","[]","[]","[]","","","","","","","","","","","","","","","","","","",""
"learning-instructions","76","353711","0.0-9.0-1.0-0.0","1869","1","2","""event"",""trial"",""time""
""fullscreenenter"",""1"",""2314""
","
","
","""event"",""trial"",""time""
""fullscreenenter"",""1"",""2314""
","
","","","","","","1406.5","<p> Your goal in this round is to buy different types of fruits. </p><p> You will try to purchase many fruits from different stores. </p></div>","","0","instructions","","","","","","","","","","","","","",""
"learning-instructions","77","362708","0.0-9.0-1.0-0.1","1869","1","2","""event"",""trial"",""time""
""fullscreenenter"",""1"",""2314""
","
","
","""event"",""trial"",""time""
""fullscreenenter"",""1"",""2314""
","
","","","","","","503.89999997615814","<p> On each turn, you will see a picture of a fruit and three different stores.  </p><p> You need to select the store where you can buy that fruit.  </p>","","0","instructions","","","","","","","","","","","","","",""
"learning-instructions","78","373138","0.0-9.0-1.0-0.2","1869","1","2","""event"",""trial"",""time""
""fullscreenenter"",""1"",""2314""
","
","
","""event"",""trial"",""time""
""fullscreenenter"",""1"",""2314""
","
","","","","","","3052.600000023842","<p> You can select the store on the left by pressing 1, the store in the middle by pressing 2, and the store on the right by pressing 3. </p><br><div class=""choice-instructions-grid""> <div class=""choice-option""><img src=""images/fruit_choice1.png"" class=""choice-option-img"" stage=""instructions"" position=""0"" ><div class=""choice-option-text""> Press ""1."" </div></div><div class=""choice-option""><img src=""images/fruit_choice2.png"" class=""choice-option-img"" stage=""instructions"" position=""1"" ><div class=""choice-option-text""> Press ""2."" </div></div><div class=""choice-option""><img src=""images/fruit_choice3.png"" class=""choice-option-img"" stage=""instructions"" position=""2"" ><div class=""choice-option-text""> Press ""3."" </div></div></div>","","0","instructions","","","","","","","","","","","","","",""
"learning-instructions","79","379171","0.0-9.0-1.0-0.3","1869","1","2","""event"",""trial"",""time""
""fullscreenenter"",""1"",""2314""
","
","
","""event"",""trial"",""time""
""fullscreenenter"",""1"",""2314""
","
","","","","","","1086.5999999046326","<p> If you find the fruit in the store you chose, you will get to buy and eat it! </p><div style='float: center;'><img src='images/check.png' width = '200' height = '200'></img>","","0","instructions","","","","","","","","","","","","","",""
"learning-instructions","80","383925","0.0-9.0-1.0-0.4","1869","1","2","""event"",""trial"",""time""
""fullscreenenter"",""1"",""2314""
","
","
","""event"",""trial"",""time""
""fullscreenenter"",""1"",""2314""
","
","","","","","","287","<p> But, if the fruit is not in that store, you will be hungry. </p><div style='float: center;'><img src='images/x.png' width = '200' height = '200'></img>","","0","instructions","","","","","","","","","","","","","",""
"learning-instructions","81","393783","0.0-9.0-1.0-0.5","1869","1","2","""event"",""trial"",""time""
""fullscreenenter"",""1"",""2314""
","
","
","""event"",""trial"",""time""
""fullscreenenter"",""1"",""2314""
","
","","","","","","85.70000004768372","<p> Importantly, each fruit is more likely to be found in one of the stores. </p><p> If you choose the correct store, you will be more likely to be able to buy the fruit! </p>","","0","instructions","","","","","","","","","","","","","",""
"learning-instructions","82","405019","0.0-9.0-1.0-0.6","1869","1","2","""event"",""trial"",""time""
""fullscreenenter"",""1"",""2314""
","
","
","""event"",""trial"",""time""
""fullscreenenter"",""1"",""2314""
","
","","","","","","784.6000000238419","<p> However, even if you choose the best store for the fruit, the store might not have it sometimes. </p><p> Similarly, even if you choose the <i>wrong</i> store, it might still have the fruit.","","0","instructions","","","","","","","","","","","","","",""
"learning-instructions","83","417417","0.0-9.0-1.0-0.7","1869","1","2","""event"",""trial"",""time""
""fullscreenenter"",""1"",""2314""
","
","
","""event"",""trial"",""time""
""fullscreenenter"",""1"",""2314""
","
","","","","","","214","<p> Try to choose the best store for each fruit, because you will <b> WIN </b> 1 point for each fruit you eat and <b>LOSE</b> 1 point each time you are hungry. </p><p> Your bonus payment will depend on your total number of points.","","0","instructions","","","","","","","","","","","","","",""
"learning-instructions","84","428398","0.0-9.0-1.0-0.8","1869","1","2","""event"",""trial"",""time""
""fullscreenenter"",""1"",""2314""
","
","
","""event"",""trial"",""time""
""fullscreenenter"",""1"",""2314""
","
","","","","","","2777.9000000953674","<p> The position of each store will change throughout the round. </p><p> The store's position <i> does not </i> influence how likely you are to find the fruit. </p>","","0","instructions","","","","","","","","","","","","","",""
"learning-instructions","85","438138","0.0-9.0-1.0-0.9","1869","1","2","""event"",""trial"",""time""
""fullscreenenter"",""1"",""2314""
","
","
","""event"",""trial"",""time""
""fullscreenenter"",""1"",""2314""
","
","","","","","","451.8000000715256","<p> You will have 4 seconds to make each choice. Try to respond before time runs out! </p><p> You will lose 1 point each time you do not make a response. </p>","","0","instructions","","","","","","","","","","","","","",""
"html-keyboard-response","86","438741","0.0-9.0-2.0-0.0","1869","1","2","""event"",""trial"",""time""
""fullscreenenter"",""1"",""2314""
","
","
","""event"",""trial"",""time""
""fullscreenenter"",""1"",""2314""
","
","","","","","","null","<div style=""font-size:60px;"">+</div>","null","","fixation","","","","","","","","","","","","","",""
"learning-trial","87","442744","0.0-9.0-2.0-1.0","1869","1","2","""event"",""trial"",""time""
""fullscreenenter"",""1"",""2314""
","
","
","""event"",""trial"",""time""
""fullscreenenter"",""1"",""2314""
","
","","","","","","1158.6999999284744","images/straw3.png","","","learning","images/fruit_choice2.png","images/fruit_choice3.png","images/fruit_choice1.png","[1,2,0]","0","2","1","images/fruit_choice2.png","-1","fruit","","straw","1","0"
"html-keyboard-response","88","443249","0.0-9.0-2.0-0.1","1869","1","2","""event"",""trial"",""time""
""fullscreenenter"",""1"",""2314""
","
","
","""event"",""trial"",""time""
""fullscreenenter"",""1"",""2314""
","
","","","","","","null","<div style=""font-size:60px;"">+</div>","null","","fixation","","","","","","","","","","","","","",""
"learning-trial","89","447254","0.0-9.0-2.0-1.1","1869","1","2","""event"",""trial"",""time""
""fullscreenenter"",""1"",""2314""
","
","
","""event"",""trial"",""time""
""fullscreenenter"",""1"",""2314""
","
","","","","","","1299.5","images/banana4.png","","","learning","images/fruit_choice2.png","images/fruit_choice1.png","images/fruit_choice3.png","[1,0,2]","2","2","1","images/fruit_choice2.png","-1","fruit","","banana","1","0"
"html-keyboard-response","90","447756","0.0-9.0-2.0-0.2","1869","1","2","""event"",""trial"",""time""
""fullscreenenter"",""1"",""2314""
","
","
","""event"",""trial"",""time""
""fullscreenenter"",""1"",""2314""
","
","","","","","","null","<div style=""font-size:60px;"">+</div>","null","","fixation","","","","","","","","","","","","","",""
"learning-trial","91","451761","0.0-9.0-2.0-1.2","1869","1","2","""event"",""trial"",""time""
""fullscreenenter"",""1"",""2314""
","
","
","""event"",""trial"",""time""
""fullscreenenter"",""1"",""2314""
","
","","","","","","1717.8999999761581","images/banana4.png","","","learning","images/fruit_choice1.png","images/fruit_choice3.png","images/fruit_choice2.png","[0,2,1]","2","1","2","images/fruit_choice3.png","-1","fruit","","banana","1","0"
"html-keyboard-response","92","452267","0.0-9.0-2.0-0.3","1869","1","2","""event"",""trial"",""time""
""fullscreenenter"",""1"",""2314""
","
","
","""event"",""trial"",""time""
""fullscreenenter"",""1"",""2314""
","
","","","","","","null","<div style=""font-size:60px;"">+</div>","null","","fixation","","","","","","","","","","","","","",""
"learning-trial","93","456269","0.0-9.0-2.0-1.3","1869","1","2","""event"",""trial"",""time""
""fullscreenenter"",""1"",""2314""
","
","
","""event"",""trial"",""time""
""fullscreenenter"",""1"",""2314""
","
","","","","","","1336.1999999284744","images/orange5.png","","","learning","images/fruit_choice1.png","images/fruit_choice2.png","images/fruit_choice3.png","[0,1,2]","1","1","1","images/fruit_choice1.png","-1","fruit","","orange","1","0"
"html-keyboard-response","94","456771","0.0-9.0-2.0-0.4","1869","1","2","""event"",""trial"",""time""
""fullscreenenter"",""1"",""2314""
","
","
","""event"",""trial"",""time""
""fullscreenenter"",""1"",""2314""
","
","","","","","","null","<div style=""font-size:60px;"">+</div>","null","","fixation","","","","","","","","","","","","","",""
"learning-trial","95","460774","0.0-9.0-2.0-1.4","1869","1","2","""event"",""trial"",""time""
""fullscreenenter"",""1"",""2314""
","
","
","""event"",""trial"",""time""
""fullscreenenter"",""1"",""2314""
","
","","","","","","1693","images/straw1.png","","","learning","images/fruit_choice3.png","images/fruit_choice1.png","images/fruit_choice2.png","[2,0,1]","0","1","1","images/fruit_choice3.png","-1","fruit","","straw","1","0"
"html-keyboard-response","96","461276","0.0-9.0-2.0-0.5","1869","1","2","""event"",""trial"",""time""
""fullscreenenter"",""1"",""2314""
","
","
","""event"",""trial"",""time""
""fullscreenenter"",""1"",""2314""
","
","","","","","","null","<div style=""font-size:60px;"">+</div>","null","","fixation","","","","","","","","","","","","","",""
"learning-trial","97","465281","0.0-9.0-2.0-1.5","1869","1","2","""event"",""trial"",""time""
""fullscreenenter"",""1"",""2314""
","
","
","""event"",""trial"",""time""
""fullscreenenter"",""1"",""2314""
","
","","","","","","2219.100000023842","images/banana1.png","","","learning","images/fruit_choice1.png","images/fruit_choice3.png","images/fruit_choice2.png","[0,2,1]","2","1","1","images/fruit_choice1.png","-1","fruit","","banana","1","0"
"html-keyboard-response","98","465786","0.0-9.0-2.0-0.6","1869","1","2","""event"",""trial"",""time""
""fullscreenenter"",""1"",""2314""
","
","
","""event"",""trial"",""time""
""fullscreenenter"",""1"",""2314""
","
","","","","","","null","<div style=""font-size:60px;"">+</div>","null","","fixation","","","","","","","","","","","","","",""
"learning-trial","99","469792","0.0-9.0-2.0-1.6","1869","1","2","""event"",""trial"",""time""
""fullscreenenter"",""1"",""2314""
","
","
","""event"",""trial"",""time""
""fullscreenenter"",""1"",""2314""
","
","","","","","","2273.7999999523163","images/orange2.png","","","learning","images/fruit_choice1.png","images/fruit_choice3.png","images/fruit_choice2.png","[0,2,1]","1","2","1","images/fruit_choice1.png","-1","fruit","","orange","1","0"
"html-keyboard-response","100","470294","0.0-9.0-2.0-0.7","1869","1","2","""event"",""trial"",""time""
""fullscreenenter"",""1"",""2314""
","
","
","""event"",""trial"",""time""
""fullscreenenter"",""1"",""2314""
","
","","","","","","null","<div style=""font-size:60px;"">+</div>","null","","fixation","","","","","","","","","","","","","",""
"learning-trial","101","474300","0.0-9.0-2.0-1.7","1869","1","2","""event"",""trial"",""time""
""fullscreenenter"",""1"",""2314""
","
","
","""event"",""trial"",""time""
""fullscreenenter"",""1"",""2314""
","
","","","","","","1988.0999999046326","images/banana5.png","","","learning","images/fruit_choice2.png","images/fruit_choice3.png","images/fruit_choice1.png","[1,2,0]","2","1","3","images/fruit_choice1.png","-1","fruit","","banana","1","0"
"html-keyboard-response","102","474802","0.0-9.0-2.0-0.8","1869","1","2","""event"",""trial"",""time""
""fullscreenenter"",""1"",""2314""
","
","
","""event"",""trial"",""time""
""fullscreenenter"",""1"",""2314""
","
","","","","","","null","<div style=""font-size:60px;"">+</div>","null","","fixation","","","","","","","","","","","","","",""
"learning-trial","103","478807","0.0-9.0-2.0-1.8","1869","1","2","""event"",""trial"",""time""
""fullscreenenter"",""1"",""2314""
","
","
","""event"",""trial"",""time""
""fullscreenenter"",""1"",""2314""
","
","","","","","","2288.899999976158","images/banana1.png","","","learning","images/fruit_choice2.png","images/fruit_choice1.png","images/fruit_choice3.png","[1,0,2]","2","2","2","images/fruit_choice1.png","-1","fruit","","banana","1","0"
"html-keyboard-response","104","479312","0.0-9.0-2.0-0.9","1869","1","2","""event"",""trial"",""time""
""fullscreenenter"",""1"",""2314""
","
","
","""event"",""trial"",""time""
""fullscreenenter"",""1"",""2314""
","
","","","","","","null","<div style=""font-size:60px;"">+</div>","null","","fixation","","","","","","","","","","","","","",""
"learning-trial","105","483318","0.0-9.0-2.0-1.9","1869","1","2","""event"",""trial"",""time""
""fullscreenenter"",""1"",""2314""
","
","
","""event"",""trial"",""time""
""fullscreenenter"",""1"",""2314""
","
","","","","","","2711.9000000953674","images/banana1.png","","","learning","images/fruit_choice1.png","images/fruit_choice2.png","images/fruit_choice3.png","[0,1,2]","2","2","3","images/fruit_choice3.png","1","fruit","","banana","1","0"
"html-keyboard-response","106","483823","0.0-9.0-2.0-0.10","1869","1","2","""event"",""trial"",""time""
""fullscreenenter"",""1"",""2314""
","
","
","""event"",""trial"",""time""
""fullscreenenter"",""1"",""2314""
","
","","","","","","null","<div style=""font-size:60px;"">+</div>","null","","fixation","","","","","","","","","","","","","",""
"learning-trial","107","487829","0.0-9.0-2.0-1.10","1869","1","2","""event"",""trial"",""time""
""fullscreenenter"",""1"",""2314""
","
","
","""event"",""trial"",""time""
""fullscreenenter"",""1"",""2314""
","
","","","","","","1963.3999999761581","images/banana4.png","","","learning","images/fruit_choice1.png","images/fruit_choice3.png","images/fruit_choice2.png","[0,2,1]","2","1","1","images/fruit_choice1.png","-1","fruit","","banana","1","0"
"html-keyboard-response","108","488333","0.0-9.0-2.0-0.11","1869","1","2","""event"",""trial"",""time""
""fullscreenenter"",""1"",""2314""
","
","
","""event"",""trial"",""time""
""fullscreenenter"",""1"",""2314""
","
","","","","","","null","<div style=""font-size:60px;"">+</div>","null","","fixation","","","","","","","","","","","","","",""
"learning-trial","109","492338","0.0-9.0-2.0-1.11","1869","1","2","""event"",""trial"",""time""
""fullscreenenter"",""1"",""2314""
","
","
","""event"",""trial"",""time""
""fullscreenenter"",""1"",""2314""
","
","","","","","","1637","images/orange2.png","","","learning","images/fruit_choice2.png","images/fruit_choice3.png","images/fruit_choice1.png","[1,2,0]","1","0","1","images/fruit_choice2.png","1","fruit","","orange","1","0"
"html-keyboard-response","110","492841","0.0-9.0-2.0-0.12","1869","1","2","""event"",""trial"",""time""
""fullscreenenter"",""1"",""2314""
","
","
","""event"",""trial"",""time""
""fullscreenenter"",""1"",""2314""
","
","","","","","","null","<div style=""font-size:60px;"">+</div>","null","","fixation","","","","","","","","","","","","","",""
"learning-trial","111","496847","0.0-9.0-2.0-1.12","1869","1","2","""event"",""trial"",""time""
""fullscreenenter"",""1"",""2314""
","
","
","""event"",""trial"",""time""
""fullscreenenter"",""1"",""2314""
","
","","","","","","2542.2000000476837","images/banana5.png","","","learning","images/fruit_choice3.png","images/fruit_choice2.png","images/fruit_choice1.png","[2,1,0]","2","0","1","images/fruit_choice3.png","1","fruit","","banana","1","0"
"html-keyboard-response","112","497349","0.0-9.0-2.0-0.13","1869","1","2","""event"",""trial"",""time""
""fullscreenenter"",""1"",""2314""
","
","
","""event"",""trial"",""time""
""fullscreenenter"",""1"",""2314""
","
","","","","","","null","<div style=""font-size:60px;"">+</div>","null","","fixation","","","","","","","","","","","","","",""
"learning-trial","113","501354","0.0-9.0-2.0-1.13","1869","1","2","""event"",""trial"",""time""
""fullscreenenter"",""1"",""2314""
","
","
","""event"",""trial"",""time""
""fullscreenenter"",""1"",""2314""
","
","","","","","","1949.2000000476837","images/banana5.png","","","learning","images/fruit_choice2.png","images/fruit_choice3.png","images/fruit_choice1.png","[1,2,0]","2","1","2","images/fruit_choice3.png","1","fruit","","banana","1","0"
"html-keyboard-response","114","501859","0.0-9.0-2.0-0.14","1869","1","2","""event"",""trial"",""time""
""fullscreenenter"",""1"",""2314""
","
","
","""event"",""trial"",""time""
""fullscreenenter"",""1"",""2314""
","
","","","","","","null","<div style=""font-size:60px;"">+</div>","null","","fixation","","","","","","","","","","","","","",""
"learning-trial","115","505865","0.0-9.0-2.0-1.14","1869","1","2","""event"",""trial"",""time""
""fullscreenenter"",""1"",""2314""
","
","
","""event"",""trial"",""time""
""fullscreenenter"",""1"",""2314""
","
","","","","","","1239.5","images/banana5.png","","","learning","images/fruit_choice2.png","images/fruit_choice3.png","images/fruit_choice1.png","[1,2,0]","2","1","2","images/fruit_choice3.png","1","fruit","","banana","1","0"
"html-keyboard-response","116","506369","0.0-9.0-2.0-0.15","1869","1","2","""event"",""trial"",""time""
""fullscreenenter"",""1"",""2314""
","
","
","""event"",""trial"",""time""
""fullscreenenter"",""1"",""2314""
","
","","","","","","null","<div style=""font-size:60px;"">+</div>","null","","fixation","","","","","","","","","","","","","",""
"learning-trial","117","510376","0.0-9.0-2.0-1.15","1869","1","2","""event"",""trial"",""time""
""fullscreenenter"",""1"",""2314""
","
","
","""event"",""trial"",""time""
""fullscreenenter"",""1"",""2314""
","
","","","","","","1343.6000000238419","images/orange4.png","","","learning","images/fruit_choice2.png","images/fruit_choice3.png","images/fruit_choice1.png","[1,2,0]","1","0","1","images/fruit_choice2.png","-1","fruit","","orange","1","0"
"html-keyboard-response","118","510880","0.0-9.0-2.0-0.16","1869","1","2","""event"",""trial"",""time""
""fullscreenenter"",""1"",""2314""
","
","
","""event"",""trial"",""time""
""fullscreenenter"",""1"",""2314""
","
","","","","","","null","<div style=""font-size:60px;"">+</div>","null","","fixation","","","","","","","","","","","","","",""
"learning-trial","119","514888","0.0-9.0-2.0-1.16","1869","1","2","""event"",""trial"",""time""
""fullscreenenter"",""1"",""2314""
","
","
","""event"",""trial"",""time""
""fullscreenenter"",""1"",""2314""
","
","","","","","","1453.8999999761581","images/orange5.png","","","learning","images/fruit_choice3.png","images/fruit_choice1.png","images/fruit_choice2.png","[2,0,1]","1","2","1","images/fruit_choice3.png","-1","fruit","","orange","1","0"
"html-keyboard-response","120","515391","0.0-9.0-2.0-0.17","1869","1","2","""event"",""trial"",""time""
""fullscreenenter"",""1"",""2314""
","
","
","""event"",""trial"",""time""
""fullscreenenter"",""1"",""2314""
","
","","","","","","null","<div style=""font-size:60px;"">+</div>","null","","fixation","","","","","","","","","","","","","",""
"learning-trial","121","519399","0.0-9.0-2.0-1.17","1869","1","2","""event"",""trial"",""time""
""fullscreenenter"",""1"",""2314""
","
","
","""event"",""trial"",""time""
""fullscreenenter"",""1"",""2314""
","
","","","","","","2260.2000000476837","images/banana1.png","","","learning","images/fruit_choice3.png","images/fruit_choice1.png","images/fruit_choice2.png","[2,0,1]","2","0","2","images/fruit_choice1.png","-1","fruit","","banana","1","0"
"html-keyboard-response","122","519901","0.0-9.0-2.0-0.18","1869","1","2","""event"",""trial"",""time""
""fullscreenenter"",""1"",""2314""
","
","
","""event"",""trial"",""time""
""fullscreenenter"",""1"",""2314""
","
","","","","","","null","<div style=""font-size:60px;"">+</div>","null","","fixation","","","","","","","","","","","","","",""
"learning-trial","123","523907","0.0-9.0-2.0-1.18","1869","1","2","""event"",""trial"",""time""
""fullscreenenter"",""1"",""2314""
","
","
","""event"",""trial"",""time""
""fullscreenenter"",""1"",""2314""
","
","","","","","","1458.1000000238419","images/orange5.png","","","learning","images/fruit_choice2.png","images/fruit_choice3.png","images/fruit_choice1.png","[1,2,0]","1","0","1","images/fruit_choice2.png","1","fruit","","orange","1","0"
"html-keyboard-response","124","524412","0.0-9.0-2.0-0.19","1869","1","2","""event"",""trial"",""time""
""fullscreenenter"",""1"",""2314""
","
","
","""event"",""trial"",""time""
""fullscreenenter"",""1"",""2314""
","
","","","","","","null","<div style=""font-size:60px;"">+</div>","null","","fixation","","","","","","","","","","","","","",""
"learning-trial","125","528420","0.0-9.0-2.0-1.19","1869","1","2","""event"",""trial"",""time""
""fullscreenenter"",""1"",""2314""
","
","
","""event"",""trial"",""time""
""fullscreenenter"",""1"",""2314""
","
","","","","","","981.3999999761581","images/orange2.png","","","learning","images/fruit_choice2.png","images/fruit_choice1.png","images/fruit_choice3.png","[1,0,2]","1","0","1","images/fruit_choice2.png","1","fruit","","orange","1","0"
"html-keyboard-response","126","528922","0.0-9.0-2.0-0.20","1869","1","2","""event"",""trial"",""time""
""fullscreenenter"",""1"",""2314""
","
","
","""event"",""trial"",""time""
""fullscreenenter"",""1"",""2314""
","
","","","","","","null","<div style=""font-size:60px;"">+</div>","null","","fixation","","","","","","","","","","","","","",""
"learning-trial","127","532928","0.0-9.0-2.0-1.20","1869","1","2","""event"",""trial"",""time""
""fullscreenenter"",""1"",""2314""
","
","
","""event"",""trial"",""time""
""fullscreenenter"",""1"",""2314""
","
","","","","","","1605.6999999284744","images/straw3.png","","","learning","images/fruit_choice2.png","images/fruit_choice1.png","images/fruit_choice3.png","[1,0,2]","0","1","3","images/fruit_choice3.png","1","fruit","","straw","1","0"
"html-keyboard-response","128","533430","0.0-9.0-2.0-0.21","1869","1","2","""event"",""trial"",""time""
""fullscreenenter"",""1"",""2314""
","
","
","""event"",""trial"",""time""
""fullscreenenter"",""1"",""2314""
","
","","","","","","null","<div style=""font-size:60px;"">+</div>","null","","fixation","","","","","","","","","","","","","",""
"learning-trial","129","537436","0.0-9.0-2.0-1.21","1869","1","2","""event"",""trial"",""time""
""fullscreenenter"",""1"",""2314""
","
","
","""event"",""trial"",""time""
""fullscreenenter"",""1"",""2314""
","
","","","","","","2363","images/orange4.png","","","learning","images/fruit_choice3.png","images/fruit_choice1.png","images/fruit_choice2.png","[2,0,1]","1","2","3","images/fruit_choice2.png","1","fruit","","orange","1","0"
"html-keyboard-response","130","537940","0.0-9.0-2.0-0.22","1869","1","2","""event"",""trial"",""time""
""fullscreenenter"",""1"",""2314""
","
","
","""event"",""trial"",""time""
""fullscreenenter"",""1"",""2314""
","
","","","","","","null","<div style=""font-size:60px;"">+</div>","null","","fixation","","","","","","","","","","","","","",""
"learning-trial","131","541946","0.0-9.0-2.0-1.22","1869","1","2","""event"",""trial"",""time""
""fullscreenenter"",""1"",""2314""
","
","
","""event"",""trial"",""time""
""fullscreenenter"",""1"",""2314""
","
","","","","","","1809.5","images/banana1.png","","","learning","images/fruit_choice3.png","images/fruit_choice1.png","images/fruit_choice2.png","[2,0,1]","2","0","2","images/fruit_choice1.png","-1","fruit","","banana","1","0"
"html-keyboard-response","132","542448","0.0-9.0-2.0-0.23","1869","1","2","""event"",""trial"",""time""
""fullscreenenter"",""1"",""2314""
","
","
","""event"",""trial"",""time""
""fullscreenenter"",""1"",""2314""
","
","","","","","","null","<div style=""font-size:60px;"">+</div>","null","","fixation","","","","","","","","","","","","","",""
"learning-trial","133","546454","0.0-9.0-2.0-1.23","1869","1","2","""event"",""trial"",""time""
""fullscreenenter"",""1"",""2314""
","
","
","""event"",""trial"",""time""
""fullscreenenter"",""1"",""2314""
","
","","","","","","1345.2999999523163","images/straw3.png","","","learning","images/fruit_choice2.png","images/fruit_choice1.png","images/fruit_choice3.png","[1,0,2]","0","1","3","images/fruit_choice3.png","1","fruit","","straw","1","0"
"html-keyboard-response","134","546961","0.0-9.0-2.0-0.24","1869","1","2","""event"",""trial"",""time""
""fullscreenenter"",""1"",""2314""
","
","
","""event"",""trial"",""time""
""fullscreenenter"",""1"",""2314""
","
","","","","","","null","<div style=""font-size:60px;"">+</div>","null","","fixation","","","","","","","","","","","","","",""
"learning-trial","135","550970","0.0-9.0-2.0-1.24","1869","1","2","""event"",""trial"",""time""
""fullscreenenter"",""1"",""2314""
","
","
","""event"",""trial"",""time""
""fullscreenenter"",""1"",""2314""
","
","","","","","","1905.3999999761581","images/orange4.png","","","learning","images/fruit_choice1.png","images/fruit_choice2.png","images/fruit_choice3.png","[0,1,2]","1","1","2","images/fruit_choice2.png","1","fruit","","orange","1","0"
"html-keyboard-response","136","551472","0.0-9.0-2.0-0.25","1869","1","2","""event"",""trial"",""time""
""fullscreenenter"",""1"",""2314""
","
","
","""event"",""trial"",""time""
""fullscreenenter"",""1"",""2314""
","
","","","","","","null","<div style=""font-size:60px;"">+</div>","null","","fixation","","","","","","","","","","","","","",""
"learning-trial","137","555478","0.0-9.0-2.0-1.25","1869","1","2","""event"",""trial"",""time""
""fullscreenenter"",""1"",""2314""
","
","
","""event"",""trial"",""time""
""fullscreenenter"",""1"",""2314""
","
","","","","","","1434.6000000238419","images/straw5.png","","","learning","images/fruit_choice2.png","images/fruit_choice3.png","images/fruit_choice1.png","[1,2,0]","0","2","2","images/fruit_choice3.png","-1","fruit","","straw","1","0"
"html-keyboard-response","138","555979","0.0-9.0-2.0-0.26","1869","1","2","""event"",""trial"",""time""
""fullscreenenter"",""1"",""2314""
","
","
","""event"",""trial"",""time""
""fullscreenenter"",""1"",""2314""
","
","","","","","","null","<div style=""font-size:60px;"">+</div>","null","","fixation","","","","","","","","","","","","","",""
"learning-trial","139","559983","0.0-9.0-2.0-1.26","1869","1","2","""event"",""trial"",""time""
""fullscreenenter"",""1"",""2314""
","
","
","""event"",""trial"",""time""
""fullscreenenter"",""1"",""2314""
","
","","","","","","1474.1999999284744","images/orange4.png","","","learning","images/fruit_choice3.png","images/fruit_choice1.png","images/fruit_choice2.png","[2,0,1]","1","2","3","images/fruit_choice2.png","1","fruit","","orange","1","0"
"html-keyboard-response","140","560487","0.0-9.0-2.0-0.27","1869","1","2","""event"",""trial"",""time""
""fullscreenenter"",""1"",""2314""
","
","
","""event"",""trial"",""time""
""fullscreenenter"",""1"",""2314""
","
","","","","","","null","<div style=""font-size:60px;"">+</div>","null","","fixation","","","","","","","","","","","","","",""
"learning-trial","141","564493","0.0-9.0-2.0-1.27","1869","1","2","""event"",""trial"",""time""
""fullscreenenter"",""1"",""2314""
","
","
","""event"",""trial"",""time""
""fullscreenenter"",""1"",""2314""
","
","","","","","","1171","images/orange5.png","","","learning","images/fruit_choice2.png","images/fruit_choice1.png","images/fruit_choice3.png","[1,0,2]","1","0","1","images/fruit_choice2.png","1","fruit","","orange","1","0"
"html-keyboard-response","142","564995","0.0-9.0-2.0-0.28","1869","1","2","""event"",""trial"",""time""
""fullscreenenter"",""1"",""2314""
","
","
","""event"",""trial"",""time""
""fullscreenenter"",""1"",""2314""
","
","","","","","","null","<div style=""font-size:60px;"">+</div>","null","","fixation","","","","","","","","","","","","","",""
"learning-trial","143","569004","0.0-9.0-2.0-1.28","1869","1","2","""event"",""trial"",""time""
""fullscreenenter"",""1"",""2314""
","
","
","""event"",""trial"",""time""
""fullscreenenter"",""1"",""2314""
","
","","","","","","977.1000000238419","images/orange4.png","","","learning","images/fruit_choice3.png","images/fruit_choice1.png","images/fruit_choice2.png","[2,0,1]","1","2","3","images/fruit_choice2.png","-1","fruit","","orange","1","0"
"html-keyboard-response","144","569510","0.0-9.0-2.0-0.29","1869","1","2","""event"",""trial"",""time""
""fullscreenenter"",""1"",""2314""
","
","
","""event"",""trial"",""time""
""fullscreenenter"",""1"",""2314""
","
","","","","","","null","<div style=""font-size:60px;"">+</div>","null","","fixation","","","","","","","","","","","","","",""
"learning-trial","145","573517","0.0-9.0-2.0-1.29","1869","1","2","""event"",""trial"",""time""
""fullscreenenter"",""1"",""2314""
","
","
","""event"",""trial"",""time""
""fullscreenenter"",""1"",""2314""
","
","","","","","","1737.3000000715256","images/straw5.png","","","learning","images/fruit_choice2.png","images/fruit_choice1.png","images/fruit_choice3.png","[1,0,2]","0","1","3","images/fruit_choice3.png","-1","fruit","","straw","1","0"
"html-keyboard-response","146","574019","0.0-9.0-2.0-0.30","1869","1","2","""event"",""trial"",""time""
""fullscreenenter"",""1"",""2314""
","
","
","""event"",""trial"",""time""
""fullscreenenter"",""1"",""2314""
","
","","","","","","null","<div style=""font-size:60px;"">+</div>","null","","fixation","","","","","","","","","","","","","",""
"learning-trial","147","578028","0.0-9.0-2.0-1.30","1869","1","2","""event"",""trial"",""time""
""fullscreenenter"",""1"",""2314""
","
","
","""event"",""trial"",""time""
""fullscreenenter"",""1"",""2314""
","
","","","","","","1182.8999999761581","images/straw3.png","","","learning","images/fruit_choice1.png","images/fruit_choice2.png","images/fruit_choice3.png","[0,1,2]","0","0","3","images/fruit_choice3.png","-1","fruit","","straw","1","0"
"html-keyboard-response","148","578533","0.0-9.0-2.0-0.31","1869","1","2","""event"",""trial"",""time""
""fullscreenenter"",""1"",""2314""
","
","
","""event"",""trial"",""time""
""fullscreenenter"",""1"",""2314""
","
","","","","","","null","<div style=""font-size:60px;"">+</div>","null","","fixation","","","","","","","","","","","","","",""
"learning-trial","149","582538","0.0-9.0-2.0-1.31","1869","1","2","""event"",""trial"",""time""
""fullscreenenter"",""1"",""2314""
","
","
","""event"",""trial"",""time""
""fullscreenenter"",""1"",""2314""
","
","","","","","","1112.7999999523163","images/straw5.png","","","learning","images/fruit_choice3.png","images/fruit_choice1.png","images/fruit_choice2.png","[2,0,1]","0","1","2","images/fruit_choice1.png","1","fruit","","straw","1","0"
"html-keyboard-response","150","583043","0.0-9.0-2.0-0.32","1869","1","2","""event"",""trial"",""time""
""fullscreenenter"",""1"",""2314""
","
","
","""event"",""trial"",""time""
""fullscreenenter"",""1"",""2314""
","
","","","","","","null","<div style=""font-size:60px;"">+</div>","null","","fixation","","","","","","","","","","","","","",""
"learning-trial","151","587049","0.0-9.0-2.0-1.32","1869","1","2","""event"",""trial"",""time""
""fullscreenenter"",""1"",""2314""
","
","
","""event"",""trial"",""time""
""fullscreenenter"",""1"",""2314""
","
","","","","","","1436.9000000953674","images/straw5.png","","","learning","images/fruit_choice3.png","images/fruit_choice2.png","images/fruit_choice1.png","[2,1,0]","0","2","3","images/fruit_choice1.png","1","fruit","","straw","1","0"
"html-keyboard-response","152","587551","0.0-9.0-2.0-0.33","1869","1","2","""event"",""trial"",""time""
""fullscreenenter"",""1"",""2314""
","
","
","""event"",""trial"",""time""
""fullscreenenter"",""1"",""2314""
","
","","","","","","null","<div style=""font-size:60px;"">+</div>","null","","fixation","","","","","","","","","","","","","",""
"learning-trial","153","591556","0.0-9.0-2.0-1.33","1869","1","2","""event"",""trial"",""time""
""fullscreenenter"",""1"",""2314""
","
","
","""event"",""trial"",""time""
""fullscreenenter"",""1"",""2314""
","
","","","","","","888.8000000715256","images/straw1.png","","","learning","images/fruit_choice2.png","images/fruit_choice3.png","images/fruit_choice1.png","[1,2,0]","0","2","3","images/fruit_choice1.png","1","fruit","","straw","1","0"
"html-keyboard-response","154","592058","0.0-9.0-2.0-0.34","1869","1","2","""event"",""trial"",""time""
""fullscreenenter"",""1"",""2314""
","
","
","""event"",""trial"",""time""
""fullscreenenter"",""1"",""2314""
","
","","","","","","null","<div style=""font-size:60px;"">+</div>","null","","fixation","","","","","","","","","","","","","",""
"learning-trial","155","596064","0.0-9.0-2.0-1.34","1869","1","2","""event"",""trial"",""time""
""fullscreenenter"",""1"",""2314""
","
","
","""event"",""trial"",""time""
""fullscreenenter"",""1"",""2314""
","
","","","","","","1433.7000000476837","images/banana1.png","","","learning","images/fruit_choice1.png","images/fruit_choice2.png","images/fruit_choice3.png","[0,1,2]","2","2","2","images/fruit_choice2.png","-1","fruit","","banana","1","0"
"html-keyboard-response","156","596566","0.0-9.0-2.0-0.35","1869","1","2","""event"",""trial"",""time""
""fullscreenenter"",""1"",""2314""
","
","
","""event"",""trial"",""time""
""fullscreenenter"",""1"",""2314""
","
","","","","","","null","<div style=""font-size:60px;"">+</div>","null","","fixation","","","","","","","","","","","","","",""
"learning-trial","157","600572","0.0-9.0-2.0-1.35","1869","1","2","""event"",""trial"",""time""
""fullscreenenter"",""1"",""2314""
","
","
","""event"",""trial"",""time""
""fullscreenenter"",""1"",""2314""
","
","","","","","","1675.0999999046326","images/orange4.png","","","learning","images/fruit_choice2.png","images/fruit_choice1.png","images/fruit_choice3.png","[1,0,2]","1","0","1","images/fruit_choice2.png","1","fruit","","orange","1","0"
"html-keyboard-response","158","601076","0.0-9.0-2.0-0.36","1869","1","2","""event"",""trial"",""time""
""fullscreenenter"",""1"",""2314""
","
","
","""event"",""trial"",""time""
""fullscreenenter"",""1"",""2314""
","
","","","","","","null","<div style=""font-size:60px;"">+</div>","null","","fixation","","","","","","","","","","","","","",""
"learning-trial","159","605082","0.0-9.0-2.0-1.36","1869","1","2","""event"",""trial"",""time""
""fullscreenenter"",""1"",""2314""
","
","
","""event"",""trial"",""time""
""fullscreenenter"",""1"",""2314""
","
","","","","","","2198.5","images/banana4.png","","","learning","images/fruit_choice3.png","images/fruit_choice1.png","images/fruit_choice2.png","[2,0,1]","2","0","1","images/fruit_choice3.png","1","fruit","","banana","1","0"
"html-keyboard-response","160","605587","0.0-9.0-2.0-0.37","1869","1","2","""event"",""trial"",""time""
""fullscreenenter"",""1"",""2314""
","
","
","""event"",""trial"",""time""
""fullscreenenter"",""1"",""2314""
","
","","","","","","null","<div style=""font-size:60px;"">+</div>","null","","fixation","","","","","","","","","","","","","",""
"learning-trial","161","609590","0.0-9.0-2.0-1.37","1869","1","2","""event"",""trial"",""time""
""fullscreenenter"",""1"",""2314""
","
","
","""event"",""trial"",""time""
""fullscreenenter"",""1"",""2314""
","
","","","","","","2059.100000023842","images/straw1.png","","","learning","images/fruit_choice2.png","images/fruit_choice3.png","images/fruit_choice1.png","[1,2,0]","0","2","3","images/fruit_choice1.png","1","fruit","","straw","1","0"
"html-keyboard-response","162","610092","0.0-9.0-2.0-0.38","1869","1","2","""event"",""trial"",""time""
""fullscreenenter"",""1"",""2314""
","
","
","""event"",""trial"",""time""
""fullscreenenter"",""1"",""2314""
","
","","","","","","null","<div style=""font-size:60px;"">+</div>","null","","fixation","","","","","","","","","","","","","",""
"learning-trial","163","614097","0.0-9.0-2.0-1.38","1869","1","2","""event"",""trial"",""time""
""fullscreenenter"",""1"",""2314""
","
","
","""event"",""trial"",""time""
""fullscreenenter"",""1"",""2314""
","
","","","","","","1086.1999999284744","images/straw5.png","","","learning","images/fruit_choice2.png","images/fruit_choice1.png","images/fruit_choice3.png","[1,0,2]","0","1","2","images/fruit_choice1.png","1","fruit","","straw","1","0"
"html-keyboard-response","164","614602","0.0-9.0-2.0-0.39","1869","1","2","""event"",""trial"",""time""
""fullscreenenter"",""1"",""2314""
","
","
","""event"",""trial"",""time""
""fullscreenenter"",""1"",""2314""
","
","","","","","","null","<div style=""font-size:60px;"">+</div>","null","","fixation","","","","","","","","","","","","","",""
"learning-trial","165","618611","0.0-9.0-2.0-1.39","1869","1","2","""event"",""trial"",""time""
""fullscreenenter"",""1"",""2314""
","
","
","""event"",""trial"",""time""
""fullscreenenter"",""1"",""2314""
","
","","","","","","1791.5","images/banana4.png","","","learning","images/fruit_choice1.png","images/fruit_choice3.png","images/fruit_choice2.png","[0,2,1]","2","1","3","images/fruit_choice2.png","1","fruit","","banana","1","0"
"html-keyboard-response","166","619113","0.0-9.0-2.0-0.40","1869","1","2","""event"",""trial"",""time""
""fullscreenenter"",""1"",""2314""
","
","
","""event"",""trial"",""time""
""fullscreenenter"",""1"",""2314""
","
","","","","","","null","<div style=""font-size:60px;"">+</div>","null","","fixation","","","","","","","","","","","","","",""
"learning-trial","167","623119","0.0-9.0-2.0-1.40","1869","1","2","""event"",""trial"",""time""
""fullscreenenter"",""1"",""2314""
","
","
","""event"",""trial"",""time""
""fullscreenenter"",""1"",""2314""
","
","","","","","","1536.7999999523163","images/banana1.png","","","learning","images/fruit_choice1.png","images/fruit_choice3.png","images/fruit_choice2.png","[0,2,1]","2","1","2","images/fruit_choice3.png","1","fruit","","banana","1","0"
"html-keyboard-response","168","623620","0.0-9.0-2.0-0.41","1869","1","2","""event"",""trial"",""time""
""fullscreenenter"",""1"",""2314""
","
","
","""event"",""trial"",""time""
""fullscreenenter"",""1"",""2314""
","
","","","","","","null","<div style=""font-size:60px;"">+</div>","null","","fixation","","","","","","","","","","","","","",""
"learning-trial","169","627626","0.0-9.0-2.0-1.41","1869","1","2","""event"",""trial"",""time""
""fullscreenenter"",""1"",""2314""
","
","
","""event"",""trial"",""time""
""fullscreenenter"",""1"",""2314""
","
","","","","","","1218","images/orange4.png","","","learning","images/fruit_choice3.png","images/fruit_choice2.png","images/fruit_choice1.png","[2,1,0]","1","1","2","images/fruit_choice2.png","1","fruit","","orange","1","0"
"html-keyboard-response","170","628128","0.0-9.0-2.0-0.42","1869","1","2","""event"",""trial"",""time""
""fullscreenenter"",""1"",""2314""
","
","
","""event"",""trial"",""time""
""fullscreenenter"",""1"",""2314""
","
","","","","","","null","<div style=""font-size:60px;"">+</div>","null","","fixation","","","","","","","","","","","","","",""
"learning-trial","171","632134","0.0-9.0-2.0-1.42","1869","1","2","""event"",""trial"",""time""
""fullscreenenter"",""1"",""2314""
","
","
","""event"",""trial"",""time""
""fullscreenenter"",""1"",""2314""
","
","","","","","","1376.8999999761581","images/banana4.png","","","learning","images/fruit_choice3.png","images/fruit_choice1.png","images/fruit_choice2.png","[2,0,1]","2","0","1","images/fruit_choice3.png","1","fruit","","banana","1","0"
"html-keyboard-response","172","632640","0.0-9.0-2.0-0.43","1869","1","2","""event"",""trial"",""time""
""fullscreenenter"",""1"",""2314""
","
","
","""event"",""trial"",""time""
""fullscreenenter"",""1"",""2314""
","
","","","","","","null","<div style=""font-size:60px;"">+</div>","null","","fixation","","","","","","","","","","","","","",""
"learning-trial","173","636647","0.0-9.0-2.0-1.43","1869","1","2","""event"",""trial"",""time""
""fullscreenenter"",""1"",""2314""
","
","
","""event"",""trial"",""time""
""fullscreenenter"",""1"",""2314""
","
","","","","","","1154.3999999761581","images/orange2.png","","","learning","images/fruit_choice3.png","images/fruit_choice1.png","images/fruit_choice2.png","[2,0,1]","1","2","3","images/fruit_choice2.png","1","fruit","","orange","1","0"
"html-keyboard-response","174","637149","0.0-9.0-2.0-0.44","1869","1","2","""event"",""trial"",""time""
""fullscreenenter"",""1"",""2314""
","
","
","""event"",""trial"",""time""
""fullscreenenter"",""1"",""2314""
","
","","","","","","null","<div style=""font-size:60px;"">+</div>","null","","fixation","","","","","","","","","","","","","",""
"learning-trial","175","641155","0.0-9.0-2.0-1.44","1869","1","2","""event"",""trial"",""time""
""fullscreenenter"",""1"",""2314""
","
","
","""event"",""trial"",""time""
""fullscreenenter"",""1"",""2314""
","
","","","","","","965.5","images/orange4.png","","","learning","images/fruit_choice2.png","images/fruit_choice3.png","images/fruit_choice1.png","[1,2,0]","1","0","1","images/fruit_choice2.png","1","fruit","","orange","1","0"
"html-keyboard-response","176","641657","0.0-9.0-2.0-0.45","1869","1","2","""event"",""trial"",""time""
""fullscreenenter"",""1"",""2314""
","
","
","""event"",""trial"",""time""
""fullscreenenter"",""1"",""2314""
","
","","","","","","null","<div style=""font-size:60px;"">+</div>","null","","fixation","","","","","","","","","","","","","",""
"learning-trial","177","645662","0.0-9.0-2.0-1.45","1869","1","2","""event"",""trial"",""time""
""fullscreenenter"",""1"",""2314""
","
","
","""event"",""trial"",""time""
""fullscreenenter"",""1"",""2314""
","
","","","","","","892.8999999761581","images/orange5.png","","","learning","images/fruit_choice1.png","images/fruit_choice2.png","images/fruit_choice3.png","[0,1,2]","1","1","2","images/fruit_choice2.png","1","fruit","","orange","1","0"
"html-keyboard-response","178","646164","0.0-9.0-2.0-0.46","1869","1","2","""event"",""trial"",""time""
""fullscreenenter"",""1"",""2314""
","
","
","""event"",""trial"",""time""
""fullscreenenter"",""1"",""2314""
","
","","","","","","null","<div style=""font-size:60px;"">+</div>","null","","fixation","","","","","","","","","","","","","",""
"learning-trial","179","650170","0.0-9.0-2.0-1.46","1869","1","2","""event"",""trial"",""time""
""fullscreenenter"",""1"",""2314""
","
","
","""event"",""trial"",""time""
""fullscreenenter"",""1"",""2314""
","
","","","","","","2127.899999976158","images/banana5.png","","","learning","images/fruit_choice3.png","images/fruit_choice1.png","images/fruit_choice2.png","[2,0,1]","2","0","2","images/fruit_choice1.png","-1","fruit","","banana","1","0"
"html-keyboard-response","180","650676","0.0-9.0-2.0-0.47","1869","1","2","""event"",""trial"",""time""
""fullscreenenter"",""1"",""2314""
","
","
","""event"",""trial"",""time""
""fullscreenenter"",""1"",""2314""
","
","","","","","","null","<div style=""font-size:60px;"">+</div>","null","","fixation","","","","","","","","","","","","","",""
"learning-trial","181","654681","0.0-9.0-2.0-1.47","1869","1","2","""event"",""trial"",""time""
""fullscreenenter"",""1"",""2314""
","
","
","""event"",""trial"",""time""
""fullscreenenter"",""1"",""2314""
","
","","","","","","1418","images/straw1.png","","","learning","images/fruit_choice3.png","images/fruit_choice2.png","images/fruit_choice1.png","[2,1,0]","0","2","3","images/fruit_choice1.png","1","fruit","","straw","1","0"
"html-keyboard-response","182","655182","0.0-9.0-2.0-0.48","1869","1","2","""event"",""trial"",""time""
""fullscreenenter"",""1"",""2314""
","
","
","""event"",""trial"",""time""
""fullscreenenter"",""1"",""2314""
","
","","","","","","null","<div style=""font-size:60px;"">+</div>","null","","fixation","","","","","","","","","","","","","",""
"learning-trial","183","659188","0.0-9.0-2.0-1.48","1869","1","2","""event"",""trial"",""time""
""fullscreenenter"",""1"",""2314""
","
","
","""event"",""trial"",""time""
""fullscreenenter"",""1"",""2314""
","
","","","","","","989.4000000953674","images/orange5.png","","","learning","images/fruit_choice1.png","images/fruit_choice3.png","images/fruit_choice2.png","[0,2,1]","1","2","1","images/fruit_choice1.png","-1","fruit","","orange","1","0"
"html-keyboard-response","184","659693","0.0-9.0-2.0-0.49","1869","1","2","""event"",""trial"",""time""
""fullscreenenter"",""1"",""2314""
","
","
","""event"",""trial"",""time""
""fullscreenenter"",""1"",""2314""
","
","","","","","","null","<div style=""font-size:60px;"">+</div>","null","","fixation","","","","","","","","","","","","","",""
"learning-trial","185","663701","0.0-9.0-2.0-1.49","1869","1","2","""event"",""trial"",""time""
""fullscreenenter"",""1"",""2314""
","
","
","""event"",""trial"",""time""
""fullscreenenter"",""1"",""2314""
","
","","","","","","2007.6000000238419","images/straw1.png","","","learning","images/fruit_choice1.png","images/fruit_choice3.png","images/fruit_choice2.png","[0,2,1]","0","0","1","images/fruit_choice1.png","1","fruit","","straw","1","0"
"html-keyboard-response","186","664203","0.0-9.0-2.0-0.50","1869","1","2","""event"",""trial"",""time""
""fullscreenenter"",""1"",""2314""
","
","
","""event"",""trial"",""time""
""fullscreenenter"",""1"",""2314""
","
","","","","","","null","<div style=""font-size:60px;"">+</div>","null","","fixation","","","","","","","","","","","","","",""
"learning-trial","187","668212","0.0-9.0-2.0-1.50","1869","1","2","""event"",""trial"",""time""
""fullscreenenter"",""1"",""2314""
","
","
","""event"",""trial"",""time""
""fullscreenenter"",""1"",""2314""
","
","","","","","","993.6000000238419","images/straw3.png","","","learning","images/fruit_choice3.png","images/fruit_choice1.png","images/fruit_choice2.png","[2,0,1]","0","1","2","images/fruit_choice1.png","-1","fruit","","straw","1","0"
"html-keyboard-response","188","668714","0.0-9.0-2.0-0.51","1869","1","2","""event"",""trial"",""time""
""fullscreenenter"",""1"",""2314""
","
","
","""event"",""trial"",""time""
""fullscreenenter"",""1"",""2314""
","
","","","","","","null","<div style=""font-size:60px;"">+</div>","null","","fixation","","","","","","","","","","","","","",""
"learning-trial","189","672719","0.0-9.0-2.0-1.51","1869","1","2","""event"",""trial"",""time""
""fullscreenenter"",""1"",""2314""
","
","
","""event"",""trial"",""time""
""fullscreenenter"",""1"",""2314""
","
","","","","","","1155.5","images/straw1.png","","","learning","images/fruit_choice2.png","images/fruit_choice1.png","images/fruit_choice3.png","[1,0,2]","0","1","2","images/fruit_choice1.png","1","fruit","","straw","1","0"
"html-keyboard-response","190","673222","0.0-9.0-2.0-0.52","1869","1","2","""event"",""trial"",""time""
""fullscreenenter"",""1"",""2314""
","
","
","""event"",""trial"",""time""
""fullscreenenter"",""1"",""2314""
","
","","","","","","null","<div style=""font-size:60px;"">+</div>","null","","fixation","","","","","","","","","","","","","",""
"learning-trial","191","677227","0.0-9.0-2.0-1.52","1869","1","2","""event"",""trial"",""time""
""fullscreenenter"",""1"",""2314""
","
","
","""event"",""trial"",""time""
""fullscreenenter"",""1"",""2314""
","
","","","","","","1102.6000000238419","images/straw1.png","","","learning","images/fruit_choice1.png","images/fruit_choice3.png","images/fruit_choice2.png","[0,2,1]","0","0","1","images/fruit_choice1.png","1","fruit","","straw","1","0"
"html-keyboard-response","192","677729","0.0-9.0-2.0-0.53","1869","1","2","""event"",""trial"",""time""
""fullscreenenter"",""1"",""2314""
","
","
","""event"",""trial"",""time""
""fullscreenenter"",""1"",""2314""
","
","","","","","","null","<div style=""font-size:60px;"">+</div>","null","","fixation","","","","","","","","","","","","","",""
"learning-trial","193","681735","0.0-9.0-2.0-1.53","1869","1","2","""event"",""trial"",""time""
""fullscreenenter"",""1"",""2314""
","
","
","""event"",""trial"",""time""
""fullscreenenter"",""1"",""2314""
","
","","","","","","1033.9000000953674","images/orange2.png","","","learning","images/fruit_choice2.png","images/fruit_choice1.png","images/fruit_choice3.png","[1,0,2]","1","0","1","images/fruit_choice2.png","1","fruit","","orange","1","0"
"html-keyboard-response","194","682237","0.0-9.0-2.0-0.54","1869","1","2","""event"",""trial"",""time""
""fullscreenenter"",""1"",""2314""
","
","
","""event"",""trial"",""time""
""fullscreenenter"",""1"",""2314""
","
","","","","","","null","<div style=""font-size:60px;"">+</div>","null","","fixation","","","","","","","","","","","","","",""
"learning-trial","195","686246","0.0-9.0-2.0-1.54","1869","1","2","""event"",""trial"",""time""
""fullscreenenter"",""1"",""2314""
","
","
","""event"",""trial"",""time""
""fullscreenenter"",""1"",""2314""
","
","","","","","","691.5","images/orange2.png","","","learning","images/fruit_choice2.png","images/fruit_choice1.png","images/fruit_choice3.png","[1,0,2]","1","0","1","images/fruit_choice2.png","1","fruit","","orange","1","0"
"html-keyboard-response","196","686748","0.0-9.0-2.0-0.55","1869","1","2","""event"",""trial"",""time""
""fullscreenenter"",""1"",""2314""
","
","
","""event"",""trial"",""time""
""fullscreenenter"",""1"",""2314""
","
","","","","","","null","<div style=""font-size:60px;"">+</div>","null","","fixation","","","","","","","","","","","","","",""
"learning-trial","197","690753","0.0-9.0-2.0-1.55","1869","1","2","""event"",""trial"",""time""
""fullscreenenter"",""1"",""2314""
","
","
","""event"",""trial"",""time""
""fullscreenenter"",""1"",""2314""
","
","","","","","","1850","images/straw3.png","","","learning","images/fruit_choice3.png","images/fruit_choice1.png","images/fruit_choice2.png","[2,0,1]","0","1","2","images/fruit_choice1.png","1","fruit","","straw","1","0"
"html-keyboard-response","198","691255","0.0-9.0-2.0-0.56","1869","1","2","""event"",""trial"",""time""
""fullscreenenter"",""1"",""2314""
","
","
","""event"",""trial"",""time""
""fullscreenenter"",""1"",""2314""
","
","","","","","","null","<div style=""font-size:60px;"">+</div>","null","","fixation","","","","","","","","","","","","","",""
"learning-trial","199","695264","0.0-9.0-2.0-1.56","1869","1","2","""event"",""trial"",""time""
""fullscreenenter"",""1"",""2314""
","
","
","""event"",""trial"",""time""
""fullscreenenter"",""1"",""2314""
","
","","","","","","2176.399999976158","images/banana4.png","","","learning","images/fruit_choice3.png","images/fruit_choice1.png","images/fruit_choice2.png","[2,0,1]","2","0","1","images/fruit_choice3.png","1","fruit","","banana","1","0"
"html-keyboard-response","200","695768","0.0-9.0-2.0-0.57","1869","1","2","""event"",""trial"",""time""
""fullscreenenter"",""1"",""2314""
","
","
","""event"",""trial"",""time""
""fullscreenenter"",""1"",""2314""
","
","","","","","","null","<div style=""font-size:60px;"">+</div>","null","","fixation","","","","","","","","","","","","","",""
"learning-trial","201","699777","0.0-9.0-2.0-1.57","1869","1","2","""event"",""trial"",""time""
""fullscreenenter"",""1"",""2314""
","
","
","""event"",""trial"",""time""
""fullscreenenter"",""1"",""2314""
","
","","","","","","1168.8000000715256","images/banana5.png","","","learning","images/fruit_choice1.png","images/fruit_choice2.png","images/fruit_choice3.png","[0,1,2]","2","2","3","images/fruit_choice3.png","-1","fruit","","banana","1","0"
"html-keyboard-response","202","700282","0.0-9.0-2.0-0.58","1869","1","2","""event"",""trial"",""time""
""fullscreenenter"",""1"",""2314""
","
","
","""event"",""trial"",""time""
""fullscreenenter"",""1"",""2314""
","
","","","","","","null","<div style=""font-size:60px;"">+</div>","null","","fixation","","","","","","","","","","","","","",""
"learning-trial","203","704291","0.0-9.0-2.0-1.58","1869","1","2","""event"",""trial"",""time""
""fullscreenenter"",""1"",""2314""
","
","
","""event"",""trial"",""time""
""fullscreenenter"",""1"",""2314""
","
","","","","","","1493.1000000238419","images/straw5.png","","","learning","images/fruit_choice1.png","images/fruit_choice2.png","images/fruit_choice3.png","[0,1,2]","0","0","1","images/fruit_choice1.png","1","fruit","","straw","1","0"
"html-keyboard-response","204","704795","0.0-9.0-2.0-0.59","1869","1","2","""event"",""trial"",""time""
""fullscreenenter"",""1"",""2314""
","
","
","""event"",""trial"",""time""
""fullscreenenter"",""1"",""2314""
","
","","","","","","null","<div style=""font-size:60px;"">+</div>","null","","fixation","","","","","","","","","","","","","",""
"learning-trial","205","708801","0.0-9.0-2.0-1.59","1869","1","2","""event"",""trial"",""time""
""fullscreenenter"",""1"",""2314""
","
","
","""event"",""trial"",""time""
""fullscreenenter"",""1"",""2314""
","
","","","","","","869.6000000238419","images/orange2.png","","","learning","images/fruit_choice2.png","images/fruit_choice3.png","images/fruit_choice1.png","[1,2,0]","1","0","1","images/fruit_choice2.png","-1","fruit","","orange","1","0"
"html-keyboard-response","206","709303","0.0-9.0-2.0-0.60","1869","1","2","""event"",""trial"",""time""
""fullscreenenter"",""1"",""2314""
","
","
","""event"",""trial"",""time""
""fullscreenenter"",""1"",""2314""
","
","","","","","","null","<div style=""font-size:60px;"">+</div>","null","","fixation","","","","","","","","","","","","","",""
"learning-trial","207","713309","0.0-9.0-2.0-1.60","1869","1","2","""event"",""trial"",""time""
""fullscreenenter"",""1"",""2314""
","
","
","""event"",""trial"",""time""
""fullscreenenter"",""1"",""2314""
","
","","","","","","1455.6000000238419","images/straw1.png","","","learning","images/fruit_choice3.png","images/fruit_choice1.png","images/fruit_choice2.png","[2,0,1]","0","1","2","images/fruit_choice1.png","1","fruit","","straw","1","0"
"html-keyboard-response","208","713811","0.0-9.0-2.0-0.61","1869","1","2","""event"",""trial"",""time""
""fullscreenenter"",""1"",""2314""
","
","
","""event"",""trial"",""time""
""fullscreenenter"",""1"",""2314""
","
","","","","","","null","<div style=""font-size:60px;"">+</div>","null","","fixation","","","","","","","","","","","","","",""
"learning-trial","209","717816","0.0-9.0-2.0-1.61","1869","1","2","""event"",""trial"",""time""
""fullscreenenter"",""1"",""2314""
","
","
","""event"",""trial"",""time""
""fullscreenenter"",""1"",""2314""
","
","","","","","","1202.8999999761581","images/banana1.png","","","learning","images/fruit_choice1.png","images/fruit_choice2.png","images/fruit_choice3.png","[0,1,2]","2","2","3","images/fruit_choice3.png","1","fruit","","banana","1","0"
"html-keyboard-response","210","718319","0.0-9.0-2.0-0.62","1869","1","2","""event"",""trial"",""time""
""fullscreenenter"",""1"",""2314""
","
","
","""event"",""trial"",""time""
""fullscreenenter"",""1"",""2314""
","
","","","","","","null","<div style=""font-size:60px;"">+</div>","null","","fixation","","","","","","","","","","","","","",""
"learning-trial","211","722324","0.0-9.0-2.0-1.62","1869","1","2","""event"",""trial"",""time""
""fullscreenenter"",""1"",""2314""
","
","
","""event"",""trial"",""time""
""fullscreenenter"",""1"",""2314""
","
","","","","","","1293.6999999284744","images/straw3.png","","","learning","images/fruit_choice2.png","images/fruit_choice1.png","images/fruit_choice3.png","[1,0,2]","0","1","2","images/fruit_choice1.png","1","fruit","","straw","1","0"
"html-keyboard-response","212","722829","0.0-9.0-2.0-0.63","1869","1","2","""event"",""trial"",""time""
""fullscreenenter"",""1"",""2314""
","
","
","""event"",""trial"",""time""
""fullscreenenter"",""1"",""2314""
","
","","","","","","null","<div style=""font-size:60px;"">+</div>","null","","fixation","","","","","","","","","","","","","",""
"learning-trial","213","726835","0.0-9.0-2.0-1.63","1869","1","2","""event"",""trial"",""time""
""fullscreenenter"",""1"",""2314""
","
","
","""event"",""trial"",""time""
""fullscreenenter"",""1"",""2314""
","
","","","","","","1232.7000000476837","images/banana4.png","","","learning","images/fruit_choice2.png","images/fruit_choice1.png","images/fruit_choice3.png","[1,0,2]","2","2","1","images/fruit_choice2.png","-1","fruit","","banana","1","0"
"html-keyboard-response","214","727339","0.0-9.0-2.0-0.64","1869","1","2","""event"",""trial"",""time""
""fullscreenenter"",""1"",""2314""
","
","
","""event"",""trial"",""time""
""fullscreenenter"",""1"",""2314""
","
","","","","","","null","<div style=""font-size:60px;"">+</div>","null","","fixation","","","","","","","","","","","","","",""
"learning-trial","215","731342","0.0-9.0-2.0-1.64","1869","1","2","""event"",""trial"",""time""
""fullscreenenter"",""1"",""2314""
","
","
","""event"",""trial"",""time""
""fullscreenenter"",""1"",""2314""
","
","","","","","","1206.8999999761581","images/orange5.png","","","learning","images/fruit_choice1.png","images/fruit_choice2.png","images/fruit_choice3.png","[0,1,2]","1","1","2","images/fruit_choice2.png","1","fruit","","orange","1","0"
"html-keyboard-response","216","731844","0.0-9.0-2.0-0.65","1869","1","2","""event"",""trial"",""time""
""fullscreenenter"",""1"",""2314""
","
","
","""event"",""trial"",""time""
""fullscreenenter"",""1"",""2314""
","
","","","","","","null","<div style=""font-size:60px;"">+</div>","null","","fixation","","","","","","","","","","","","","",""
"learning-trial","217","735849","0.0-9.0-2.0-1.65","1869","1","2","""event"",""trial"",""time""
""fullscreenenter"",""1"",""2314""
","
","
","""event"",""trial"",""time""
""fullscreenenter"",""1"",""2314""
","
","","","","","","887.5","images/straw5.png","","","learning","images/fruit_choice2.png","images/fruit_choice3.png","images/fruit_choice1.png","[1,2,0]","0","2","3","images/fruit_choice1.png","1","fruit","","straw","1","0"
"html-keyboard-response","218","736352","0.0-9.0-2.0-0.66","1869","1","2","""event"",""trial"",""time""
""fullscreenenter"",""1"",""2314""
","
","
","""event"",""trial"",""time""
""fullscreenenter"",""1"",""2314""
","
","","","","","","null","<div style=""font-size:60px;"">+</div>","null","","fixation","","","","","","","","","","","","","",""
"learning-trial","219","740358","0.0-9.0-2.0-1.66","1869","1","2","""event"",""trial"",""time""
""fullscreenenter"",""1"",""2314""
","
","
","""event"",""trial"",""time""
""fullscreenenter"",""1"",""2314""
","
","","","","","","1253.2999999523163","images/banana5.png","","","learning","images/fruit_choice1.png","images/fruit_choice2.png","images/fruit_choice3.png","[0,1,2]","2","2","3","images/fruit_choice3.png","1","fruit","","banana","1","0"
"html-keyboard-response","220","740864","0.0-9.0-2.0-0.67","1869","1","2","""event"",""trial"",""time""
""fullscreenenter"",""1"",""2314""
","
","
","""event"",""trial"",""time""
""fullscreenenter"",""1"",""2314""
","
","","","","","","null","<div style=""font-size:60px;"">+</div>","null","","fixation","","","","","","","","","","","","","",""
"learning-trial","221","744871","0.0-9.0-2.0-1.67","1869","1","2","""event"",""trial"",""time""
""fullscreenenter"",""1"",""2314""
","
","
","""event"",""trial"",""time""
""fullscreenenter"",""1"",""2314""
","
","","","","","","1023.3000000715256","images/banana5.png","","","learning","images/fruit_choice1.png","images/fruit_choice2.png","images/fruit_choice3.png","[0,1,2]","2","2","3","images/fruit_choice3.png","1","fruit","","banana","1","0"
"html-keyboard-response","222","745377","0.0-9.0-2.0-0.68","1869","1","2","""event"",""trial"",""time""
""fullscreenenter"",""1"",""2314""
","
","
","""event"",""trial"",""time""
""fullscreenenter"",""1"",""2314""
","
","","","","","","null","<div style=""font-size:60px;"">+</div>","null","","fixation","","","","","","","","","","","","","",""
"learning-trial","223","749381","0.0-9.0-2.0-1.68","1869","1","2","""event"",""trial"",""time""
""fullscreenenter"",""1"",""2314""
","
","
","""event"",""trial"",""time""
""fullscreenenter"",""1"",""2314""
","
","","","","","","1472.6000000238419","images/straw3.png","","","learning","images/fruit_choice3.png","images/fruit_choice1.png","images/fruit_choice2.png","[2,0,1]","0","1","2","images/fruit_choice1.png","1","fruit","","straw","1","0"
"html-keyboard-response","224","749886","0.0-9.0-2.0-0.69","1869","1","2","""event"",""trial"",""time""
""fullscreenenter"",""1"",""2314""
","
","
","""event"",""trial"",""time""
""fullscreenenter"",""1"",""2314""
","
","","","","","","null","<div style=""font-size:60px;"">+</div>","null","","fixation","","","","","","","","","","","","","",""
"learning-trial","225","753892","0.0-9.0-2.0-1.69","1869","1","2","""event"",""trial"",""time""
""fullscreenenter"",""1"",""2314""
","
","
","""event"",""trial"",""time""
""fullscreenenter"",""1"",""2314""
","
","","","","","","1388.5","images/orange5.png","","","learning","images/fruit_choice2.png","images/fruit_choice1.png","images/fruit_choice3.png","[1,0,2]","1","0","1","images/fruit_choice2.png","1","fruit","","orange","1","0"
"html-keyboard-response","226","754394","0.0-9.0-2.0-0.70","1869","1","2","""event"",""trial"",""time""
""fullscreenenter"",""1"",""2314""
","
","
","""event"",""trial"",""time""
""fullscreenenter"",""1"",""2314""
","
","","","","","","null","<div style=""font-size:60px;"">+</div>","null","","fixation","","","","","","","","","","","","","",""
"learning-trial","227","758403","0.0-9.0-2.0-1.70","1869","1","2","""event"",""trial"",""time""
""fullscreenenter"",""1"",""2314""
","
","
","""event"",""trial"",""time""
""fullscreenenter"",""1"",""2314""
","
","","","","","","962.3999999761581","images/orange2.png","","","learning","images/fruit_choice2.png","images/fruit_choice3.png","images/fruit_choice1.png","[1,2,0]","1","0","1","images/fruit_choice2.png","1","fruit","","orange","1","0"
"html-keyboard-response","228","758908","0.0-9.0-2.0-0.71","1869","1","2","""event"",""trial"",""time""
""fullscreenenter"",""1"",""2314""
","
","
","""event"",""trial"",""time""
""fullscreenenter"",""1"",""2314""
","
","","","","","","null","<div style=""font-size:60px;"">+</div>","null","","fixation","","","","","","","","","","","","","",""
"learning-trial","229","762916","0.0-9.0-2.0-1.71","1869","1","2","""event"",""trial"",""time""
""fullscreenenter"",""1"",""2314""
","
","
","""event"",""trial"",""time""
""fullscreenenter"",""1"",""2314""
","
","","","","","","1690.2999999523163","images/straw5.png","","","learning","images/fruit_choice2.png","images/fruit_choice3.png","images/fruit_choice1.png","[1,2,0]","0","2","3","images/fruit_choice1.png","1","fruit","","straw","1","0"
"html-button-response","230","814821","0.0-9.0-3.0","1869","1","2","""event"",""trial"",""time""
""fullscreenenter"",""1"",""2314""
","
","
","""event"",""trial"",""time""
""fullscreenenter"",""1"",""2314""
","
","","","","","","51898.89999997616","<p> You have completed the round! <p> In this round, you earned 22 points! </p>","0","","break","","","","","","","","","","","","","",""
"html-button-response","231","816163","0.0-10.0","1869","1","2","""event"",""trial"",""time""
""fullscreenenter"",""1"",""2314""
","
","
","""event"",""trial"",""time""
""fullscreenenter"",""1"",""2314""
","
","","","","","","1340.7999999523163","<p> Now it's time to play another round. </p>","0","","transition_screen","","","","","","","","","","","","","",""
"preload","232","817993","0.0-11.0-0.0","1869","1","2","""event"",""trial"",""time""
""fullscreenenter"",""1"",""2314""
","
","
","""event"",""trial"",""time""
""fullscreenenter"",""1"",""2314""
","
","true","false","[]","[]","[]","","","","","","","","","","","","","","","","","","",""
"learning-instructions","233","830177","0.0-11.0-1.0-0.0","1869","1","2","""event"",""trial"",""time""
""fullscreenenter"",""1"",""2314""
","
","
","""event"",""trial"",""time""
""fullscreenenter"",""1"",""2314""
","
","","","","","","5676.399999976158","<p> Your goal in this round is to feed all of your pets with the foods they like. </p><p> You will need to feed many pets. </p></div>","","0","instructions","","","","","","","","","","","","","",""
"learning-instructions","234","839148","0.0-11.0-1.0-0.1","1869","1","2","""event"",""trial"",""time""
""fullscreenenter"",""1"",""2314""
","
","
","""event"",""trial"",""time""
""fullscreenenter"",""1"",""2314""
","
","","","","","","976.1999999284744","<p> On each turn, you will see a picture of one of your pets and three different types of foods.  </p><p> You need to select the food that you want to give to your pet.  </p>","","0","instructions","","","","","","","","","","","","","",""
"learning-instructions","235","848018","0.0-11.0-1.0-0.2","1869","1","2","""event"",""trial"",""time""
""fullscreenenter"",""1"",""2314""
","
","
","""event"",""trial"",""time""
""fullscreenenter"",""1"",""2314""
","
","","","","","","2165.100000023842","<p> You can select the food on the left by pressing 1, the food in the middle by pressing 2, and the food on the right by pressing 3. </p><br><div class=""choice-instructions-grid""> <div class=""choice-option""><img src=""images/pets_choice1.png"" class=""choice-option-img"" stage=""instructions"" position=""0"" ><div class=""choice-option-text""> Press ""1."" </div></div><div class=""choice-option""><img src=""images/pets_choice2.png"" class=""choice-option-img"" stage=""instructions"" position=""1"" ><div class=""choice-option-text""> Press ""2."" </div></div><div class=""choice-option""><img src=""images/pets_choice3.png"" class=""choice-option-img"" stage=""instructions"" position=""2"" ><div class=""choice-option-text""> Press ""3."" </div></div></div>","","0","instructions","","","","","","","","","","","","","",""
"learning-instructions","236","852819","0.0-11.0-1.0-0.3","1869","1","2","""event"",""trial"",""time""
""fullscreenenter"",""1"",""2314""
","
","
","""event"",""trial"",""time""
""fullscreenenter"",""1"",""2314""
","
","","","","","","783.6000000238419","<p> If your pet likes the food you chose, it will be very happy! </p><div style='float: center;'><img src='images/check.png' width = '200' height = '200'></img>","","0","instructions","","","","","","","","","","","","","",""
"learning-instructions","237","860220","0.0-11.0-1.0-0.4","1869","1","2","""event"",""trial"",""time""
""fullscreenenter"",""1"",""2314""
