"trial_type","trial_index","time_elapsed","internal_node_id","subject_id","condition","task_version","interactions","blur_events","focus_events","fullscreenenter_events","fullscreenexit_events","success","timeout","failed_images","failed_audio","failed_video","rt","stimulus","response","button_pressed","task_part","left_choice","middle_choice","right_choice","choice_positions","correct_response","correct_position","key_press","option_selected","points","task_block","correct","stim_cat","block_condition","block_number"
"pavlovia","0","14","0.0-0.0","1582","2","2","""event"",""trial"",""time""
""focus"",""0"",""2""
""fullscreenenter"",""1"",""8218""
","
","""event"",""trial"",""time""
""focus"",""0"",""2""
","""event"",""trial"",""time""
""fullscreenenter"",""1"",""8218""
","
","","","","","","","","","","","","","","","","","","","","","","","",""
"fullscreen","1","8940","0.0-1.0","1582","2","2","""event"",""trial"",""time""
""focus"",""0"",""2""
""fullscreenenter"",""1"",""8218""
","
","""event"",""trial"",""time""
""focus"",""0"",""2""
","""event"",""trial"",""time""
""fullscreenenter"",""1"",""8218""
","
","true","","","","","","","","","","","","","","","","","","","","","","",""
"preload","2","13725","0.0-2.0","1582","2","2","""event"",""trial"",""time""
""focus"",""0"",""2""
""fullscreenenter"",""1"",""8218""
","
","""event"",""trial"",""time""
""focus"",""0"",""2""
","""event"",""trial"",""time""
""fullscreenenter"",""1"",""8218""
","
","true","false","[]","[]","[]","","","","","","","","","","","","","","","","","","",""
"audio-keyboard-response","3","20698","0.0-3.0","1582","2","2","""event"",""trial"",""time""
""focus"",""0"",""2""
""fullscreenenter"",""1"",""8218""
","
","""event"",""trial"",""time""
""focus"",""0"",""2""
","""event"",""trial"",""time""
""fullscreenenter"",""1"",""8218""
","
","","","","","","6977.596371882086","audio/beep_loop.wav"," ","","","","","","","","","","","","","","","",""
"audio-button-response","4","26548","0.0-4.0","1582","2","2","""event"",""trial"",""time""
""focus"",""0"",""2""
""fullscreenenter"",""1"",""8218""
","
","""event"",""trial"",""time""
""focus"",""0"",""2""
","""event"",""trial"",""time""
""fullscreenenter"",""1"",""8218""
","
","","","","","","5851","audio/shark.wav","4","","","","","","","","","","","","","","","",""
"audio-button-response","5","28662","0.0-5.0","1582","2","2","""event"",""trial"",""time""
""focus"",""0"",""2""
""fullscreenenter"",""1"",""8218""
","
","""event"",""trial"",""time""
""focus"",""0"",""2""
","""event"",""trial"",""time""
""fullscreenenter"",""1"",""8218""
","
","","","","","","1115","audio/turtle.wav","1","","","","","","","","","","","","","","","",""
"preload","6","34282","0.0-6.0","1582","2","2","""event"",""trial"",""time""
""focus"",""0"",""2""
""fullscreenenter"",""1"",""8218""
","
","""event"",""trial"",""time""
""focus"",""0"",""2""
","""event"",""trial"",""time""
""fullscreenenter"",""1"",""8218""
","
","true","false","[]","[]","[]","","","","","","","","","","","","","","","","","","",""
"html-keyboard-response","7","37259","0.0-7.0","1582","2","2","""event"",""trial"",""time""
""focus"",""0"",""2""
""fullscreenenter"",""1"",""8218""
","
","""event"",""trial"",""time""
""focus"",""0"",""2""
","""event"",""trial"",""time""
""fullscreenenter"",""1"",""8218""
","
","","","","","","2975","Welcome to the experiment. Press any key to begin and to advance the instructions.",",","","","","","","","","","","","","","","","",""
"learning-instructions","8","47212","0.0-8.0-0.0-0.0","1582","2","2","""event"",""trial"",""time""
""focus"",""0"",""2""
""fullscreenenter"",""1"",""8218""
","
","""event"",""trial"",""time""
""focus"",""0"",""2""
","""event"",""trial"",""time""
""fullscreenenter"",""1"",""8218""
","
","","","","","","2185","<p> Welcome! Today you are going to play 6 different rounds of a decision-making game. </p><p> Use the mouse to click next to continue. </p>","","0","instructions","","","","","","","","","","","","","",""
"learning-instructions","9","51644","0.0-8.0-0.0-0.1","1582","2","2","""event"",""trial"",""time""
""focus"",""0"",""2""
""fullscreenenter"",""1"",""8218""
","
","""event"",""trial"",""time""
""focus"",""0"",""2""
","""event"",""trial"",""time""
""fullscreenenter"",""1"",""8218""
","
","","","","","","1415","<p> You will start with a practice round to learn the rules. </p>","","0","instructions","","","","","","","","","","","","","",""
"learning-instructions","10","60436","0.0-8.0-0.0-0.2","1582","2","2","""event"",""trial"",""time""
""focus"",""0"",""2""
""fullscreenenter"",""1"",""8218""
","
","""event"",""trial"",""time""
""focus"",""0"",""2""
","""event"",""trial"",""time""
""fullscreenenter"",""1"",""8218""
","
","","","","","","1036","<p> Your goal in this round is to deliver sports equipment to three different parks. </p><p> You will need to deliver many types of equipment. </p></div>","","0","instructions","","","","","","","","","","","","","",""
"learning-instructions","11","69517","0.0-8.0-0.0-0.3","1582","2","2","""event"",""trial"",""time""
""focus"",""0"",""2""
""fullscreenenter"",""1"",""8218""
","
","""event"",""trial"",""time""
""focus"",""0"",""2""
","""event"",""trial"",""time""
""fullscreenenter"",""1"",""8218""
","
","","","","","","586","<p> On each turn, you will see one piece of sports equipment and three different parks.  </p><p> You need to select which park to deliver the equipment to.  </p>","","0","instructions","","","","","","","","","","","","","",""
"learning-instructions","12","84820","0.0-8.0-0.0-0.4","1582","2","2","""event"",""trial"",""time""
""focus"",""0"",""2""
""fullscreenenter"",""1"",""8218""
","
","""event"",""trial"",""time""
""focus"",""0"",""2""
","""event"",""trial"",""time""
""fullscreenenter"",""1"",""8218""
","
","","","","","","2015","<p> You can select the park on the left by pressing the '1' key on your keyboard. <br>You can select the park in the middle by pressing the '2' key on your keyboard. <br>You can select the park on the right by pressing the '3' key on your keyboard.  </p><br><div class=""choice-instructions-grid""> <div class=""choice-option""><img src=""images/park1.png"" class=""choice-option-img"" stage=""instructions"" position=""0"" ><div class=""choice-option-text""> Press ""1."" </div></div><div class=""choice-option""><img src=""images/park2.png"" class=""choice-option-img"" stage=""instructions"" position=""1"" ><div class=""choice-option-text""> Press ""2."" </div></div><div class=""choice-option""><img src=""images/park3.png"" class=""choice-option-img"" stage=""instructions"" position=""2"" ><div class=""choice-option-text""> Press ""3."" </div></div></div>","","0","instructions","","","","","","","","","","","","","",""
"learning-instructions","13","91300","0.0-8.0-0.0-0.5","1582","2","2","""event"",""trial"",""time""
""focus"",""0"",""2""
""fullscreenenter"",""1"",""8218""
","
","""event"",""trial"",""time""
""focus"",""0"",""2""
","""event"",""trial"",""time""
""fullscreenenter"",""1"",""8218""
","
","","","","","","1078","<p> If the kids in the park you chose like the equipment, they will be very happy! </p><div style='float: center;'><img src='images/check.png' width = '200' height = '200'></img>","","0","instructions","","","","","","","","","","","","","",""
"learning-instructions","14","97472","0.0-8.0-0.0-0.6","1582","2","2","""event"",""trial"",""time""
""focus"",""0"",""2""
""fullscreenenter"",""1"",""8218""
","
","""event"",""trial"",""time""
""focus"",""0"",""2""
","""event"",""trial"",""time""
""fullscreenenter"",""1"",""8218""
","
","","","","","","563","<p> But, if the kids in the park you chose do not like the equipment, they will be sad. </p><div style='float: center;'><img src='images/x.png' width = '200' height = '200'></img>","","0","instructions","","","","","","","","","","","","","",""
"learning-instructions","15","105297","0.0-8.0-0.0-0.7","1582","2","2","""event"",""trial"",""time""
""focus"",""0"",""2""
""fullscreenenter"",""1"",""8218""
","
","""event"",""trial"",""time""
""focus"",""0"",""2""
","""event"",""trial"",""time""
""fullscreenenter"",""1"",""8218""
","
","","","","","","1388","<p> Importantly, the kids in each park like some pieces of sports equipment more than others. </p>","","0","instructions","","","","","","","","","","","","","",""
"learning-instructions","16","111991","0.0-8.0-0.0-0.8","1582","2","2","""event"",""trial"",""time""
""focus"",""0"",""2""
""fullscreenenter"",""1"",""8218""
","
","""event"",""trial"",""time""
""focus"",""0"",""2""
","""event"",""trial"",""time""
""fullscreenenter"",""1"",""8218""
","
","","","","","","639","<p> If you choose the best park for each piece of equipment, the kids there will usually be happy. </p>","","0","instructions","","","","","","","","","","","","","",""
"learning-instructions","17","119427","0.0-8.0-0.0-0.9","1582","2","2","""event"",""trial"",""time""
""focus"",""0"",""2""
""fullscreenenter"",""1"",""8218""
","
","""event"",""trial"",""time""
""focus"",""0"",""2""
","""event"",""trial"",""time""
""fullscreenenter"",""1"",""8218""
","
","","","","","","774","<p> However, even if you choose the best park for the equipment, the kids may sometimes be sad. </p>","","0","instructions","","","","","","","","","","","","","",""
"learning-instructions","18","127480","0.0-8.0-0.0-0.10","1582","2","2","""event"",""trial"",""time""
""focus"",""0"",""2""
""fullscreenenter"",""1"",""8218""
","
","""event"",""trial"",""time""
""focus"",""0"",""2""
","""event"",""trial"",""time""
""fullscreenenter"",""1"",""8218""
","
","","","","","","818","<p> Similarly, even if you choose the <i>wrong</i> park for the equipment, the kids may still be happy sometimes.","","0","instructions","","","","","","","","","","","","","",""
"learning-instructions","19","133400","0.0-8.0-0.0-0.11","1582","2","2","""event"",""trial"",""time""
""focus"",""0"",""2""
""fullscreenenter"",""1"",""8218""
","
","""event"",""trial"",""time""
""focus"",""0"",""2""
","""event"",""trial"",""time""
""fullscreenenter"",""1"",""8218""
","
","","","","","","849","<p> For example, the best park for this soccer ball is this one.<div style='float: center;'><img src='images/i1.png' width = '500' height = '268'></img>","","0","instructions","","","","","","","","","","","","","",""
"learning-instructions","20","140592","0.0-8.0-0.0-0.12","1582","2","2","""event"",""trial"",""time""
""focus"",""0"",""2""
""fullscreenenter"",""1"",""8218""
","
","""event"",""trial"",""time""
""focus"",""0"",""2""
","""event"",""trial"",""time""
""fullscreenenter"",""1"",""8218""
","
","","","","","","1890","<p> Let's see what happens if you choose this park for the soccer ball five times.","","0","instructions","","","","","","","","","","","","","",""
"learning-instructions","21","143661","0.0-8.0-0.0-0.13","1582","2","2","""event"",""trial"",""time""
""focus"",""0"",""2""
""fullscreenenter"",""1"",""8218""
","
","""event"",""trial"",""time""
""focus"",""0"",""2""
","""event"",""trial"",""time""
""fullscreenenter"",""1"",""8218""
","
","","","","","","883","<p> The kids are happy.<div style='float: left;'><img src='images/i2.png' width = '640' height = '360'></img>","","0","instructions","","","","","","","","","","","","","",""
"learning-instructions","22","146409","0.0-8.0-0.0-0.14","1582","2","2","""event"",""trial"",""time""
""focus"",""0"",""2""
""fullscreenenter"",""1"",""8218""
","
","""event"",""trial"",""time""
""focus"",""0"",""2""
","""event"",""trial"",""time""
""fullscreenenter"",""1"",""8218""
","
","","","","","","567","<p> The kids are happy.<div style='float: left;'><img src='images/i3.png' width = '640' height = '360'></img>","","0","instructions","","","","","","","","","","","","","",""
"learning-instructions","23","149113","0.0-8.0-0.0-0.15","1582","2","2","""event"",""trial"",""time""
""focus"",""0"",""2""
""fullscreenenter"",""1"",""8218""
","
","""event"",""trial"",""time""
""focus"",""0"",""2""
","""event"",""trial"",""time""
""fullscreenenter"",""1"",""8218""
","
","","","","","","519","<p> The kids are happy.<div style='float: left;'><img src='images/i4.png' width = '640' height = '360'></img>","","0","instructions","","","","","","","","","","","","","",""
"learning-instructions","24","151991","0.0-8.0-0.0-0.16","1582","2","2","""event"",""trial"",""time""
""focus"",""0"",""2""
""fullscreenenter"",""1"",""8218""
","
","""event"",""trial"",""time""
""focus"",""0"",""2""
","""event"",""trial"",""time""
""fullscreenenter"",""1"",""8218""
","
","","","","","","658","<p> The kids are sad.<div style='float: left;'><img src='images/i5.png' width = '640' height = '360'></img>","","0","instructions","","","","","","","","","","","","","",""
"learning-instructions","25","159149","0.0-8.0-0.0-0.17","1582","2","2","""event"",""trial"",""time""
""focus"",""0"",""2""
""fullscreenenter"",""1"",""8218""
","
","""event"",""trial"",""time""
""focus"",""0"",""2""
","""event"",""trial"",""time""
""fullscreenenter"",""1"",""8218""
","
","","","","","","4983","<p> The kids are happy.<div style='float: left;'><img src='images/i6.png' width = '640' height = '360'></img>","","0","instructions","","","","","","","","","","","","","",""
"learning-instructions","26","168208","0.0-8.0-0.0-0.18","1582","2","2","""event"",""trial"",""time""
""focus"",""0"",""2""
""fullscreenenter"",""1"",""8218""
","
","""event"",""trial"",""time""
""focus"",""0"",""2""
","""event"",""trial"",""time""
""fullscreenenter"",""1"",""8218""
","
","","","","","","1783","<p> As you can see, selecting that park for the soccer ball made the kids happy most of the time, but not all the time.","","0","instructions","","","","","","","","","","","","","",""
"learning-instructions","27","175453","0.0-8.0-0.0-0.19","1582","2","2","""event"",""trial"",""time""
""focus"",""0"",""2""
""fullscreenenter"",""1"",""8218""
","
","""event"",""trial"",""time""
""focus"",""0"",""2""
","""event"",""trial"",""time""
""fullscreenenter"",""1"",""8218""
","
","","","","","","1238","<p> Now let's see what happens if you choose a DIFFERENT park for the soccer ball 5 times.","","0","instructions","","","","","","","","","","","","","",""
"learning-instructions","28","178375","0.0-8.0-0.0-0.20","1582","2","2","""event"",""trial"",""time""
""focus"",""0"",""2""
""fullscreenenter"",""1"",""8218""
","
","""event"",""trial"",""time""
""focus"",""0"",""2""
","""event"",""trial"",""time""
""fullscreenenter"",""1"",""8218""
","
","","","","","","712","<p> The kids are sad.<div style='float: left;'><img src='images/i7.png' width = '640' height = '360'></img>","","0","instructions","","","","","","","","","","","","","",""
"learning-instructions","29","181146","0.0-8.0-0.0-0.21","1582","2","2","""event"",""trial"",""time""
""focus"",""0"",""2""
""fullscreenenter"",""1"",""8218""
","
","""event"",""trial"",""time""
""focus"",""0"",""2""
","""event"",""trial"",""time""
""fullscreenenter"",""1"",""8218""
","
","","","","","","558","<p> The kids are sad.<div style='float: left;'><img src='images/i8.png' width = '640' height = '360'></img>","","0","instructions","","","","","","","","","","","","","",""
"learning-instructions","30","183965","0.0-8.0-0.0-0.22","1582","2","2","""event"",""trial"",""time""
""focus"",""0"",""2""
""fullscreenenter"",""1"",""8218""
","
","""event"",""trial"",""time""
""focus"",""0"",""2""
","""event"",""trial"",""time""
""fullscreenenter"",""1"",""8218""
","
","","","","","","636","<p> The kids are happy.<div style='float: left;'><img src='images/i9.png' width = '640' height = '360'></img>","","0","instructions","","","","","","","","","","","","","",""
"learning-instructions","31","186871","0.0-8.0-0.0-0.23","1582","2","2","""event"",""trial"",""time""
""focus"",""0"",""2""
""fullscreenenter"",""1"",""8218""
","
","""event"",""trial"",""time""
""focus"",""0"",""2""
","""event"",""trial"",""time""
""fullscreenenter"",""1"",""8218""
","
","","","","","","687","<p> The kids are sad.<div style='float: left;'><img src='images/i10.png' width = '640' height = '360'></img>","","0","instructions","","","","","","","","","","","","","",""
"learning-instructions","32","189703","0.0-8.0-0.0-0.24","1582","2","2","""event"",""trial"",""time""
""focus"",""0"",""2""
""fullscreenenter"",""1"",""8218""
","
","""event"",""trial"",""time""
""focus"",""0"",""2""
","""event"",""trial"",""time""
""fullscreenenter"",""1"",""8218""
","
","","","","","","615","<p> The kids are sad.<div style='float: left;'><img src='images/i11.png' width = '640' height = '360'></img>","","0","instructions","","","","","","","","","","","","","",""
"learning-instructions","33","202299","0.0-8.0-0.0-0.25","1582","2","2","""event"",""trial"",""time""
""focus"",""0"",""2""
""fullscreenenter"",""1"",""8218""
","
","""event"",""trial"",""time""
""focus"",""0"",""2""
","""event"",""trial"",""time""
""fullscreenenter"",""1"",""8218""
","
","","","","","","4459","<p> As you can see, selecting the wrong park for the soccer ball made the kids sad most of the time, but not all the time.","","0","instructions","","","","","","","","","","","","","",""
"learning-instructions","34","213044","0.0-8.0-0.0-0.26","1582","2","2","""event"",""trial"",""time""
""focus"",""0"",""2""
""fullscreenenter"",""1"",""8218""
","
","""event"",""trial"",""time""
""focus"",""0"",""2""
","""event"",""trial"",""time""
""fullscreenenter"",""1"",""8218""
","
","","","","","","1621","<p> The different pieces of equipment belong in different parks. You need to try to learn which is the best park for each piece of equipment.","","0","instructions","","","","","","","","","","","","","",""
"learning-instructions","35","232335","0.0-8.0-0.0-0.27","1582","2","2","""event"",""trial"",""time""
""focus"",""0"",""2""
""fullscreenenter"",""1"",""8218""
","
","""event"",""trial"",""time""
""focus"",""0"",""2""
","""event"",""trial"",""time""
""fullscreenenter"",""1"",""8218""
","
","","","","","","2895","<p> Try to choose the best park for each piece of equipment, because you will <b> WIN </b> 1 point for each time you make the kids happy and <b>LOSE</b> 1 point for each time you make them sad. </p><p> Remember, if you make the best choice, you will win 1 point most of the time, but not all the time. </p>","","0","instructions","","","","","","","","","","","","","",""
"learning-instructions","36","239849","0.0-8.0-0.0-0.28","1582","2","2","""event"",""trial"",""time""
""focus"",""0"",""2""
""fullscreenenter"",""1"",""8218""
","
","""event"",""trial"",""time""
""focus"",""0"",""2""
","""event"",""trial"",""time""
""fullscreenenter"",""1"",""8218""
","
","","","","","","2027","<p> This is just a practice round, but in the real game, your bonus payment will depend on your total number of points.","","0","instructions","","","","","","","","","","","","","",""
"learning-instructions","37","253169","0.0-8.0-0.0-0.29","1582","2","2","""event"",""trial"",""time""
""focus"",""0"",""2""
""fullscreenenter"",""1"",""8218""
","
","""event"",""trial"",""time""
""focus"",""0"",""2""
","""event"",""trial"",""time""
""fullscreenenter"",""1"",""8218""
","
","","","","","","2983","<p> The position where each park appears will change throughout the game. </p><p> The position where the park appears <i> does not </i> influence how likely the kids are to be happy or sad. </p>","","0","instructions","","","","","","","","","","","","","",""
"learning-instructions","38","282873","0.0-8.0-0.0-0.30","1582","2","2","""event"",""trial"",""time""
""focus"",""0"",""2""
""fullscreenenter"",""1"",""8218""
","
","""event"",""trial"",""time""
""focus"",""0"",""2""
","""event"",""trial"",""time""
""fullscreenenter"",""1"",""8218""
","
","","","","","","18976","<p> You will have 4 seconds to make each choice. Try to respond before time runs out! </p><p> You will lose 1 point each time you do not make a response. </p>","","0","instructions","","","","","","","","","","","","","",""
"learning-instructions","39","296846","0.0-8.0-0.0-0.31","1582","2","2","""event"",""trial"",""time""
""focus"",""0"",""2""
""fullscreenenter"",""1"",""8218""
","
","""event"",""trial"",""time""
""focus"",""0"",""2""
","""event"",""trial"",""time""
""fullscreenenter"",""1"",""8218""
","
","","","","","","7178","<p> Remember, you should use the 1, 2, and 3 keys to select the park for each piece of equipment. </p><br><div class=""choice-instructions-grid""> <div class=""choice-option""><img src=""images/park1.png"" class=""choice-option-img"" stage=""instructions"" position=""0"" ><div class=""choice-option-text""> Press ""1."" </div></div><div class=""choice-option""><img src=""images/park2.png"" class=""choice-option-img"" stage=""instructions"" position=""1"" ><div class=""choice-option-text""> Press ""2."" </div></div><div class=""choice-option""><img src=""images/park3.png"" class=""choice-option-img"" stage=""instructions"" position=""2"" ><div class=""choice-option-text""> Press ""3."" </div></div></div>","","0","instructions","","","","","","","","","","","","","",""
"html-button-response","40","299076","0.0-8.0-1.0","1582","2","2","""event"",""trial"",""time""
""focus"",""0"",""2""
""fullscreenenter"",""1"",""8218""
","
","""event"",""trial"",""time""
""focus"",""0"",""2""
","""event"",""trial"",""time""
""fullscreenenter"",""1"",""8218""
","
","","","","","","2124","<p> Ready to practice? </p>","0","","","","","","","","","","","","","","","",""
"html-keyboard-response","41","299683","0.0-8.0-2.0-0.0","1582","2","2","""event"",""trial"",""time""
""focus"",""0"",""2""
""fullscreenenter"",""1"",""8218""
","
","""event"",""trial"",""time""
""focus"",""0"",""2""
","""event"",""trial"",""time""
""fullscreenenter"",""1"",""8218""
","
","","","","","","null","<div style=""font-size:60px;"">+</div>","null","","fixation","","","","","","","","","","","","","",""
"learning-trial","42","303690","0.0-8.0-2.0-1.0","1582","2","2","""event"",""trial"",""time""
""focus"",""0"",""2""
""fullscreenenter"",""1"",""8218""
","
","""event"",""trial"",""time""
""focus"",""0"",""2""
","""event"",""trial"",""time""
""fullscreenenter"",""1"",""8218""
","
","","","","","","1162","images/racket3.png","","","practice","images/park3.png","images/park1.png","images/park2.png","[2,0,1]","0","1","1","images/park3.png","-1","practice","","","",""
"html-keyboard-response","43","304192","0.0-8.0-2.0-0.1","1582","2","2","""event"",""trial"",""time""
""focus"",""0"",""2""
""fullscreenenter"",""1"",""8218""
","
","""event"",""trial"",""time""
""focus"",""0"",""2""
","""event"",""trial"",""time""
""fullscreenenter"",""1"",""8218""
","
","","","","","","null","<div style=""font-size:60px;"">+</div>","null","","fixation","","","","","","","","","","","","","",""
"learning-trial","44","308197","0.0-8.0-2.0-1.1","1582","2","2","""event"",""trial"",""time""
""focus"",""0"",""2""
""fullscreenenter"",""1"",""8218""
","
","""event"",""trial"",""time""
""focus"",""0"",""2""
","""event"",""trial"",""time""
""fullscreenenter"",""1"",""8218""
","
","","","","","","545","images/ball3.png","","","practice","images/park1.png","images/park3.png","images/park2.png","[0,2,1]","2","1","2","images/park3.png","-1","practice","","","",""
"html-keyboard-response","45","308701","0.0-8.0-2.0-0.2","1582","2","2","""event"",""trial"",""time""
""focus"",""0"",""2""
""fullscreenenter"",""1"",""8218""
","
","""event"",""trial"",""time""
""focus"",""0"",""2""
","""event"",""trial"",""time""
""fullscreenenter"",""1"",""8218""
","
","","","","","","null","<div style=""font-size:60px;"">+</div>","null","","fixation","","","","","","","","","","","","","",""
"learning-trial","46","312703","0.0-8.0-2.0-1.2","1582","2","2","""event"",""trial"",""time""
""focus"",""0"",""2""
""fullscreenenter"",""1"",""8218""
","
","""event"",""trial"",""time""
""focus"",""0"",""2""
","""event"",""trial"",""time""
""fullscreenenter"",""1"",""8218""
","
","","","","","","590","images/racket1.png","","","practice","images/park1.png","images/park2.png","images/park3.png","[0,1,2]","1","1","3","images/park3.png","-1","practice","","","",""
"html-keyboard-response","47","313209","0.0-8.0-2.0-0.3","1582","2","2","""event"",""trial"",""time""
""focus"",""0"",""2""
""fullscreenenter"",""1"",""8218""
","
","""event"",""trial"",""time""
""focus"",""0"",""2""
","""event"",""trial"",""time""
""fullscreenenter"",""1"",""8218""
","
","","","","","","null","<div style=""font-size:60px;"">+</div>","null","","fixation","","","","","","","","","","","","","",""
"learning-trial","48","317217","0.0-8.0-2.0-1.3","1582","2","2","""event"",""trial"",""time""
""focus"",""0"",""2""
""fullscreenenter"",""1"",""8218""
","
","""event"",""trial"",""time""
""focus"",""0"",""2""
","""event"",""trial"",""time""
""fullscreenenter"",""1"",""8218""
","
","","","","","","1385","images/ball3.png","","","practice","images/park2.png","images/park1.png","images/park3.png","[1,0,2]","2","2","1","images/park2.png","-1","practice","","","",""
"html-keyboard-response","49","317723","0.0-8.0-2.0-0.4","1582","2","2","""event"",""trial"",""time""
""focus"",""0"",""2""
""fullscreenenter"",""1"",""8218""
","
","""event"",""trial"",""time""
""focus"",""0"",""2""
","""event"",""trial"",""time""
""fullscreenenter"",""1"",""8218""
","
","","","","","","null","<div style=""font-size:60px;"">+</div>","null","","fixation","","","","","","","","","","","","","",""
"learning-trial","50","321725","0.0-8.0-2.0-1.4","1582","2","2","""event"",""trial"",""time""
""focus"",""0"",""2""
""fullscreenenter"",""1"",""8218""
","
","""event"",""trial"",""time""
""focus"",""0"",""2""
","""event"",""trial"",""time""
""fullscreenenter"",""1"",""8218""
","
","","","","","","1102","images/racket2.png","","","practice","images/park1.png","images/park3.png","images/park2.png","[0,2,1]","0","0","3","images/park2.png","-1","practice","","","",""
"html-keyboard-response","51","322225","0.0-8.0-2.0-0.5","1582","2","2","""event"",""trial"",""time""
""focus"",""0"",""2""
""fullscreenenter"",""1"",""8218""
","
","""event"",""trial"",""time""
""focus"",""0"",""2""
","""event"",""trial"",""time""
""fullscreenenter"",""1"",""8218""
","
","","","","","","null","<div style=""font-size:60px;"">+</div>","null","","fixation","","","","","","","","","","","","","",""
"learning-trial","52","326227","0.0-8.0-2.0-1.5","1582","2","2","""event"",""trial"",""time""
""focus"",""0"",""2""
""fullscreenenter"",""1"",""8218""
","
","""event"",""trial"",""time""
""focus"",""0"",""2""
","""event"",""trial"",""time""
""fullscreenenter"",""1"",""8218""
","
","","","","","","719","images/ball2.png","","","practice","images/park1.png","images/park3.png","images/park2.png","[0,2,1]","1","2","1","images/park1.png","-1","practice","","","",""
"html-keyboard-response","53","326729","0.0-8.0-2.0-0.6","1582","2","2","""event"",""trial"",""time""
""focus"",""0"",""2""
""fullscreenenter"",""1"",""8218""
","
","""event"",""trial"",""time""
""focus"",""0"",""2""
","""event"",""trial"",""time""
""fullscreenenter"",""1"",""8218""
","
","","","","","","null","<div style=""font-size:60px;"">+</div>","null","","fixation","","","","","","","","","","","","","",""
"learning-trial","54","330732","0.0-8.0-2.0-1.6","1582","2","2","""event"",""trial"",""time""
""focus"",""0"",""2""
""fullscreenenter"",""1"",""8218""
","
","""event"",""trial"",""time""
""focus"",""0"",""2""
","""event"",""trial"",""time""
""fullscreenenter"",""1"",""8218""
","
","","","","","","530","images/ball2.png","","","practice","images/park2.png","images/park3.png","images/park1.png","[1,2,0]","1","0","3","images/park1.png","-1","practice","","","",""
"html-keyboard-response","55","331237","0.0-8.0-2.0-0.7","1582","2","2","""event"",""trial"",""time""
""focus"",""0"",""2""
""fullscreenenter"",""1"",""8218""
","
","""event"",""trial"",""time""
""focus"",""0"",""2""
","""event"",""trial"",""time""
""fullscreenenter"",""1"",""8218""
","
","","","","","","null","<div style=""font-size:60px;"">+</div>","null","","fixation","","","","","","","","","","","","","",""
"learning-trial","56","335244","0.0-8.0-2.0-1.7","1582","2","2","""event"",""trial"",""time""
""focus"",""0"",""2""
""fullscreenenter"",""1"",""8218""
","
","""event"",""trial"",""time""
""focus"",""0"",""2""
","""event"",""trial"",""time""
""fullscreenenter"",""1"",""8218""
","
","","","","","","876","images/racket2.png","","","practice","images/park3.png","images/park2.png","images/park1.png","[2,1,0]","0","2","2","images/park2.png","-1","practice","","","",""
"html-keyboard-response","57","335748","0.0-8.0-2.0-0.8","1582","2","2","""event"",""trial"",""time""
""focus"",""0"",""2""
""fullscreenenter"",""1"",""8218""
","
","""event"",""trial"",""time""
""focus"",""0"",""2""
","""event"",""trial"",""time""
""fullscreenenter"",""1"",""8218""
","
","","","","","","null","<div style=""font-size:60px;"">+</div>","null","","fixation","","","","","","","","","","","","","",""
"learning-trial","58","339752","0.0-8.0-2.0-1.8","1582","2","2","""event"",""trial"",""time""
""focus"",""0"",""2""
""fullscreenenter"",""1"",""8218""
","
","""event"",""trial"",""time""
""focus"",""0"",""2""
","""event"",""trial"",""time""
""fullscreenenter"",""1"",""8218""
","
","","","","","","504","images/racket1.png","","","practice","images/park3.png","images/park1.png","images/park2.png","[2,0,1]","1","2","2","images/park1.png","-1","practice","","","",""
"html-keyboard-response","59","340256","0.0-8.0-2.0-0.9","1582","2","2","""event"",""trial"",""time""
""focus"",""0"",""2""
""fullscreenenter"",""1"",""8218""
","
","""event"",""trial"",""time""
""focus"",""0"",""2""
","""event"",""trial"",""time""
""fullscreenenter"",""1"",""8218""
","
","","","","","","null","<div style=""font-size:60px;"">+</div>","null","","fixation","","","","","","","","","","","","","",""
"learning-trial","60","344262","0.0-8.0-2.0-1.9","1582","2","2","""event"",""trial"",""time""
""focus"",""0"",""2""
""fullscreenenter"",""1"",""8218""
","
","""event"",""trial"",""time""
""focus"",""0"",""2""
","""event"",""trial"",""time""
""fullscreenenter"",""1"",""8218""
","
","","","","","","560","images/ball4.png","","","practice","images/park3.png","images/park2.png","images/park1.png","[2,1,0]","2","0","3","images/park1.png","1","practice","","","",""
"html-keyboard-response","61","344767","0.0-8.0-2.0-0.10","1582","2","2","""event"",""trial"",""time""
""focus"",""0"",""2""
""fullscreenenter"",""1"",""8218""
","
","""event"",""trial"",""time""
""focus"",""0"",""2""
","""event"",""trial"",""time""
""fullscreenenter"",""1"",""8218""
","
","","","","","","null","<div style=""font-size:60px;"">+</div>","null","","fixation","","","","","","","","","","","","","",""
"learning-trial","62","348773","0.0-8.0-2.0-1.10","1582","2","2","""event"",""trial"",""time""
""focus"",""0"",""2""
""fullscreenenter"",""1"",""8218""
","
","""event"",""trial"",""time""
""focus"",""0"",""2""
","""event"",""trial"",""time""
""fullscreenenter"",""1"",""8218""
","
","","","","","","560","images/ball4.png","","","practice","images/park3.png","images/park1.png","images/park2.png","[2,0,1]","2","0","1","images/park3.png","1","practice","","","",""
"html-keyboard-response","63","349278","0.0-8.0-2.0-0.11","1582","2","2","""event"",""trial"",""time""
""focus"",""0"",""2""
""fullscreenenter"",""1"",""8218""
","
","""event"",""trial"",""time""
""focus"",""0"",""2""
","""event"",""trial"",""time""
""fullscreenenter"",""1"",""8218""
","
","","","","","","null","<div style=""font-size:60px;"">+</div>","null","","fixation","","","","","","","","","","","","","",""
"learning-trial","64","353286","0.0-8.0-2.0-1.11","1582","2","2","""event"",""trial"",""time""
""focus"",""0"",""2""
""fullscreenenter"",""1"",""8218""
","
","""event"",""trial"",""time""
""focus"",""0"",""2""
","""event"",""trial"",""time""
""fullscreenenter"",""1"",""8218""
","
","","","","","","769","images/racket3.png","","","practice","images/park1.png","images/park3.png","images/park2.png","[0,2,1]","0","0","2","images/park3.png","-1","practice","","","",""
"html-button-response","65","356845","0.0-8.0-3.0","1582","2","2","""event"",""trial"",""time""
""focus"",""0"",""2""
""fullscreenenter"",""1"",""8218""
","
","""event"",""trial"",""time""
""focus"",""0"",""2""
","""event"",""trial"",""time""
""fullscreenenter"",""1"",""8218""
","
","","","","","","3558","<p> You earned -8 points in the practice round! </p>","0","","break","","","","","","","","","","","","","",""
"learning-instructions","66","366841","0.0-8.0-4.0-0.0","1582","2","2","""event"",""trial"",""time""
""focus"",""0"",""2""
""fullscreenenter"",""1"",""8218""
","
","""event"",""trial"",""time""
""focus"",""0"",""2""
","""event"",""trial"",""time""
""fullscreenenter"",""1"",""8218""
","
","","","","","","2316","<p> It's almost time to start the real game. </p><p> Before you start, we're going to ask you a few questions about how the game works. </p>","","0","instructions","","","","","","","","","","","","","",""
"preload","67","368477","0.0-8.0-5.0","1582","2","2","""event"",""trial"",""time""
""focus"",""0"",""2""
""fullscreenenter"",""1"",""8218""
","
","""event"",""trial"",""time""
""focus"",""0"",""2""
","""event"",""trial"",""time""
""fullscreenenter"",""1"",""8218""
","
","true","false","[]","[]","[]","","","","","","","","","","","","","","","","","","",""
"comp-q","68","376102","0.0-8.0-6.0-0.0","1582","2","2","""event"",""trial"",""time""
""focus"",""0"",""2""
""fullscreenenter"",""1"",""8218""
","
","""event"",""trial"",""time""
""focus"",""0"",""2""
","""event"",""trial"",""time""
""fullscreenenter"",""1"",""8218""
","
","","","","","","2160","<p> <b> True or False? </b> </p><p> If you choose the best option, you will always earn 1 point. </p>","","0","comp_question","","","","","","","","","","","false","","",""
"comp-q","69","384047","0.0-8.0-6.0-1.0","1582","2","2","""event"",""trial"",""time""
""focus"",""0"",""2""
""fullscreenenter"",""1"",""8218""
","
","""event"",""trial"",""time""
""focus"",""0"",""2""
","""event"",""trial"",""time""
""fullscreenenter"",""1"",""8218""
","
","","","","","","2374","<p><b> Incorrect. </b> Sometimes you will lose 1 point, even if you choose the best option. </p>","","0","comp_answer","","","","","","","","","","","","","",""
"comp-q","70","390359","0.0-8.0-6.0-0.1","1582","2","2","""event"",""trial"",""time""
""focus"",""0"",""2""
""fullscreenenter"",""1"",""8218""
","
","""event"",""trial"",""time""
""focus"",""0"",""2""
","""event"",""trial"",""time""
""fullscreenenter"",""1"",""8218""
","
","","","","","","1676","<p> <b> True or False? </b> </p><p> You will have as much time as you want to make each choice. </p>","","1","comp_question","","","","","","","","","","","true","","",""
"comp-q","71","396593","0.0-8.0-6.0-1.1","1582","2","2","""event"",""trial"",""time""
""focus"",""0"",""2""
""fullscreenenter"",""1"",""8218""
","
","""event"",""trial"",""time""
""focus"",""0"",""2""
","""event"",""trial"",""time""
""fullscreenenter"",""1"",""8218""
","
","","","","","","1407","<p> <b> That's right! </b> You will only have 4 seconds to make each choice. </p>","","0","comp_answer","","","","","","","","","","","","","",""
"comp-q","72","403246","0.0-8.0-6.0-0.2","1582","2","2","""event"",""trial"",""time""
""focus"",""0"",""2""
""fullscreenenter"",""1"",""8218""
","
","""event"",""trial"",""time""
""focus"",""0"",""2""
","""event"",""trial"",""time""
""fullscreenenter"",""1"",""8218""
","
","","","","","","490","<p> <b> True or False? </b> </p><p> You should use the '1', '2', and '3' keys to make your choices. </p>","","0","comp_question","","","","","","","","","","","true","","",""
"comp-q","73","410445","0.0-8.0-6.0-1.2","1582","2","2","""event"",""trial"",""time""
""focus"",""0"",""2""
""fullscreenenter"",""1"",""8218""
","
","""event"",""trial"",""time""
""focus"",""0"",""2""
","""event"",""trial"",""time""
""fullscreenenter"",""1"",""8218""
","
","","","","","","2337","<p> <b> That's right! </b> You should use the '1', '2', and '3' keys to make each choice. </p>","","0","comp_answer","","","","","","","","","","","","","",""
"learning-instructions","74","419802","0.0-8.0-7.0-0.0","1582","2","2","""event"",""trial"",""time""
""focus"",""0"",""2""
""fullscreenenter"",""1"",""8218""
","
","""event"",""trial"",""time""
""focus"",""0"",""2""
","""event"",""trial"",""time""
""fullscreenenter"",""1"",""8218""
","
","","","","","","863","<p> It's now time to start the real game. </p>Do your best, because the points you earn in the next rounds will influence your bonus payment. </p>","","0","instructions","","","","","","","","","","","","","",""
"preload","75","422063","0.0-9.0-0.0","1582","2","2","""event"",""trial"",""time""
""focus"",""0"",""2""
""fullscreenenter"",""1"",""8218""
","
","""event"",""trial"",""time""
""focus"",""0"",""2""
","""event"",""trial"",""time""
""fullscreenenter"",""1"",""8218""
","
","true","false","[]","[]","[]","","","","","","","","","","","","","","","","","","",""
"learning-instructions","76","430552","0.0-9.0-1.0-0.0","1582","2","2","""event"",""trial"",""time""
""focus"",""0"",""2""
""fullscreenenter"",""1"",""8218""
","
","""event"",""trial"",""time""
""focus"",""0"",""2""
","""event"",""trial"",""time""
""fullscreenenter"",""1"",""8218""
","
","","","","","","1978","<p> Your goal in this round is to buy different types of fruits. </p><p> You will try to purchase many fruits from different stores. </p></div>","","0","instructions","","","","","","","","","","","","","",""
"learning-instructions","77","440107","0.0-9.0-1.0-0.1","1582","2","2","""event"",""trial"",""time""
""focus"",""0"",""2""
""fullscreenenter"",""1"",""8218""
","
","""event"",""trial"",""time""
""focus"",""0"",""2""
","""event"",""trial"",""time""
""fullscreenenter"",""1"",""8218""
","
","","","","","","1049","<p> On each turn, you will see a picture of a fruit and three different stores.  </p><p> You need to select the store where you can buy that fruit.  </p>","","0","instructions","","","","","","","","","","","","","",""
"learning-instructions","78","450599","0.0-9.0-1.0-0.2","1582","2","2","""event"",""trial"",""time""
""focus"",""0"",""2""
""fullscreenenter"",""1"",""8218""
","
","""event"",""trial"",""time""
""focus"",""0"",""2""
","""event"",""trial"",""time""
""fullscreenenter"",""1"",""8218""
","
","","","","","","3101","<p> You can select the store on the left by pressing 1, the store in the middle by pressing 2, and the store on the right by pressing 3. </p><br><div class=""choice-instructions-grid""> <div class=""choice-option""><img src=""images/fruit_choice1.png"" class=""choice-option-img"" stage=""instructions"" position=""0"" ><div class=""choice-option-text""> Press ""1."" </div></div><div class=""choice-option""><img src=""images/fruit_choice2.png"" class=""choice-option-img"" stage=""instructions"" position=""1"" ><div class=""choice-option-text""> Press ""2."" </div></div><div class=""choice-option""><img src=""images/fruit_choice3.png"" class=""choice-option-img"" stage=""instructions"" position=""2"" ><div class=""choice-option-text""> Press ""3."" </div></div></div>","","0","instructions","","","","","","","","","","","","","",""
"learning-instructions","79","457232","0.0-9.0-1.0-0.3","1582","2","2","""event"",""trial"",""time""
""focus"",""0"",""2""
""fullscreenenter"",""1"",""8218""
","
","""event"",""trial"",""time""
""focus"",""0"",""2""
","""event"",""trial"",""time""
""fullscreenenter"",""1"",""8218""
","
","","","","","","1677","<p> If you find the fruit in the store you chose, you will get to buy and eat it! </p><div style='float: center;'><img src='images/check.png' width = '200' height = '200'></img>","","0","instructions","","","","","","","","","","","","","",""
"learning-instructions","80","462835","0.0-9.0-1.0-0.4","1582","2","2","""event"",""trial"",""time""
""focus"",""0"",""2""
""fullscreenenter"",""1"",""8218""
","
","""event"",""trial"",""time""
""focus"",""0"",""2""
","""event"",""trial"",""time""
""fullscreenenter"",""1"",""8218""
","
","","","","","","1127","<p> But, if the fruit is not in that store, you will be hungry. </p><div style='float: center;'><img src='images/x.png' width = '200' height = '200'></img>","","0","instructions","","","","","","","","","","","","","",""
"learning-instructions","81","473409","0.0-9.0-1.0-0.5","1582","2","2","""event"",""trial"",""time""
""focus"",""0"",""2""
""fullscreenenter"",""1"",""8218""
","
","""event"",""trial"",""time""
""focus"",""0"",""2""
","""event"",""trial"",""time""
""fullscreenenter"",""1"",""8218""
","
","","","","","","789","<p> Importantly, each fruit is more likely to be found in one of the stores. </p><p> If you choose the correct store, you will be more likely to be able to buy the fruit! </p>","","0","instructions","","","","","","","","","","","","","",""
"learning-instructions","82","487228","0.0-9.0-1.0-0.6","1582","2","2","""event"",""trial"",""time""
""focus"",""0"",""2""
""fullscreenenter"",""1"",""8218""
","
","""event"",""trial"",""time""
""focus"",""0"",""2""
","""event"",""trial"",""time""
""fullscreenenter"",""1"",""8218""
","
","","","","","","3348","<p> However, even if you choose the best store for the fruit, the store might not have it sometimes. </p><p> Similarly, even if you choose the <i>wrong</i> store, it might still have the fruit.","","0","instructions","","","","","","","","","","","","","",""
"learning-instructions","83","500458","0.0-9.0-1.0-0.7","1582","2","2","""event"",""trial"",""time""
""focus"",""0"",""2""
""fullscreenenter"",""1"",""8218""
","
","""event"",""trial"",""time""
""focus"",""0"",""2""
","""event"",""trial"",""time""
""fullscreenenter"",""1"",""8218""
","
","","","","","","1031","<p> Try to choose the best store for each fruit, because you will <b> WIN </b> 1 point for each fruit you eat and <b>LOSE</b> 1 point each time you are hungry. </p><p> Your bonus payment will depend on your total number of points.","","0","instructions","","","","","","","","","","","","","",""
"learning-instructions","84","509701","0.0-9.0-1.0-0.8","1582","2","2","""event"",""trial"",""time""
""focus"",""0"",""2""
""fullscreenenter"",""1"",""8218""
","
","""event"",""trial"",""time""
""focus"",""0"",""2""
","""event"",""trial"",""time""
""fullscreenenter"",""1"",""8218""
","
","","","","","","1023","<p> The position of each store will change throughout the round. </p><p> The store's position <i> does not </i> influence how likely you are to find the fruit. </p>","","0","instructions","","","","","","","","","","","","","",""
"learning-instructions","85","520227","0.0-9.0-1.0-0.9","1582","2","2","""event"",""trial"",""time""
""focus"",""0"",""2""
""fullscreenenter"",""1"",""8218""
","
","""event"",""trial"",""time""
""focus"",""0"",""2""
","""event"",""trial"",""time""
""fullscreenenter"",""1"",""8218""
","
","","","","","","1130","<p> You will have 4 seconds to make each choice. Try to respond before time runs out! </p><p> You will lose 1 point each time you do not make a response. </p>","","0","instructions","","","","","","","","","","","","","",""
"html-keyboard-response","86","520835","0.0-9.0-2.0-0.0","1582","2","2","""event"",""trial"",""time""
""focus"",""0"",""2""
""fullscreenenter"",""1"",""8218""
","
","""event"",""trial"",""time""
""focus"",""0"",""2""
","""event"",""trial"",""time""
""fullscreenenter"",""1"",""8218""
","
","","","","","","null","<div style=""font-size:60px;"">+</div>","null","","fixation","","","","","","","","","","","","","",""
"learning-trial","87","524837","0.0-9.0-2.0-1.0","1582","2","2","""event"",""trial"",""time""
""focus"",""0"",""2""
""fullscreenenter"",""1"",""8218""
","
","""event"",""trial"",""time""
""focus"",""0"",""2""
","""event"",""trial"",""time""
""fullscreenenter"",""1"",""8218""
","
","","","","","","998","images/apple5.png","","","learning","images/fruit_choice1.png","images/fruit_choice3.png","images/fruit_choice2.png","[0,2,1]","2","1","2","images/fruit_choice3.png","1","fruit","","apple","2","0"
"html-keyboard-response","88","525343","0.0-9.0-2.0-0.1","1582","2","2","""event"",""trial"",""time""
""focus"",""0"",""2""
""fullscreenenter"",""1"",""8218""
","
","""event"",""trial"",""time""
""focus"",""0"",""2""
","""event"",""trial"",""time""
""fullscreenenter"",""1"",""8218""
","
","","","","","","null","<div style=""font-size:60px;"">+</div>","null","","fixation","","","","","","","","","","","","","",""
"learning-trial","89","529345","0.0-9.0-2.0-1.1","1582","2","2","""event"",""trial"",""time""
""focus"",""0"",""2""
""fullscreenenter"",""1"",""8218""
","
","""event"",""trial"",""time""
""focus"",""0"",""2""
","""event"",""trial"",""time""
""fullscreenenter"",""1"",""8218""
","
","","","","","","61","images/banana1.png","","","learning","images/fruit_choice3.png","images/fruit_choice1.png","images/fruit_choice2.png","[2,0,1]","1","2","1","images/fruit_choice3.png","-1","fruit","","banana","2","0"
"html-keyboard-response","90","529848","0.0-9.0-2.0-0.2","1582","2","2","""event"",""trial"",""time""
""focus"",""0"",""2""
""fullscreenenter"",""1"",""8218""
","
","""event"",""trial"",""time""
""focus"",""0"",""2""
","""event"",""trial"",""time""
""fullscreenenter"",""1"",""8218""
","
","","","","","","null","<div style=""font-size:60px;"">+</div>","null","","fixation","","","","","","","","","","","","","",""
"learning-trial","91","533853","0.0-9.0-2.0-1.2","1582","2","2","""event"",""trial"",""time""
""focus"",""0"",""2""
""fullscreenenter"",""1"",""8218""
","
","""event"",""trial"",""time""
""focus"",""0"",""2""
","""event"",""trial"",""time""
""fullscreenenter"",""1"",""8218""
","
","","","","","","473","images/orange4.png","","","learning","images/fruit_choice1.png","images/fruit_choice3.png","images/fruit_choice2.png","[0,2,1]","1","2","2","images/fruit_choice3.png","-1","fruit","","orange","2","0"
"html-keyboard-response","92","534354","0.0-9.0-2.0-0.3","1582","2","2","""event"",""trial"",""time""
""focus"",""0"",""2""
""fullscreenenter"",""1"",""8218""
","
","""event"",""trial"",""time""
""focus"",""0"",""2""
","""event"",""trial"",""time""
""fullscreenenter"",""1"",""8218""
","
","","","","","","null","<div style=""font-size:60px;"">+</div>","null","","fixation","","","","","","","","","","","","","",""
"learning-trial","93","538358","0.0-9.0-2.0-1.3","1582","2","2","""event"",""trial"",""time""
""focus"",""0"",""2""
""fullscreenenter"",""1"",""8218""
","
","""event"",""trial"",""time""
""focus"",""0"",""2""
","""event"",""trial"",""time""
""fullscreenenter"",""1"",""8218""
","
","","","","","","808","images/orange2.png","","","learning","images/fruit_choice2.png","images/fruit_choice3.png","images/fruit_choice1.png","[1,2,0]","2","1","3","images/fruit_choice1.png","-1","fruit","","orange","2","0"
"html-keyboard-response","94","538859","0.0-9.0-2.0-0.4","1582","2","2","""event"",""trial"",""time""
""focus"",""0"",""2""
""fullscreenenter"",""1"",""8218""
","
","""event"",""trial"",""time""
""focus"",""0"",""2""
","""event"",""trial"",""time""
""fullscreenenter"",""1"",""8218""
","
","","","","","","null","<div style=""font-size:60px;"">+</div>","null","","fixation","","","","","","","","","","","","","",""
"learning-trial","95","542862","0.0-9.0-2.0-1.4","1582","2","2","""event"",""trial"",""time""
""focus"",""0"",""2""
""fullscreenenter"",""1"",""8218""
","
","""event"",""trial"",""time""
""focus"",""0"",""2""
","""event"",""trial"",""time""
""fullscreenenter"",""1"",""8218""
","
","","","","","","401","images/orange2.png","","","learning","images/fruit_choice2.png","images/fruit_choice3.png","images/fruit_choice1.png","[1,2,0]","2","1","1","images/fruit_choice2.png","-1","fruit","","orange","2","0"
"html-keyboard-response","96","543367","0.0-9.0-2.0-0.5","1582","2","2","""event"",""trial"",""time""
""focus"",""0"",""2""
""fullscreenenter"",""1"",""8218""
","
","""event"",""trial"",""time""
""focus"",""0"",""2""
","""event"",""trial"",""time""
""fullscreenenter"",""1"",""8218""
","
","","","","","","null","<div style=""font-size:60px;"">+</div>","null","","fixation","","","","","","","","","","","","","",""
"learning-trial","97","547370","0.0-9.0-2.0-1.5","1582","2","2","""event"",""trial"",""time""
""focus"",""0"",""2""
""fullscreenenter"",""1"",""8218""
","
","""event"",""trial"",""time""
""focus"",""0"",""2""
","""event"",""trial"",""time""
""fullscreenenter"",""1"",""8218""
","
","","","","","","634","images/apple5.png","","","learning","images/fruit_choice1.png","images/fruit_choice2.png","images/fruit_choice3.png","[0,1,2]","2","2","2","images/fruit_choice2.png","-1","fruit","","apple","2","0"
"html-keyboard-response","98","547873","0.0-9.0-2.0-0.6","1582","2","2","""event"",""trial"",""time""
""focus"",""0"",""2""
""fullscreenenter"",""1"",""8218""
","
","""event"",""trial"",""time""
""focus"",""0"",""2""
","""event"",""trial"",""time""
""fullscreenenter"",""1"",""8218""
","
","","","","","","null","<div style=""font-size:60px;"">+</div>","null","","fixation","","","","","","","","","","","","","",""
"learning-trial","99","551880","0.0-9.0-2.0-1.6","1582","2","2","""event"",""trial"",""time""
""focus"",""0"",""2""
""fullscreenenter"",""1"",""8218""
","
","""event"",""trial"",""time""
""focus"",""0"",""2""
","""event"",""trial"",""time""
""fullscreenenter"",""1"",""8218""
","
","","","","","","959","images/orange4.png","","","learning","images/fruit_choice3.png","images/fruit_choice1.png","images/fruit_choice2.png","[2,0,1]","1","2","3","images/fruit_choice2.png","1","fruit","","orange","2","0"
"html-keyboard-response","100","552381","0.0-9.0-2.0-0.7","1582","2","2","""event"",""trial"",""time""
""focus"",""0"",""2""
""fullscreenenter"",""1"",""8218""
","
","""event"",""trial"",""time""
""focus"",""0"",""2""
","""event"",""trial"",""time""
""fullscreenenter"",""1"",""8218""
","
","","","","","","null","<div style=""font-size:60px;"">+</div>","null","","fixation","","","","","","","","","","","","","",""
"learning-trial","101","556387","0.0-9.0-2.0-1.7","1582","2","2","""event"",""trial"",""time""
""focus"",""0"",""2""
""fullscreenenter"",""1"",""8218""
","
","""event"",""trial"",""time""
""focus"",""0"",""2""
","""event"",""trial"",""time""
""fullscreenenter"",""1"",""8218""
","
","","","","","","514","images/apple2.png","","","learning","images/fruit_choice3.png","images/fruit_choice1.png","images/fruit_choice2.png","[2,0,1]","0","1","2","images/fruit_choice1.png","1","fruit","","apple","2","0"
"html-keyboard-response","102","556888","0.0-9.0-2.0-0.8","1582","2","2","""event"",""trial"",""time""
""focus"",""0"",""2""
""fullscreenenter"",""1"",""8218""
","
","""event"",""trial"",""time""
""focus"",""0"",""2""
","""event"",""trial"",""time""
""fullscreenenter"",""1"",""8218""
","
","","","","","","null","<div style=""font-size:60px;"">+</div>","null","","fixation","","","","","","","","","","","","","",""
"learning-trial","103","560891","0.0-9.0-2.0-1.8","1582","2","2","""event"",""trial"",""time""
""focus"",""0"",""2""
""fullscreenenter"",""1"",""8218""
","
","""event"",""trial"",""time""
""focus"",""0"",""2""
","""event"",""trial"",""time""
""fullscreenenter"",""1"",""8218""
","
","","","","","","588","images/orange3.png","","","learning","images/fruit_choice3.png","images/fruit_choice2.png","images/fruit_choice1.png","[2,1,0]","0","2","1","images/fruit_choice3.png","-1","fruit","","orange","2","0"
"html-keyboard-response","104","561395","0.0-9.0-2.0-0.9","1582","2","2","""event"",""trial"",""time""
""focus"",""0"",""2""
""fullscreenenter"",""1"",""8218""
","
","""event"",""trial"",""time""
""focus"",""0"",""2""
","""event"",""trial"",""time""
""fullscreenenter"",""1"",""8218""
","
","","","","","","null","<div style=""font-size:60px;"">+</div>","null","","fixation","","","","","","","","","","","","","",""
"learning-trial","105","565402","0.0-9.0-2.0-1.9","1582","2","2","""event"",""trial"",""time""
""focus"",""0"",""2""
""fullscreenenter"",""1"",""8218""
","
","""event"",""trial"",""time""
""focus"",""0"",""2""
","""event"",""trial"",""time""
""fullscreenenter"",""1"",""8218""
","
","","","","","","832","images/orange3.png","","","learning","images/fruit_choice2.png","images/fruit_choice1.png","images/fruit_choice3.png","[1,0,2]","0","1","3","images/fruit_choice3.png","-1","fruit","","orange","2","0"
"html-keyboard-response","106","565906","0.0-9.0-2.0-0.10","1582","2","2","""event"",""trial"",""time""
""focus"",""0"",""2""
""fullscreenenter"",""1"",""8218""
","
","""event"",""trial"",""time""
""focus"",""0"",""2""
","""event"",""trial"",""time""
""fullscreenenter"",""1"",""8218""
","
","","","","","","null","<div style=""font-size:60px;"">+</div>","null","","fixation","","","","","","","","","","","","","",""
"learning-trial","107","569912","0.0-9.0-2.0-1.10","1582","2","2","""event"",""trial"",""time""
""focus"",""0"",""2""
""fullscreenenter"",""1"",""8218""
","
","""event"",""trial"",""time""
""focus"",""0"",""2""
","""event"",""trial"",""time""
""fullscreenenter"",""1"",""8218""
","
","","","","","","175","images/apple2.png","","","learning","images/fruit_choice1.png","images/fruit_choice2.png","images/fruit_choice3.png","[0,1,2]","0","0","1","images/fruit_choice1.png","1","fruit","","apple","2","0"
"html-keyboard-response","108","570418","0.0-9.0-2.0-0.11","1582","2","2","""event"",""trial"",""time""
""focus"",""0"",""2""
""fullscreenenter"",""1"",""8218""
","
","""event"",""trial"",""time""
""focus"",""0"",""2""
","""event"",""trial"",""time""
""fullscreenenter"",""1"",""8218""
","
","","","","","","null","<div style=""font-size:60px;"">+</div>","null","","fixation","","","","","","","","","","","","","",""
"learning-trial","109","574421","0.0-9.0-2.0-1.11","1582","2","2","""event"",""trial"",""time""
""focus"",""0"",""2""
""fullscreenenter"",""1"",""8218""
","
","""event"",""trial"",""time""
""focus"",""0"",""2""
","""event"",""trial"",""time""
""fullscreenenter"",""1"",""8218""
","
","","","","","","334","images/apple3.png","","","learning","images/fruit_choice3.png","images/fruit_choice1.png","images/fruit_choice2.png","[2,0,1]","1","2","2","images/fruit_choice1.png","-1","fruit","","apple","2","0"
"html-keyboard-response","110","574921","0.0-9.0-2.0-0.12","1582","2","2","""event"",""trial"",""time""
""focus"",""0"",""2""
""fullscreenenter"",""1"",""8218""
","
","""event"",""trial"",""time""
""focus"",""0"",""2""
","""event"",""trial"",""time""
""fullscreenenter"",""1"",""8218""
","
","","","","","","null","<div style=""font-size:60px;"">+</div>","null","","fixation","","","","","","","","","","","","","",""
"learning-trial","111","578929","0.0-9.0-2.0-1.12","1582","2","2","""event"",""trial"",""time""
""focus"",""0"",""2""
""fullscreenenter"",""1"",""8218""
","
","""event"",""trial"",""time""
""focus"",""0"",""2""
","""event"",""trial"",""time""
""fullscreenenter"",""1"",""8218""
","
","","","","","","775","images/orange2.png","","","learning","images/fruit_choice2.png","images/fruit_choice1.png","images/fruit_choice3.png","[1,0,2]","2","2","1","images/fruit_choice2.png","-1","fruit","","orange","2","0"
"html-keyboard-response","112","579431","0.0-9.0-2.0-0.13","1582","2","2","""event"",""trial"",""time""
""focus"",""0"",""2""
""fullscreenenter"",""1"",""8218""
","
","""event"",""trial"",""time""
""focus"",""0"",""2""
","""event"",""trial"",""time""
""fullscreenenter"",""1"",""8218""
","
","","","","","","null","<div style=""font-size:60px;"">+</div>","null","","fixation","","","","","","","","","","","","","",""
"learning-trial","113","583436","0.0-9.0-2.0-1.13","1582","2","2","""event"",""trial"",""time""
""focus"",""0"",""2""
""fullscreenenter"",""1"",""8218""
","
","""event"",""trial"",""time""
""focus"",""0"",""2""
","""event"",""trial"",""time""
""fullscreenenter"",""1"",""8218""
","
","","","","","","585","images/banana5.png","","","learning","images/fruit_choice1.png","images/fruit_choice3.png","images/fruit_choice2.png","[0,2,1]","2","1","3","images/fruit_choice2.png","-1","fruit","","banana","2","0"
"html-keyboard-response","114","583943","0.0-9.0-2.0-0.14","1582","2","2","""event"",""trial"",""time""
""focus"",""0"",""2""
""fullscreenenter"",""1"",""8218""
","
","""event"",""trial"",""time""
""focus"",""0"",""2""
","""event"",""trial"",""time""
""fullscreenenter"",""1"",""8218""
","
","","","","","","null","<div style=""font-size:60px;"">+</div>","null","","fixation","","","","","","","","","","","","","",""
"learning-trial","115","587948","0.0-9.0-2.0-1.14","1582","2","2","""event"",""trial"",""time""
""focus"",""0"",""2""
""fullscreenenter"",""1"",""8218""
","
","""event"",""trial"",""time""
""focus"",""0"",""2""
","""event"",""trial"",""time""
""fullscreenenter"",""1"",""8218""
","
","","","","","","432","images/apple5.png","","","learning","images/fruit_choice2.png","images/fruit_choice3.png","images/fruit_choice1.png","[1,2,0]","2","1","2","images/fruit_choice3.png","1","fruit","","apple","2","0"
"html-keyboard-response","116","588452","0.0-9.0-2.0-0.15","1582","2","2","""event"",""trial"",""time""
""focus"",""0"",""2""
""fullscreenenter"",""1"",""8218""
","
","""event"",""trial"",""time""
""focus"",""0"",""2""
","""event"",""trial"",""time""
""fullscreenenter"",""1"",""8218""
","
","","","","","","null","<div style=""font-size:60px;"">+</div>","null","","fixation","","","","","","","","","","","","","",""
"learning-trial","117","592458","0.0-9.0-2.0-1.15","1582","2","2","""event"",""trial"",""time""
""focus"",""0"",""2""
""fullscreenenter"",""1"",""8218""
","
","""event"",""trial"",""time""
""focus"",""0"",""2""
","""event"",""trial"",""time""
""fullscreenenter"",""1"",""8218""
","
","","","","","","1808","images/orange2.png","","","learning","images/fruit_choice3.png","images/fruit_choice2.png","images/fruit_choice1.png","[2,1,0]","2","0","2","images/fruit_choice2.png","-1","fruit","","orange","2","0"
"html-keyboard-response","118","592962","0.0-9.0-2.0-0.16","1582","2","2","""event"",""trial"",""time""
""focus"",""0"",""2""
""fullscreenenter"",""1"",""8218""
","
","""event"",""trial"",""time""
""focus"",""0"",""2""
","""event"",""trial"",""time""
""fullscreenenter"",""1"",""8218""
","
","","","","","","null","<div style=""font-size:60px;"">+</div>","null","","fixation","","","","","","","","","","","","","",""
"learning-trial","119","596969","0.0-9.0-2.0-1.16","1582","2","2","""event"",""trial"",""time""
""focus"",""0"",""2""
""fullscreenenter"",""1"",""8218""
","
","""event"",""trial"",""time""
""focus"",""0"",""2""
","""event"",""trial"",""time""
""fullscreenenter"",""1"",""8218""
","
","","","","","","489","images/orange4.png","","","learning","images/fruit_choice2.png","images/fruit_choice3.png","images/fruit_choice1.png","[1,2,0]","1","0","1","images/fruit_choice2.png","1","fruit","","orange","2","0"
"html-keyboard-response","120","597471","0.0-9.0-2.0-0.17","1582","2","2","""event"",""trial"",""time""
""focus"",""0"",""2""
""fullscreenenter"",""1"",""8218""
","
","""event"",""trial"",""time""
""focus"",""0"",""2""
","""event"",""trial"",""time""
""fullscreenenter"",""1"",""8218""
","
","","","","","","null","<div style=""font-size:60px;"">+</div>","null","","fixation","","","","","","","","","","","","","",""
"learning-trial","121","601478","0.0-9.0-2.0-1.17","1582","2","2","""event"",""trial"",""time""
""focus"",""0"",""2""
""fullscreenenter"",""1"",""8218""
","
","""event"",""trial"",""time""
""focus"",""0"",""2""
","""event"",""trial"",""time""
""fullscreenenter"",""1"",""8218""
","
","","","","","","1136","images/apple2.png","","","learning","images/fruit_choice2.png","images/fruit_choice1.png","images/fruit_choice3.png","[1,0,2]","0","1","2","images/fruit_choice1.png","1","fruit","","apple","2","0"
"html-keyboard-response","122","601979","0.0-9.0-2.0-0.18","1582","2","2","""event"",""trial"",""time""
""focus"",""0"",""2""
""fullscreenenter"",""1"",""8218""
","
","""event"",""trial"",""time""
""focus"",""0"",""2""
","""event"",""trial"",""time""
""fullscreenenter"",""1"",""8218""
","
","","","","","","null","<div style=""font-size:60px;"">+</div>","null","","fixation","","","","","","","","","","","","","",""
"learning-trial","123","605984","0.0-9.0-2.0-1.18","1582","2","2","""event"",""trial"",""time""
""focus"",""0"",""2""
""fullscreenenter"",""1"",""8218""
","
","""event"",""trial"",""time""
""focus"",""0"",""2""
","""event"",""trial"",""time""
""fullscreenenter"",""1"",""8218""
","
","","","","","","1120","images/banana1.png","","","learning","images/fruit_choice2.png","images/fruit_choice3.png","images/fruit_choice1.png","[1,2,0]","1","0","1","images/fruit_choice2.png","1","fruit","","banana","2","0"
"html-keyboard-response","124","606489","0.0-9.0-2.0-0.19","1582","2","2","""event"",""trial"",""time""
""focus"",""0"",""2""
""fullscreenenter"",""1"",""8218""
","
","""event"",""trial"",""time""
""focus"",""0"",""2""
","""event"",""trial"",""time""
""fullscreenenter"",""1"",""8218""
","
","","","","","","null","<div style=""font-size:60px;"">+</div>","null","","fixation","","","","","","","","","","","","","",""
"learning-trial","125","610496","0.0-9.0-2.0-1.19","1582","2","2","""event"",""trial"",""time""
""focus"",""0"",""2""
""fullscreenenter"",""1"",""8218""
","
","""event"",""trial"",""time""
""focus"",""0"",""2""
","""event"",""trial"",""time""
""fullscreenenter"",""1"",""8218""
","
","","","","","","662","images/apple3.png","","","learning","images/fruit_choice1.png","images/fruit_choice2.png","images/fruit_choice3.png","[0,1,2]","1","1","3","images/fruit_choice3.png","-1","fruit","","apple","2","0"
"html-keyboard-response","126","610997","0.0-9.0-2.0-0.20","1582","2","2","""event"",""trial"",""time""
""focus"",""0"",""2""
""fullscreenenter"",""1"",""8218""
","
","""event"",""trial"",""time""
""focus"",""0"",""2""
","""event"",""trial"",""time""
""fullscreenenter"",""1"",""8218""
","
","","","","","","null","<div style=""font-size:60px;"">+</div>","null","","fixation","","","","","","","","","","","","","",""
"learning-trial","127","615003","0.0-9.0-2.0-1.20","1582","2","2","""event"",""trial"",""time""
""focus"",""0"",""2""
""fullscreenenter"",""1"",""8218""
","
","""event"",""trial"",""time""
""focus"",""0"",""2""
","""event"",""trial"",""time""
""fullscreenenter"",""1"",""8218""
","
","","","","","","693","images/orange4.png","","","learning","images/fruit_choice1.png","images/fruit_choice3.png","images/fruit_choice2.png","[0,2,1]","1","2","1","images/fruit_choice1.png","-1","fruit","","orange","2","0"
"html-keyboard-response","128","615506","0.0-9.0-2.0-0.21","1582","2","2","""event"",""trial"",""time""
""focus"",""0"",""2""
""fullscreenenter"",""1"",""8218""
","
","""event"",""trial"",""time""
""focus"",""0"",""2""
","""event"",""trial"",""time""
""fullscreenenter"",""1"",""8218""
","
","","","","","","null","<div style=""font-size:60px;"">+</div>","null","","fixation","","","","","","","","","","","","","",""
"learning-trial","129","619513","0.0-9.0-2.0-1.21","1582","2","2","""event"",""trial"",""time""
""focus"",""0"",""2""
""fullscreenenter"",""1"",""8218""
","
","""event"",""trial"",""time""
""focus"",""0"",""2""
","""event"",""trial"",""time""
""fullscreenenter"",""1"",""8218""
","
","","","","","","911","images/banana1.png","","","learning","images/fruit_choice1.png","images/fruit_choice3.png","images/fruit_choice2.png","[0,2,1]","1","2","2","images/fruit_choice3.png","-1","fruit","","banana","2","0"
"html-keyboard-response","130","620014","0.0-9.0-2.0-0.22","1582","2","2","""event"",""trial"",""time""
""focus"",""0"",""2""
""fullscreenenter"",""1"",""8218""
","
","""event"",""trial"",""time""
""focus"",""0"",""2""
","""event"",""trial"",""time""
""fullscreenenter"",""1"",""8218""
","
","","","","","","null","<div style=""font-size:60px;"">+</div>","null","","fixation","","","","","","","","","","","","","",""
"learning-trial","131","624021","0.0-9.0-2.0-1.22","1582","2","2","""event"",""trial"",""time""
""focus"",""0"",""2""
""fullscreenenter"",""1"",""8218""
","
","""event"",""trial"",""time""
""focus"",""0"",""2""
","""event"",""trial"",""time""
""fullscreenenter"",""1"",""8218""
","
","","","","","","132","images/apple3.png","","","learning","images/fruit_choice2.png","images/fruit_choice3.png","images/fruit_choice1.png","[1,2,0]","1","0","2","images/fruit_choice3.png","-1","fruit","","apple","2","0"
"html-keyboard-response","132","624522","0.0-9.0-2.0-0.23","1582","2","2","""event"",""trial"",""time""
""focus"",""0"",""2""
""fullscreenenter"",""1"",""8218""
","
","""event"",""trial"",""time""
""focus"",""0"",""2""
","""event"",""trial"",""time""
""fullscreenenter"",""1"",""8218""
","
","","","","","","null","<div style=""font-size:60px;"">+</div>","null","","fixation","","","","","","","","","","","","","",""
"learning-trial","133","628527","0.0-9.0-2.0-1.23","1582","2","2","""event"",""trial"",""time""
""focus"",""0"",""2""
""fullscreenenter"",""1"",""8218""
","
","""event"",""trial"",""time""
""focus"",""0"",""2""
","""event"",""trial"",""time""
""fullscreenenter"",""1"",""8218""
","
","","","","","","792","images/banana4.png","","","learning","images/fruit_choice2.png","images/fruit_choice3.png","images/fruit_choice1.png","[1,2,0]","0","2","1","images/fruit_choice2.png","-1","fruit","","banana","2","0"
"html-keyboard-response","134","629033","0.0-9.0-2.0-0.24","1582","2","2","""event"",""trial"",""time""
""focus"",""0"",""2""
""fullscreenenter"",""1"",""8218""
","
","""event"",""trial"",""time""
""focus"",""0"",""2""
","""event"",""trial"",""time""
""fullscreenenter"",""1"",""8218""
","
","","","","","","null","<div style=""font-size:60px;"">+</div>","null","","fixation","","","","","","","","","","","","","",""
"learning-trial","135","633035","0.0-9.0-2.0-1.24","1582","2","2","""event"",""trial"",""time""
""focus"",""0"",""2""
""fullscreenenter"",""1"",""8218""
","
","""event"",""trial"",""time""
""focus"",""0"",""2""
","""event"",""trial"",""time""
""fullscreenenter"",""1"",""8218""
","
","","","","","","3071","images/banana4.png","","","learning","images/fruit_choice1.png","images/fruit_choice2.png","images/fruit_choice3.png","[0,1,2]","0","0","1","images/fruit_choice1.png","1","fruit","","banana","2","0"
"html-keyboard-response","136","633541","0.0-9.0-2.0-0.25","1582","2","2","""event"",""trial"",""time""
""focus"",""0"",""2""
""fullscreenenter"",""1"",""8218""
","
","""event"",""trial"",""time""
""focus"",""0"",""2""
","""event"",""trial"",""time""
""fullscreenenter"",""1"",""8218""
","
","","","","","","null","<div style=""font-size:60px;"">+</div>","null","","fixation","","","","","","","","","","","","","",""
"learning-trial","137","637548","0.0-9.0-2.0-1.25","1582","2","2","""event"",""trial"",""time""
""focus"",""0"",""2""
""fullscreenenter"",""1"",""8218""
","
","""event"",""trial"",""time""
""focus"",""0"",""2""
","""event"",""trial"",""time""
""fullscreenenter"",""1"",""8218""
","
","","","","","","825","images/apple2.png","","","learning","images/fruit_choice2.png","images/fruit_choice1.png","images/fruit_choice3.png","[1,0,2]","0","1","3","images/fruit_choice3.png","-1","fruit","","apple","2","0"
"html-keyboard-response","138","638054","0.0-9.0-2.0-0.26","1582","2","2","""event"",""trial"",""time""
""focus"",""0"",""2""
""fullscreenenter"",""1"",""8218""
","
","""event"",""trial"",""time""
""focus"",""0"",""2""
","""event"",""trial"",""time""
""fullscreenenter"",""1"",""8218""
","
","","","","","","null","<div style=""font-size:60px;"">+</div>","null","","fixation","","","","","","","","","","","","","",""
"learning-trial","139","642061","0.0-9.0-2.0-1.26","1582","2","2","""event"",""trial"",""time""
""focus"",""0"",""2""
""fullscreenenter"",""1"",""8218""
","
","""event"",""trial"",""time""
""focus"",""0"",""2""
","""event"",""trial"",""time""
""fullscreenenter"",""1"",""8218""
","
","","","","","","593","images/banana5.png","","","learning","images/fruit_choice2.png","images/fruit_choice3.png","images/fruit_choice1.png","[1,2,0]","2","1","1","images/fruit_choice2.png","-1","fruit","","banana","2","0"
"html-keyboard-response","140","642563","0.0-9.0-2.0-0.27","1582","2","2","""event"",""trial"",""time""
""focus"",""0"",""2""
""fullscreenenter"",""1"",""8218""
","
","""event"",""trial"",""time""
""focus"",""0"",""2""
","""event"",""trial"",""time""
""fullscreenenter"",""1"",""8218""
","
","","","","","","null","<div style=""font-size:60px;"">+</div>","null","","fixation","","","","","","","","","","","","","",""
"learning-trial","141","646568","0.0-9.0-2.0-1.27","1582","2","2","""event"",""trial"",""time""
""focus"",""0"",""2""
""fullscreenenter"",""1"",""8218""
","
","""event"",""trial"",""time""
""focus"",""0"",""2""
","""event"",""trial"",""time""
""fullscreenenter"",""1"",""8218""
","
","","","","","","437","images/banana1.png","","","learning","images/fruit_choice3.png","images/fruit_choice1.png","images/fruit_choice2.png","[2,0,1]","1","2","2","images/fruit_choice1.png","1","fruit","","banana","2","0"
"html-keyboard-response","142","647074","0.0-9.0-2.0-0.28","1582","2","2","""event"",""trial"",""time""
""focus"",""0"",""2""
""fullscreenenter"",""1"",""8218""
","
","""event"",""trial"",""time""
""focus"",""0"",""2""
","""event"",""trial"",""time""
""fullscreenenter"",""1"",""8218""
","
","","","","","","null","<div style=""font-size:60px;"">+</div>","null","","fixation","","","","","","","","","","","","","",""
"learning-trial","143","651080","0.0-9.0-2.0-1.28","1582","2","2","""event"",""trial"",""time""
""focus"",""0"",""2""
""fullscreenenter"",""1"",""8218""
","
","""event"",""trial"",""time""
""focus"",""0"",""2""
","""event"",""trial"",""time""
""fullscreenenter"",""1"",""8218""
","
","","","","","","490","images/banana1.png","","","learning","images/fruit_choice3.png","images/fruit_choice2.png","images/fruit_choice1.png","[2,1,0]","1","1","1","images/fruit_choice3.png","-1","fruit","","banana","2","0"
"html-keyboard-response","144","651587","0.0-9.0-2.0-0.29","1582","2","2","""event"",""trial"",""time""
""focus"",""0"",""2""
""fullscreenenter"",""1"",""8218""
","
","""event"",""trial"",""time""
""focus"",""0"",""2""
","""event"",""trial"",""time""
""fullscreenenter"",""1"",""8218""
","
","","","","","","null","<div style=""font-size:60px;"">+</div>","null","","fixation","","","","","","","","","","","","","",""
"learning-trial","145","655589","0.0-9.0-2.0-1.29","1582","2","2","""event"",""trial"",""time""
""focus"",""0"",""2""
""fullscreenenter"",""1"",""8218""
","
","""event"",""trial"",""time""
""focus"",""0"",""2""
","""event"",""trial"",""time""
""fullscreenenter"",""1"",""8218""
","
","","","","","","649","images/orange4.png","","","learning","images/fruit_choice2.png","images/fruit_choice3.png","images/fruit_choice1.png","[1,2,0]","1","0","2","images/fruit_choice3.png","-1","fruit","","orange","2","0"
"html-keyboard-response","146","656095","0.0-9.0-2.0-0.30","1582","2","2","""event"",""trial"",""time""
""focus"",""0"",""2""
""fullscreenenter"",""1"",""8218""
","
","""event"",""trial"",""time""
""focus"",""0"",""2""
","""event"",""trial"",""time""
""fullscreenenter"",""1"",""8218""
","
","","","","","","null","<div style=""font-size:60px;"">+</div>","null","","fixation","","","","","","","","","","","","","",""
"learning-trial","147","660102","0.0-9.0-2.0-1.30","1582","2","2","""event"",""trial"",""time""
""focus"",""0"",""2""
""fullscreenenter"",""1"",""8218""
","
","""event"",""trial"",""time""
""focus"",""0"",""2""
","""event"",""trial"",""time""
""fullscreenenter"",""1"",""8218""
","
","","","","","","614","images/orange3.png","","","learning","images/fruit_choice1.png","images/fruit_choice2.png","images/fruit_choice3.png","[0,1,2]","0","0","2","images/fruit_choice2.png","-1","fruit","","orange","2","0"
"html-keyboard-response","148","660604","0.0-9.0-2.0-0.31","1582","2","2","""event"",""trial"",""time""
""focus"",""0"",""2""
""fullscreenenter"",""1"",""8218""
","
","""event"",""trial"",""time""
""focus"",""0"",""2""
","""event"",""trial"",""time""
""fullscreenenter"",""1"",""8218""
","
","","","","","","null","<div style=""font-size:60px;"">+</div>","null","","fixation","","","","","","","","","","","","","",""
"learning-trial","149","664609","0.0-9.0-2.0-1.31","1582","2","2","""event"",""trial"",""time""
""focus"",""0"",""2""
""fullscreenenter"",""1"",""8218""
","
","""event"",""trial"",""time""
""focus"",""0"",""2""
","""event"",""trial"",""time""
""fullscreenenter"",""1"",""8218""
","
","","","","","","707","images/apple5.png","","","learning","images/fruit_choice3.png","images/fruit_choice1.png","images/fruit_choice2.png","[2,0,1]","2","0","2","images/fruit_choice1.png","-1","fruit","","apple","2","0"
"html-keyboard-response","150","665114","0.0-9.0-2.0-0.32","1582","2","2","""event"",""trial"",""time""
""focus"",""0"",""2""
""fullscreenenter"",""1"",""8218""
","
","""event"",""trial"",""time""
""focus"",""0"",""2""
","""event"",""trial"",""time""
""fullscreenenter"",""1"",""8218""
","
","","","","","","null","<div style=""font-size:60px;"">+</div>","null","","fixation","","","","","","","","","","","","","",""
"learning-trial","151","669122","0.0-9.0-2.0-1.32","1582","2","2","""event"",""trial"",""time""
""focus"",""0"",""2""
""fullscreenenter"",""1"",""8218""
","
","""event"",""trial"",""time""
""focus"",""0"",""2""
","""event"",""trial"",""time""
""fullscreenenter"",""1"",""8218""
","
","","","","","","86","images/orange4.png","","","learning","images/fruit_choice1.png","images/fruit_choice2.png","images/fruit_choice3.png","[0,1,2]","1","1","2","images/fruit_choice2.png","1","fruit","","orange","2","0"
"html-keyboard-response","152","669624","0.0-9.0-2.0-0.33","1582","2","2","""event"",""trial"",""time""
""focus"",""0"",""2""
""fullscreenenter"",""1"",""8218""
","
","""event"",""trial"",""time""
""focus"",""0"",""2""
","""event"",""trial"",""time""
""fullscreenenter"",""1"",""8218""
","
","","","","","","null","<div style=""font-size:60px;"">+</div>","null","","fixation","","","","","","","","","","","","","",""
"learning-trial","153","673629","0.0-9.0-2.0-1.33","1582","2","2","""event"",""trial"",""time""
""focus"",""0"",""2""
""fullscreenenter"",""1"",""8218""
","
","""event"",""trial"",""time""
""focus"",""0"",""2""
","""event"",""trial"",""time""
""fullscreenenter"",""1"",""8218""
","
","","","","","","110","images/apple2.png","","","learning","images/fruit_choice3.png","images/fruit_choice2.png","images/fruit_choice1.png","[2,1,0]","0","2","3","images/fruit_choice1.png","1","fruit","","apple","2","0"
"html-keyboard-response","154","674135","0.0-9.0-2.0-0.34","1582","2","2","""event"",""trial"",""time""
""focus"",""0"",""2""
""fullscreenenter"",""1"",""8218""
","
","""event"",""trial"",""time""
""focus"",""0"",""2""
","""event"",""trial"",""time""
""fullscreenenter"",""1"",""8218""
","
","","","","","","null","<div style=""font-size:60px;"">+</div>","null","","fixation","","","","","","","","","","","","","",""
"learning-trial","155","678142","0.0-9.0-2.0-1.34","1582","2","2","""event"",""trial"",""time""
""focus"",""0"",""2""
""fullscreenenter"",""1"",""8218""
","
","""event"",""trial"",""time""
""focus"",""0"",""2""
","""event"",""trial"",""time""
""fullscreenenter"",""1"",""8218""
","
","","","","","","113","images/apple2.png","","","learning","images/fruit_choice3.png","images/fruit_choice2.png","images/fruit_choice1.png","[2,1,0]","0","2","2","images/fruit_choice2.png","-1","fruit","","apple","2","0"
"html-keyboard-response","156","678644","0.0-9.0-2.0-0.35","1582","2","2","""event"",""trial"",""time""
""focus"",""0"",""2""
""fullscreenenter"",""1"",""8218""
","
","""event"",""trial"",""time""
""focus"",""0"",""2""
","""event"",""trial"",""time""
""fullscreenenter"",""1"",""8218""
","
","","","","","","null","<div style=""font-size:60px;"">+</div>","null","","fixation","","","","","","","","","","","","","",""
"learning-trial","157","682649","0.0-9.0-2.0-1.35","1582","2","2","""event"",""trial"",""time""
""focus"",""0"",""2""
""fullscreenenter"",""1"",""8218""
","
","""event"",""trial"",""time""
""focus"",""0"",""2""
","""event"",""trial"",""time""
""fullscreenenter"",""1"",""8218""
","
","","","","","","599","images/orange2.png","","","learning","images/fruit_choice1.png","images/fruit_choice2.png","images/fruit_choice3.png","[0,1,2]","2","2","3","images/fruit_choice3.png","1","fruit","","orange","2","0"
"html-keyboard-response","158","683156","0.0-9.0-2.0-0.36","1582","2","2","""event"",""trial"",""time""
""focus"",""0"",""2""
""fullscreenenter"",""1"",""8218""
","
","""event"",""trial"",""time""
""focus"",""0"",""2""
","""event"",""trial"",""time""
""fullscreenenter"",""1"",""8218""
","
","","","","","","null","<div style=""font-size:60px;"">+</div>","null","","fixation","","","","","","","","","","","","","",""
"learning-trial","159","687163","0.0-9.0-2.0-1.36","1582","2","2","""event"",""trial"",""time""
""focus"",""0"",""2""
""fullscreenenter"",""1"",""8218""
","
","""event"",""trial"",""time""
""focus"",""0"",""2""
","""event"",""trial"",""time""
""fullscreenenter"",""1"",""8218""
","
","","","","","","537","images/orange3.png","","","learning","images/fruit_choice3.png","images/fruit_choice1.png","images/fruit_choice2.png","[2,0,1]","0","1","1","images/fruit_choice3.png","-1","fruit","","orange","2","0"
"html-keyboard-response","160","687665","0.0-9.0-2.0-0.37","1582","2","2","""event"",""trial"",""time""
""focus"",""0"",""2""
""fullscreenenter"",""1"",""8218""
","
","""event"",""trial"",""time""
""focus"",""0"",""2""
","""event"",""trial"",""time""
""fullscreenenter"",""1"",""8218""
","
","","","","","","null","<div style=""font-size:60px;"">+</div>","null","","fixation","","","","","","","","","","","","","",""
"learning-trial","161","691670","0.0-9.0-2.0-1.37","1582","2","2","""event"",""trial"",""time""
""focus"",""0"",""2""
""fullscreenenter"",""1"",""8218""
","
","""event"",""trial"",""time""
""focus"",""0"",""2""
","""event"",""trial"",""time""
""fullscreenenter"",""1"",""8218""
","
","","","","","","415","images/orange2.png","","","learning","images/fruit_choice2.png","images/fruit_choice3.png","images/fruit_choice1.png","[1,2,0]","2","1","2","images/fruit_choice3.png","1","fruit","","orange","2","0"
"html-keyboard-response","162","692176","0.0-9.0-2.0-0.38","1582","2","2","""event"",""trial"",""time""
""focus"",""0"",""2""
""fullscreenenter"",""1"",""8218""
","
","""event"",""trial"",""time""
""focus"",""0"",""2""
","""event"",""trial"",""time""
""fullscreenenter"",""1"",""8218""
","
","","","","","","null","<div style=""font-size:60px;"">+</div>","null","","fixation","","","","","","","","","","","","","",""
"learning-trial","163","696183","0.0-9.0-2.0-1.38","1582","2","2","""event"",""trial"",""time""
""focus"",""0"",""2""
""fullscreenenter"",""1"",""8218""
","
","""event"",""trial"",""time""
""focus"",""0"",""2""
","""event"",""trial"",""time""
""fullscreenenter"",""1"",""8218""
","
","","","","","","502","images/apple3.png","","","learning","images/fruit_choice1.png","images/fruit_choice3.png","images/fruit_choice2.png","[0,2,1]","1","2","3","images/fruit_choice2.png","1","fruit","","apple","2","0"
"html-keyboard-response","164","696685","0.0-9.0-2.0-0.39","1582","2","2","""event"",""trial"",""time""
""focus"",""0"",""2""
""fullscreenenter"",""1"",""8218""
","
","""event"",""trial"",""time""
""focus"",""0"",""2""
","""event"",""trial"",""time""
""fullscreenenter"",""1"",""8218""
","
","","","","","","null","<div style=""font-size:60px;"">+</div>","null","","fixation","","","","","","","","","","","","","",""
"learning-trial","165","700690","0.0-9.0-2.0-1.39","1582","2","2","""event"",""trial"",""time""
""focus"",""0"",""2""
""fullscreenenter"",""1"",""8218""
","
","""event"",""trial"",""time""
""focus"",""0"",""2""
","""event"",""trial"",""time""
""fullscreenenter"",""1"",""8218""
","
","","","","","","857","images/banana1.png","","","learning","images/fruit_choice2.png","images/fruit_choice1.png","images/fruit_choice3.png","[1,0,2]","1","0","3","images/fruit_choice3.png","-1","fruit","","banana","2","0"
"html-keyboard-response","166","701197","0.0-9.0-2.0-0.40","1582","2","2","""event"",""trial"",""time""
""focus"",""0"",""2""
""fullscreenenter"",""1"",""8218""
","
","""event"",""trial"",""time""
""focus"",""0"",""2""
","""event"",""trial"",""time""
""fullscreenenter"",""1"",""8218""
","
","","","","","","null","<div style=""font-size:60px;"">+</div>","null","","fixation","","","","","","","","","","","","","",""
"learning-trial","167","705204","0.0-9.0-2.0-1.40","1582","2","2","""event"",""trial"",""time""
""focus"",""0"",""2""
""fullscreenenter"",""1"",""8218""
","
","""event"",""trial"",""time""
""focus"",""0"",""2""
","""event"",""trial"",""time""
""fullscreenenter"",""1"",""8218""
","
","","","","","","830","images/banana4.png","","","learning","images/fruit_choice3.png","images/fruit_choice1.png","images/fruit_choice2.png","[2,0,1]","0","1","1","images/fruit_choice3.png","-1","fruit","","banana","2","0"
"html-keyboard-response","168","705709","0.0-9.0-2.0-0.41","1582","2","2","""event"",""trial"",""time""
""focus"",""0"",""2""
""fullscreenenter"",""1"",""8218""
","
","""event"",""trial"",""time""
""focus"",""0"",""2""
","""event"",""trial"",""time""
""fullscreenenter"",""1"",""8218""
","
","","","","","","null","<div style=""font-size:60px;"">+</div>","null","","fixation","","","","","","","","","","","","","",""
"learning-trial","169","709711","0.0-9.0-2.0-1.41","1582","2","2","""event"",""trial"",""time""
""focus"",""0"",""2""
""fullscreenenter"",""1"",""8218""
","
","""event"",""trial"",""time""
""focus"",""0"",""2""
","""event"",""trial"",""time""
""fullscreenenter"",""1"",""8218""
","
","","","","","","1388","images/banana5.png","","","learning","images/fruit_choice3.png","images/fruit_choice1.png","images/fruit_choice2.png","[2,0,1]","2","0","3","images/fruit_choice2.png","-1","fruit","","banana","2","0"
"html-keyboard-response","170","710217","0.0-9.0-2.0-0.42","1582","2","2","""event"",""trial"",""time""
""focus"",""0"",""2""
""fullscreenenter"",""1"",""8218""
","
","""event"",""trial"",""time""
""focus"",""0"",""2""
","""event"",""trial"",""time""
""fullscreenenter"",""1"",""8218""
","
","","","","","","null","<div style=""font-size:60px;"">+</div>","null","","fixation","","","","","","","","","","","","","",""
"learning-trial","171","714224","0.0-9.0-2.0-1.42","1582","2","2","""event"",""trial"",""time""
""focus"",""0"",""2""
""fullscreenenter"",""1"",""8218""
","
","""event"",""trial"",""time""
""focus"",""0"",""2""
","""event"",""trial"",""time""
""fullscreenenter"",""1"",""8218""
","
","","","","","","804","images/banana4.png","","","learning","images/fruit_choice2.png","images/fruit_choice1.png","images/fruit_choice3.png","[1,0,2]","0","1","3","images/fruit_choice3.png","-1","fruit","","banana","2","0"
"html-keyboard-response","172","714726","0.0-9.0-2.0-0.43","1582","2","2","""event"",""trial"",""time""
""focus"",""0"",""2""
""fullscreenenter"",""1"",""8218""
","
","""event"",""trial"",""time""
""focus"",""0"",""2""
","""event"",""trial"",""time""
""fullscreenenter"",""1"",""8218""
","
","","","","","","null","<div style=""font-size:60px;"">+</div>","null","","fixation","","","","","","","","","","","","","",""
"learning-trial","173","718731","0.0-9.0-2.0-1.43","1582","2","2","""event"",""trial"",""time""
""focus"",""0"",""2""
""fullscreenenter"",""1"",""8218""
","
","""event"",""trial"",""time""
""focus"",""0"",""2""
","""event"",""trial"",""time""
""fullscreenenter"",""1"",""8218""
","
","","","","","","664","images/apple5.png","","","learning","images/fruit_choice3.png","images/fruit_choice1.png","images/fruit_choice2.png","[2,0,1]","2","0","3","images/fruit_choice2.png","-1","fruit","","apple","2","0"
"html-keyboard-response","174","719237","0.0-9.0-2.0-0.44","1582","2","2","""event"",""trial"",""time""
""focus"",""0"",""2""
""fullscreenenter"",""1"",""8218""
","
","""event"",""trial"",""time""
""focus"",""0"",""2""
","""event"",""trial"",""time""
""fullscreenenter"",""1"",""8218""
","
","","","","","","null","<div style=""font-size:60px;"">+</div>","null","","fixation","","","","","","","","","","","","","",""
"learning-trial","175","723245","0.0-9.0-2.0-1.44","1582","2","2","""event"",""trial"",""time""
""focus"",""0"",""2""
""fullscreenenter"",""1"",""8218""
","
","""event"",""trial"",""time""
""focus"",""0"",""2""
","""event"",""trial"",""time""
""fullscreenenter"",""1"",""8218""
","
","","","","","","446","images/banana5.png","","","learning","images/fruit_choice1.png","images/fruit_choice3.png","images/fruit_choice2.png","[0,2,1]","2","1","1","images/fruit_choice1.png","-1","fruit","","banana","2","0"
"html-keyboard-response","176","723746","0.0-9.0-2.0-0.45","1582","2","2","""event"",""trial"",""time""
""focus"",""0"",""2""
""fullscreenenter"",""1"",""8218""
","
","""event"",""trial"",""time""
""focus"",""0"",""2""
","""event"",""trial"",""time""
""fullscreenenter"",""1"",""8218""
","
","","","","","","null","<div style=""font-size:60px;"">+</div>","null","","fixation","","","","","","","","","","","","","",""
"learning-trial","177","727751","0.0-9.0-2.0-1.45","1582","2","2","""event"",""trial"",""time""
""focus"",""0"",""2""
""fullscreenenter"",""1"",""8218""
","
","""event"",""trial"",""time""
""focus"",""0"",""2""
","""event"",""trial"",""time""
""fullscreenenter"",""1"",""8218""
","
","","","","","","985","images/orange4.png","","","learning","images/fruit_choice2.png","images/fruit_choice3.png","images/fruit_choice1.png","[1,2,0]","1","0","1","images/fruit_choice2.png","1","fruit","","orange","2","0"
"html-keyboard-response","178","728258","0.0-9.0-2.0-0.46","1582","2","2","""event"",""trial"",""time""
""focus"",""0"",""2""
""fullscreenenter"",""1"",""8218""
","
","""event"",""trial"",""time""
""focus"",""0"",""2""
","""event"",""trial"",""time""
""fullscreenenter"",""1"",""8218""
","
","","","","","","null","<div style=""font-size:60px;"">+</div>","null","","fixation","","","","","","","","","","","","","",""
"learning-trial","179","732263","0.0-9.0-2.0-1.46","1582","2","2","""event"",""trial"",""time""
""focus"",""0"",""2""
""fullscreenenter"",""1"",""8218""
","
","""event"",""trial"",""time""
""focus"",""0"",""2""
","""event"",""trial"",""time""
""fullscreenenter"",""1"",""8218""
","
","","","","","","89","images/banana5.png","","","learning","images/fruit_choice3.png","images/fruit_choice1.png","images/fruit_choice2.png","[2,0,1]","2","0","3","images/fruit_choice2.png","-1","fruit","","banana","2","0"
"html-keyboard-response","180","732766","0.0-9.0-2.0-0.47","1582","2","2","""event"",""trial"",""time""
""focus"",""0"",""2""
""fullscreenenter"",""1"",""8218""
","
","""event"",""trial"",""time""
""focus"",""0"",""2""
","""event"",""trial"",""time""
""fullscreenenter"",""1"",""8218""
","
","","","","","","null","<div style=""font-size:60px;"">+</div>","null","","fixation","","","","","","","","","","","","","",""
"learning-trial","181","736771","0.0-9.0-2.0-1.47","1582","2","2","""event"",""trial"",""time""
""focus"",""0"",""2""
""fullscreenenter"",""1"",""8218""
","
","""event"",""trial"",""time""
""focus"",""0"",""2""
","""event"",""trial"",""time""
""fullscreenenter"",""1"",""8218""
","
","","","","","","524","images/banana4.png","","","learning","images/fruit_choice1.png","images/fruit_choice3.png","images/fruit_choice2.png","[0,2,1]","0","0","1","images/fruit_choice1.png","1","fruit","","banana","2","0"
"html-keyboard-response","182","737277","0.0-9.0-2.0-0.48","1582","2","2","""event"",""trial"",""time""
""focus"",""0"",""2""
""fullscreenenter"",""1"",""8218""
","
","""event"",""trial"",""time""
""focus"",""0"",""2""
","""event"",""trial"",""time""
""fullscreenenter"",""1"",""8218""
","
","","","","","","null","<div style=""font-size:60px;"">+</div>","null","","fixation","","","","","","","","","","","","","",""
"learning-trial","183","741281","0.0-9.0-2.0-1.48","1582","2","2","""event"",""trial"",""time""
""focus"",""0"",""2""
""fullscreenenter"",""1"",""8218""
","
","""event"",""trial"",""time""
""focus"",""0"",""2""
","""event"",""trial"",""time""
""fullscreenenter"",""1"",""8218""
","
","","","","","","272","images/banana4.png","","","learning","images/fruit_choice1.png","images/fruit_choice3.png","images/fruit_choice2.png","[0,2,1]","0","0","1","images/fruit_choice1.png","1","fruit","","banana","2","0"
"html-keyboard-response","184","741787","0.0-9.0-2.0-0.49","1582","2","2","""event"",""trial"",""time""
""focus"",""0"",""2""
""fullscreenenter"",""1"",""8218""
","
","""event"",""trial"",""time""
""focus"",""0"",""2""
","""event"",""trial"",""time""
""fullscreenenter"",""1"",""8218""
","
","","","","","","null","<div style=""font-size:60px;"">+</div>","null","","fixation","","","","","","","","","","","","","",""
"learning-trial","185","745793","0.0-9.0-2.0-1.49","1582","2","2","""event"",""trial"",""time""
""focus"",""0"",""2""
""fullscreenenter"",""1"",""8218""
","
","""event"",""trial"",""time""
""focus"",""0"",""2""
","""event"",""trial"",""time""
""fullscreenenter"",""1"",""8218""
","
","","","","","","766","images/apple3.png","","","learning","images/fruit_choice3.png","images/fruit_choice2.png","images/fruit_choice1.png","[2,1,0]","1","1","2","images/fruit_choice2.png","1","fruit","","apple","2","0"
"html-keyboard-response","186","746298","0.0-9.0-2.0-0.50","1582","2","2","""event"",""trial"",""time""
""focus"",""0"",""2""
""fullscreenenter"",""1"",""8218""
","
","""event"",""trial"",""time""
""focus"",""0"",""2""
","""event"",""trial"",""time""
""fullscreenenter"",""1"",""8218""
","
","","","","","","null","<div style=""font-size:60px;"">+</div>","null","","fixation","","","","","","","","","","","","","",""
"learning-trial","187","750305","0.0-9.0-2.0-1.50","1582","2","2","""event"",""trial"",""time""
""focus"",""0"",""2""
""fullscreenenter"",""1"",""8218""
","
","""event"",""trial"",""time""
""focus"",""0"",""2""
","""event"",""trial"",""time""
""fullscreenenter"",""1"",""8218""
","
","","","","","","550","images/orange3.png","","","learning","images/fruit_choice1.png","images/fruit_choice2.png","images/fruit_choice3.png","[0,1,2]","0","0","2","images/fruit_choice2.png","-1","fruit","","orange","2","0"
"html-keyboard-response","188","750807","0.0-9.0-2.0-0.51","1582","2","2","""event"",""trial"",""time""
""focus"",""0"",""2""
""fullscreenenter"",""1"",""8218""
","
","""event"",""trial"",""time""
""focus"",""0"",""2""
","""event"",""trial"",""time""
""fullscreenenter"",""1"",""8218""
","
","","","","","","null","<div style=""font-size:60px;"">+</div>","null","","fixation","","","","","","","","","","","","","",""
"learning-trial","189","754811","0.0-9.0-2.0-1.51","1582","2","2","""event"",""trial"",""time""
""focus"",""0"",""2""
""fullscreenenter"",""1"",""8218""
","
","""event"",""trial"",""time""
""focus"",""0"",""2""
","""event"",""trial"",""time""
""fullscreenenter"",""1"",""8218""
","
","","","","","","1122","images/apple3.png","","","learning","images/fruit_choice3.png","images/fruit_choice1.png","images/fruit_choice2.png","[2,0,1]","1","2","3","images/fruit_choice2.png","1","fruit","","apple","2","0"
"html-keyboard-response","190","755312","0.0-9.0-2.0-0.52","1582","2","2","""event"",""trial"",""time""
""focus"",""0"",""2""
""fullscreenenter"",""1"",""8218""
","
","""event"",""trial"",""time""
""focus"",""0"",""2""
","""event"",""trial"",""time""
""fullscreenenter"",""1"",""8218""
","
","","","","","","null","<div style=""font-size:60px;"">+</div>","null","","fixation","","","","","","","","","","","","","",""
"learning-trial","191","759316","0.0-9.0-2.0-1.52","1582","2","2","""event"",""trial"",""time""
""focus"",""0"",""2""
""fullscreenenter"",""1"",""8218""
","
","""event"",""trial"",""time""
""focus"",""0"",""2""
","""event"",""trial"",""time""
""fullscreenenter"",""1"",""8218""
","
","","","","","","1738","images/banana1.png","","","learning","images/fruit_choice3.png","images/fruit_choice1.png","images/fruit_choice2.png","[2,0,1]","1","2","3","images/fruit_choice2.png","-1","fruit","","banana","2","0"
"html-keyboard-response","192","759821","0.0-9.0-2.0-0.53","1582","2","2","""event"",""trial"",""time""
""focus"",""0"",""2""
""fullscreenenter"",""1"",""8218""
","
","""event"",""trial"",""time""
""focus"",""0"",""2""
","""event"",""trial"",""time""
""fullscreenenter"",""1"",""8218""
","
","","","","","","null","<div style=""font-size:60px;"">+</div>","null","","fixation","","","","","","","","","","","","","",""
"learning-trial","193","763826","0.0-9.0-2.0-1.53","1582","2","2","""event"",""trial"",""time""
""focus"",""0"",""2""
""fullscreenenter"",""1"",""8218""
","
","""event"",""trial"",""time""
""focus"",""0"",""2""
","""event"",""trial"",""time""
""fullscreenenter"",""1"",""8218""
","
","","","","","","147","images/banana4.png","","","learning","images/fruit_choice1.png","images/fruit_choice3.png","images/fruit_choice2.png","[0,2,1]","0","0","2","images/fruit_choice3.png","-1","fruit","","banana","2","0"
"html-keyboard-response","194","764332","0.0-9.0-2.0-0.54","1582","2","2","""event"",""trial"",""time""
""focus"",""0"",""2""
""fullscreenenter"",""1"",""8218""
","
","""event"",""trial"",""time""
""focus"",""0"",""2""
","""event"",""trial"",""time""
""fullscreenenter"",""1"",""8218""
","
","","","","","","null","<div style=""font-size:60px;"">+</div>","null","","fixation","","","","","","","","","","","","","",""
"learning-trial","195","768338","0.0-9.0-2.0-1.54","1582","2","2","""event"",""trial"",""time""
""focus"",""0"",""2""
""fullscreenenter"",""1"",""8218""
","
","""event"",""trial"",""time""
""focus"",""0"",""2""
","""event"",""trial"",""time""
""fullscreenenter"",""1"",""8218""
","
","","","","","","649","images/orange3.png","","","learning","images/fruit_choice2.png","images/fruit_choice1.png","images/fruit_choice3.png","[1,0,2]","0","1","3","images/fruit_choice3.png","-1","fruit","","orange","2","0"
"html-keyboard-response","196","768844","0.0-9.0-2.0-0.55","1582","2","2","""event"",""trial"",""time""
""focus"",""0"",""2""
""fullscreenenter"",""1"",""8218""
","
","""event"",""trial"",""time""
""focus"",""0"",""2""
","""event"",""trial"",""time""
""fullscreenenter"",""1"",""8218""
","
","","","","","","null","<div style=""font-size:60px;"">+</div>","null","","fixation","","","","","","","","","","","","","",""
"learning-trial","197","772851","0.0-9.0-2.0-1.55","1582","2","2","""event"",""trial"",""time""
""focus"",""0"",""2""
""fullscreenenter"",""1"",""8218""
","
","""event"",""trial"",""time""
""focus"",""0"",""2""
","""event"",""trial"",""time""
""fullscreenenter"",""1"",""8218""
","
","","","","","","550","images/apple2.png","","","learning","images/fruit_choice3.png","images/fruit_choice2.png","images/fruit_choice1.png","[2,1,0]","0","2","3","images/fruit_choice1.png","1","fruit","","apple","2","0"
"html-keyboard-response","198","773352","0.0-9.0-2.0-0.56","1582","2","2","""event"",""trial"",""time""
""focus"",""0"",""2""
""fullscreenenter"",""1"",""8218""
","
","""event"",""trial"",""time""
""focus"",""0"",""2""
","""event"",""trial"",""time""
""fullscreenenter"",""1"",""8218""
","
","","","","","","null","<div style=""font-size:60px;"">+</div>","null","","fixation","","","","","","","","","","","","","",""
"learning-trial","199","777358","0.0-9.0-2.0-1.56","1582","2","2","""event"",""trial"",""time""
""focus"",""0"",""2""
""fullscreenenter"",""1"",""8218""
","
","""event"",""trial"",""time""
""focus"",""0"",""2""
","""event"",""trial"",""time""
""fullscreenenter"",""1"",""8218""
","
","","","","","","687","images/orange2.png","","","learning","images/fruit_choice3.png","images/fruit_choice2.png","images/fruit_choice1.png","[2,1,0]","2","0","3","images/fruit_choice1.png","-1","fruit","","orange","2","0"
"html-keyboard-response","200","777864","0.0-9.0-2.0-0.57","1582","2","2","""event"",""trial"",""time""
""focus"",""0"",""2""
""fullscreenenter"",""1"",""8218""
","
","""event"",""trial"",""time""
""focus"",""0"",""2""
","""event"",""trial"",""time""
""fullscreenenter"",""1"",""8218""
","
","","","","","","null","<div style=""font-size:60px;"">+</div>","null","","fixation","","","","","","","","","","","","","",""
"learning-trial","201","781867","0.0-9.0-2.0-1.57","1582","2","2","""event"",""trial"",""time""
""focus"",""0"",""2""
""fullscreenenter"",""1"",""8218""
","
","""event"",""trial"",""time""
""focus"",""0"",""2""
","""event"",""trial"",""time""
""fullscreenenter"",""1"",""8218""
","
","","","","","","684","images/banana5.png","","","learning","images/fruit_choice1.png","images/fruit_choice2.png","images/fruit_choice3.png","[0,1,2]","2","2","3","images/fruit_choice3.png","1","fruit","","banana","2","0"
"html-keyboard-response","202","782372","0.0-9.0-2.0-0.58","1582","2","2","""event"",""trial"",""time""
""focus"",""0"",""2""
""fullscreenenter"",""1"",""8218""
","
","""event"",""trial"",""time""
""focus"",""0"",""2""
","""event"",""trial"",""time""
""fullscreenenter"",""1"",""8218""
","
","","","","","","null","<div style=""font-size:60px;"">+</div>","null","","fixation","","","","","","","","","","","","","",""
"learning-trial","203","786378","0.0-9.0-2.0-1.58","1582","2","2","""event"",""trial"",""time""
""focus"",""0"",""2""
""fullscreenenter"",""1"",""8218""
","
","""event"",""trial"",""time""
""focus"",""0"",""2""
","""event"",""trial"",""time""
""fullscreenenter"",""1"",""8218""
","
","","","","","","58","images/apple3.png","","","learning","images/fruit_choice2.png","images/fruit_choice1.png","images/fruit_choice3.png","[1,0,2]","1","0","3","images/fruit_choice3.png","-1","fruit","","apple","2","0"
"html-keyboard-response","204","786885","0.0-9.0-2.0-0.59","1582","2","2","""event"",""trial"",""time""
""focus"",""0"",""2""
""fullscreenenter"",""1"",""8218""
","
","""event"",""trial"",""time""
""focus"",""0"",""2""
","""event"",""trial"",""time""
""fullscreenenter"",""1"",""8218""
","
","","","","","","null","<div style=""font-size:60px;"">+</div>","null","","fixation","","","","","","","","","","","","","",""
