"trial_type","trial_index","time_elapsed","internal_node_id","subject_id","condition","task_version","interactions","blur_events","focus_events","fullscreenenter_events","fullscreenexit_events","success","timeout","failed_images","failed_audio","failed_video","rt","stimulus","response","button_pressed","task_part","left_choice","middle_choice","right_choice","choice_positions","correct_response","correct_position","key_press","option_selected","points","task_block","correct","stim_cat","block_condition","block_number"
"pavlovia","0","2","0.0-0.0","1871","1","2","""event"",""trial"",""time""
""fullscreenenter"",""1"",""2565""
","
","
","""event"",""trial"",""time""
""fullscreenenter"",""1"",""2565""
","
","","","","","","","","","","","","","","","","","","","","","","","",""
"fullscreen","1","3519","0.0-1.0","1871","1","2","""event"",""trial"",""time""
""fullscreenenter"",""1"",""2565""
","
","
","""event"",""trial"",""time""
""fullscreenenter"",""1"",""2565""
","
","true","","","","","","","","","","","","","","","","","","","","","","",""
"preload","2","7517","0.0-2.0","1871","1","2","""event"",""trial"",""time""
""fullscreenenter"",""1"",""2565""
","
","
","""event"",""trial"",""time""
""fullscreenenter"",""1"",""2565""
","
","true","false","[]","[]","[]","","","","","","","","","","","","","","","","","","",""
"audio-keyboard-response","3","10650","0.0-3.0","1871","1","2","""event"",""trial"",""time""
""fullscreenenter"",""1"",""2565""
","
","
","""event"",""trial"",""time""
""fullscreenenter"",""1"",""2565""
","
","","","","","","3136","audio/beep_loop.wav"," ","","","","","","","","","","","","","","","",""
"audio-button-response","4","12452","0.0-4.0","1871","1","2","""event"",""trial"",""time""
""fullscreenenter"",""1"",""2565""
","
","
","""event"",""trial"",""time""
""fullscreenenter"",""1"",""2565""
","
","","","","","","1797","audio/shark.wav","4","","","","","","","","","","","","","","","",""
"audio-button-response","5","14557","0.0-5.0","1871","1","2","""event"",""trial"",""time""
""fullscreenenter"",""1"",""2565""
","
","
","""event"",""trial"",""time""
""fullscreenenter"",""1"",""2565""
","
","","","","","","1099","audio/turtle.wav","1","","","","","","","","","","","","","","","",""
"preload","6","18927","0.0-6.0","1871","1","2","""event"",""trial"",""time""
""fullscreenenter"",""1"",""2565""
","
","
","""event"",""trial"",""time""
""fullscreenenter"",""1"",""2565""
","
","true","false","[]","[]","[]","","","","","","","","","","","","","","","","","","",""
"html-keyboard-response","7","21137","0.0-7.0","1871","1","2","""event"",""trial"",""time""
""fullscreenenter"",""1"",""2565""
","
","
","""event"",""trial"",""time""
""fullscreenenter"",""1"",""2565""
","
","","","","","","2205.199999999255","Welcome to the experiment. Press any key to begin and to advance the instructions."," ","","","","","","","","","","","","","","","",""
"learning-instructions","8","30296","0.0-8.0-0.0-0.0","1871","1","2","""event"",""trial"",""time""
""fullscreenenter"",""1"",""2565""
","
","
","""event"",""trial"",""time""
""fullscreenenter"",""1"",""2565""
","
","","","","","","1410.3999999985099","<p> Welcome! Today you are going to play 6 different rounds of a decision-making game. </p><p> Use the mouse to click next to continue. </p>","","0","instructions","","","","","","","","","","","","","",""
"learning-instructions","9","34092","0.0-8.0-0.0-0.1","1871","1","2","""event"",""trial"",""time""
""fullscreenenter"",""1"",""2565""
","
","
","""event"",""trial"",""time""
""fullscreenenter"",""1"",""2565""
","
","","","","","","796.1999999992549","<p> You will start with a practice round to learn the rules. </p>","","0","instructions","","","","","","","","","","","","","",""
"learning-instructions","10","42509","0.0-8.0-0.0-0.2","1871","1","2","""event"",""trial"",""time""
""fullscreenenter"",""1"",""2565""
","
","
","""event"",""trial"",""time""
""fullscreenenter"",""1"",""2565""
","
","","","","","","675","<p> Your goal in this round is to deliver sports equipment to three different parks. </p><p> You will need to deliver many types of equipment. </p></div>","","0","instructions","","","","","","","","","","","","","",""
"learning-instructions","11","51665","0.0-8.0-0.0-0.3","1871","1","2","""event"",""trial"",""time""
""fullscreenenter"",""1"",""2565""
","
","
","""event"",""trial"",""time""
""fullscreenenter"",""1"",""2565""
","
","","","","","","678.5","<p> On each turn, you will see one piece of sports equipment and three different parks.  </p><p> You need to select which park to deliver the equipment to.  </p>","","0","instructions","","","","","","","","","","","","","",""
"learning-instructions","12","66059","0.0-8.0-0.0-0.4","1871","1","2","""event"",""trial"",""time""
""fullscreenenter"",""1"",""2565""
","
","
","""event"",""trial"",""time""
""fullscreenenter"",""1"",""2565""
","
","","","","","","1114.300000000745","<p> You can select the park on the left by pressing the '1' key on your keyboard. <br>You can select the park in the middle by pressing the '2' key on your keyboard. <br>You can select the park on the right by pressing the '3' key on your keyboard.  </p><br><div class=""choice-instructions-grid""> <div class=""choice-option""><img src=""images/park1.png"" class=""choice-option-img"" stage=""instructions"" position=""0"" ><div class=""choice-option-text""> Press ""1."" </div></div><div class=""choice-option""><img src=""images/park2.png"" class=""choice-option-img"" stage=""instructions"" position=""1"" ><div class=""choice-option-text""> Press ""2."" </div></div><div class=""choice-option""><img src=""images/park3.png"" class=""choice-option-img"" stage=""instructions"" position=""2"" ><div class=""choice-option-text""> Press ""3."" </div></div></div>","","0","instructions","","","","","","","","","","","","","",""
"learning-instructions","13","71995","0.0-8.0-0.0-0.5","1871","1","2","""event"",""trial"",""time""
""fullscreenenter"",""1"",""2565""
","
","
","""event"",""trial"",""time""
""fullscreenenter"",""1"",""2565""
","
","","","","","","555.5","<p> If the kids in the park you chose like the equipment, they will be very happy! </p><div style='float: center;'><img src='images/check.png' width = '200' height = '200'></img>","","0","instructions","","","","","","","","","","","","","",""
"learning-instructions","14","78212","0.0-8.0-0.0-0.6","1871","1","2","""event"",""trial"",""time""
""fullscreenenter"",""1"",""2565""
","
","
","""event"",""trial"",""time""
""fullscreenenter"",""1"",""2565""
","
","","","","","","633.5999999977648","<p> But, if the kids in the park you chose do not like the equipment, they will be sad. </p><div style='float: center;'><img src='images/x.png' width = '200' height = '200'></img>","","0","instructions","","","","","","","","","","","","","",""
"learning-instructions","15","85234","0.0-8.0-0.0-0.7","1871","1","2","""event"",""trial"",""time""
""fullscreenenter"",""1"",""2565""
","
","
","""event"",""trial"",""time""
""fullscreenenter"",""1"",""2565""
","
","","","","","","594.6000000014901","<p> Importantly, the kids in each park like some pieces of sports equipment more than others. </p>","","0","instructions","","","","","","","","","","","","","",""
"learning-instructions","16","92032","0.0-8.0-0.0-0.8","1871","1","2","""event"",""trial"",""time""
""fullscreenenter"",""1"",""2565""
","
","
","""event"",""trial"",""time""
""fullscreenenter"",""1"",""2565""
","
","","","","","","747.3000000007451","<p> If you choose the best park for each piece of equipment, the kids there will usually be happy. </p>","","0","instructions","","","","","","","","","","","","","",""
"learning-instructions","17","108164","0.0-8.0-0.0-0.9","1871","1","2","""event"",""trial"",""time""
""fullscreenenter"",""1"",""2565""
","
","
","""event"",""trial"",""time""
""fullscreenenter"",""1"",""2565""
","
","","","","","","9487.10000000149","<p> However, even if you choose the best park for the equipment, the kids may sometimes be sad. </p>","","0","instructions","","","","","","","","","","","","","",""
"learning-instructions","18","118674","0.0-8.0-0.0-0.10","1871","1","2","""event"",""trial"",""time""
""fullscreenenter"",""1"",""2565""
","
","
","""event"",""trial"",""time""
""fullscreenenter"",""1"",""2565""
","
","","","","","","3282.5","<p> Similarly, even if you choose the <i>wrong</i> park for the equipment, the kids may still be happy sometimes.","","0","instructions","","","","","","","","","","","","","",""
"learning-instructions","19","124902","0.0-8.0-0.0-0.11","1871","1","2","""event"",""trial"",""time""
""fullscreenenter"",""1"",""2565""
","
","
","""event"",""trial"",""time""
""fullscreenenter"",""1"",""2565""
","
","","","","","","1174.2000000029802","<p> For example, the best park for this soccer ball is this one.<div style='float: center;'><img src='images/i1.png' width = '500' height = '268'></img>","","0","instructions","","","","","","","","","","","","","",""
"learning-instructions","20","131135","0.0-8.0-0.0-0.12","1871","1","2","""event"",""trial"",""time""
""fullscreenenter"",""1"",""2565""
","
","
","""event"",""trial"",""time""
""fullscreenenter"",""1"",""2565""
","
","","","","","","944.3000000007451","<p> Let's see what happens if you choose this park for the soccer ball five times.","","0","instructions","","","","","","","","","","","","","",""
"learning-instructions","21","134035","0.0-8.0-0.0-0.13","1871","1","2","""event"",""trial"",""time""
""fullscreenenter"",""1"",""2565""
","
","
","""event"",""trial"",""time""
""fullscreenenter"",""1"",""2565""
","
","","","","","","734.3000000007451","<p> The kids are happy.<div style='float: left;'><img src='images/i2.png' width = '640' height = '360'></img>","","0","instructions","","","","","","","","","","","","","",""
"learning-instructions","22","136635","0.0-8.0-0.0-0.14","1871","1","2","""event"",""trial"",""time""
""fullscreenenter"",""1"",""2565""
","
","
","""event"",""trial"",""time""
""fullscreenenter"",""1"",""2565""
","
","","","","","","432.9000000022352","<p> The kids are happy.<div style='float: left;'><img src='images/i3.png' width = '640' height = '360'></img>","","0","instructions","","","","","","","","","","","","","",""
"learning-instructions","23","139195","0.0-8.0-0.0-0.15","1871","1","2","""event"",""trial"",""time""
""fullscreenenter"",""1"",""2565""
","
","
","""event"",""trial"",""time""
""fullscreenenter"",""1"",""2565""
","
","","","","","","390.1000000014901","<p> The kids are happy.<div style='float: left;'><img src='images/i4.png' width = '640' height = '360'></img>","","0","instructions","","","","","","","","","","","","","",""
"learning-instructions","24","141892","0.0-8.0-0.0-0.16","1871","1","2","""event"",""trial"",""time""
""fullscreenenter"",""1"",""2565""
","
","
","""event"",""trial"",""time""
""fullscreenenter"",""1"",""2565""
","
","","","","","","495.20000000298023","<p> The kids are sad.<div style='float: left;'><img src='images/i5.png' width = '640' height = '360'></img>","","0","instructions","","","","","","","","","","","","","",""
"learning-instructions","25","144517","0.0-8.0-0.0-0.17","1871","1","2","""event"",""trial"",""time""
""fullscreenenter"",""1"",""2565""
","
","
","""event"",""trial"",""time""
""fullscreenenter"",""1"",""2565""
","
","","","","","","458.5999999977648","<p> The kids are happy.<div style='float: left;'><img src='images/i6.png' width = '640' height = '360'></img>","","0","instructions","","","","","","","","","","","","","",""
"learning-instructions","26","152253","0.0-8.0-0.0-0.18","1871","1","2","""event"",""trial"",""time""
""fullscreenenter"",""1"",""2565""
","
","
","""event"",""trial"",""time""
""fullscreenenter"",""1"",""2565""
","
","","","","","","461.80000000074506","<p> As you can see, selecting that park for the soccer ball made the kids happy most of the time, but not all the time.","","0","instructions","","","","","","","","","","","","","",""
"learning-instructions","27","158680","0.0-8.0-0.0-0.19","1871","1","2","""event"",""trial"",""time""
""fullscreenenter"",""1"",""2565""
","
","
","""event"",""trial"",""time""
""fullscreenenter"",""1"",""2565""
","
","","","","","","425.29999999701977","<p> Now let's see what happens if you choose a DIFFERENT park for the soccer ball 5 times.","","0","instructions","","","","","","","","","","","","","",""
"learning-instructions","28","161062","0.0-8.0-0.0-0.20","1871","1","2","""event"",""trial"",""time""
""fullscreenenter"",""1"",""2565""
","
","
","""event"",""trial"",""time""
""fullscreenenter"",""1"",""2565""
","
","","","","","","177","<p> The kids are sad.<div style='float: left;'><img src='images/i7.png' width = '640' height = '360'></img>","","0","instructions","","","","","","","","","","","","","",""
"learning-instructions","29","163600","0.0-8.0-0.0-0.21","1871","1","2","""event"",""trial"",""time""
""fullscreenenter"",""1"",""2565""
","
","
","""event"",""trial"",""time""
""fullscreenenter"",""1"",""2565""
","
","","","","","","331.80000000074506","<p> The kids are sad.<div style='float: left;'><img src='images/i8.png' width = '640' height = '360'></img>","","0","instructions","","","","","","","","","","","","","",""
"learning-instructions","30","166624","0.0-8.0-0.0-0.22","1871","1","2","""event"",""trial"",""time""
""fullscreenenter"",""1"",""2565""
","
","
","""event"",""trial"",""time""
""fullscreenenter"",""1"",""2565""
","
","","","","","","854.8000000007451","<p> The kids are happy.<div style='float: left;'><img src='images/i9.png' width = '640' height = '360'></img>","","0","instructions","","","","","","","","","","","","","",""
"learning-instructions","31","169017","0.0-8.0-0.0-0.23","1871","1","2","""event"",""trial"",""time""
""fullscreenenter"",""1"",""2565""
","
","
","""event"",""trial"",""time""
""fullscreenenter"",""1"",""2565""
","
","","","","","","185.5","<p> The kids are sad.<div style='float: left;'><img src='images/i10.png' width = '640' height = '360'></img>","","0","instructions","","","","","","","","","","","","","",""
"learning-instructions","32","171636","0.0-8.0-0.0-0.24","1871","1","2","""event"",""trial"",""time""
""fullscreenenter"",""1"",""2565""
","
","
","""event"",""trial"",""time""
""fullscreenenter"",""1"",""2565""
","
","","","","","","416","<p> The kids are sad.<div style='float: left;'><img src='images/i11.png' width = '640' height = '360'></img>","","0","instructions","","","","","","","","","","","","","",""
"learning-instructions","33","180422","0.0-8.0-0.0-0.25","1871","1","2","""event"",""trial"",""time""
""fullscreenenter"",""1"",""2565""
","
","
","""event"",""trial"",""time""
""fullscreenenter"",""1"",""2565""
","
","","","","","","669.2000000029802","<p> As you can see, selecting the wrong park for the soccer ball made the kids sad most of the time, but not all the time.","","0","instructions","","","","","","","","","","","","","",""
"learning-instructions","34","190133","0.0-8.0-0.0-0.26","1871","1","2","""event"",""trial"",""time""
""fullscreenenter"",""1"",""2565""
","
","
","""event"",""trial"",""time""
""fullscreenenter"",""1"",""2565""
","
","","","","","","597.8000000007451","<p> The different pieces of equipment belong in different parks. You need to try to learn which is the best park for each piece of equipment.","","0","instructions","","","","","","","","","","","","","",""
"learning-instructions","35","206995","0.0-8.0-0.0-0.27","1871","1","2","""event"",""trial"",""time""
""fullscreenenter"",""1"",""2565""
","
","
","""event"",""trial"",""time""
""fullscreenenter"",""1"",""2565""
","
","","","","","","478.9000000022352","<p> Try to choose the best park for each piece of equipment, because you will <b> WIN </b> 1 point for each time you make the kids happy and <b>LOSE</b> 1 point for each time you make them sad. </p><p> Remember, if you make the best choice, you will win 1 point most of the time, but not all the time. </p>","","0","instructions","","","","","","","","","","","","","",""
"learning-instructions","36","213127","0.0-8.0-0.0-0.28","1871","1","2","""event"",""trial"",""time""
""fullscreenenter"",""1"",""2565""
","
","
","""event"",""trial"",""time""
""fullscreenenter"",""1"",""2565""
","
","","","","","","653.8000000007451","<p> This is just a practice round, but in the real game, your bonus payment will depend on your total number of points.","","0","instructions","","","","","","","","","","","","","",""
"learning-instructions","37","403450","0.0-8.0-0.0-0.29","1871","1","2","""event"",""trial"",""time""
""fullscreenenter"",""1"",""2565""
","
","
","""event"",""trial"",""time""
""fullscreenenter"",""1"",""2565""
","
","","","","","","179998.69999999925","<p> The position where each park appears will change throughout the game. </p><p> The position where the park appears <i> does not </i> influence how likely the kids are to be happy or sad. </p>","","0","instructions","","","","","","","","","","","","","",""
"learning-instructions","38","414616","0.0-8.0-0.0-0.30","1871","1","2","""event"",""trial"",""time""
""fullscreenenter"",""1"",""2565""
","
","
","""event"",""trial"",""time""
""fullscreenenter"",""1"",""2565""
","
","","","","","","843.9000000022352","<p> You will have 4 seconds to make each choice. Try to respond before time runs out! </p><p> You will lose 1 point each time you do not make a response. </p>","","0","instructions","","","","","","","","","","","","","",""
"learning-instructions","39","422187","0.0-8.0-0.0-0.31","1871","1","2","""event"",""trial"",""time""
""fullscreenenter"",""1"",""2565""
","
","
","""event"",""trial"",""time""
""fullscreenenter"",""1"",""2565""
","
","","","","","","782","<p> Remember, you should use the 1, 2, and 3 keys to select the park for each piece of equipment. </p><br><div class=""choice-instructions-grid""> <div class=""choice-option""><img src=""images/park1.png"" class=""choice-option-img"" stage=""instructions"" position=""0"" ><div class=""choice-option-text""> Press ""1."" </div></div><div class=""choice-option""><img src=""images/park2.png"" class=""choice-option-img"" stage=""instructions"" position=""1"" ><div class=""choice-option-text""> Press ""2."" </div></div><div class=""choice-option""><img src=""images/park3.png"" class=""choice-option-img"" stage=""instructions"" position=""2"" ><div class=""choice-option-text""> Press ""3."" </div></div></div>","","0","instructions","","","","","","","","","","","","","",""
"html-button-response","40","423586","0.0-8.0-1.0","1871","1","2","""event"",""trial"",""time""
""fullscreenenter"",""1"",""2565""
","
","
","""event"",""trial"",""time""
""fullscreenenter"",""1"",""2565""
","
","","","","","","1294.3999999985099","<p> Ready to practice? </p>","0","","","","","","","","","","","","","","","",""
"html-keyboard-response","41","424188","0.0-8.0-2.0-0.0","1871","1","2","""event"",""trial"",""time""
""fullscreenenter"",""1"",""2565""
","
","
","""event"",""trial"",""time""
""fullscreenenter"",""1"",""2565""
","
","","","","","","null","<div style=""font-size:60px;"">+</div>","null","","fixation","","","","","","","","","","","","","",""
"learning-trial","42","428192","0.0-8.0-2.0-1.0","1871","1","2","""event"",""trial"",""time""
""fullscreenenter"",""1"",""2565""
","
","
","""event"",""trial"",""time""
""fullscreenenter"",""1"",""2565""
","
","","","","","","1783.7000000029802","images/ball2.png","","","practice","images/park3.png","images/park1.png","images/park2.png","[2,0,1]","2","0","1","images/park3.png","1","practice","","","",""
"html-keyboard-response","43","428697","0.0-8.0-2.0-0.1","1871","1","2","""event"",""trial"",""time""
""fullscreenenter"",""1"",""2565""
","
","
","""event"",""trial"",""time""
""fullscreenenter"",""1"",""2565""
","
","","","","","","null","<div style=""font-size:60px;"">+</div>","null","","fixation","","","","","","","","","","","","","",""
"learning-trial","44","432700","0.0-8.0-2.0-1.1","1871","1","2","""event"",""trial"",""time""
""fullscreenenter"",""1"",""2565""
","
","
","""event"",""trial"",""time""
""fullscreenenter"",""1"",""2565""
","
","","","","","","3476.300000000745","images/racket3.png","","","practice","images/park1.png","images/park3.png","images/park2.png","[0,2,1]","1","2","1","images/park1.png","-1","practice","","","",""
"html-keyboard-response","45","433201","0.0-8.0-2.0-0.2","1871","1","2","""event"",""trial"",""time""
""fullscreenenter"",""1"",""2565""
","
","
","""event"",""trial"",""time""
""fullscreenenter"",""1"",""2565""
","
","","","","","","null","<div style=""font-size:60px;"">+</div>","null","","fixation","","","","","","","","","","","","","",""
"learning-trial","46","437209","0.0-8.0-2.0-1.2","1871","1","2","""event"",""trial"",""time""
""fullscreenenter"",""1"",""2565""
","
","
","""event"",""trial"",""time""
""fullscreenenter"",""1"",""2565""
","
","","","","","","3343.199999999255","images/racket1.png","","","practice","images/park2.png","images/park3.png","images/park1.png","[1,2,0]","1","0","3","images/park1.png","-1","practice","","","",""
"html-keyboard-response","47","437715","0.0-8.0-2.0-0.3","1871","1","2","""event"",""trial"",""time""
""fullscreenenter"",""1"",""2565""
","
","
","""event"",""trial"",""time""
""fullscreenenter"",""1"",""2565""
","
","","","","","","null","<div style=""font-size:60px;"">+</div>","null","","fixation","","","","","","","","","","","","","",""
"learning-trial","48","441723","0.0-8.0-2.0-1.3","1871","1","2","""event"",""trial"",""time""
""fullscreenenter"",""1"",""2565""
","
","
","""event"",""trial"",""time""
""fullscreenenter"",""1"",""2565""
","
","","","","","","1277.0999999977648","images/racket2.png","","","practice","images/park1.png","images/park2.png","images/park3.png","[0,1,2]","0","0","2","images/park2.png","-1","practice","","","",""
"html-keyboard-response","49","442225","0.0-8.0-2.0-0.4","1871","1","2","""event"",""trial"",""time""
""fullscreenenter"",""1"",""2565""
","
","
","""event"",""trial"",""time""
""fullscreenenter"",""1"",""2565""
","
","","","","","","null","<div style=""font-size:60px;"">+</div>","null","","fixation","","","","","","","","","","","","","",""
"learning-trial","50","446231","0.0-8.0-2.0-1.4","1871","1","2","""event"",""trial"",""time""
""fullscreenenter"",""1"",""2565""
","
","
","""event"",""trial"",""time""
""fullscreenenter"",""1"",""2565""
","
","","","","","","1609","images/racket1.png","","","practice","images/park1.png","images/park3.png","images/park2.png","[0,2,1]","1","2","1","images/park1.png","-1","practice","","","",""
"html-keyboard-response","51","446737","0.0-8.0-2.0-0.5","1871","1","2","""event"",""trial"",""time""
""fullscreenenter"",""1"",""2565""
","
","
","""event"",""trial"",""time""
""fullscreenenter"",""1"",""2565""
","
","","","","","","null","<div style=""font-size:60px;"">+</div>","null","","fixation","","","","","","","","","","","","","",""
"learning-trial","52","450741","0.0-8.0-2.0-1.5","1871","1","2","""event"",""trial"",""time""
""fullscreenenter"",""1"",""2565""
","
","
","""event"",""trial"",""time""
""fullscreenenter"",""1"",""2565""
","
","","","","","","1593.1000000014901","images/racket2.png","","","practice","images/park1.png","images/park2.png","images/park3.png","[0,1,2]","0","0","3","images/park3.png","1","practice","","","",""
"html-keyboard-response","53","451247","0.0-8.0-2.0-0.6","1871","1","2","""event"",""trial"",""time""
""fullscreenenter"",""1"",""2565""
","
","
","""event"",""trial"",""time""
""fullscreenenter"",""1"",""2565""
","
","","","","","","null","<div style=""font-size:60px;"">+</div>","null","","fixation","","","","","","","","","","","","","",""
"learning-trial","54","455255","0.0-8.0-2.0-1.6","1871","1","2","""event"",""trial"",""time""
""fullscreenenter"",""1"",""2565""
","
","
","""event"",""trial"",""time""
""fullscreenenter"",""1"",""2565""
","
","","","","","","1154.8999999985099","images/ball2.png","","","practice","images/park1.png","images/park2.png","images/park3.png","[0,1,2]","2","2","3","images/park3.png","1","practice","","","",""
"html-keyboard-response","55","455758","0.0-8.0-2.0-0.7","1871","1","2","""event"",""trial"",""time""
""fullscreenenter"",""1"",""2565""
","
","
","""event"",""trial"",""time""
""fullscreenenter"",""1"",""2565""
","
","","","","","","null","<div style=""font-size:60px;"">+</div>","null","","fixation","","","","","","","","","","","","","",""
"learning-trial","56","459762","0.0-8.0-2.0-1.7","1871","1","2","""event"",""trial"",""time""
""fullscreenenter"",""1"",""2565""
","
","
","""event"",""trial"",""time""
""fullscreenenter"",""1"",""2565""
","
","","","","","","1550.800000000745","images/ball1.png","","","practice","images/park1.png","images/park3.png","images/park2.png","[0,2,1]","2","1","1","images/park1.png","-1","practice","","","",""
"html-keyboard-response","57","460263","0.0-8.0-2.0-0.8","1871","1","2","""event"",""trial"",""time""
""fullscreenenter"",""1"",""2565""
","
","
","""event"",""trial"",""time""
""fullscreenenter"",""1"",""2565""
","
","","","","","","null","<div style=""font-size:60px;"">+</div>","null","","fixation","","","","","","","","","","","","","",""
"learning-trial","58","464269","0.0-8.0-2.0-1.8","1871","1","2","""event"",""trial"",""time""
""fullscreenenter"",""1"",""2565""
","
","
","""event"",""trial"",""time""
""fullscreenenter"",""1"",""2565""
","
","","","","","","1346.800000000745","images/ball4.png","","","practice","images/park2.png","images/park3.png","images/park1.png","[1,2,0]","0","2","2","images/park3.png","-1","practice","","","",""
"html-keyboard-response","59","464770","0.0-8.0-2.0-0.9","1871","1","2","""event"",""trial"",""time""
""fullscreenenter"",""1"",""2565""
","
","
","""event"",""trial"",""time""
""fullscreenenter"",""1"",""2565""
","
","","","","","","null","<div style=""font-size:60px;"">+</div>","null","","fixation","","","","","","","","","","","","","",""
"learning-trial","60","468775","0.0-8.0-2.0-1.9","1871","1","2","""event"",""trial"",""time""
""fullscreenenter"",""1"",""2565""
","
","
","""event"",""trial"",""time""
""fullscreenenter"",""1"",""2565""
","
","","","","","","1137.2000000029802","images/ball4.png","","","practice","images/park2.png","images/park1.png","images/park3.png","[1,0,2]","0","1","3","images/park3.png","-1","practice","","","",""
"html-keyboard-response","61","469277","0.0-8.0-2.0-0.10","1871","1","2","""event"",""trial"",""time""
""fullscreenenter"",""1"",""2565""
","
","
","""event"",""trial"",""time""
""fullscreenenter"",""1"",""2565""
","
","","","","","","null","<div style=""font-size:60px;"">+</div>","null","","fixation","","","","","","","","","","","","","",""
"learning-trial","62","473282","0.0-8.0-2.0-1.10","1871","1","2","""event"",""trial"",""time""
""fullscreenenter"",""1"",""2565""
","
","
","""event"",""trial"",""time""
""fullscreenenter"",""1"",""2565""
","
","","","","","","1439.5","images/racket3.png","","","practice","images/park3.png","images/park1.png","images/park2.png","[2,0,1]","1","2","2","images/park1.png","-1","practice","","","",""
"html-keyboard-response","63","473784","0.0-8.0-2.0-0.11","1871","1","2","""event"",""trial"",""time""
""fullscreenenter"",""1"",""2565""
","
","
","""event"",""trial"",""time""
""fullscreenenter"",""1"",""2565""
","
","","","","","","null","<div style=""font-size:60px;"">+</div>","null","","fixation","","","","","","","","","","","","","",""
"learning-trial","64","477789","0.0-8.0-2.0-1.11","1871","1","2","""event"",""trial"",""time""
""fullscreenenter"",""1"",""2565""
","
","
","""event"",""trial"",""time""
""fullscreenenter"",""1"",""2565""
","
","","","","","","2006.199999999255","images/ball1.png","","","practice","images/park3.png","images/park2.png","images/park1.png","[2,1,0]","2","0","2","images/park2.png","1","practice","","","",""
"html-button-response","65","497182","0.0-8.0-3.0","1871","1","2","""event"",""trial"",""time""
""fullscreenenter"",""1"",""2565""
","
","
","""event"",""trial"",""time""
""fullscreenenter"",""1"",""2565""
","
","","","","","","19389.5","<p> You earned -4 points in the practice round! </p>","0","","break","","","","","","","","","","","","","",""
"learning-instructions","66","506003","0.0-8.0-4.0-0.0","1871","1","2","""event"",""trial"",""time""
""fullscreenenter"",""1"",""2565""
","
","
","""event"",""trial"",""time""
""fullscreenenter"",""1"",""2565""
","
","","","","","","1100.1000000014901","<p> It's almost time to start the real game. </p><p> Before you start, we're going to ask you a few questions about how the game works. </p>","","0","instructions","","","","","","","","","","","","","",""
"preload","67","507287","0.0-8.0-5.0","1871","1","2","""event"",""trial"",""time""
""fullscreenenter"",""1"",""2565""
","
","
","""event"",""trial"",""time""
""fullscreenenter"",""1"",""2565""
","
","true","false","[]","[]","[]","","","","","","","","","","","","","","","","","","",""
"comp-q","68","513657","0.0-8.0-6.0-0.0","1871","1","2","""event"",""trial"",""time""
""fullscreenenter"",""1"",""2565""
","
","
","""event"",""trial"",""time""
""fullscreenenter"",""1"",""2565""
","
","","","","","","918.8999999985099","<p> <b> True or False? </b> </p><p> If you choose the best option, you will always earn 1 point. </p>","","1","comp_question","","","","","","","","","","","true","","",""
"comp-q","69","520126","0.0-8.0-6.0-1.0","1871","1","2","""event"",""trial"",""time""
""fullscreenenter"",""1"",""2565""
","
","
","""event"",""trial"",""time""
""fullscreenenter"",""1"",""2565""
","
","","","","","","812.8999999985099","<p><b> That's right! </b> Sometimes you will lose 1 point, even if you choose the best option. </p>","","0","comp_answer","","","","","","","","","","","","","",""
"comp-q","70","526382","0.0-8.0-6.0-0.1","1871","1","2","""event"",""trial"",""time""
""fullscreenenter"",""1"",""2565""
","
","
","""event"",""trial"",""time""
""fullscreenenter"",""1"",""2565""
","
","","","","","","1623","<p> <b> True or False? </b> </p><p> You will have as much time as you want to make each choice. </p>","","1","comp_question","","","","","","","","","","","true","","",""
"comp-q","71","532287","0.0-8.0-6.0-1.1","1871","1","2","""event"",""trial"",""time""
""fullscreenenter"",""1"",""2565""
","
","
","""event"",""trial"",""time""
""fullscreenenter"",""1"",""2565""
","
","","","","","","1085.800000000745","<p> <b> That's right! </b> You will only have 4 seconds to make each choice. </p>","","0","comp_answer","","","","","","","","","","","","","",""
"comp-q","72","539042","0.0-8.0-6.0-0.2","1871","1","2","""event"",""trial"",""time""
""fullscreenenter"",""1"",""2565""
","
","
","""event"",""trial"",""time""
""fullscreenenter"",""1"",""2565""
","
","","","","","","602.5","<p> <b> True or False? </b> </p><p> You should use the '1', '2', and '3' keys to make your choices. </p>","","0","comp_question","","","","","","","","","","","true","","",""
"comp-q","73","544627","0.0-8.0-6.0-1.2","1871","1","2","""event"",""trial"",""time""
""fullscreenenter"",""1"",""2565""
","
","
","""event"",""trial"",""time""
""fullscreenenter"",""1"",""2565""
","
","","","","","","742.5","<p> <b> That's right! </b> You should use the '1', '2', and '3' keys to make each choice. </p>","","0","comp_answer","","","","","","","","","","","","","",""
"learning-instructions","74","555552","0.0-8.0-7.0-0.0","1871","1","2","""event"",""trial"",""time""
""fullscreenenter"",""1"",""2565""
","
","
","""event"",""trial"",""time""
""fullscreenenter"",""1"",""2565""
","
","","","","","","2441.10000000149","<p> It's now time to start the real game. </p>Do your best, because the points you earn in the next rounds will influence your bonus payment. </p>","","0","instructions","","","","","","","","","","","","","",""
"preload","75","557282","0.0-9.0-0.0","1871","1","2","""event"",""trial"",""time""
""fullscreenenter"",""1"",""2565""
","
","
","""event"",""trial"",""time""
""fullscreenenter"",""1"",""2565""
","
","true","false","[]","[]","[]","","","","","","","","","","","","","","","","","","",""
"learning-instructions","76","566322","0.0-9.0-1.0-0.0","1871","1","2","""event"",""trial"",""time""
""fullscreenenter"",""1"",""2565""
","
","
","""event"",""trial"",""time""
""fullscreenenter"",""1"",""2565""
","
","","","","","","710","<p> Your goal in this round is to travel the world by putting fuel into different vehicles. </p><p> To travel, you will need to put fuel into many different vehicles. </p></div>","","0","instructions","","","","","","","","","","","","","",""
"learning-instructions","77","576105","0.0-9.0-1.0-0.1","1871","1","2","""event"",""trial"",""time""
""fullscreenenter"",""1"",""2565""
","
","
","""event"",""trial"",""time""
""fullscreenenter"",""1"",""2565""
","
","","","","","","999.3999999985099","<p> On each turn, you will see a picture of one of your vehicles and three different types of fuel.  </p><p> You need to select which kind of fuel to use.  </p>","","0","instructions","","","","","","","","","","","","","",""
"learning-instructions","78","587710","0.0-9.0-1.0-0.2","1871","1","2","""event"",""trial"",""time""
""fullscreenenter"",""1"",""2565""
","
","
","""event"",""trial"",""time""
""fullscreenenter"",""1"",""2565""
","
","","","","","","4736.89999999851","<p> You can select the fuel on the left by pressing 1, the fuel in the middle by pressing 2, and the fuel on the right by pressing 3. </p><br><div class=""choice-instructions-grid""> <div class=""choice-option""><img src=""images/vehicles_choice1.png"" class=""choice-option-img"" stage=""instructions"" position=""0"" ><div class=""choice-option-text""> Press ""1."" </div></div><div class=""choice-option""><img src=""images/vehicles_choice2.png"" class=""choice-option-img"" stage=""instructions"" position=""1"" ><div class=""choice-option-text""> Press ""2."" </div></div><div class=""choice-option""><img src=""images/vehicles_choice3.png"" class=""choice-option-img"" stage=""instructions"" position=""2"" ><div class=""choice-option-text""> Press ""3."" </div></div></div>","","0","instructions","","","","","","","","","","","","","",""
"learning-instructions","79","593842","0.0-9.0-1.0-0.3","1871","1","2","""event"",""trial"",""time""
""fullscreenenter"",""1"",""2565""
","
","
","""event"",""trial"",""time""
""fullscreenenter"",""1"",""2565""
","
","","","","","","901.6000000014901","<p> If the fuel you chose works for that vehicle, it will start, and </p><p> you will get to travel. </p><div style='float: center;'><img src='images/check.png' width = '200' height = '200'></img>","","0","instructions","","","","","","","","","","","","","",""
"learning-instructions","80","598917","0.0-9.0-1.0-0.4","1871","1","2","""event"",""trial"",""time""
""fullscreenenter"",""1"",""2565""
","
","
","""event"",""trial"",""time""
""fullscreenenter"",""1"",""2565""
","
","","","","","","531.8000000007451","<p> But, if the fuel you chose does not work, your vehicle will not move. </p><div style='float: center;'><img src='images/x.png' width = '200' height = '200'></img>","","0","instructions","","","","","","","","","","","","","",""
"learning-instructions","81","610054","0.0-9.0-1.0-0.5","1871","1","2","""event"",""trial"",""time""
""fullscreenenter"",""1"",""2565""
","
","
","""event"",""trial"",""time""
""fullscreenenter"",""1"",""2565""
","
","","","","","","458.80000000074506","<p> Importantly, each vehicle has a fuel that works best for it. </p><p> If you choose the fuel that works best for the vehicle, it will be more likely to start. </p>","","0","instructions","","","","","","","","","","","","","",""
"learning-instructions","82","620942","0.0-9.0-1.0-0.6","1871","1","2","""event"",""trial"",""time""
""fullscreenenter"",""1"",""2565""
","
","
","""event"",""trial"",""time""
""fullscreenenter"",""1"",""2565""
","
","","","","","","685.1000000014901","<p> However, even if you choose the best fuel for the vehicle, it may still not move. </p><p> Similarly, even if you choose the <i>wrong</i> fuel, the vehicle may still start and let you travel.","","0","instructions","","","","","","","","","","","","","",""
"learning-instructions","83","633844","0.0-9.0-1.0-0.7","1871","1","2","""event"",""trial"",""time""
""fullscreenenter"",""1"",""2565""
","
","
","""event"",""trial"",""time""
""fullscreenenter"",""1"",""2565""
","
","","","","","","547.3000000007451","<p> Try to choose the best fuel for each vehicle, because you will <b> WIN </b> 1 point each time you get to travel and <b>LOSE</b> 1 point each time a vehicle does not start. </p><p> Your bonus payment will depend on your total number of points.","","0","instructions","","","","","","","","","","","","","",""
"learning-instructions","84","642803","0.0-9.0-1.0-0.8","1871","1","2","""event"",""trial"",""time""
""fullscreenenter"",""1"",""2565""
","
","
","""event"",""trial"",""time""
""fullscreenenter"",""1"",""2565""
","
","","","","","","706.5","<p> The position of each type of fuel will change throughout the round. </p><p> The fuel's position <i> does not </i> influence how likely it is to make each vehicle start. </p>","","0","instructions","","","","","","","","","","","","","",""
"learning-instructions","85","653385","0.0-9.0-1.0-0.9","1871","1","2","""event"",""trial"",""time""
""fullscreenenter"",""1"",""2565""
","
","
","""event"",""trial"",""time""
""fullscreenenter"",""1"",""2565""
","
","","","","","","1288.1000000014901","<p> You will have 4 seconds to make each choice. Try to respond before time runs out! </p><p> You will lose 1 point each time you do not make a response. </p>","","0","instructions","","","","","","","","","","","","","",""
"html-keyboard-response","86","653994","0.0-9.0-2.0-0.0","1871","1","2","""event"",""trial"",""time""
""fullscreenenter"",""1"",""2565""
","
","
","""event"",""trial"",""time""
""fullscreenenter"",""1"",""2565""
","
","","","","","","null","<div style=""font-size:60px;"">+</div>","null","","fixation","","","","","","","","","","","","","",""
"learning-trial","87","657998","0.0-9.0-2.0-1.0","1871","1","2","""event"",""trial"",""time""
""fullscreenenter"",""1"",""2565""
","
","
","""event"",""trial"",""time""
""fullscreenenter"",""1"",""2565""
","
","","","","","","1976.699999999255","images/train2.png","","","learning","images/vehicles_choice1.png","images/vehicles_choice2.png","images/vehicles_choice3.png","[0,1,2]","0","0","2","images/vehicles_choice2.png","-1","vehicles","","train","1","0"
"html-keyboard-response","88","658502","0.0-9.0-2.0-0.1","1871","1","2","""event"",""trial"",""time""
""fullscreenenter"",""1"",""2565""
","
","
","""event"",""trial"",""time""
""fullscreenenter"",""1"",""2565""
","
","","","","","","null","<div style=""font-size:60px;"">+</div>","null","","fixation","","","","","","","","","","","","","",""
"learning-trial","89","662507","0.0-9.0-2.0-1.1","1871","1","2","""event"",""trial"",""time""
""fullscreenenter"",""1"",""2565""
","
","
","""event"",""trial"",""time""
""fullscreenenter"",""1"",""2565""
","
","","","","","","1831.9000000022352","images/truck2.png","","","learning","images/vehicles_choice3.png","images/vehicles_choice2.png","images/vehicles_choice1.png","[2,1,0]","1","1","1","images/vehicles_choice3.png","-1","vehicles","","truck","1","0"
"html-keyboard-response","90","663011","0.0-9.0-2.0-0.2","1871","1","2","""event"",""trial"",""time""
""fullscreenenter"",""1"",""2565""
","
","
","""event"",""trial"",""time""
""fullscreenenter"",""1"",""2565""
","
","","","","","","null","<div style=""font-size:60px;"">+</div>","null","","fixation","","","","","","","","","","","","","",""
"learning-trial","91","667018","0.0-9.0-2.0-1.2","1871","1","2","""event"",""trial"",""time""
""fullscreenenter"",""1"",""2565""
","
","
","""event"",""trial"",""time""
""fullscreenenter"",""1"",""2565""
","
","","","","","","1866.699999999255","images/boat5.png","","","learning","images/vehicles_choice2.png","images/vehicles_choice1.png","images/vehicles_choice3.png","[1,0,2]","2","2","3","images/vehicles_choice3.png","1","vehicles","","boat","1","0"
"html-keyboard-response","92","667523","0.0-9.0-2.0-0.3","1871","1","2","""event"",""trial"",""time""
""fullscreenenter"",""1"",""2565""
","
","
","""event"",""trial"",""time""
""fullscreenenter"",""1"",""2565""
","
","","","","","","null","<div style=""font-size:60px;"">+</div>","null","","fixation","","","","","","","","","","","","","",""
"learning-trial","93","671532","0.0-9.0-2.0-1.3","1871","1","2","""event"",""trial"",""time""
""fullscreenenter"",""1"",""2565""
","
","
","""event"",""trial"",""time""
""fullscreenenter"",""1"",""2565""
","
","","","","","","2935.10000000149","images/truck2.png","","","learning","images/vehicles_choice2.png","images/vehicles_choice3.png","images/vehicles_choice1.png","[1,2,0]","1","0","3","images/vehicles_choice1.png","-1","vehicles","","truck","1","0"
"html-keyboard-response","94","672033","0.0-9.0-2.0-0.4","1871","1","2","""event"",""trial"",""time""
""fullscreenenter"",""1"",""2565""
","
","
","""event"",""trial"",""time""
""fullscreenenter"",""1"",""2565""
","
","","","","","","null","<div style=""font-size:60px;"">+</div>","null","","fixation","","","","","","","","","","","","","",""
"learning-trial","95","676037","0.0-9.0-2.0-1.4","1871","1","2","""event"",""trial"",""time""
""fullscreenenter"",""1"",""2565""
","
","
","""event"",""trial"",""time""
""fullscreenenter"",""1"",""2565""
","
","","","","","","1827.6000000014901","images/truck3.png","","","learning","images/vehicles_choice3.png","images/vehicles_choice2.png","images/vehicles_choice1.png","[2,1,0]","1","1","2","images/vehicles_choice2.png","1","vehicles","","truck","1","0"
"html-keyboard-response","96","676543","0.0-9.0-2.0-0.5","1871","1","2","""event"",""trial"",""time""
""fullscreenenter"",""1"",""2565""
","
","
","""event"",""trial"",""time""
""fullscreenenter"",""1"",""2565""
","
","","","","","","null","<div style=""font-size:60px;"">+</div>","null","","fixation","","","","","","","","","","","","","",""
"learning-trial","97","680552","0.0-9.0-2.0-1.5","1871","1","2","""event"",""trial"",""time""
""fullscreenenter"",""1"",""2565""
","
","
","""event"",""trial"",""time""
""fullscreenenter"",""1"",""2565""
","
","","","","","","2022.5","images/truck2.png","","","learning","images/vehicles_choice1.png","images/vehicles_choice2.png","images/vehicles_choice3.png","[0,1,2]","1","1","1","images/vehicles_choice1.png","-1","vehicles","","truck","1","0"
"html-keyboard-response","98","681057","0.0-9.0-2.0-0.6","1871","1","2","""event"",""trial"",""time""
""fullscreenenter"",""1"",""2565""
","
","
","""event"",""trial"",""time""
""fullscreenenter"",""1"",""2565""
","
","","","","","","null","<div style=""font-size:60px;"">+</div>","null","","fixation","","","","","","","","","","","","","",""
"learning-trial","99","685062","0.0-9.0-2.0-1.6","1871","1","2","""event"",""trial"",""time""
""fullscreenenter"",""1"",""2565""
","
","
","""event"",""trial"",""time""
""fullscreenenter"",""1"",""2565""
","
","","","","","","2964.10000000149","images/train2.png","","","learning","images/vehicles_choice2.png","images/vehicles_choice1.png","images/vehicles_choice3.png","[1,0,2]","0","1","2","images/vehicles_choice1.png","1","vehicles","","train","1","0"
"html-keyboard-response","100","685564","0.0-9.0-2.0-0.7","1871","1","2","""event"",""trial"",""time""
""fullscreenenter"",""1"",""2565""
","
","
","""event"",""trial"",""time""
""fullscreenenter"",""1"",""2565""
","
","","","","","","null","<div style=""font-size:60px;"">+</div>","null","","fixation","","","","","","","","","","","","","",""
"learning-trial","101","689569","0.0-9.0-2.0-1.7","1871","1","2","""event"",""trial"",""time""
""fullscreenenter"",""1"",""2565""
","
","
","""event"",""trial"",""time""
""fullscreenenter"",""1"",""2565""
","
","","","","","","2472.5","images/boat3.png","","","learning","images/vehicles_choice1.png","images/vehicles_choice2.png","images/vehicles_choice3.png","[0,1,2]","2","2","1","images/vehicles_choice1.png","-1","vehicles","","boat","1","0"
"html-keyboard-response","102","690070","0.0-9.0-2.0-0.8","1871","1","2","""event"",""trial"",""time""
""fullscreenenter"",""1"",""2565""
","
","
","""event"",""trial"",""time""
""fullscreenenter"",""1"",""2565""
","
","","","","","","null","<div style=""font-size:60px;"">+</div>","null","","fixation","","","","","","","","","","","","","",""
"learning-trial","103","694075","0.0-9.0-2.0-1.8","1871","1","2","""event"",""trial"",""time""
""fullscreenenter"",""1"",""2565""
","
","
","""event"",""trial"",""time""
""fullscreenenter"",""1"",""2565""
","
","","","","","","3686.300000000745","images/boat5.png","","","learning","images/vehicles_choice2.png","images/vehicles_choice1.png","images/vehicles_choice3.png","[1,0,2]","2","2","3","images/vehicles_choice3.png","1","vehicles","","boat","1","0"
"html-keyboard-response","104","694579","0.0-9.0-2.0-0.9","1871","1","2","""event"",""trial"",""time""
""fullscreenenter"",""1"",""2565""
","
","
","""event"",""trial"",""time""
""fullscreenenter"",""1"",""2565""
","
","","","","","","null","<div style=""font-size:60px;"">+</div>","null","","fixation","","","","","","","","","","","","","",""
"learning-trial","105","698582","0.0-9.0-2.0-1.9","1871","1","2","""event"",""trial"",""time""
""fullscreenenter"",""1"",""2565""
","
","
","""event"",""trial"",""time""
""fullscreenenter"",""1"",""2565""
","
","","","","","","2227.5","images/train5.png","","","learning","images/vehicles_choice1.png","images/vehicles_choice3.png","images/vehicles_choice2.png","[0,2,1]","0","0","2","images/vehicles_choice3.png","-1","vehicles","","train","1","0"
"html-keyboard-response","106","699083","0.0-9.0-2.0-0.10","1871","1","2","""event"",""trial"",""time""
""fullscreenenter"",""1"",""2565""
","
","
","""event"",""trial"",""time""
""fullscreenenter"",""1"",""2565""
","
","","","","","","null","<div style=""font-size:60px;"">+</div>","null","","fixation","","","","","","","","","","","","","",""
"learning-trial","107","703089","0.0-9.0-2.0-1.10","1871","1","2","""event"",""trial"",""time""
""fullscreenenter"",""1"",""2565""
","
","
","""event"",""trial"",""time""
""fullscreenenter"",""1"",""2565""
","
","","","","","","1729.3999999985099","images/boat1.png","","","learning","images/vehicles_choice3.png","images/vehicles_choice1.png","images/vehicles_choice2.png","[2,0,1]","2","0","1","images/vehicles_choice3.png","1","vehicles","","boat","1","0"
"html-keyboard-response","108","703590","0.0-9.0-2.0-0.11","1871","1","2","""event"",""trial"",""time""
""fullscreenenter"",""1"",""2565""
","
","
","""event"",""trial"",""time""
""fullscreenenter"",""1"",""2565""
","
","","","","","","null","<div style=""font-size:60px;"">+</div>","null","","fixation","","","","","","","","","","","","","",""
"learning-trial","109","707595","0.0-9.0-2.0-1.11","1871","1","2","""event"",""trial"",""time""
""fullscreenenter"",""1"",""2565""
","
","
","""event"",""trial"",""time""
""fullscreenenter"",""1"",""2565""
","
","","","","","","2495.199999999255","images/boat5.png","","","learning","images/vehicles_choice2.png","images/vehicles_choice3.png","images/vehicles_choice1.png","[1,2,0]","2","1","2","images/vehicles_choice3.png","-1","vehicles","","boat","1","0"
"html-keyboard-response","110","708101","0.0-9.0-2.0-0.12","1871","1","2","""event"",""trial"",""time""
""fullscreenenter"",""1"",""2565""
","
","
","""event"",""trial"",""time""
""fullscreenenter"",""1"",""2565""
","
","","","","","","null","<div style=""font-size:60px;"">+</div>","null","","fixation","","","","","","","","","","","","","",""
"learning-trial","111","712108","0.0-9.0-2.0-1.12","1871","1","2","""event"",""trial"",""time""
""fullscreenenter"",""1"",""2565""
","
","
","""event"",""trial"",""time""
""fullscreenenter"",""1"",""2565""
","
","","","","","","3154.800000000745","images/train4.png","","","learning","images/vehicles_choice3.png","images/vehicles_choice2.png","images/vehicles_choice1.png","[2,1,0]","0","2","3","images/vehicles_choice1.png","1","vehicles","","train","1","0"
"html-keyboard-response","112","712609","0.0-9.0-2.0-0.13","1871","1","2","""event"",""trial"",""time""
""fullscreenenter"",""1"",""2565""
","
","
","""event"",""trial"",""time""
""fullscreenenter"",""1"",""2565""
","
","","","","","","null","<div style=""font-size:60px;"">+</div>","null","","fixation","","","","","","","","","","","","","",""
"learning-trial","113","716615","0.0-9.0-2.0-1.13","1871","1","2","""event"",""trial"",""time""
""fullscreenenter"",""1"",""2565""
","
","
","""event"",""trial"",""time""
""fullscreenenter"",""1"",""2565""
","
","","","","","","2895.199999999255","images/boat1.png","","","learning","images/vehicles_choice3.png","images/vehicles_choice1.png","images/vehicles_choice2.png","[2,0,1]","2","0","2","images/vehicles_choice1.png","-1","vehicles","","boat","1","0"
"html-keyboard-response","114","717116","0.0-9.0-2.0-0.14","1871","1","2","""event"",""trial"",""time""
""fullscreenenter"",""1"",""2565""
","
","
","""event"",""trial"",""time""
""fullscreenenter"",""1"",""2565""
","
","","","","","","null","<div style=""font-size:60px;"">+</div>","null","","fixation","","","","","","","","","","","","","",""
"learning-trial","115","721121","0.0-9.0-2.0-1.14","1871","1","2","""event"",""trial"",""time""
""fullscreenenter"",""1"",""2565""
","
","
","""event"",""trial"",""time""
""fullscreenenter"",""1"",""2565""
","
","","","","","","2043.199999999255","images/boat3.png","","","learning","images/vehicles_choice1.png","images/vehicles_choice2.png","images/vehicles_choice3.png","[0,1,2]","2","2","3","images/vehicles_choice3.png","1","vehicles","","boat","1","0"
"html-keyboard-response","116","721622","0.0-9.0-2.0-0.15","1871","1","2","""event"",""trial"",""time""
""fullscreenenter"",""1"",""2565""
","
","
","""event"",""trial"",""time""
""fullscreenenter"",""1"",""2565""
","
","","","","","","null","<div style=""font-size:60px;"">+</div>","null","","fixation","","","","","","","","","","","","","",""
"learning-trial","117","725628","0.0-9.0-2.0-1.15","1871","1","2","""event"",""trial"",""time""
""fullscreenenter"",""1"",""2565""
","
","
","""event"",""trial"",""time""
""fullscreenenter"",""1"",""2565""
","
","","","","","","2275.199999999255","images/train2.png","","","learning","images/vehicles_choice2.png","images/vehicles_choice1.png","images/vehicles_choice3.png","[1,0,2]","0","1","2","images/vehicles_choice1.png","1","vehicles","","train","1","0"
"html-keyboard-response","118","726129","0.0-9.0-2.0-0.16","1871","1","2","""event"",""trial"",""time""
""fullscreenenter"",""1"",""2565""
","
","
","""event"",""trial"",""time""
""fullscreenenter"",""1"",""2565""
","
","","","","","","null","<div style=""font-size:60px;"">+</div>","null","","fixation","","","","","","","","","","","","","",""
"learning-trial","119","730135","0.0-9.0-2.0-1.16","1871","1","2","""event"",""trial"",""time""
""fullscreenenter"",""1"",""2565""
","
","
","""event"",""trial"",""time""
""fullscreenenter"",""1"",""2565""
","
","","","","","","2711.599999997765","images/truck2.png","","","learning","images/vehicles_choice1.png","images/vehicles_choice2.png","images/vehicles_choice3.png","[0,1,2]","1","1","3","images/vehicles_choice3.png","-1","vehicles","","truck","1","0"
"html-keyboard-response","120","730639","0.0-9.0-2.0-0.17","1871","1","2","""event"",""trial"",""time""
""fullscreenenter"",""1"",""2565""
","
","
","""event"",""trial"",""time""
""fullscreenenter"",""1"",""2565""
","
","","","","","","null","<div style=""font-size:60px;"">+</div>","null","","fixation","","","","","","","","","","","","","",""
"learning-trial","121","734646","0.0-9.0-2.0-1.17","1871","1","2","""event"",""trial"",""time""
""fullscreenenter"",""1"",""2565""
","
","
","""event"",""trial"",""time""
""fullscreenenter"",""1"",""2565""
","
","","","","","","1906.300000000745","images/boat1.png","","","learning","images/vehicles_choice1.png","images/vehicles_choice3.png","images/vehicles_choice2.png","[0,2,1]","2","1","2","images/vehicles_choice3.png","1","vehicles","","boat","1","0"
"html-keyboard-response","122","735152","0.0-9.0-2.0-0.18","1871","1","2","""event"",""trial"",""time""
""fullscreenenter"",""1"",""2565""
","
","
","""event"",""trial"",""time""
""fullscreenenter"",""1"",""2565""
","
","","","","","","null","<div style=""font-size:60px;"">+</div>","null","","fixation","","","","","","","","","","","","","",""
"learning-trial","123","739159","0.0-9.0-2.0-1.18","1871","1","2","""event"",""trial"",""time""
""fullscreenenter"",""1"",""2565""
","
","
","""event"",""trial"",""time""
""fullscreenenter"",""1"",""2565""
","
","","","","","","1613.5999999977648","images/truck2.png","","","learning","images/vehicles_choice2.png","images/vehicles_choice1.png","images/vehicles_choice3.png","[1,0,2]","1","0","1","images/vehicles_choice2.png","1","vehicles","","truck","1","0"
"html-keyboard-response","124","739660","0.0-9.0-2.0-0.19","1871","1","2","""event"",""trial"",""time""
""fullscreenenter"",""1"",""2565""
","
","
","""event"",""trial"",""time""
""fullscreenenter"",""1"",""2565""
","
","","","","","","null","<div style=""font-size:60px;"">+</div>","null","","fixation","","","","","","","","","","","","","",""
"learning-trial","125","743665","0.0-9.0-2.0-1.19","1871","1","2","""event"",""trial"",""time""
""fullscreenenter"",""1"",""2565""
","
","
","""event"",""trial"",""time""
""fullscreenenter"",""1"",""2565""
","
","","","","","","2213.800000000745","images/truck1.png","","","learning","images/vehicles_choice3.png","images/vehicles_choice2.png","images/vehicles_choice1.png","[2,1,0]","1","1","2","images/vehicles_choice2.png","1","vehicles","","truck","1","0"
"html-keyboard-response","126","744167","0.0-9.0-2.0-0.20","1871","1","2","""event"",""trial"",""time""
""fullscreenenter"",""1"",""2565""
","
","
","""event"",""trial"",""time""
""fullscreenenter"",""1"",""2565""
","
","","","","","","null","<div style=""font-size:60px;"">+</div>","null","","fixation","","","","","","","","","","","","","",""
"learning-trial","127","748172","0.0-9.0-2.0-1.20","1871","1","2","""event"",""trial"",""time""
""fullscreenenter"",""1"",""2565""
","
","
","""event"",""trial"",""time""
""fullscreenenter"",""1"",""2565""
","
","","","","","","3650.5","images/train4.png","","","learning","images/vehicles_choice1.png","images/vehicles_choice2.png","images/vehicles_choice3.png","[0,1,2]","0","0","1","images/vehicles_choice1.png","1","vehicles","","train","1","0"
"html-keyboard-response","128","748673","0.0-9.0-2.0-0.21","1871","1","2","""event"",""trial"",""time""
""fullscreenenter"",""1"",""2565""
","
","
","""event"",""trial"",""time""
""fullscreenenter"",""1"",""2565""
","
","","","","","","null","<div style=""font-size:60px;"">+</div>","null","","fixation","","","","","","","","","","","","","",""
"learning-trial","129","752679","0.0-9.0-2.0-1.21","1871","1","2","""event"",""trial"",""time""
""fullscreenenter"",""1"",""2565""
","
","
","""event"",""trial"",""time""
""fullscreenenter"",""1"",""2565""
","
","","","","","","2013","images/truck1.png","","","learning","images/vehicles_choice1.png","images/vehicles_choice2.png","images/vehicles_choice3.png","[0,1,2]","1","1","2","images/vehicles_choice2.png","1","vehicles","","truck","1","0"
"html-keyboard-response","130","753180","0.0-9.0-2.0-0.22","1871","1","2","""event"",""trial"",""time""
""fullscreenenter"",""1"",""2565""
","
","
","""event"",""trial"",""time""
""fullscreenenter"",""1"",""2565""
","
","","","","","","null","<div style=""font-size:60px;"">+</div>","null","","fixation","","","","","","","","","","","","","",""
"learning-trial","131","757187","0.0-9.0-2.0-1.22","1871","1","2","""event"",""trial"",""time""
""fullscreenenter"",""1"",""2565""
","
","
","""event"",""trial"",""time""
""fullscreenenter"",""1"",""2565""
","
","","","","","","1738.6000000014901","images/boat3.png","","","learning","images/vehicles_choice1.png","images/vehicles_choice2.png","images/vehicles_choice3.png","[0,1,2]","2","2","3","images/vehicles_choice3.png","1","vehicles","","boat","1","0"
"html-keyboard-response","132","757692","0.0-9.0-2.0-0.23","1871","1","2","""event"",""trial"",""time""
""fullscreenenter"",""1"",""2565""
","
","
","""event"",""trial"",""time""
""fullscreenenter"",""1"",""2565""
","
","","","","","","null","<div style=""font-size:60px;"">+</div>","null","","fixation","","","","","","","","","","","","","",""
"learning-trial","133","761698","0.0-9.0-2.0-1.23","1871","1","2","""event"",""trial"",""time""
""fullscreenenter"",""1"",""2565""
","
","
","""event"",""trial"",""time""
""fullscreenenter"",""1"",""2565""
","
","","","","","","2036.800000000745","images/train5.png","","","learning","images/vehicles_choice1.png","images/vehicles_choice3.png","images/vehicles_choice2.png","[0,2,1]","0","0","1","images/vehicles_choice1.png","1","vehicles","","train","1","0"
"html-keyboard-response","134","762202","0.0-9.0-2.0-0.24","1871","1","2","""event"",""trial"",""time""
""fullscreenenter"",""1"",""2565""
","
","
","""event"",""trial"",""time""
""fullscreenenter"",""1"",""2565""
","
","","","","","","null","<div style=""font-size:60px;"">+</div>","null","","fixation","","","","","","","","","","","","","",""
"learning-trial","135","766210","0.0-9.0-2.0-1.24","1871","1","2","""event"",""trial"",""time""
""fullscreenenter"",""1"",""2565""
","
","
","""event"",""trial"",""time""
""fullscreenenter"",""1"",""2565""
","
","","","","","","2066.10000000149","images/train4.png","","","learning","images/vehicles_choice1.png","images/vehicles_choice3.png","images/vehicles_choice2.png","[0,2,1]","0","0","1","images/vehicles_choice1.png","1","vehicles","","train","1","0"
"html-keyboard-response","136","766711","0.0-9.0-2.0-0.25","1871","1","2","""event"",""trial"",""time""
""fullscreenenter"",""1"",""2565""
","
","
","""event"",""trial"",""time""
""fullscreenenter"",""1"",""2565""
","
","","","","","","null","<div style=""font-size:60px;"">+</div>","null","","fixation","","","","","","","","","","","","","",""
"learning-trial","137","770716","0.0-9.0-2.0-1.25","1871","1","2","""event"",""trial"",""time""
""fullscreenenter"",""1"",""2565""
","
","
","""event"",""trial"",""time""
""fullscreenenter"",""1"",""2565""
","
","","","","","","2463.5","images/truck3.png","","","learning","images/vehicles_choice2.png","images/vehicles_choice3.png","images/vehicles_choice1.png","[1,2,0]","1","0","1","images/vehicles_choice2.png","1","vehicles","","truck","1","0"
"html-keyboard-response","138","771218","0.0-9.0-2.0-0.26","1871","1","2","""event"",""trial"",""time""
""fullscreenenter"",""1"",""2565""
","
","
","""event"",""trial"",""time""
""fullscreenenter"",""1"",""2565""
","
","","","","","","null","<div style=""font-size:60px;"">+</div>","null","","fixation","","","","","","","","","","","","","",""
"learning-trial","139","775222","0.0-9.0-2.0-1.26","1871","1","2","""event"",""trial"",""time""
""fullscreenenter"",""1"",""2565""
","
","
","""event"",""trial"",""time""
""fullscreenenter"",""1"",""2565""
","
","","","","","","2758.099999997765","images/truck1.png","","","learning","images/vehicles_choice3.png","images/vehicles_choice2.png","images/vehicles_choice1.png","[2,1,0]","1","1","2","images/vehicles_choice2.png","1","vehicles","","truck","1","0"
"html-keyboard-response","140","775726","0.0-9.0-2.0-0.27","1871","1","2","""event"",""trial"",""time""
""fullscreenenter"",""1"",""2565""
","
","
","""event"",""trial"",""time""
""fullscreenenter"",""1"",""2565""
","
","","","","","","null","<div style=""font-size:60px;"">+</div>","null","","fixation","","","","","","","","","","","","","",""
"learning-trial","141","779733","0.0-9.0-2.0-1.27","1871","1","2","""event"",""trial"",""time""
""fullscreenenter"",""1"",""2565""
","
","
","""event"",""trial"",""time""
""fullscreenenter"",""1"",""2565""
","
","","","","","","2264.800000000745","images/truck3.png","","","learning","images/vehicles_choice1.png","images/vehicles_choice3.png","images/vehicles_choice2.png","[0,2,1]","1","2","3","images/vehicles_choice2.png","1","vehicles","","truck","1","0"
"html-keyboard-response","142","780236","0.0-9.0-2.0-0.28","1871","1","2","""event"",""trial"",""time""
""fullscreenenter"",""1"",""2565""
","
","
","""event"",""trial"",""time""
""fullscreenenter"",""1"",""2565""
","
","","","","","","null","<div style=""font-size:60px;"">+</div>","null","","fixation","","","","","","","","","","","","","",""
"learning-trial","143","784242","0.0-9.0-2.0-1.28","1871","1","2","""event"",""trial"",""time""
""fullscreenenter"",""1"",""2565""
","
","
","""event"",""trial"",""time""
""fullscreenenter"",""1"",""2565""
","
","","","","","","2736.5","images/truck2.png","","","learning","images/vehicles_choice1.png","images/vehicles_choice3.png","images/vehicles_choice2.png","[0,2,1]","1","2","3","images/vehicles_choice2.png","1","vehicles","","truck","1","0"
"html-keyboard-response","144","784743","0.0-9.0-2.0-0.29","1871","1","2","""event"",""trial"",""time""
""fullscreenenter"",""1"",""2565""
","
","
","""event"",""trial"",""time""
""fullscreenenter"",""1"",""2565""
","
","","","","","","null","<div style=""font-size:60px;"">+</div>","null","","fixation","","","","","","","","","","","","","",""
"learning-trial","145","788749","0.0-9.0-2.0-1.29","1871","1","2","""event"",""trial"",""time""
""fullscreenenter"",""1"",""2565""
","
","
","""event"",""trial"",""time""
""fullscreenenter"",""1"",""2565""
","
","","","","","","2593.900000002235","images/train2.png","","","learning","images/vehicles_choice3.png","images/vehicles_choice2.png","images/vehicles_choice1.png","[2,1,0]","0","2","3","images/vehicles_choice1.png","1","vehicles","","train","1","0"
"html-keyboard-response","146","789252","0.0-9.0-2.0-0.30","1871","1","2","""event"",""trial"",""time""
""fullscreenenter"",""1"",""2565""
","
","
","""event"",""trial"",""time""
""fullscreenenter"",""1"",""2565""
","
","","","","","","null","<div style=""font-size:60px;"">+</div>","null","","fixation","","","","","","","","","","","","","",""
"learning-trial","147","793261","0.0-9.0-2.0-1.30","1871","1","2","""event"",""trial"",""time""
""fullscreenenter"",""1"",""2565""
","
","
","""event"",""trial"",""time""
""fullscreenenter"",""1"",""2565""
","
","","","","","","1713.9000000022352","images/train2.png","","","learning","images/vehicles_choice2.png","images/vehicles_choice3.png","images/vehicles_choice1.png","[1,2,0]","0","2","3","images/vehicles_choice1.png","1","vehicles","","train","1","0"
"html-keyboard-response","148","793762","0.0-9.0-2.0-0.31","1871","1","2","""event"",""trial"",""time""
""fullscreenenter"",""1"",""2565""
","
","
","""event"",""trial"",""time""
""fullscreenenter"",""1"",""2565""
","
","","","","","","null","<div style=""font-size:60px;"">+</div>","null","","fixation","","","","","","","","","","","","","",""
"learning-trial","149","797769","0.0-9.0-2.0-1.31","1871","1","2","""event"",""trial"",""time""
""fullscreenenter"",""1"",""2565""
","
","
","""event"",""trial"",""time""
""fullscreenenter"",""1"",""2565""
","
","","","","","","1655.699999999255","images/boat1.png","","","learning","images/vehicles_choice1.png","images/vehicles_choice3.png","images/vehicles_choice2.png","[0,2,1]","2","1","2","images/vehicles_choice3.png","1","vehicles","","boat","1","0"
"html-keyboard-response","150","798274","0.0-9.0-2.0-0.32","1871","1","2","""event"",""trial"",""time""
""fullscreenenter"",""1"",""2565""
","
","
","""event"",""trial"",""time""
""fullscreenenter"",""1"",""2565""
","
","","","","","","null","<div style=""font-size:60px;"">+</div>","null","","fixation","","","","","","","","","","","","","",""
"learning-trial","151","802281","0.0-9.0-2.0-1.32","1871","1","2","""event"",""trial"",""time""
""fullscreenenter"",""1"",""2565""
","
","
","""event"",""trial"",""time""
""fullscreenenter"",""1"",""2565""
","
","","","","","","2602.800000000745","images/truck1.png","","","learning","images/vehicles_choice3.png","images/vehicles_choice1.png","images/vehicles_choice2.png","[2,0,1]","1","2","3","images/vehicles_choice2.png","1","vehicles","","truck","1","0"
"html-keyboard-response","152","802786","0.0-9.0-2.0-0.33","1871","1","2","""event"",""trial"",""time""
""fullscreenenter"",""1"",""2565""
","
","
","""event"",""trial"",""time""
""fullscreenenter"",""1"",""2565""
","
","","","","","","null","<div style=""font-size:60px;"">+</div>","null","","fixation","","","","","","","","","","","","","",""
"learning-trial","153","806791","0.0-9.0-2.0-1.33","1871","1","2","""event"",""trial"",""time""
""fullscreenenter"",""1"",""2565""
","
","
","""event"",""trial"",""time""
""fullscreenenter"",""1"",""2565""
","
","","","","","","1850.5999999977648","images/train5.png","","","learning","images/vehicles_choice3.png","images/vehicles_choice2.png","images/vehicles_choice1.png","[2,1,0]","0","2","3","images/vehicles_choice1.png","1","vehicles","","train","1","0"
"html-keyboard-response","154","807293","0.0-9.0-2.0-0.34","1871","1","2","""event"",""trial"",""time""
""fullscreenenter"",""1"",""2565""
","
","
","""event"",""trial"",""time""
""fullscreenenter"",""1"",""2565""
","
","","","","","","null","<div style=""font-size:60px;"">+</div>","null","","fixation","","","","","","","","","","","","","",""
"learning-trial","155","811299","0.0-9.0-2.0-1.34","1871","1","2","""event"",""trial"",""time""
""fullscreenenter"",""1"",""2565""
","
","
","""event"",""trial"",""time""
""fullscreenenter"",""1"",""2565""
","
","","","","","","1693.8999999985099","images/boat1.png","","","learning","images/vehicles_choice1.png","images/vehicles_choice3.png","images/vehicles_choice2.png","[0,2,1]","2","1","2","images/vehicles_choice3.png","1","vehicles","","boat","1","0"
"html-keyboard-response","156","811805","0.0-9.0-2.0-0.35","1871","1","2","""event"",""trial"",""time""
""fullscreenenter"",""1"",""2565""
","
","
","""event"",""trial"",""time""
""fullscreenenter"",""1"",""2565""
","
","","","","","","null","<div style=""font-size:60px;"">+</div>","null","","fixation","","","","","","","","","","","","","",""
"learning-trial","157","815810","0.0-9.0-2.0-1.35","1871","1","2","""event"",""trial"",""time""
""fullscreenenter"",""1"",""2565""
","
","
","""event"",""trial"",""time""
""fullscreenenter"",""1"",""2565""
","
","","","","","","2218.10000000149","images/train5.png","","","learning","images/vehicles_choice2.png","images/vehicles_choice1.png","images/vehicles_choice3.png","[1,0,2]","0","1","2","images/vehicles_choice1.png","-1","vehicles","","train","1","0"
"html-keyboard-response","158","816314","0.0-9.0-2.0-0.36","1871","1","2","""event"",""trial"",""time""
""fullscreenenter"",""1"",""2565""
","
","
","""event"",""trial"",""time""
""fullscreenenter"",""1"",""2565""
","
","","","","","","null","<div style=""font-size:60px;"">+</div>","null","","fixation","","","","","","","","","","","","","",""
"learning-trial","159","820319","0.0-9.0-2.0-1.36","1871","1","2","""event"",""trial"",""time""
""fullscreenenter"",""1"",""2565""
","
","
","""event"",""trial"",""time""
""fullscreenenter"",""1"",""2565""
","
","","","","","","2700.599999997765","images/train4.png","","","learning","images/vehicles_choice3.png","images/vehicles_choice2.png","images/vehicles_choice1.png","[2,1,0]","0","2","3","images/vehicles_choice1.png","1","vehicles","","train","1","0"
"html-keyboard-response","160","820823","0.0-9.0-2.0-0.37","1871","1","2","""event"",""trial"",""time""
""fullscreenenter"",""1"",""2565""
","
","
","""event"",""trial"",""time""
""fullscreenenter"",""1"",""2565""
","
","","","","","","null","<div style=""font-size:60px;"">+</div>","null","","fixation","","","","","","","","","","","","","",""
"learning-trial","161","824829","0.0-9.0-2.0-1.37","1871","1","2","""event"",""trial"",""time""
""fullscreenenter"",""1"",""2565""
","
","
","""event"",""trial"",""time""
""fullscreenenter"",""1"",""2565""
","
","","","","","","1349.699999999255","images/train5.png","","","learning","images/vehicles_choice3.png","images/vehicles_choice2.png","images/vehicles_choice1.png","[2,1,0]","0","2","3","images/vehicles_choice1.png","1","vehicles","","train","1","0"
"html-keyboard-response","162","825335","0.0-9.0-2.0-0.38","1871","1","2","""event"",""trial"",""time""
""fullscreenenter"",""1"",""2565""
","
","
","""event"",""trial"",""time""
""fullscreenenter"",""1"",""2565""
","
","","","","","","null","<div style=""font-size:60px;"">+</div>","null","","fixation","","","","","","","","","","","","","",""
"learning-trial","163","829341","0.0-9.0-2.0-1.38","1871","1","2","""event"",""trial"",""time""
""fullscreenenter"",""1"",""2565""
","
","
","""event"",""trial"",""time""
""fullscreenenter"",""1"",""2565""
","
","","","","","","1817.699999999255","images/train4.png","","","learning","images/vehicles_choice3.png","images/vehicles_choice2.png","images/vehicles_choice1.png","[2,1,0]","0","2","3","images/vehicles_choice1.png","1","vehicles","","train","1","0"
"html-keyboard-response","164","829844","0.0-9.0-2.0-0.39","1871","1","2","""event"",""trial"",""time""
""fullscreenenter"",""1"",""2565""
","
","
","""event"",""trial"",""time""
""fullscreenenter"",""1"",""2565""
","
","","","","","","null","<div style=""font-size:60px;"">+</div>","null","","fixation","","","","","","","","","","","","","",""
"learning-trial","165","833849","0.0-9.0-2.0-1.39","1871","1","2","""event"",""trial"",""time""
""fullscreenenter"",""1"",""2565""
","
","
","""event"",""trial"",""time""
""fullscreenenter"",""1"",""2565""
","
","","","","","","1684.6000000014901","images/train2.png","","","learning","images/vehicles_choice1.png","images/vehicles_choice2.png","images/vehicles_choice3.png","[0,1,2]","0","0","1","images/vehicles_choice1.png","1","vehicles","","train","1","0"
"html-keyboard-response","166","834354","0.0-9.0-2.0-0.40","1871","1","2","""event"",""trial"",""time""
""fullscreenenter"",""1"",""2565""
","
","
","""event"",""trial"",""time""
""fullscreenenter"",""1"",""2565""
","
","","","","","","null","<div style=""font-size:60px;"">+</div>","null","","fixation","","","","","","","","","","","","","",""
"learning-trial","167","838360","0.0-9.0-2.0-1.40","1871","1","2","""event"",""trial"",""time""
""fullscreenenter"",""1"",""2565""
","
","
","""event"",""trial"",""time""
""fullscreenenter"",""1"",""2565""
","
","","","","","","1551","images/boat1.png","","","learning","images/vehicles_choice2.png","images/vehicles_choice3.png","images/vehicles_choice1.png","[1,2,0]","2","1","2","images/vehicles_choice3.png","1","vehicles","","boat","1","0"
"html-keyboard-response","168","838861","0.0-9.0-2.0-0.41","1871","1","2","""event"",""trial"",""time""
""fullscreenenter"",""1"",""2565""
","
","
","""event"",""trial"",""time""
""fullscreenenter"",""1"",""2565""
","
","","","","","","null","<div style=""font-size:60px;"">+</div>","null","","fixation","","","","","","","","","","","","","",""
"learning-trial","169","842868","0.0-9.0-2.0-1.41","1871","1","2","""event"",""trial"",""time""
""fullscreenenter"",""1"",""2565""
","
","
","""event"",""trial"",""time""
""fullscreenenter"",""1"",""2565""
","
","","","","","","1772.1000000014901","images/truck1.png","","","learning","images/vehicles_choice2.png","images/vehicles_choice1.png","images/vehicles_choice3.png","[1,0,2]","1","0","1","images/vehicles_choice2.png","1","vehicles","","truck","1","0"
"html-keyboard-response","170","843373","0.0-9.0-2.0-0.42","1871","1","2","""event"",""trial"",""time""
""fullscreenenter"",""1"",""2565""
","
","
","""event"",""trial"",""time""
""fullscreenenter"",""1"",""2565""
","
","","","","","","null","<div style=""font-size:60px;"">+</div>","null","","fixation","","","","","","","","","","","","","",""
"learning-trial","171","847378","0.0-9.0-2.0-1.42","1871","1","2","""event"",""trial"",""time""
""fullscreenenter"",""1"",""2565""
","
","
","""event"",""trial"",""time""
""fullscreenenter"",""1"",""2565""
","
","","","","","","1742.199999999255","images/truck3.png","","","learning","images/vehicles_choice3.png","images/vehicles_choice2.png","images/vehicles_choice1.png","[2,1,0]","1","1","2","images/vehicles_choice2.png","1","vehicles","","truck","1","0"
"html-keyboard-response","172","847880","0.0-9.0-2.0-0.43","1871","1","2","""event"",""trial"",""time""
""fullscreenenter"",""1"",""2565""
","
","
","""event"",""trial"",""time""
""fullscreenenter"",""1"",""2565""
","
","","","","","","null","<div style=""font-size:60px;"">+</div>","null","","fixation","","","","","","","","","","","","","",""
"learning-trial","173","851885","0.0-9.0-2.0-1.43","1871","1","2","""event"",""trial"",""time""
""fullscreenenter"",""1"",""2565""
","
","
","""event"",""trial"",""time""
""fullscreenenter"",""1"",""2565""
","
","","","","","","2263.5","images/train4.png","","","learning","images/vehicles_choice1.png","images/vehicles_choice3.png","images/vehicles_choice2.png","[0,2,1]","0","0","1","images/vehicles_choice1.png","1","vehicles","","train","1","0"
"html-keyboard-response","174","852386","0.0-9.0-2.0-0.44","1871","1","2","""event"",""trial"",""time""
""fullscreenenter"",""1"",""2565""
","
","
","""event"",""trial"",""time""
""fullscreenenter"",""1"",""2565""
","
","","","","","","null","<div style=""font-size:60px;"">+</div>","null","","fixation","","","","","","","","","","","","","",""
"learning-trial","175","856392","0.0-9.0-2.0-1.44","1871","1","2","""event"",""trial"",""time""
""fullscreenenter"",""1"",""2565""
","
","
","""event"",""trial"",""time""
""fullscreenenter"",""1"",""2565""
","
","","","","","","1416.0999999977648","images/train5.png","","","learning","images/vehicles_choice1.png","images/vehicles_choice3.png","images/vehicles_choice2.png","[0,2,1]","0","0","1","images/vehicles_choice1.png","-1","vehicles","","train","1","0"
"html-keyboard-response","176","856896","0.0-9.0-2.0-0.45","1871","1","2","""event"",""trial"",""time""
""fullscreenenter"",""1"",""2565""
","
","
","""event"",""trial"",""time""
""fullscreenenter"",""1"",""2565""
","
","","","","","","null","<div style=""font-size:60px;"">+</div>","null","","fixation","","","","","","","","","","","","","",""
"learning-trial","177","860904","0.0-9.0-2.0-1.45","1871","1","2","""event"",""trial"",""time""
""fullscreenenter"",""1"",""2565""
","
","
","""event"",""trial"",""time""
""fullscreenenter"",""1"",""2565""
","
","","","","","","1527.4000000022352","images/boat3.png","","","learning","images/vehicles_choice3.png","images/vehicles_choice1.png","images/vehicles_choice2.png","[2,0,1]","2","0","1","images/vehicles_choice3.png","1","vehicles","","boat","1","0"
"html-keyboard-response","178","861405","0.0-9.0-2.0-0.46","1871","1","2","""event"",""trial"",""time""
""fullscreenenter"",""1"",""2565""
","
","
","""event"",""trial"",""time""
""fullscreenenter"",""1"",""2565""
","
","","","","","","null","<div style=""font-size:60px;"">+</div>","null","","fixation","","","","","","","","","","","","","",""
"learning-trial","179","865410","0.0-9.0-2.0-1.46","1871","1","2","""event"",""trial"",""time""
""fullscreenenter"",""1"",""2565""
","
","
","""event"",""trial"",""time""
""fullscreenenter"",""1"",""2565""
","
","","","","","","2760.2999999970198","images/truck2.png","","","learning","images/vehicles_choice3.png","images/vehicles_choice1.png","images/vehicles_choice2.png","[2,0,1]","1","2","3","images/vehicles_choice2.png","1","vehicles","","truck","1","0"
"html-keyboard-response","180","865914","0.0-9.0-2.0-0.47","1871","1","2","""event"",""trial"",""time""
""fullscreenenter"",""1"",""2565""
","
","
","""event"",""trial"",""time""
""fullscreenenter"",""1"",""2565""
","
","","","","","","null","<div style=""font-size:60px;"">+</div>","null","","fixation","","","","","","","","","","","","","",""
"learning-trial","181","869917","0.0-9.0-2.0-1.47","1871","1","2","""event"",""trial"",""time""
""fullscreenenter"",""1"",""2565""
","
","
","""event"",""trial"",""time""
""fullscreenenter"",""1"",""2565""
","
","","","","","","1050.300000000745","images/train5.png","","","learning","images/vehicles_choice1.png","images/vehicles_choice2.png","images/vehicles_choice3.png","[0,1,2]","0","0","1","images/vehicles_choice1.png","1","vehicles","","train","1","0"
"html-keyboard-response","182","870419","0.0-9.0-2.0-0.48","1871","1","2","""event"",""trial"",""time""
""fullscreenenter"",""1"",""2565""
","
","
","""event"",""trial"",""time""
""fullscreenenter"",""1"",""2565""
","
","","","","","","null","<div style=""font-size:60px;"">+</div>","null","","fixation","","","","","","","","","","","","","",""
"learning-trial","183","874424","0.0-9.0-2.0-1.48","1871","1","2","""event"",""trial"",""time""
""fullscreenenter"",""1"",""2565""
","
","
","""event"",""trial"",""time""
""fullscreenenter"",""1"",""2565""
","
","","","","","","1610.300000000745","images/boat5.png","","","learning","images/vehicles_choice2.png","images/vehicles_choice1.png","images/vehicles_choice3.png","[1,0,2]","2","2","3","images/vehicles_choice3.png","1","vehicles","","boat","1","0"
"html-keyboard-response","184","874925","0.0-9.0-2.0-0.49","1871","1","2","""event"",""trial"",""time""
""fullscreenenter"",""1"",""2565""
","
","
","""event"",""trial"",""time""
""fullscreenenter"",""1"",""2565""
","
","","","","","","null","<div style=""font-size:60px;"">+</div>","null","","fixation","","","","","","","","","","","","","",""
"learning-trial","185","878931","0.0-9.0-2.0-1.49","1871","1","2","""event"",""trial"",""time""
""fullscreenenter"",""1"",""2565""
","
","
","""event"",""trial"",""time""
""fullscreenenter"",""1"",""2565""
","
","","","","","","1993.300000000745","images/truck3.png","","","learning","images/vehicles_choice1.png","images/vehicles_choice3.png","images/vehicles_choice2.png","[0,2,1]","1","2","3","images/vehicles_choice2.png","1","vehicles","","truck","1","0"
"html-keyboard-response","186","879432","0.0-9.0-2.0-0.50","1871","1","2","""event"",""trial"",""time""
""fullscreenenter"",""1"",""2565""
","
","
","""event"",""trial"",""time""
""fullscreenenter"",""1"",""2565""
","
","","","","","","null","<div style=""font-size:60px;"">+</div>","null","","fixation","","","","","","","","","","","","","",""
"learning-trial","187","883439","0.0-9.0-2.0-1.50","1871","1","2","""event"",""trial"",""time""
""fullscreenenter"",""1"",""2565""
","
","
","""event"",""trial"",""time""
""fullscreenenter"",""1"",""2565""
","
","","","","","","2048.2000000029802","images/boat3.png","","","learning","images/vehicles_choice3.png","images/vehicles_choice1.png","images/vehicles_choice2.png","[2,0,1]","2","0","1","images/vehicles_choice3.png","1","vehicles","","boat","1","0"
"html-keyboard-response","188","883944","0.0-9.0-2.0-0.51","1871","1","2","""event"",""trial"",""time""
""fullscreenenter"",""1"",""2565""
","
","
","""event"",""trial"",""time""
""fullscreenenter"",""1"",""2565""
","
","","","","","","null","<div style=""font-size:60px;"">+</div>","null","","fixation","","","","","","","","","","","","","",""
"learning-trial","189","887949","0.0-9.0-2.0-1.51","1871","1","2","""event"",""trial"",""time""
""fullscreenenter"",""1"",""2565""
","
","
","""event"",""trial"",""time""
""fullscreenenter"",""1"",""2565""
","
","","","","","","1086.1000000014901","images/train5.png","","","learning","images/vehicles_choice3.png","images/vehicles_choice2.png","images/vehicles_choice1.png","[2,1,0]","0","2","3","images/vehicles_choice1.png","1","vehicles","","train","1","0"
"html-keyboard-response","190","888451","0.0-9.0-2.0-0.52","1871","1","2","""event"",""trial"",""time""
""fullscreenenter"",""1"",""2565""
","
","
","""event"",""trial"",""time""
""fullscreenenter"",""1"",""2565""
","
","","","","","","null","<div style=""font-size:60px;"">+</div>","null","","fixation","","","","","","","","","","","","","",""
"learning-trial","191","892456","0.0-9.0-2.0-1.52","1871","1","2","""event"",""trial"",""time""
""fullscreenenter"",""1"",""2565""
","
","
","""event"",""trial"",""time""
""fullscreenenter"",""1"",""2565""
","
","","","","","","1613.5999999977648","images/boat5.png","","","learning","images/vehicles_choice1.png","images/vehicles_choice2.png","images/vehicles_choice3.png","[0,1,2]","2","2","3","images/vehicles_choice3.png","1","vehicles","","boat","1","0"
"html-keyboard-response","192","892957","0.0-9.0-2.0-0.53","1871","1","2","""event"",""trial"",""time""
""fullscreenenter"",""1"",""2565""
","
","
","""event"",""trial"",""time""
""fullscreenenter"",""1"",""2565""
","
","","","","","","null","<div style=""font-size:60px;"">+</div>","null","","fixation","","","","","","","","","","","","","",""
"learning-trial","193","896963","0.0-9.0-2.0-1.53","1871","1","2","""event"",""trial"",""time""
""fullscreenenter"",""1"",""2565""
","
","
","""event"",""trial"",""time""
""fullscreenenter"",""1"",""2565""
","
","","","","","","1699.699999999255","images/boat5.png","","","learning","images/vehicles_choice2.png","images/vehicles_choice3.png","images/vehicles_choice1.png","[1,2,0]","2","1","2","images/vehicles_choice3.png","-1","vehicles","","boat","1","0"
"html-keyboard-response","194","897464","0.0-9.0-2.0-0.54","1871","1","2","""event"",""trial"",""time""
""fullscreenenter"",""1"",""2565""
","
","
","""event"",""trial"",""time""
""fullscreenenter"",""1"",""2565""
","
","","","","","","null","<div style=""font-size:60px;"">+</div>","null","","fixation","","","","","","","","","","","","","",""
"learning-trial","195","901470","0.0-9.0-2.0-1.54","1871","1","2","""event"",""trial"",""time""
""fullscreenenter"",""1"",""2565""
","
","
","""event"",""trial"",""time""
""fullscreenenter"",""1"",""2565""
","
","","","","","","1000.1000000014901","images/boat5.png","","","learning","images/vehicles_choice2.png","images/vehicles_choice3.png","images/vehicles_choice1.png","[1,2,0]","2","1","2","images/vehicles_choice3.png","1","vehicles","","boat","1","0"
"html-keyboard-response","196","901971","0.0-9.0-2.0-0.55","1871","1","2","""event"",""trial"",""time""
""fullscreenenter"",""1"",""2565""
","
","
","""event"",""trial"",""time""
""fullscreenenter"",""1"",""2565""
","
","","","","","","null","<div style=""font-size:60px;"">+</div>","null","","fixation","","","","","","","","","","","","","",""
"learning-trial","197","905976","0.0-9.0-2.0-1.55","1871","1","2","""event"",""trial"",""time""
""fullscreenenter"",""1"",""2565""
","
","
","""event"",""trial"",""time""
""fullscreenenter"",""1"",""2565""
","
","","","","","","2199.89999999851","images/train4.png","","","learning","images/vehicles_choice3.png","images/vehicles_choice2.png","images/vehicles_choice1.png","[2,1,0]","0","2","3","images/vehicles_choice1.png","1","vehicles","","train","1","0"
"html-keyboard-response","198","906478","0.0-9.0-2.0-0.56","1871","1","2","""event"",""trial"",""time""
""fullscreenenter"",""1"",""2565""
","
","
","""event"",""trial"",""time""
""fullscreenenter"",""1"",""2565""
","
","","","","","","null","<div style=""font-size:60px;"">+</div>","null","","fixation","","","","","","","","","","","","","",""
"learning-trial","199","910483","0.0-9.0-2.0-1.56","1871","1","2","""event"",""trial"",""time""
""fullscreenenter"",""1"",""2565""
","
","
","""event"",""trial"",""time""
""fullscreenenter"",""1"",""2565""
","
","","","","","","1734","images/truck3.png","","","learning","images/vehicles_choice2.png","images/vehicles_choice3.png","images/vehicles_choice1.png","[1,2,0]","1","0","1","images/vehicles_choice2.png","1","vehicles","","truck","1","0"
"html-keyboard-response","200","910988","0.0-9.0-2.0-0.57","1871","1","2","""event"",""trial"",""time""
""fullscreenenter"",""1"",""2565""
","
","
","""event"",""trial"",""time""
""fullscreenenter"",""1"",""2565""
","
","","","","","","null","<div style=""font-size:60px;"">+</div>","null","","fixation","","","","","","","","","","","","","",""
"learning-trial","201","914995","0.0-9.0-2.0-1.57","1871","1","2","""event"",""trial"",""time""
""fullscreenenter"",""1"",""2565""
","
","
","""event"",""trial"",""time""
""fullscreenenter"",""1"",""2565""
","
","","","","","","1613.5999999977648","images/truck3.png","","","learning","images/vehicles_choice2.png","images/vehicles_choice3.png","images/vehicles_choice1.png","[1,2,0]","1","0","1","images/vehicles_choice2.png","1","vehicles","","truck","1","0"
"html-keyboard-response","202","915496","0.0-9.0-2.0-0.58","1871","1","2","""event"",""trial"",""time""
""fullscreenenter"",""1"",""2565""
","
","
","""event"",""trial"",""time""
""fullscreenenter"",""1"",""2565""
","
","","","","","","null","<div style=""font-size:60px;"">+</div>","null","","fixation","","","","","","","","","","","","","",""
"learning-trial","203","919502","0.0-9.0-2.0-1.58","1871","1","2","""event"",""trial"",""time""
""fullscreenenter"",""1"",""2565""
","
","
","""event"",""trial"",""time""
""fullscreenenter"",""1"",""2565""
","
","","","","","","2918.900000002235","images/train4.png","","","learning","images/vehicles_choice1.png","images/vehicles_choice3.png","images/vehicles_choice2.png","[0,2,1]","0","0","1","images/vehicles_choice1.png","1","vehicles","","train","1","0"
"html-keyboard-response","204","920003","0.0-9.0-2.0-0.59","1871","1","2","""event"",""trial"",""time""
""fullscreenenter"",""1"",""2565""
","
","
","""event"",""trial"",""time""
""fullscreenenter"",""1"",""2565""
","
","","","","","","null","<div style=""font-size:60px;"">+</div>","null","","fixation","","","","","","","","","","","","","",""
"learning-trial","205","924009","0.0-9.0-2.0-1.59","1871","1","2","""event"",""trial"",""time""
""fullscreenenter"",""1"",""2565""
","
","
","""event"",""trial"",""time""
""fullscreenenter"",""1"",""2565""
","
","","","","","","1798.300000000745","images/truck1.png","","","learning","images/vehicles_choice3.png","images/vehicles_choice2.png","images/vehicles_choice1.png","[2,1,0]","1","1","2","images/vehicles_choice2.png","1","vehicles","","truck","1","0"
"html-keyboard-response","206","924510","0.0-9.0-2.0-0.60","1871","1","2","""event"",""trial"",""time""
""fullscreenenter"",""1"",""2565""
","
","
","""event"",""trial"",""time""
""fullscreenenter"",""1"",""2565""
","
","","","","","","null","<div style=""font-size:60px;"">+</div>","null","","fixation","","","","","","","","","","","","","",""
"learning-trial","207","928515","0.0-9.0-2.0-1.60","1871","1","2","""event"",""trial"",""time""
""fullscreenenter"",""1"",""2565""
","
","
","""event"",""trial"",""time""
""fullscreenenter"",""1"",""2565""
","
","","","","","","1869.8999999985099","images/boat1.png","","","learning","images/vehicles_choice2.png","images/vehicles_choice1.png","images/vehicles_choice3.png","[1,0,2]","2","2","3","images/vehicles_choice3.png","1","vehicles","","boat","1","0"
"html-keyboard-response","208","929016","0.0-9.0-2.0-0.61","1871","1","2","""event"",""trial"",""time""
""fullscreenenter"",""1"",""2565""
","
","
","""event"",""trial"",""time""
""fullscreenenter"",""1"",""2565""
","
","","","","","","null","<div style=""font-size:60px;"">+</div>","null","","fixation","","","","","","","","","","","","","",""
"learning-trial","209","933022","0.0-9.0-2.0-1.61","1871","1","2","""event"",""trial"",""time""
""fullscreenenter"",""1"",""2565""
","
","
","""event"",""trial"",""time""
""fullscreenenter"",""1"",""2565""
","
","","","","","","1822.800000000745","images/truck3.png","","","learning","images/vehicles_choice2.png","images/vehicles_choice3.png","images/vehicles_choice1.png","[1,2,0]","1","0","1","images/vehicles_choice2.png","1","vehicles","","truck","1","0"
"html-keyboard-response","210","933523","0.0-9.0-2.0-0.62","1871","1","2","""event"",""trial"",""time""
""fullscreenenter"",""1"",""2565""
","
","
","""event"",""trial"",""time""
""fullscreenenter"",""1"",""2565""
","
","","","","","","null","<div style=""font-size:60px;"">+</div>","null","","fixation","","","","","","","","","","","","","",""
"learning-trial","211","937529","0.0-9.0-2.0-1.62","1871","1","2","""event"",""trial"",""time""
""fullscreenenter"",""1"",""2565""
","
","
","""event"",""trial"",""time""
""fullscreenenter"",""1"",""2565""
","
","","","","","","1700.5","images/truck1.png","","","learning","images/vehicles_choice2.png","images/vehicles_choice1.png","images/vehicles_choice3.png","[1,0,2]","1","0","1","images/vehicles_choice2.png","1","vehicles","","truck","1","0"
"html-keyboard-response","212","938030","0.0-9.0-2.0-0.63","1871","1","2","""event"",""trial"",""time""
""fullscreenenter"",""1"",""2565""
","
","
","""event"",""trial"",""time""
""fullscreenenter"",""1"",""2565""
","
","","","","","","null","<div style=""font-size:60px;"">+</div>","null","","fixation","","","","","","","","","","","","","",""
"learning-trial","213","942035","0.0-9.0-2.0-1.63","1871","1","2","""event"",""trial"",""time""
""fullscreenenter"",""1"",""2565""
","
","
","""event"",""trial"",""time""
""fullscreenenter"",""1"",""2565""
","
","","","","","","1955.199999999255","images/train2.png","","","learning","images/vehicles_choice3.png","images/vehicles_choice1.png","images/vehicles_choice2.png","[2,0,1]","0","1","2","images/vehicles_choice1.png","1","vehicles","","train","1","0"
"html-keyboard-response","214","942537","0.0-9.0-2.0-0.64","1871","1","2","""event"",""trial"",""time""
""fullscreenenter"",""1"",""2565""
","
","
","""event"",""trial"",""time""
""fullscreenenter"",""1"",""2565""
","
","","","","","","null","<div style=""font-size:60px;"">+</div>","null","","fixation","","","","","","","","","","","","","",""
"learning-trial","215","946542","0.0-9.0-2.0-1.64","1871","1","2","""event"",""trial"",""time""
""fullscreenenter"",""1"",""2565""
","
","
","""event"",""trial"",""time""
""fullscreenenter"",""1"",""2565""
","
","","","","","","1407.300000000745","images/boat3.png","","","learning","images/vehicles_choice1.png","images/vehicles_choice2.png","images/vehicles_choice3.png","[0,1,2]","2","2","3","images/vehicles_choice3.png","1","vehicles","","boat","1","0"
"html-keyboard-response","216","947043","0.0-9.0-2.0-0.65","1871","1","2","""event"",""trial"",""time""
""fullscreenenter"",""1"",""2565""
","
","
","""event"",""trial"",""time""
""fullscreenenter"",""1"",""2565""
","
","","","","","","null","<div style=""font-size:60px;"">+</div>","null","","fixation","","","","","","","","","","","","","",""
"learning-trial","217","951049","0.0-9.0-2.0-1.65","1871","1","2","""event"",""trial"",""time""
""fullscreenenter"",""1"",""2565""
","
","
","""event"",""trial"",""time""
""fullscreenenter"",""1"",""2565""
","
","","","","","","1900.4000000022352","images/boat1.png","","","learning","images/vehicles_choice2.png","images/vehicles_choice1.png","images/vehicles_choice3.png","[1,0,2]","2","2","3","images/vehicles_choice3.png","-1","vehicles","","boat","1","0"
"html-keyboard-response","218","951550","0.0-9.0-2.0-0.66","1871","1","2","""event"",""trial"",""time""
""fullscreenenter"",""1"",""2565""
","
","
","""event"",""trial"",""time""
""fullscreenenter"",""1"",""2565""
","
","","","","","","null","<div style=""font-size:60px;"">+</div>","null","","fixation","","","","","","","","","","","","","",""
"learning-trial","219","955556","0.0-9.0-2.0-1.66","1871","1","2","""event"",""trial"",""time""
""fullscreenenter"",""1"",""2565""
","
","
","""event"",""trial"",""time""
""fullscreenenter"",""1"",""2565""
","
","","","","","","1777.2000000029802","images/boat3.png","","","learning","images/vehicles_choice1.png","images/vehicles_choice2.png","images/vehicles_choice3.png","[0,1,2]","2","2","3","images/vehicles_choice3.png","-1","vehicles","","boat","1","0"
"html-keyboard-response","220","956062","0.0-9.0-2.0-0.67","1871","1","2","""event"",""trial"",""time""
""fullscreenenter"",""1"",""2565""
","
","
","""event"",""trial"",""time""
""fullscreenenter"",""1"",""2565""
","
","","","","","","null","<div style=""font-size:60px;"">+</div>","null","","fixation","","","","","","","","","","","","","",""
"learning-trial","221","960067","0.0-9.0-2.0-1.67","1871","1","2","""event"",""trial"",""time""
""fullscreenenter"",""1"",""2565""
","
","
","""event"",""trial"",""time""
""fullscreenenter"",""1"",""2565""
","
","","","","","","3834.39999999851","images/truck2.png","","","learning","images/vehicles_choice3.png","images/vehicles_choice2.png","images/vehicles_choice1.png","[2,1,0]","1","1","2","images/vehicles_choice2.png","-1","vehicles","","truck","1","0"
"html-keyboard-response","222","960569","0.0-9.0-2.0-0.68","1871","1","2","""event"",""trial"",""time""
""fullscreenenter"",""1"",""2565""
","
","
","""event"",""trial"",""time""
""fullscreenenter"",""1"",""2565""
","
","","","","","","null","<div style=""font-size:60px;"">+</div>","null","","fixation","","","","","","","","","","","","","",""
"learning-trial","223","964574","0.0-9.0-2.0-1.68","1871","1","2","""event"",""trial"",""time""
""fullscreenenter"",""1"",""2565""
","
","
","""event"",""trial"",""time""
""fullscreenenter"",""1"",""2565""
","
","","","","","","2280.5","images/train2.png","","","learning","images/vehicles_choice3.png","images/vehicles_choice1.png","images/vehicles_choice2.png","[2,0,1]","0","1","2","images/vehicles_choice1.png","1","vehicles","","train","1","0"
"html-keyboard-response","224","965075","0.0-9.0-2.0-0.69","1871","1","2","""event"",""trial"",""time""
""fullscreenenter"",""1"",""2565""
","
","
","""event"",""trial"",""time""
""fullscreenenter"",""1"",""2565""
","
","","","","","","null","<div style=""font-size:60px;"">+</div>","null","","fixation","","","","","","","","","","","","","",""
"learning-trial","225","969081","0.0-9.0-2.0-1.69","1871","1","2","""event"",""trial"",""time""
""fullscreenenter"",""1"",""2565""
","
","
","""event"",""trial"",""time""
""fullscreenenter"",""1"",""2565""
","
","","","","","","1524.699999999255","images/truck1.png","","","learning","images/vehicles_choice3.png","images/vehicles_choice2.png","images/vehicles_choice1.png","[2,1,0]","1","1","2","images/vehicles_choice2.png","1","vehicles","","truck","1","0"
"html-keyboard-response","226","969582","0.0-9.0-2.0-0.70","1871","1","2","""event"",""trial"",""time""
""fullscreenenter"",""1"",""2565""
","
","
","""event"",""trial"",""time""
""fullscreenenter"",""1"",""2565""
","
","","","","","","null","<div style=""font-size:60px;"">+</div>","null","","fixation","","","","","","","","","","","","","",""
"learning-trial","227","973588","0.0-9.0-2.0-1.70","1871","1","2","""event"",""trial"",""time""
""fullscreenenter"",""1"",""2565""
","
","
","""event"",""trial"",""time""
""fullscreenenter"",""1"",""2565""
","
","","","","","","1611","images/boat3.png","","","learning","images/vehicles_choice2.png","images/vehicles_choice1.png","images/vehicles_choice3.png","[1,0,2]","2","2","3","images/vehicles_choice3.png","1","vehicles","","boat","1","0"
"html-keyboard-response","228","974089","0.0-9.0-2.0-0.71","1871","1","2","""event"",""trial"",""time""
""fullscreenenter"",""1"",""2565""
","
","
","""event"",""trial"",""time""
""fullscreenenter"",""1"",""2565""
","
","","","","","","null","<div style=""font-size:60px;"">+</div>","null","","fixation","","","","","","","","","","","","","",""
"learning-trial","229","978094","0.0-9.0-2.0-1.71","1871","1","2","""event"",""trial"",""time""
""fullscreenenter"",""1"",""2565""
","
","
","""event"",""trial"",""time""
""fullscreenenter"",""1"",""2565""
","
","","","","","","2582.800000000745","images/boat5.png","","","learning","images/vehicles_choice3.png","images/vehicles_choice2.png","images/vehicles_choice1.png","[2,1,0]","2","0","3","images/vehicles_choice1.png","-1","vehicles","","boat","1","0"
"html-button-response","230","985456","0.0-9.0-3.0","1871","1","2","""event"",""trial"",""time""
""fullscreenenter"",""1"",""2565""
","
","
","""event"",""trial"",""time""
""fullscreenenter"",""1"",""2565""
","
","","","","","","7359.39999999851","<p> You have completed the round! <p> In this round, you earned 40 points! </p>","0","","break","","","","","","","","","","","","","",""
"html-button-response","231","987642","0.0-10.0","1871","1","2","""event"",""trial"",""time""
""fullscreenenter"",""1"",""2565""
","
","
","""event"",""trial"",""time""
""fullscreenenter"",""1"",""2565""
","
","","","","","","2185.2999999970198","<p> Now it's time to play another round. </p>","0","","transition_screen","","","","","","","","","","","","","",""
"preload","232","989510","0.0-11.0-0.0","1871","1","2","""event"",""trial"",""time""
""fullscreenenter"",""1"",""2565""
","
","
","""event"",""trial"",""time""
""fullscreenenter"",""1"",""2565""
","
","true","false","[]","[]","[]","","","","","","","","","","","","","","","","","","",""
"learning-instructions","233","997287","0.0-11.0-1.0-0.0","1871","1","2","""event"",""trial"",""time""
""fullscreenenter"",""1"",""2565""
","
","
","""event"",""trial"",""time""
""fullscreenenter"",""1"",""2565""
","
","","","","","","1277.199999999255","<p> Your goal in this round is to feed all of your pets with the foods they like. </p><p> You will need to feed many pets. </p></div>","","0","instructions","","","","","","","","","","","","","",""
"learning-instructions","234","1005832","0.0-11.0-1.0-0.1","1871","1","2","""event"",""trial"",""time""
""fullscreenenter"",""1"",""2565""
","
","
","""event"",""trial"",""time""
""fullscreenenter"",""1"",""2565""
","
","","","","","","553","<p> On each turn, you will see a picture of one of your pets and three different types of foods.  </p><p> You need to select the food that you want to give to your pet.  </p>","","0","instructions","","","","","","","","","","","","","",""
"learning-instructions","235","1017690","0.0-11.0-1.0-0.2","1871","1","2","""event"",""trial"",""time""
""fullscreenenter"",""1"",""2565""
","
","
","""event"",""trial"",""time""
""fullscreenenter"",""1"",""2565""
","
