"trial_type","trial_index","time_elapsed","internal_node_id","subject_id","condition","task_version","interactions","blur_events","focus_events","fullscreenenter_events","fullscreenexit_events","success","timeout","failed_images","failed_audio","failed_video","rt","stimulus","response","button_pressed","task_part","left_choice","middle_choice","right_choice","choice_positions","correct_response","correct_position","key_press","option_selected","points","task_block","correct","stim_cat","block_condition","block_number"
"pavlovia","0","3","0.0-0.0","1531","2","2","""event"",""trial"",""time""
""fullscreenenter"",""1"",""2715""
","
","
","""event"",""trial"",""time""
""fullscreenenter"",""1"",""2715""
","
","","","","","","","","","","","","","","","","","","","","","","","",""
"fullscreen","1","3704","0.0-1.0","1531","2","2","""event"",""trial"",""time""
""fullscreenenter"",""1"",""2715""
","
","
","""event"",""trial"",""time""
""fullscreenenter"",""1"",""2715""
","
","true","","","","","","","","","","","","","","","","","","","","","","",""
"preload","2","31099","0.0-2.0","1531","2","2","""event"",""trial"",""time""
""fullscreenenter"",""1"",""2715""
","
","
","""event"",""trial"",""time""
""fullscreenenter"",""1"",""2715""
","
","true","false","[]","[]","[]","","","","","","","","","","","","","","","","","","",""
"audio-keyboard-response","3","33604","0.0-3.0","1531","2","2","""event"",""trial"",""time""
""fullscreenenter"",""1"",""2715""
","
","
","""event"",""trial"",""time""
""fullscreenenter"",""1"",""2715""
","
","","","","","","2501.333333333331","audio/beep_loop.wav"," ","","","","","","","","","","","","","","","",""
"audio-button-response","4","35916","0.0-4.0","1531","2","2","""event"",""trial"",""time""
""fullscreenenter"",""1"",""2715""
","
","
","""event"",""trial"",""time""
""fullscreenenter"",""1"",""2715""
","
","","","","","","2312","audio/shark.wav","4","","","","","","","","","","","","","","","",""
"audio-button-response","5","38511","0.0-5.0","1531","2","2","""event"",""trial"",""time""
""fullscreenenter"",""1"",""2715""
","
","
","""event"",""trial"",""time""
""fullscreenenter"",""1"",""2715""
","
","","","","","","1584","audio/turtle.wav","1","","","","","","","","","","","","","","","",""
"preload","6","79283","0.0-6.0","1531","2","2","""event"",""trial"",""time""
""fullscreenenter"",""1"",""2715""
","
","
","""event"",""trial"",""time""
""fullscreenenter"",""1"",""2715""
","
","true","false","[]","[]","[]","","","","","","","","","","","","","","","","","","",""
"html-keyboard-response","7","81704","0.0-7.0","1531","2","2","""event"",""trial"",""time""
""fullscreenenter"",""1"",""2715""
","
","
","""event"",""trial"",""time""
""fullscreenenter"",""1"",""2715""
","
","","","","","","2418.7999999523163","Welcome to the experiment. Press any key to begin and to advance the instructions."," ","","","","","","","","","","","","","","","",""
"learning-instructions","8","91289","0.0-8.0-0.0-0.0","1531","2","2","""event"",""trial"",""time""
""fullscreenenter"",""1"",""2715""
","
","
","""event"",""trial"",""time""
""fullscreenenter"",""1"",""2715""
","
","","","","","","1749.6999999284744","<p> Welcome! Today you are going to play 6 different rounds of a decision-making game. </p><p> Use the mouse to click next to continue. </p>","","0","instructions","","","","","","","","","","","","","",""
"learning-instructions","9","96089","0.0-8.0-0.0-0.1","1531","2","2","""event"",""trial"",""time""
""fullscreenenter"",""1"",""2715""
","
","
","""event"",""trial"",""time""
""fullscreenenter"",""1"",""2715""
","
","","","","","","1791","<p> You will start with a practice round to learn the rules. </p>","","0","instructions","","","","","","","","","","","","","",""
"learning-instructions","10","104689","0.0-8.0-0.0-0.2","1531","2","2","""event"",""trial"",""time""
""fullscreenenter"",""1"",""2715""
","
","
","""event"",""trial"",""time""
""fullscreenenter"",""1"",""2715""
","
","","","","","","849.3999999761581","<p> Your goal in this round is to deliver sports equipment to three different parks. </p><p> You will need to deliver many types of equipment. </p></div>","","0","instructions","","","","","","","","","","","","","",""
"learning-instructions","11","113869","0.0-8.0-0.0-0.3","1531","2","2","""event"",""trial"",""time""
""fullscreenenter"",""1"",""2715""
","
","
","""event"",""trial"",""time""
""fullscreenenter"",""1"",""2715""
","
","","","","","","690.5","<p> On each turn, you will see one piece of sports equipment and three different parks.  </p><p> You need to select which park to deliver the equipment to.  </p>","","0","instructions","","","","","","","","","","","","","",""
"learning-instructions","12","128017","0.0-8.0-0.0-0.4","1531","2","2","""event"",""trial"",""time""
""fullscreenenter"",""1"",""2715""
","
","
","""event"",""trial"",""time""
""fullscreenenter"",""1"",""2715""
","
","","","","","","849.1000000238419","<p> You can select the park on the left by pressing the '1' key on your keyboard. <br>You can select the park in the middle by pressing the '2' key on your keyboard. <br>You can select the park on the right by pressing the '3' key on your keyboard.  </p><br><div class=""choice-instructions-grid""> <div class=""choice-option""><img src=""images/park1.png"" class=""choice-option-img"" stage=""instructions"" position=""0"" ><div class=""choice-option-text""> Press ""1."" </div></div><div class=""choice-option""><img src=""images/park2.png"" class=""choice-option-img"" stage=""instructions"" position=""1"" ><div class=""choice-option-text""> Press ""2."" </div></div><div class=""choice-option""><img src=""images/park3.png"" class=""choice-option-img"" stage=""instructions"" position=""2"" ><div class=""choice-option-text""> Press ""3."" </div></div></div>","","0","instructions","","","","","","","","","","","","","",""
"learning-instructions","13","134888","0.0-8.0-0.0-0.5","1531","2","2","""event"",""trial"",""time""
""fullscreenenter"",""1"",""2715""
","
","
","""event"",""trial"",""time""
""fullscreenenter"",""1"",""2715""
","
","","","","","","1480.2000000476837","<p> If the kids in the park you chose like the equipment, they will be very happy! </p><div style='float: center;'><img src='images/check.png' width = '200' height = '200'></img>","","0","instructions","","","","","","","","","","","","","",""
"learning-instructions","14","141257","0.0-8.0-0.0-0.6","1531","2","2","""event"",""trial"",""time""
""fullscreenenter"",""1"",""2715""
","
","
","""event"",""trial"",""time""
""fullscreenenter"",""1"",""2715""
","
","","","","","","758.6000000238419","<p> But, if the kids in the park you chose do not like the equipment, they will be sad. </p><div style='float: center;'><img src='images/x.png' width = '200' height = '200'></img>","","0","instructions","","","","","","","","","","","","","",""
"learning-instructions","15","148488","0.0-8.0-0.0-0.7","1531","2","2","""event"",""trial"",""time""
""fullscreenenter"",""1"",""2715""
","
","
","""event"",""trial"",""time""
""fullscreenenter"",""1"",""2715""
","
","","","","","","790.3999999761581","<p> Importantly, the kids in each park like some pieces of sports equipment more than others. </p>","","0","instructions","","","","","","","","","","","","","",""
"learning-instructions","16","155268","0.0-8.0-0.0-0.8","1531","2","2","""event"",""trial"",""time""
""fullscreenenter"",""1"",""2715""
","
","
","""event"",""trial"",""time""
""fullscreenenter"",""1"",""2715""
","
","","","","","","710.2000000476837","<p> If you choose the best park for each piece of equipment, the kids there will usually be happy. </p>","","0","instructions","","","","","","","","","","","","","",""
"learning-instructions","17","162517","0.0-8.0-0.0-0.9","1531","2","2","""event"",""trial"",""time""
""fullscreenenter"",""1"",""2715""
","
","
","""event"",""trial"",""time""
""fullscreenenter"",""1"",""2715""
","
","","","","","","590.1000000238419","<p> However, even if you choose the best park for the equipment, the kids may sometimes be sad. </p>","","0","instructions","","","","","","","","","","","","","",""
"learning-instructions","18","170237","0.0-8.0-0.0-0.10","1531","2","2","""event"",""trial"",""time""
""fullscreenenter"",""1"",""2715""
","
","
","""event"",""trial"",""time""
""fullscreenenter"",""1"",""2715""
","
","","","","","","469.3000000715256","<p> Similarly, even if you choose the <i>wrong</i> park for the equipment, the kids may still be happy sometimes.","","0","instructions","","","","","","","","","","","","","",""
"learning-instructions","19","175937","0.0-8.0-0.0-0.11","1531","2","2","""event"",""trial"",""time""
""fullscreenenter"",""1"",""2715""
","
","
","""event"",""trial"",""time""
""fullscreenenter"",""1"",""2715""
","
","","","","","","630.4000000953674","<p> For example, the best park for this soccer ball is this one.<div style='float: center;'><img src='images/i1.png' width = '500' height = '268'></img>","","0","instructions","","","","","","","","","","","","","",""
"learning-instructions","20","182004","0.0-8.0-0.0-0.12","1531","2","2","""event"",""trial"",""time""
""fullscreenenter"",""1"",""2715""
","
","
","""event"",""trial"",""time""
""fullscreenenter"",""1"",""2715""
","
","","","","","","757","<p> Let's see what happens if you choose this park for the soccer ball five times.","","0","instructions","","","","","","","","","","","","","",""
"learning-instructions","21","185068","0.0-8.0-0.0-0.13","1531","2","2","""event"",""trial"",""time""
""fullscreenenter"",""1"",""2715""
","
","
","""event"",""trial"",""time""
""fullscreenenter"",""1"",""2715""
","
","","","","","","879.7999999523163","<p> The kids are happy.<div style='float: left;'><img src='images/i2.png' width = '640' height = '360'></img>","","0","instructions","","","","","","","","","","","","","",""
"learning-instructions","22","187868","0.0-8.0-0.0-0.14","1531","2","2","""event"",""trial"",""time""
""fullscreenenter"",""1"",""2715""
","
","
","""event"",""trial"",""time""
""fullscreenenter"",""1"",""2715""
","
","","","","","","609.8000000715256","<p> The kids are happy.<div style='float: left;'><img src='images/i3.png' width = '640' height = '360'></img>","","0","instructions","","","","","","","","","","","","","",""
"learning-instructions","23","190588","0.0-8.0-0.0-0.15","1531","2","2","""event"",""trial"",""time""
""fullscreenenter"",""1"",""2715""
","
","
","""event"",""trial"",""time""
""fullscreenenter"",""1"",""2715""
","
","","","","","","550","<p> The kids are happy.<div style='float: left;'><img src='images/i4.png' width = '640' height = '360'></img>","","0","instructions","","","","","","","","","","","","","",""
"learning-instructions","24","193428","0.0-8.0-0.0-0.16","1531","2","2","""event"",""trial"",""time""
""fullscreenenter"",""1"",""2715""
","
","
","""event"",""trial"",""time""
""fullscreenenter"",""1"",""2715""
","
","","","","","","609.6000000238419","<p> The kids are sad.<div style='float: left;'><img src='images/i5.png' width = '640' height = '360'></img>","","0","instructions","","","","","","","","","","","","","",""
"learning-instructions","25","196298","0.0-8.0-0.0-0.17","1531","2","2","""event"",""trial"",""time""
""fullscreenenter"",""1"",""2715""
","
","
","""event"",""trial"",""time""
""fullscreenenter"",""1"",""2715""
","
","","","","","","708.8999999761581","<p> The kids are happy.<div style='float: left;'><img src='images/i6.png' width = '640' height = '360'></img>","","0","instructions","","","","","","","","","","","","","",""
"learning-instructions","26","204168","0.0-8.0-0.0-0.18","1531","2","2","""event"",""trial"",""time""
""fullscreenenter"",""1"",""2715""
","
","
","""event"",""trial"",""time""
""fullscreenenter"",""1"",""2715""
","
","","","","","","599.8000000715256","<p> As you can see, selecting that park for the soccer ball made the kids happy most of the time, but not all the time.","","0","instructions","","","","","","","","","","","","","",""
"learning-instructions","27","210738","0.0-8.0-0.0-0.19","1531","2","2","""event"",""trial"",""time""
""fullscreenenter"",""1"",""2715""
","
","
","""event"",""trial"",""time""
""fullscreenenter"",""1"",""2715""
","
","","","","","","550","<p> Now let's see what happens if you choose a DIFFERENT park for the soccer ball 5 times.","","0","instructions","","","","","","","","","","","","","",""
"learning-instructions","28","213558","0.0-8.0-0.0-0.20","1531","2","2","""event"",""trial"",""time""
""fullscreenenter"",""1"",""2715""
","
","
","""event"",""trial"",""time""
""fullscreenenter"",""1"",""2715""
","
","","","","","","599","<p> The kids are sad.<div style='float: left;'><img src='images/i7.png' width = '640' height = '360'></img>","","0","instructions","","","","","","","","","","","","","",""
"learning-instructions","29","216318","0.0-8.0-0.0-0.21","1531","2","2","""event"",""trial"",""time""
""fullscreenenter"",""1"",""2715""
","
","
","""event"",""trial"",""time""
""fullscreenenter"",""1"",""2715""
","
","","","","","","559.5","<p> The kids are sad.<div style='float: left;'><img src='images/i8.png' width = '640' height = '360'></img>","","0","instructions","","","","","","","","","","","","","",""
"learning-instructions","30","219138","0.0-8.0-0.0-0.22","1531","2","2","""event"",""trial"",""time""
""fullscreenenter"",""1"",""2715""
","
","
","""event"",""trial"",""time""
""fullscreenenter"",""1"",""2715""
","
","","","","","","659.3999999761581","<p> The kids are happy.<div style='float: left;'><img src='images/i9.png' width = '640' height = '360'></img>","","0","instructions","","","","","","","","","","","","","",""
"learning-instructions","31","221938","0.0-8.0-0.0-0.23","1531","2","2","""event"",""trial"",""time""
""fullscreenenter"",""1"",""2715""
","
","
","""event"",""trial"",""time""
""fullscreenenter"",""1"",""2715""
","
","","","","","","580","<p> The kids are sad.<div style='float: left;'><img src='images/i10.png' width = '640' height = '360'></img>","","0","instructions","","","","","","","","","","","","","",""
"learning-instructions","32","224707","0.0-8.0-0.0-0.24","1531","2","2","""event"",""trial"",""time""
""fullscreenenter"",""1"",""2715""
","
","
","""event"",""trial"",""time""
""fullscreenenter"",""1"",""2715""
","
","","","","","","559","<p> The kids are sad.<div style='float: left;'><img src='images/i11.png' width = '640' height = '360'></img>","","0","instructions","","","","","","","","","","","","","",""
"learning-instructions","33","233468","0.0-8.0-0.0-0.25","1531","2","2","""event"",""trial"",""time""
""fullscreenenter"",""1"",""2715""
","
","
","""event"",""trial"",""time""
""fullscreenenter"",""1"",""2715""
","
","","","","","","620.1999999284744","<p> As you can see, selecting the wrong park for the soccer ball made the kids sad most of the time, but not all the time.","","0","instructions","","","","","","","","","","","","","",""
"learning-instructions","34","243188","0.0-8.0-0.0-0.26","1531","2","2","""event"",""trial"",""time""
""fullscreenenter"",""1"",""2715""
","
","
","""event"",""trial"",""time""
""fullscreenenter"",""1"",""2715""
","
","","","","","","589.2999999523163","<p> The different pieces of equipment belong in different parks. You need to try to learn which is the best park for each piece of equipment.","","0","instructions","","","","","","","","","","","","","",""
"learning-instructions","35","260318","0.0-8.0-0.0-0.27","1531","2","2","""event"",""trial"",""time""
""fullscreenenter"",""1"",""2715""
","
","
","""event"",""trial"",""time""
""fullscreenenter"",""1"",""2715""
","
","","","","","","730.3999999761581","<p> Try to choose the best park for each piece of equipment, because you will <b> WIN </b> 1 point for each time you make the kids happy and <b>LOSE</b> 1 point for each time you make them sad. </p><p> Remember, if you make the best choice, you will win 1 point most of the time, but not all the time. </p>","","0","instructions","","","","","","","","","","","","","",""
"learning-instructions","36","266454","0.0-8.0-0.0-0.28","1531","2","2","""event"",""trial"",""time""
""fullscreenenter"",""1"",""2715""
","
","
","""event"",""trial"",""time""
""fullscreenenter"",""1"",""2715""
","
","","","","","","634.8000000715256","<p> This is just a practice round, but in the real game, your bonus payment will depend on your total number of points.","","0","instructions","","","","","","","","","","","","","",""
"learning-instructions","37","277376","0.0-8.0-0.0-0.29","1531","2","2","""event"",""trial"",""time""
""fullscreenenter"",""1"",""2715""
","
","
","""event"",""trial"",""time""
""fullscreenenter"",""1"",""2715""
","
","","","","","","587.8999999761581","<p> The position where each park appears will change throughout the game. </p><p> The position where the park appears <i> does not </i> influence how likely the kids are to be happy or sad. </p>","","0","instructions","","","","","","","","","","","","","",""
"learning-instructions","38","290078","0.0-8.0-0.0-0.30","1531","2","2","""event"",""trial"",""time""
""fullscreenenter"",""1"",""2715""
","
","
","""event"",""trial"",""time""
""fullscreenenter"",""1"",""2715""
","
","","","","","","730","<p> You will have 4 seconds to make each choice. Try to respond before time runs out! </p><p> You will lose 1 point each time you do not make a response. </p>","","0","instructions","","","","","","","","","","","","","",""
"learning-instructions","39","298708","0.0-8.0-0.0-0.31","1531","2","2","""event"",""trial"",""time""
""fullscreenenter"",""1"",""2715""
","
","
","""event"",""trial"",""time""
""fullscreenenter"",""1"",""2715""
","
","","","","","","1829.5","<p> Remember, you should use the 1, 2, and 3 keys to select the park for each piece of equipment. </p><br><div class=""choice-instructions-grid""> <div class=""choice-option""><img src=""images/park1.png"" class=""choice-option-img"" stage=""instructions"" position=""0"" ><div class=""choice-option-text""> Press ""1."" </div></div><div class=""choice-option""><img src=""images/park2.png"" class=""choice-option-img"" stage=""instructions"" position=""1"" ><div class=""choice-option-text""> Press ""2."" </div></div><div class=""choice-option""><img src=""images/park3.png"" class=""choice-option-img"" stage=""instructions"" position=""2"" ><div class=""choice-option-text""> Press ""3."" </div></div></div>","","0","instructions","","","","","","","","","","","","","",""
"html-button-response","40","300588","0.0-8.0-1.0","1531","2","2","""event"",""trial"",""time""
""fullscreenenter"",""1"",""2715""
","
","
","""event"",""trial"",""time""
""fullscreenenter"",""1"",""2715""
","
","","","","","","1760.3999999761581","<p> Ready to practice? </p>","0","","","","","","","","","","","","","","","",""
"html-keyboard-response","41","301207","0.0-8.0-2.0-0.0","1531","2","2","""event"",""trial"",""time""
""fullscreenenter"",""1"",""2715""
","
","
","""event"",""trial"",""time""
""fullscreenenter"",""1"",""2715""
","
","","","","","","null","<div style=""font-size:60px;"">+</div>","null","","fixation","","","","","","","","","","","","","",""
"learning-trial","42","305212","0.0-8.0-2.0-1.0","1531","2","2","""event"",""trial"",""time""
""fullscreenenter"",""1"",""2715""
","
","
","""event"",""trial"",""time""
""fullscreenenter"",""1"",""2715""
","
","","","","","","3477.2000000476837","images/ball3.png","","","practice","images/park2.png","images/park1.png","images/park3.png","[1,0,2]","1","0","3","images/park3.png","1","practice","","","",""
"html-keyboard-response","43","305716","0.0-8.0-2.0-0.1","1531","2","2","""event"",""trial"",""time""
""fullscreenenter"",""1"",""2715""
","
","
","""event"",""trial"",""time""
""fullscreenenter"",""1"",""2715""
","
","","","","","","null","<div style=""font-size:60px;"">+</div>","null","","fixation","","","","","","","","","","","","","",""
"learning-trial","44","309736","0.0-8.0-2.0-1.1","1531","2","2","""event"",""trial"",""time""
""fullscreenenter"",""1"",""2715""
","
","
","""event"",""trial"",""time""
""fullscreenenter"",""1"",""2715""
","
","","","","","","null","images/racket1.png","","","practice","images/park2.png","images/park1.png","images/park3.png","[1,0,2]","2","2","null","null","-1","practice","","","",""
"html-keyboard-response","45","310256","0.0-8.0-2.0-0.2","1531","2","2","""event"",""trial"",""time""
""fullscreenenter"",""1"",""2715""
","
","
","""event"",""trial"",""time""
""fullscreenenter"",""1"",""2715""
","
","","","","","","null","<div style=""font-size:60px;"">+</div>","null","","fixation","","","","","","","","","","","","","",""
"learning-trial","46","314277","0.0-8.0-2.0-1.2","1531","2","2","""event"",""trial"",""time""
""fullscreenenter"",""1"",""2715""
","
","
","""event"",""trial"",""time""
""fullscreenenter"",""1"",""2715""
","
","","","","","","1354.2000000476837","images/ball3.png","","","practice","images/park2.png","images/park1.png","images/park3.png","[1,0,2]","1","0","3","images/park3.png","-1","practice","","","",""
"html-keyboard-response","47","314786","0.0-8.0-2.0-0.3","1531","2","2","""event"",""trial"",""time""
""fullscreenenter"",""1"",""2715""
","
","
","""event"",""trial"",""time""
""fullscreenenter"",""1"",""2715""
","
","","","","","","null","<div style=""font-size:60px;"">+</div>","null","","fixation","","","","","","","","","","","","","",""
"learning-trial","48","318797","0.0-8.0-2.0-1.3","1531","2","2","""event"",""trial"",""time""
""fullscreenenter"",""1"",""2715""
","
","
","""event"",""trial"",""time""
""fullscreenenter"",""1"",""2715""
","
","","","","","","1329.8999999761581","images/ball4.png","","","practice","images/park1.png","images/park2.png","images/park3.png","[0,1,2]","1","1","1","images/park1.png","-1","practice","","","",""
"html-keyboard-response","49","319306","0.0-8.0-2.0-0.4","1531","2","2","""event"",""trial"",""time""
""fullscreenenter"",""1"",""2715""
","
","
","""event"",""trial"",""time""
""fullscreenenter"",""1"",""2715""
","
","","","","","","null","<div style=""font-size:60px;"">+</div>","null","","fixation","","","","","","","","","","","","","",""
"learning-trial","50","323326","0.0-8.0-2.0-1.4","1531","2","2","""event"",""trial"",""time""
""fullscreenenter"",""1"",""2715""
","
","
","""event"",""trial"",""time""
""fullscreenenter"",""1"",""2715""
","
","","","","","","2361.7999999523163","images/ball2.png","","","practice","images/park2.png","images/park3.png","images/park1.png","[1,2,0]","0","2","1","images/park2.png","-1","practice","","","",""
"html-keyboard-response","51","323836","0.0-8.0-2.0-0.5","1531","2","2","""event"",""trial"",""time""
""fullscreenenter"",""1"",""2715""
","
","
","""event"",""trial"",""time""
""fullscreenenter"",""1"",""2715""
","
","","","","","","null","<div style=""font-size:60px;"">+</div>","null","","fixation","","","","","","","","","","","","","",""
"learning-trial","52","327840","0.0-8.0-2.0-1.5","1531","2","2","""event"",""trial"",""time""
""fullscreenenter"",""1"",""2715""
","
","
","""event"",""trial"",""time""
""fullscreenenter"",""1"",""2715""
","
","","","","","","2202.5","images/racket2.png","","","practice","images/park2.png","images/park3.png","images/park1.png","[1,2,0]","2","1","1","images/park2.png","-1","practice","","","",""
"html-keyboard-response","53","328341","0.0-8.0-2.0-0.6","1531","2","2","""event"",""trial"",""time""
""fullscreenenter"",""1"",""2715""
","
","
","""event"",""trial"",""time""
""fullscreenenter"",""1"",""2715""
","
","","","","","","null","<div style=""font-size:60px;"">+</div>","null","","fixation","","","","","","","","","","","","","",""
"learning-trial","54","332345","0.0-8.0-2.0-1.6","1531","2","2","""event"",""trial"",""time""
""fullscreenenter"",""1"",""2715""
","
","
","""event"",""trial"",""time""
""fullscreenenter"",""1"",""2715""
","
","","","","","","1316.1999999284744","images/ball1.png","","","practice","images/park2.png","images/park1.png","images/park3.png","[1,0,2]","0","1","3","images/park3.png","-1","practice","","","",""
"html-keyboard-response","55","332847","0.0-8.0-2.0-0.7","1531","2","2","""event"",""trial"",""time""
""fullscreenenter"",""1"",""2715""
","
","
","""event"",""trial"",""time""
""fullscreenenter"",""1"",""2715""
","
","","","","","","null","<div style=""font-size:60px;"">+</div>","null","","fixation","","","","","","","","","","","","","",""
"learning-trial","56","336850","0.0-8.0-2.0-1.7","1531","2","2","""event"",""trial"",""time""
""fullscreenenter"",""1"",""2715""
","
","
","""event"",""trial"",""time""
""fullscreenenter"",""1"",""2715""
","
","","","","","","1102.3000000715256","images/racket1.png","","","practice","images/park2.png","images/park1.png","images/park3.png","[1,0,2]","2","2","2","images/park1.png","-1","practice","","","",""
"html-keyboard-response","57","337352","0.0-8.0-2.0-0.8","1531","2","2","""event"",""trial"",""time""
""fullscreenenter"",""1"",""2715""
","
","
","""event"",""trial"",""time""
""fullscreenenter"",""1"",""2715""
","
","","","","","","null","<div style=""font-size:60px;"">+</div>","null","","fixation","","","","","","","","","","","","","",""
"learning-trial","58","341355","0.0-8.0-2.0-1.8","1531","2","2","""event"",""trial"",""time""
""fullscreenenter"",""1"",""2715""
","
","
","""event"",""trial"",""time""
""fullscreenenter"",""1"",""2715""
","
","","","","","","1884.3999999761581","images/ball1.png","","","practice","images/park1.png","images/park2.png","images/park3.png","[0,1,2]","0","0","2","images/park2.png","-1","practice","","","",""
"html-keyboard-response","59","341857","0.0-8.0-2.0-0.9","1531","2","2","""event"",""trial"",""time""
""fullscreenenter"",""1"",""2715""
","
","
","""event"",""trial"",""time""
""fullscreenenter"",""1"",""2715""
","
","","","","","","null","<div style=""font-size:60px;"">+</div>","null","","fixation","","","","","","","","","","","","","",""
"learning-trial","60","345861","0.0-8.0-2.0-1.9","1531","2","2","""event"",""trial"",""time""
""fullscreenenter"",""1"",""2715""
","
","
","""event"",""trial"",""time""
""fullscreenenter"",""1"",""2715""
","
","","","","","","1439.6999999284744","images/ball2.png","","","practice","images/park2.png","images/park1.png","images/park3.png","[1,0,2]","0","1","2","images/park1.png","1","practice","","","",""
"html-keyboard-response","61","346363","0.0-8.0-2.0-0.10","1531","2","2","""event"",""trial"",""time""
""fullscreenenter"",""1"",""2715""
","
","
","""event"",""trial"",""time""
""fullscreenenter"",""1"",""2715""
","
","","","","","","null","<div style=""font-size:60px;"">+</div>","null","","fixation","","","","","","","","","","","","","",""
"learning-trial","62","350367","0.0-8.0-2.0-1.10","1531","2","2","""event"",""trial"",""time""
""fullscreenenter"",""1"",""2715""
","
","
","""event"",""trial"",""time""
""fullscreenenter"",""1"",""2715""
","
","","","","","","1112.4000000953674","images/ball4.png","","","practice","images/park2.png","images/park1.png","images/park3.png","[1,0,2]","1","0","2","images/park1.png","-1","practice","","","",""
"html-keyboard-response","63","350874","0.0-8.0-2.0-0.11","1531","2","2","""event"",""trial"",""time""
""fullscreenenter"",""1"",""2715""
","
","
","""event"",""trial"",""time""
""fullscreenenter"",""1"",""2715""
","
","","","","","","null","<div style=""font-size:60px;"">+</div>","null","","fixation","","","","","","","","","","","","","",""
"learning-trial","64","354878","0.0-8.0-2.0-1.11","1531","2","2","""event"",""trial"",""time""
""fullscreenenter"",""1"",""2715""
","
","
","""event"",""trial"",""time""
""fullscreenenter"",""1"",""2715""
","
","","","","","","2234.600000023842","images/racket2.png","","","practice","images/park1.png","images/park3.png","images/park2.png","[0,2,1]","2","1","1","images/park1.png","-1","practice","","","",""
"html-button-response","65","358736","0.0-8.0-3.0","1531","2","2","""event"",""trial"",""time""
""fullscreenenter"",""1"",""2715""
","
","
","""event"",""trial"",""time""
""fullscreenenter"",""1"",""2715""
","
","","","","","","3855.600000023842","<p> You earned -8 points in the practice round! </p>","0","","break","","","","","","","","","","","","","",""
"learning-instructions","66","368792","0.0-8.0-4.0-0.0","1531","2","2","""event"",""trial"",""time""
""fullscreenenter"",""1"",""2715""
","
","
","""event"",""trial"",""time""
""fullscreenenter"",""1"",""2715""
","
","","","","","","1349.6000000238419","<p> It's almost time to start the real game. </p><p> Before you start, we're going to ask you a few questions about how the game works. </p>","","0","instructions","","","","","","","","","","","","","",""
"preload","67","376161","0.0-8.0-5.0","1531","2","2","""event"",""trial"",""time""
""fullscreenenter"",""1"",""2715""
","
","
","""event"",""trial"",""time""
""fullscreenenter"",""1"",""2715""
","
","true","false","[]","[]","[]","","","","","","","","","","","","","","","","","","",""
"comp-q","68","383243","0.0-8.0-6.0-0.0","1531","2","2","""event"",""trial"",""time""
""fullscreenenter"",""1"",""2715""
","
","
","""event"",""trial"",""time""
""fullscreenenter"",""1"",""2715""
","
","","","","","","1630.1999999284744","<p> <b> True or False? </b> </p><p> If you choose the best option, you will always earn 1 point. </p>","","1","comp_question","","","","","","","","","","","true","","",""
"comp-q","69","390166","0.0-8.0-6.0-1.0","1531","2","2","""event"",""trial"",""time""
""fullscreenenter"",""1"",""2715""
","
","
","""event"",""trial"",""time""
""fullscreenenter"",""1"",""2715""
","
","","","","","","1243.7000000476837","<p><b> That's right! </b> Sometimes you will lose 1 point, even if you choose the best option. </p>","","0","comp_answer","","","","","","","","","","","","","",""
"comp-q","70","396313","0.0-8.0-6.0-0.1","1531","2","2","""event"",""trial"",""time""
""fullscreenenter"",""1"",""2715""
","
","
","""event"",""trial"",""time""
""fullscreenenter"",""1"",""2715""
","
","","","","","","1510","<p> <b> True or False? </b> </p><p> You will have as much time as you want to make each choice. </p>","","1","comp_question","","","","","","","","","","","true","","",""
"comp-q","71","402188","0.0-8.0-6.0-1.1","1531","2","2","""event"",""trial"",""time""
""fullscreenenter"",""1"",""2715""
","
","
","""event"",""trial"",""time""
""fullscreenenter"",""1"",""2715""
","
","","","","","","1054.8999999761581","<p> <b> That's right! </b> You will only have 4 seconds to make each choice. </p>","","0","comp_answer","","","","","","","","","","","","","",""
"comp-q","72","409692","0.0-8.0-6.0-0.2","1531","2","2","""event"",""trial"",""time""
""fullscreenenter"",""1"",""2715""
","
","
","""event"",""trial"",""time""
""fullscreenenter"",""1"",""2715""
","
","","","","","","1329.1000000238419","<p> <b> True or False? </b> </p><p> You should use the '1', '2', and '3' keys to make your choices. </p>","","0","comp_question","","","","","","","","","","","true","","",""
"comp-q","73","415722","0.0-8.0-6.0-1.2","1531","2","2","""event"",""trial"",""time""
""fullscreenenter"",""1"",""2715""
","
","
","""event"",""trial"",""time""
""fullscreenenter"",""1"",""2715""
","
","","","","","","1179.7000000476837","<p> <b> That's right! </b> You should use the '1', '2', and '3' keys to make each choice. </p>","","0","comp_answer","","","","","","","","","","","","","",""
"learning-instructions","74","425992","0.0-8.0-7.0-0.0","1531","2","2","""event"",""trial"",""time""
""fullscreenenter"",""1"",""2715""
","
","
","""event"",""trial"",""time""
""fullscreenenter"",""1"",""2715""
","
","","","","","","1759.7000000476837","<p> It's now time to start the real game. </p>Do your best, because the points you earn in the next rounds will influence your bonus payment. </p>","","0","instructions","","","","","","","","","","","","","",""
"preload","75","436577","0.0-9.0-0.0","1531","2","2","""event"",""trial"",""time""
""fullscreenenter"",""1"",""2715""
","
","
","""event"",""trial"",""time""
""fullscreenenter"",""1"",""2715""
","
","true","false","[]","[]","[]","","","","","","","","","","","","","","","","","","",""
"learning-instructions","76","445593","0.0-9.0-1.0-0.0","1531","2","2","""event"",""trial"",""time""
""fullscreenenter"",""1"",""2715""
","
","
","""event"",""trial"",""time""
""fullscreenenter"",""1"",""2715""
","
","","","","","","2521","<p> Your goal in this round is to buy different types of fruits. </p><p> You will try to purchase many fruits from different stores. </p></div>","","0","instructions","","","","","","","","","","","","","",""
"learning-instructions","77","455042","0.0-9.0-1.0-0.1","1531","2","2","""event"",""trial"",""time""
""fullscreenenter"",""1"",""2715""
","
","
","""event"",""trial"",""time""
""fullscreenenter"",""1"",""2715""
","
","","","","","","929.7000000476837","<p> On each turn, you will see a picture of a fruit and three different stores.  </p><p> You need to select the store where you can buy that fruit.  </p>","","0","instructions","","","","","","","","","","","","","",""
"learning-instructions","78","463212","0.0-9.0-1.0-0.2","1531","2","2","""event"",""trial"",""time""
""fullscreenenter"",""1"",""2715""
","
","
","""event"",""trial"",""time""
""fullscreenenter"",""1"",""2715""
","
","","","","","","768.8999999761581","<p> You can select the store on the left by pressing 1, the store in the middle by pressing 2, and the store on the right by pressing 3. </p><br><div class=""choice-instructions-grid""> <div class=""choice-option""><img src=""images/fruit_choice1.png"" class=""choice-option-img"" stage=""instructions"" position=""0"" ><div class=""choice-option-text""> Press ""1."" </div></div><div class=""choice-option""><img src=""images/fruit_choice2.png"" class=""choice-option-img"" stage=""instructions"" position=""1"" ><div class=""choice-option-text""> Press ""2."" </div></div><div class=""choice-option""><img src=""images/fruit_choice3.png"" class=""choice-option-img"" stage=""instructions"" position=""2"" ><div class=""choice-option-text""> Press ""3."" </div></div></div>","","0","instructions","","","","","","","","","","","","","",""
"learning-instructions","79","468912","0.0-9.0-1.0-0.3","1531","2","2","""event"",""trial"",""time""
""fullscreenenter"",""1"",""2715""
","
","
","""event"",""trial"",""time""
""fullscreenenter"",""1"",""2715""
","
","","","","","","729.0999999046326","<p> If you find the fruit in the store you chose, you will get to buy and eat it! </p><div style='float: center;'><img src='images/check.png' width = '200' height = '200'></img>","","0","instructions","","","","","","","","","","","","","",""
"learning-instructions","80","474111","0.0-9.0-1.0-0.4","1531","2","2","""event"",""trial"",""time""
""fullscreenenter"",""1"",""2715""
","
","
","""event"",""trial"",""time""
""fullscreenenter"",""1"",""2715""
","
","","","","","","708.6000000238419","<p> But, if the fruit is not in that store, you will be hungry. </p><div style='float: center;'><img src='images/x.png' width = '200' height = '200'></img>","","0","instructions","","","","","","","","","","","","","",""
"learning-instructions","81","484530","0.0-9.0-1.0-0.5","1531","2","2","""event"",""trial"",""time""
""fullscreenenter"",""1"",""2715""
","
","
","""event"",""trial"",""time""
""fullscreenenter"",""1"",""2715""
","
","","","","","","628","<p> Importantly, each fruit is more likely to be found in one of the stores. </p><p> If you choose the correct store, you will be more likely to be able to buy the fruit! </p>","","0","instructions","","","","","","","","","","","","","",""
"learning-instructions","82","495612","0.0-9.0-1.0-0.6","1531","2","2","""event"",""trial"",""time""
""fullscreenenter"",""1"",""2715""
","
","
","""event"",""trial"",""time""
""fullscreenenter"",""1"",""2715""
","
","","","","","","620.1000000238419","<p> However, even if you choose the best store for the fruit, the store might not have it sometimes. </p><p> Similarly, even if you choose the <i>wrong</i> store, it might still have the fruit.","","0","instructions","","","","","","","","","","","","","",""
"learning-instructions","83","508387","0.0-9.0-1.0-0.7","1531","2","2","""event"",""trial"",""time""
""fullscreenenter"",""1"",""2715""
","
","
","""event"",""trial"",""time""
""fullscreenenter"",""1"",""2715""
","
","","","","","","575","<p> Try to choose the best store for each fruit, because you will <b> WIN </b> 1 point for each fruit you eat and <b>LOSE</b> 1 point each time you are hungry. </p><p> Your bonus payment will depend on your total number of points.","","0","instructions","","","","","","","","","","","","","",""
"learning-instructions","84","517293","0.0-9.0-1.0-0.8","1531","2","2","""event"",""trial"",""time""
""fullscreenenter"",""1"",""2715""
","
","
","""event"",""trial"",""time""
""fullscreenenter"",""1"",""2715""
","
","","","","","","669.7000000476837","<p> The position of each store will change throughout the round. </p><p> The store's position <i> does not </i> influence how likely you are to find the fruit. </p>","","0","instructions","","","","","","","","","","","","","",""
"learning-instructions","85","527232","0.0-9.0-1.0-0.9","1531","2","2","""event"",""trial"",""time""
""fullscreenenter"",""1"",""2715""
","
","
","""event"",""trial"",""time""
""fullscreenenter"",""1"",""2715""
","
","","","","","","629.6000000238419","<p> You will have 4 seconds to make each choice. Try to respond before time runs out! </p><p> You will lose 1 point each time you do not make a response. </p>","","0","instructions","","","","","","","","","","","","","",""
"html-keyboard-response","86","527860","0.0-9.0-2.0-0.0","1531","2","2","""event"",""trial"",""time""
""fullscreenenter"",""1"",""2715""
","
","
","""event"",""trial"",""time""
""fullscreenenter"",""1"",""2715""
","
","","","","","","null","<div style=""font-size:60px;"">+</div>","null","","fixation","","","","","","","","","","","","","",""
"learning-trial","87","531880","0.0-9.0-2.0-1.0","1531","2","2","""event"",""trial"",""time""
""fullscreenenter"",""1"",""2715""
","
","
","""event"",""trial"",""time""
""fullscreenenter"",""1"",""2715""
","
","","","","","","1562","images/banana5.png","","","learning","images/fruit_choice1.png","images/fruit_choice3.png","images/fruit_choice2.png","[0,2,1]","0","0","2","images/fruit_choice3.png","-1","fruit","","banana","2","0"
"html-keyboard-response","88","532390","0.0-9.0-2.0-0.1","1531","2","2","""event"",""trial"",""time""
""fullscreenenter"",""1"",""2715""
","
","
","""event"",""trial"",""time""
""fullscreenenter"",""1"",""2715""
","
","","","","","","null","<div style=""font-size:60px;"">+</div>","null","","fixation","","","","","","","","","","","","","",""
"learning-trial","89","536407","0.0-9.0-2.0-1.1","1531","2","2","""event"",""trial"",""time""
""fullscreenenter"",""1"",""2715""
","
","
","""event"",""trial"",""time""
""fullscreenenter"",""1"",""2715""
","
","","","","","","1873.5","images/orange3.png","","","learning","images/fruit_choice1.png","images/fruit_choice2.png","images/fruit_choice3.png","[0,1,2]","2","2","3","images/fruit_choice3.png","1","fruit","","orange","2","0"
"html-keyboard-response","90","536920","0.0-9.0-2.0-0.2","1531","2","2","""event"",""trial"",""time""
""fullscreenenter"",""1"",""2715""
","
","
","""event"",""trial"",""time""
""fullscreenenter"",""1"",""2715""
","
","","","","","","null","<div style=""font-size:60px;"">+</div>","null","","fixation","","","","","","","","","","","","","",""
"learning-trial","91","540950","0.0-9.0-2.0-1.2","1531","2","2","""event"",""trial"",""time""
""fullscreenenter"",""1"",""2715""
","
","
","""event"",""trial"",""time""
""fullscreenenter"",""1"",""2715""
","
","","","","","","2576.6999999284744","images/apple5.png","","","learning","images/fruit_choice3.png","images/fruit_choice1.png","images/fruit_choice2.png","[2,0,1]","1","2","2","images/fruit_choice1.png","-1","fruit","","apple","2","0"
"html-keyboard-response","92","541460","0.0-9.0-2.0-0.3","1531","2","2","""event"",""trial"",""time""
""fullscreenenter"",""1"",""2715""
","
","
","""event"",""trial"",""time""
""fullscreenenter"",""1"",""2715""
","
","","","","","","null","<div style=""font-size:60px;"">+</div>","null","","fixation","","","","","","","","","","","","","",""
"learning-trial","93","545480","0.0-9.0-2.0-1.3","1531","2","2","""event"",""trial"",""time""
""fullscreenenter"",""1"",""2715""
","
","
","""event"",""trial"",""time""
""fullscreenenter"",""1"",""2715""
","
","","","","","","1859.6999999284744","images/banana1.png","","","learning","images/fruit_choice2.png","images/fruit_choice3.png","images/fruit_choice1.png","[1,2,0]","2","1","1","images/fruit_choice2.png","1","fruit","","banana","2","0"
"html-keyboard-response","94","545990","0.0-9.0-2.0-0.4","1531","2","2","""event"",""trial"",""time""
""fullscreenenter"",""1"",""2715""
","
","
","""event"",""trial"",""time""
""fullscreenenter"",""1"",""2715""
","
","","","","","","null","<div style=""font-size:60px;"">+</div>","null","","fixation","","","","","","","","","","","","","",""
"learning-trial","95","550011","0.0-9.0-2.0-1.4","1531","2","2","""event"",""trial"",""time""
""fullscreenenter"",""1"",""2715""
","
","
","""event"",""trial"",""time""
""fullscreenenter"",""1"",""2715""
","
","","","","","","1913.5","images/apple1.png","","","learning","images/fruit_choice2.png","images/fruit_choice1.png","images/fruit_choice3.png","[1,0,2]","2","2","2","images/fruit_choice1.png","-1","fruit","","apple","2","0"
"html-keyboard-response","96","550530","0.0-9.0-2.0-0.5","1531","2","2","""event"",""trial"",""time""
""fullscreenenter"",""1"",""2715""
","
","
","""event"",""trial"",""time""
""fullscreenenter"",""1"",""2715""
","
","","","","","","null","<div style=""font-size:60px;"">+</div>","null","","fixation","","","","","","","","","","","","","",""
"learning-trial","97","554540","0.0-9.0-2.0-1.5","1531","2","2","""event"",""trial"",""time""
""fullscreenenter"",""1"",""2715""
","
","
","""event"",""trial"",""time""
""fullscreenenter"",""1"",""2715""
","
","","","","","","1968.8999999761581","images/banana1.png","","","learning","images/fruit_choice3.png","images/fruit_choice1.png","images/fruit_choice2.png","[2,0,1]","2","0","3","images/fruit_choice2.png","-1","fruit","","banana","2","0"
"html-keyboard-response","98","555060","0.0-9.0-2.0-0.6","1531","2","2","""event"",""trial"",""time""
""fullscreenenter"",""1"",""2715""
","
","
","""event"",""trial"",""time""
""fullscreenenter"",""1"",""2715""
","
","","","","","","null","<div style=""font-size:60px;"">+</div>","null","","fixation","","","","","","","","","","","","","",""
"learning-trial","99","559065","0.0-9.0-2.0-1.6","1531","2","2","""event"",""trial"",""time""
""fullscreenenter"",""1"",""2715""
","
","
","""event"",""trial"",""time""
""fullscreenenter"",""1"",""2715""
","
","","","","","","1515.2000000476837","images/banana5.png","","","learning","images/fruit_choice1.png","images/fruit_choice2.png","images/fruit_choice3.png","[0,1,2]","0","0","2","images/fruit_choice2.png","-1","fruit","","banana","2","0"
"html-keyboard-response","100","559566","0.0-9.0-2.0-0.7","1531","2","2","""event"",""trial"",""time""
""fullscreenenter"",""1"",""2715""
","
","
","""event"",""trial"",""time""
""fullscreenenter"",""1"",""2715""
","
","","","","","","null","<div style=""font-size:60px;"">+</div>","null","","fixation","","","","","","","","","","","","","",""
"learning-trial","101","563569","0.0-9.0-2.0-1.7","1531","2","2","""event"",""trial"",""time""
""fullscreenenter"",""1"",""2715""
","
","
","""event"",""trial"",""time""
""fullscreenenter"",""1"",""2715""
","
","","","","","","2641.600000023842","images/orange4.png","","","learning","images/fruit_choice3.png","images/fruit_choice2.png","images/fruit_choice1.png","[2,1,0]","1","1","1","images/fruit_choice3.png","-1","fruit","","orange","2","0"
"html-keyboard-response","102","564071","0.0-9.0-2.0-0.8","1531","2","2","""event"",""trial"",""time""
""fullscreenenter"",""1"",""2715""
","
","
","""event"",""trial"",""time""
""fullscreenenter"",""1"",""2715""
","
","","","","","","null","<div style=""font-size:60px;"">+</div>","null","","fixation","","","","","","","","","","","","","",""
"learning-trial","103","568075","0.0-9.0-2.0-1.8","1531","2","2","""event"",""trial"",""time""
""fullscreenenter"",""1"",""2715""
","
","
","""event"",""trial"",""time""
""fullscreenenter"",""1"",""2715""
","
","","","","","","2271.600000023842","images/orange4.png","","","learning","images/fruit_choice2.png","images/fruit_choice1.png","images/fruit_choice3.png","[1,0,2]","1","0","2","images/fruit_choice1.png","-1","fruit","","orange","2","0"
"html-keyboard-response","104","568577","0.0-9.0-2.0-0.9","1531","2","2","""event"",""trial"",""time""
""fullscreenenter"",""1"",""2715""
","
","
","""event"",""trial"",""time""
""fullscreenenter"",""1"",""2715""
","
","","","","","","null","<div style=""font-size:60px;"">+</div>","null","","fixation","","","","","","","","","","","","","",""
"learning-trial","105","572580","0.0-9.0-2.0-1.9","1531","2","2","""event"",""trial"",""time""
""fullscreenenter"",""1"",""2715""
","
","
","""event"",""trial"",""time""
""fullscreenenter"",""1"",""2715""
","
","","","","","","2377.6999999284744","images/banana5.png","","","learning","images/fruit_choice3.png","images/fruit_choice2.png","images/fruit_choice1.png","[2,1,0]","0","2","3","images/fruit_choice1.png","1","fruit","","banana","2","0"
"html-keyboard-response","106","573082","0.0-9.0-2.0-0.10","1531","2","2","""event"",""trial"",""time""
""fullscreenenter"",""1"",""2715""
","
","
","""event"",""trial"",""time""
""fullscreenenter"",""1"",""2715""
","
","","","","","","null","<div style=""font-size:60px;"">+</div>","null","","fixation","","","","","","","","","","","","","",""
"learning-trial","107","577085","0.0-9.0-2.0-1.10","1531","2","2","""event"",""trial"",""time""
""fullscreenenter"",""1"",""2715""
","
","
","""event"",""trial"",""time""
""fullscreenenter"",""1"",""2715""
","
","","","","","","1328.5","images/banana4.png","","","learning","images/fruit_choice2.png","images/fruit_choice3.png","images/fruit_choice1.png","[1,2,0]","1","0","3","images/fruit_choice1.png","-1","fruit","","banana","2","0"
"html-keyboard-response","108","577587","0.0-9.0-2.0-0.11","1531","2","2","""event"",""trial"",""time""
""fullscreenenter"",""1"",""2715""
","
","
","""event"",""trial"",""time""
""fullscreenenter"",""1"",""2715""
","
","","","","","","null","<div style=""font-size:60px;"">+</div>","null","","fixation","","","","","","","","","","","","","",""
"learning-trial","109","581589","0.0-9.0-2.0-1.11","1531","2","2","""event"",""trial"",""time""
""fullscreenenter"",""1"",""2715""
","
","
","""event"",""trial"",""time""
""fullscreenenter"",""1"",""2715""
","
","","","","","","1434.8000000715256","images/banana1.png","","","learning","images/fruit_choice1.png","images/fruit_choice2.png","images/fruit_choice3.png","[0,1,2]","2","2","1","images/fruit_choice1.png","1","fruit","","banana","2","0"
"html-keyboard-response","110","582091","0.0-9.0-2.0-0.12","1531","2","2","""event"",""trial"",""time""
""fullscreenenter"",""1"",""2715""
","
","
","""event"",""trial"",""time""
""fullscreenenter"",""1"",""2715""
","
","","","","","","null","<div style=""font-size:60px;"">+</div>","null","","fixation","","","","","","","","","","","","","",""
"learning-trial","111","586095","0.0-9.0-2.0-1.12","1531","2","2","""event"",""trial"",""time""
""fullscreenenter"",""1"",""2715""
","
","
","""event"",""trial"",""time""
""fullscreenenter"",""1"",""2715""
","
","","","","","","1169","images/orange4.png","","","learning","images/fruit_choice1.png","images/fruit_choice2.png","images/fruit_choice3.png","[0,1,2]","1","1","2","images/fruit_choice2.png","1","fruit","","orange","2","0"
"html-keyboard-response","112","586597","0.0-9.0-2.0-0.13","1531","2","2","""event"",""trial"",""time""
""fullscreenenter"",""1"",""2715""
","
","
","""event"",""trial"",""time""
""fullscreenenter"",""1"",""2715""
","
","","","","","","null","<div style=""font-size:60px;"">+</div>","null","","fixation","","","","","","","","","","","","","",""
"learning-trial","113","590600","0.0-9.0-2.0-1.13","1531","2","2","""event"",""trial"",""time""
""fullscreenenter"",""1"",""2715""
","
","
","""event"",""trial"",""time""
""fullscreenenter"",""1"",""2715""
","
","","","","","","3093.2999999523163","images/banana5.png","","","learning","images/fruit_choice3.png","images/fruit_choice1.png","images/fruit_choice2.png","[2,0,1]","0","1","3","images/fruit_choice2.png","-1","fruit","","banana","2","0"
"html-keyboard-response","114","591101","0.0-9.0-2.0-0.14","1531","2","2","""event"",""trial"",""time""
""fullscreenenter"",""1"",""2715""
","
","
","""event"",""trial"",""time""
""fullscreenenter"",""1"",""2715""
","
","","","","","","null","<div style=""font-size:60px;"">+</div>","null","","fixation","","","","","","","","","","","","","",""
"learning-trial","115","595104","0.0-9.0-2.0-1.14","1531","2","2","""event"",""trial"",""time""
""fullscreenenter"",""1"",""2715""
","
","
","""event"",""trial"",""time""
""fullscreenenter"",""1"",""2715""
","
","","","","","","2681.8000000715256","images/apple5.png","","","learning","images/fruit_choice1.png","images/fruit_choice3.png","images/fruit_choice2.png","[0,2,1]","1","2","2","images/fruit_choice3.png","1","fruit","","apple","2","0"
"html-keyboard-response","116","595605","0.0-9.0-2.0-0.15","1531","2","2","""event"",""trial"",""time""
""fullscreenenter"",""1"",""2715""
","
","
","""event"",""trial"",""time""
""fullscreenenter"",""1"",""2715""
","
","","","","","","null","<div style=""font-size:60px;"">+</div>","null","","fixation","","","","","","","","","","","","","",""
"learning-trial","117","599608","0.0-9.0-2.0-1.15","1531","2","2","""event"",""trial"",""time""
""fullscreenenter"",""1"",""2715""
","
","
","""event"",""trial"",""time""
""fullscreenenter"",""1"",""2715""
","
","","","","","","1738.7999999523163","images/apple1.png","","","learning","images/fruit_choice2.png","images/fruit_choice3.png","images/fruit_choice1.png","[1,2,0]","2","1","2","images/fruit_choice3.png","1","fruit","","apple","2","0"
"html-keyboard-response","118","600111","0.0-9.0-2.0-0.16","1531","2","2","""event"",""trial"",""time""
""fullscreenenter"",""1"",""2715""
","
","
","""event"",""trial"",""time""
""fullscreenenter"",""1"",""2715""
","
","","","","","","null","<div style=""font-size:60px;"">+</div>","null","","fixation","","","","","","","","","","","","","",""
"learning-trial","119","604115","0.0-9.0-2.0-1.16","1531","2","2","""event"",""trial"",""time""
""fullscreenenter"",""1"",""2715""
","
","
","""event"",""trial"",""time""
""fullscreenenter"",""1"",""2715""
","
","","","","","","1939.2000000476837","images/orange3.png","","","learning","images/fruit_choice1.png","images/fruit_choice2.png","images/fruit_choice3.png","[0,1,2]","2","2","1","images/fruit_choice1.png","-1","fruit","","orange","2","0"
"html-keyboard-response","120","604616","0.0-9.0-2.0-0.17","1531","2","2","""event"",""trial"",""time""
""fullscreenenter"",""1"",""2715""
","
","
","""event"",""trial"",""time""
""fullscreenenter"",""1"",""2715""
","
","","","","","","null","<div style=""font-size:60px;"">+</div>","null","","fixation","","","","","","","","","","","","","",""
"learning-trial","121","608619","0.0-9.0-2.0-1.17","1531","2","2","""event"",""trial"",""time""
""fullscreenenter"",""1"",""2715""
","
","
","""event"",""trial"",""time""
""fullscreenenter"",""1"",""2715""
","
","","","","","","1947.2999999523163","images/orange1.png","","","learning","images/fruit_choice1.png","images/fruit_choice3.png","images/fruit_choice2.png","[0,2,1]","0","0","3","images/fruit_choice2.png","-1","fruit","","orange","2","0"
"html-keyboard-response","122","609121","0.0-9.0-2.0-0.18","1531","2","2","""event"",""trial"",""time""
""fullscreenenter"",""1"",""2715""
","
","
","""event"",""trial"",""time""
""fullscreenenter"",""1"",""2715""
","
","","","","","","null","<div style=""font-size:60px;"">+</div>","null","","fixation","","","","","","","","","","","","","",""
"learning-trial","123","613125","0.0-9.0-2.0-1.18","1531","2","2","""event"",""trial"",""time""
""fullscreenenter"",""1"",""2715""
","
","
","""event"",""trial"",""time""
""fullscreenenter"",""1"",""2715""
","
","","","","","","905.2999999523163","images/orange4.png","","","learning","images/fruit_choice1.png","images/fruit_choice3.png","images/fruit_choice2.png","[0,2,1]","1","2","1","images/fruit_choice1.png","-1","fruit","","orange","2","0"
"html-keyboard-response","124","613627","0.0-9.0-2.0-0.19","1531","2","2","""event"",""trial"",""time""
""fullscreenenter"",""1"",""2715""
","
","
","""event"",""trial"",""time""
""fullscreenenter"",""1"",""2715""
","
","","","","","","null","<div style=""font-size:60px;"">+</div>","null","","fixation","","","","","","","","","","","","","",""
"learning-trial","125","617631","0.0-9.0-2.0-1.19","1531","2","2","""event"",""trial"",""time""
""fullscreenenter"",""1"",""2715""
","
","
","""event"",""trial"",""time""
""fullscreenenter"",""1"",""2715""
","
","","","","","","2138.6999999284744","images/banana5.png","","","learning","images/fruit_choice2.png","images/fruit_choice3.png","images/fruit_choice1.png","[1,2,0]","0","2","2","images/fruit_choice3.png","-1","fruit","","banana","2","0"
"html-keyboard-response","126","618133","0.0-9.0-2.0-0.20","1531","2","2","""event"",""trial"",""time""
""fullscreenenter"",""1"",""2715""
","
","
","""event"",""trial"",""time""
""fullscreenenter"",""1"",""2715""
","
","","","","","","null","<div style=""font-size:60px;"">+</div>","null","","fixation","","","","","","","","","","","","","",""
"learning-trial","127","622136","0.0-9.0-2.0-1.20","1531","2","2","""event"",""trial"",""time""
""fullscreenenter"",""1"",""2715""
","
","
","""event"",""trial"",""time""
""fullscreenenter"",""1"",""2715""
","
","","","","","","989.1000000238419","images/apple5.png","","","learning","images/fruit_choice2.png","images/fruit_choice3.png","images/fruit_choice1.png","[1,2,0]","1","0","1","images/fruit_choice2.png","1","fruit","","apple","2","0"
"html-keyboard-response","128","622637","0.0-9.0-2.0-0.21","1531","2","2","""event"",""trial"",""time""
""fullscreenenter"",""1"",""2715""
","
","
","""event"",""trial"",""time""
""fullscreenenter"",""1"",""2715""
","
","","","","","","null","<div style=""font-size:60px;"">+</div>","null","","fixation","","","","","","","","","","","","","",""
"learning-trial","129","626642","0.0-9.0-2.0-1.21","1531","2","2","""event"",""trial"",""time""
""fullscreenenter"",""1"",""2715""
","
","
","""event"",""trial"",""time""
""fullscreenenter"",""1"",""2715""
","
","","","","","","1829.6999999284744","images/orange1.png","","","learning","images/fruit_choice3.png","images/fruit_choice1.png","images/fruit_choice2.png","[2,0,1]","0","1","3","images/fruit_choice2.png","-1","fruit","","orange","2","0"
"html-keyboard-response","130","627149","0.0-9.0-2.0-0.22","1531","2","2","""event"",""trial"",""time""
""fullscreenenter"",""1"",""2715""
","
","
","""event"",""trial"",""time""
""fullscreenenter"",""1"",""2715""
","
","","","","","","null","<div style=""font-size:60px;"">+</div>","null","","fixation","","","","","","","","","","","","","",""
"learning-trial","131","631169","0.0-9.0-2.0-1.22","1531","2","2","""event"",""trial"",""time""
""fullscreenenter"",""1"",""2715""
","
","
","""event"",""trial"",""time""
""fullscreenenter"",""1"",""2715""
","
","","","","","","2652.3000000715256","images/apple1.png","","","learning","images/fruit_choice2.png","images/fruit_choice3.png","images/fruit_choice1.png","[1,2,0]","2","1","1","images/fruit_choice2.png","-1","fruit","","apple","2","0"
"html-keyboard-response","132","631673","0.0-9.0-2.0-0.23","1531","2","2","""event"",""trial"",""time""
""fullscreenenter"",""1"",""2715""
","
","
","""event"",""trial"",""time""
""fullscreenenter"",""1"",""2715""
","
","","","","","","null","<div style=""font-size:60px;"">+</div>","null","","fixation","","","","","","","","","","","","","",""
"learning-trial","133","635688","0.0-9.0-2.0-1.23","1531","2","2","""event"",""trial"",""time""
""fullscreenenter"",""1"",""2715""
","
","
","""event"",""trial"",""time""
""fullscreenenter"",""1"",""2715""
","
","","","","","","1688.1999999284744","images/banana4.png","","","learning","images/fruit_choice2.png","images/fruit_choice1.png","images/fruit_choice3.png","[1,0,2]","1","0","2","images/fruit_choice1.png","-1","fruit","","banana","2","0"
"html-keyboard-response","134","636189","0.0-9.0-2.0-0.24","1531","2","2","""event"",""trial"",""time""
""fullscreenenter"",""1"",""2715""
","
","
","""event"",""trial"",""time""
""fullscreenenter"",""1"",""2715""
","
","","","","","","null","<div style=""font-size:60px;"">+</div>","null","","fixation","","","","","","","","","","","","","",""
"learning-trial","135","640193","0.0-9.0-2.0-1.24","1531","2","2","""event"",""trial"",""time""
""fullscreenenter"",""1"",""2715""
","
","
","""event"",""trial"",""time""
""fullscreenenter"",""1"",""2715""
","
","","","","","","1535.8000000715256","images/orange1.png","","","learning","images/fruit_choice3.png","images/fruit_choice1.png","images/fruit_choice2.png","[2,0,1]","0","1","3","images/fruit_choice2.png","-1","fruit","","orange","2","0"
"html-keyboard-response","136","640695","0.0-9.0-2.0-0.25","1531","2","2","""event"",""trial"",""time""
""fullscreenenter"",""1"",""2715""
","
","
","""event"",""trial"",""time""
""fullscreenenter"",""1"",""2715""
","
","","","","","","null","<div style=""font-size:60px;"">+</div>","null","","fixation","","","","","","","","","","","","","",""
"learning-trial","137","644698","0.0-9.0-2.0-1.25","1531","2","2","""event"",""trial"",""time""
""fullscreenenter"",""1"",""2715""
","
","
","""event"",""trial"",""time""
""fullscreenenter"",""1"",""2715""
","
","","","","","","567.5","images/orange4.png","","","learning","images/fruit_choice3.png","images/fruit_choice1.png","images/fruit_choice2.png","[2,0,1]","1","2","3","images/fruit_choice2.png","1","fruit","","orange","2","0"
"html-keyboard-response","138","645200","0.0-9.0-2.0-0.26","1531","2","2","""event"",""trial"",""time""
""fullscreenenter"",""1"",""2715""
","
","
","""event"",""trial"",""time""
""fullscreenenter"",""1"",""2715""
","
","","","","","","null","<div style=""font-size:60px;"">+</div>","null","","fixation","","","","","","","","","","","","","",""
"learning-trial","139","649204","0.0-9.0-2.0-1.26","1531","2","2","""event"",""trial"",""time""
""fullscreenenter"",""1"",""2715""
","
","
","""event"",""trial"",""time""
""fullscreenenter"",""1"",""2715""
","
","","","","","","2614.2000000476837","images/apple5.png","","","learning","images/fruit_choice2.png","images/fruit_choice1.png","images/fruit_choice3.png","[1,0,2]","1","0","2","images/fruit_choice1.png","1","fruit","","apple","2","0"
"html-keyboard-response","140","649706","0.0-9.0-2.0-0.27","1531","2","2","""event"",""trial"",""time""
""fullscreenenter"",""1"",""2715""
","
","
","""event"",""trial"",""time""
""fullscreenenter"",""1"",""2715""
","
","","","","","","null","<div style=""font-size:60px;"">+</div>","null","","fixation","","","","","","","","","","","","","",""
"learning-trial","141","653709","0.0-9.0-2.0-1.27","1531","2","2","""event"",""trial"",""time""
""fullscreenenter"",""1"",""2715""
","
","
","""event"",""trial"",""time""
""fullscreenenter"",""1"",""2715""
","
","","","","","","1596","images/orange4.png","","","learning","images/fruit_choice1.png","images/fruit_choice3.png","images/fruit_choice2.png","[0,2,1]","1","2","3","images/fruit_choice2.png","1","fruit","","orange","2","0"
"html-keyboard-response","142","654211","0.0-9.0-2.0-0.28","1531","2","2","""event"",""trial"",""time""
""fullscreenenter"",""1"",""2715""
","
","
","""event"",""trial"",""time""
""fullscreenenter"",""1"",""2715""
","
","","","","","","null","<div style=""font-size:60px;"">+</div>","null","","fixation","","","","","","","","","","","","","",""
"learning-trial","143","658215","0.0-9.0-2.0-1.28","1531","2","2","""event"",""trial"",""time""
""fullscreenenter"",""1"",""2715""
","
","
","""event"",""trial"",""time""
""fullscreenenter"",""1"",""2715""
","
","","","","","","3198","images/banana1.png","","","learning","images/fruit_choice1.png","images/fruit_choice2.png","images/fruit_choice3.png","[0,1,2]","2","2","1","images/fruit_choice1.png","-1","fruit","","banana","2","0"
"html-keyboard-response","144","658716","0.0-9.0-2.0-0.29","1531","2","2","""event"",""trial"",""time""
""fullscreenenter"",""1"",""2715""
","
","
","""event"",""trial"",""time""
""fullscreenenter"",""1"",""2715""
","
","","","","","","null","<div style=""font-size:60px;"">+</div>","null","","fixation","","","","","","","","","","","","","",""
"learning-trial","145","662720","0.0-9.0-2.0-1.29","1531","2","2","""event"",""trial"",""time""
""fullscreenenter"",""1"",""2715""
","
","
","""event"",""trial"",""time""
""fullscreenenter"",""1"",""2715""
","
","","","","","","2799.600000023842","images/banana5.png","","","learning","images/fruit_choice1.png","images/fruit_choice2.png","images/fruit_choice3.png","[0,1,2]","0","0","3","images/fruit_choice3.png","-1","fruit","","banana","2","0"
"html-keyboard-response","146","663221","0.0-9.0-2.0-0.30","1531","2","2","""event"",""trial"",""time""
""fullscreenenter"",""1"",""2715""
","
","
","""event"",""trial"",""time""
""fullscreenenter"",""1"",""2715""
","
","","","","","","null","<div style=""font-size:60px;"">+</div>","null","","fixation","","","","","","","","","","","","","",""
"learning-trial","147","667225","0.0-9.0-2.0-1.30","1531","2","2","""event"",""trial"",""time""
""fullscreenenter"",""1"",""2715""
","
","
","""event"",""trial"",""time""
""fullscreenenter"",""1"",""2715""
","
","","","","","","1801.5","images/apple1.png","","","learning","images/fruit_choice3.png","images/fruit_choice1.png","images/fruit_choice2.png","[2,0,1]","2","0","2","images/fruit_choice1.png","-1","fruit","","apple","2","0"
"html-keyboard-response","148","667726","0.0-9.0-2.0-0.31","1531","2","2","""event"",""trial"",""time""
""fullscreenenter"",""1"",""2715""
","
","
","""event"",""trial"",""time""
""fullscreenenter"",""1"",""2715""
","
","","","","","","null","<div style=""font-size:60px;"">+</div>","null","","fixation","","","","","","","","","","","","","",""
"learning-trial","149","671729","0.0-9.0-2.0-1.31","1531","2","2","""event"",""trial"",""time""
""fullscreenenter"",""1"",""2715""
","
","
","""event"",""trial"",""time""
""fullscreenenter"",""1"",""2715""
","
","","","","","","1919.3999999761581","images/banana5.png","","","learning","images/fruit_choice3.png","images/fruit_choice1.png","images/fruit_choice2.png","[2,0,1]","0","1","1","images/fruit_choice3.png","1","fruit","","banana","2","0"
"html-keyboard-response","150","672231","0.0-9.0-2.0-0.32","1531","2","2","""event"",""trial"",""time""
""fullscreenenter"",""1"",""2715""
","
","
","""event"",""trial"",""time""
""fullscreenenter"",""1"",""2715""
","
","","","","","","null","<div style=""font-size:60px;"">+</div>","null","","fixation","","","","","","","","","","","","","",""
"learning-trial","151","676235","0.0-9.0-2.0-1.32","1531","2","2","""event"",""trial"",""time""
""fullscreenenter"",""1"",""2715""
","
","
","""event"",""trial"",""time""
""fullscreenenter"",""1"",""2715""
","
","","","","","","1692.8999999761581","images/orange1.png","","","learning","images/fruit_choice1.png","images/fruit_choice3.png","images/fruit_choice2.png","[0,2,1]","0","0","3","images/fruit_choice2.png","-1","fruit","","orange","2","0"
"html-keyboard-response","152","676737","0.0-9.0-2.0-0.33","1531","2","2","""event"",""trial"",""time""
""fullscreenenter"",""1"",""2715""
","
","
","""event"",""trial"",""time""
""fullscreenenter"",""1"",""2715""
","
","","","","","","null","<div style=""font-size:60px;"">+</div>","null","","fixation","","","","","","","","","","","","","",""
"learning-trial","153","680744","0.0-9.0-2.0-1.33","1531","2","2","""event"",""trial"",""time""
""fullscreenenter"",""1"",""2715""
","
","
","""event"",""trial"",""time""
""fullscreenenter"",""1"",""2715""
","
","","","","","","1420.5","images/orange3.png","","","learning","images/fruit_choice1.png","images/fruit_choice3.png","images/fruit_choice2.png","[0,2,1]","2","1","3","images/fruit_choice2.png","-1","fruit","","orange","2","0"
"html-keyboard-response","154","681251","0.0-9.0-2.0-0.34","1531","2","2","""event"",""trial"",""time""
""fullscreenenter"",""1"",""2715""
","
","
","""event"",""trial"",""time""
""fullscreenenter"",""1"",""2715""
","
","","","","","","null","<div style=""font-size:60px;"">+</div>","null","","fixation","","","","","","","","","","","","","",""
"learning-trial","155","685274","0.0-9.0-2.0-1.34","1531","2","2","""event"",""trial"",""time""
""fullscreenenter"",""1"",""2715""
","
","
","""event"",""trial"",""time""
""fullscreenenter"",""1"",""2715""
","
","","","","","","1643.3999999761581","images/apple1.png","","","learning","images/fruit_choice3.png","images/fruit_choice2.png","images/fruit_choice1.png","[2,1,0]","2","0","3","images/fruit_choice1.png","1","fruit","","apple","2","0"
"html-keyboard-response","156","685779","0.0-9.0-2.0-0.35","1531","2","2","""event"",""trial"",""time""
""fullscreenenter"",""1"",""2715""
","
","
","""event"",""trial"",""time""
""fullscreenenter"",""1"",""2715""
","
","","","","","","null","<div style=""font-size:60px;"">+</div>","null","","fixation","","","","","","","","","","","","","",""
"learning-trial","157","689795","0.0-9.0-2.0-1.35","1531","2","2","""event"",""trial"",""time""
""fullscreenenter"",""1"",""2715""
","
","
","""event"",""trial"",""time""
""fullscreenenter"",""1"",""2715""
","
","","","","","","2966.5","images/banana4.png","","","learning","images/fruit_choice1.png","images/fruit_choice3.png","images/fruit_choice2.png","[0,2,1]","1","2","2","images/fruit_choice3.png","-1","fruit","","banana","2","0"
"html-keyboard-response","158","690296","0.0-9.0-2.0-0.36","1531","2","2","""event"",""trial"",""time""
""fullscreenenter"",""1"",""2715""
","
","
","""event"",""trial"",""time""
""fullscreenenter"",""1"",""2715""
","
","","","","","","null","<div style=""font-size:60px;"">+</div>","null","","fixation","","","","","","","","","","","","","",""
"learning-trial","159","694300","0.0-9.0-2.0-1.36","1531","2","2","""event"",""trial"",""time""
""fullscreenenter"",""1"",""2715""
","
","
","""event"",""trial"",""time""
""fullscreenenter"",""1"",""2715""
","
","","","","","","1908.3000000715256","images/apple3.png","","","learning","images/fruit_choice3.png","images/fruit_choice1.png","images/fruit_choice2.png","[2,0,1]","0","1","2","images/fruit_choice1.png","1","fruit","","apple","2","0"
"html-keyboard-response","160","694801","0.0-9.0-2.0-0.37","1531","2","2","""event"",""trial"",""time""
""fullscreenenter"",""1"",""2715""
","
","
","""event"",""trial"",""time""
""fullscreenenter"",""1"",""2715""
","
","","","","","","null","<div style=""font-size:60px;"">+</div>","null","","fixation","","","","","","","","","","","","","",""
"learning-trial","161","698806","0.0-9.0-2.0-1.37","1531","2","2","""event"",""trial"",""time""
""fullscreenenter"",""1"",""2715""
","
","
","""event"",""trial"",""time""
""fullscreenenter"",""1"",""2715""
","
","","","","","","1140.2000000476837","images/orange3.png","","","learning","images/fruit_choice1.png","images/fruit_choice2.png","images/fruit_choice3.png","[0,1,2]","2","2","2","images/fruit_choice2.png","-1","fruit","","orange","2","0"
"html-keyboard-response","162","699308","0.0-9.0-2.0-0.38","1531","2","2","""event"",""trial"",""time""
""fullscreenenter"",""1"",""2715""
","
","
","""event"",""trial"",""time""
""fullscreenenter"",""1"",""2715""
","
","","","","","","null","<div style=""font-size:60px;"">+</div>","null","","fixation","","","","","","","","","","","","","",""
"learning-trial","163","703311","0.0-9.0-2.0-1.38","1531","2","2","""event"",""trial"",""time""
""fullscreenenter"",""1"",""2715""
","
","
","""event"",""trial"",""time""
""fullscreenenter"",""1"",""2715""
","
","","","","","","1533","images/orange1.png","","","learning","images/fruit_choice3.png","images/fruit_choice1.png","images/fruit_choice2.png","[2,0,1]","0","1","3","images/fruit_choice2.png","1","fruit","","orange","2","0"
"html-keyboard-response","164","703813","0.0-9.0-2.0-0.39","1531","2","2","""event"",""trial"",""time""
""fullscreenenter"",""1"",""2715""
","
","
","""event"",""trial"",""time""
""fullscreenenter"",""1"",""2715""
","
","","","","","","null","<div style=""font-size:60px;"">+</div>","null","","fixation","","","","","","","","","","","","","",""
"learning-trial","165","707817","0.0-9.0-2.0-1.39","1531","2","2","""event"",""trial"",""time""
""fullscreenenter"",""1"",""2715""
","
","
","""event"",""trial"",""time""
""fullscreenenter"",""1"",""2715""
","
","","","","","","3919.2000000476837","images/banana1.png","","","learning","images/fruit_choice2.png","images/fruit_choice1.png","images/fruit_choice3.png","[1,0,2]","2","2","3","images/fruit_choice3.png","1","fruit","","banana","2","0"
"html-keyboard-response","166","708318","0.0-9.0-2.0-0.40","1531","2","2","""event"",""trial"",""time""
""fullscreenenter"",""1"",""2715""
","
","
","""event"",""trial"",""time""
""fullscreenenter"",""1"",""2715""
","
","","","","","","null","<div style=""font-size:60px;"">+</div>","null","","fixation","","","","","","","","","","","","","",""
"learning-trial","167","712325","0.0-9.0-2.0-1.40","1531","2","2","""event"",""trial"",""time""
""fullscreenenter"",""1"",""2715""
","
","
","""event"",""trial"",""time""
""fullscreenenter"",""1"",""2715""
","
","","","","","","3007.100000023842","images/apple1.png","","","learning","images/fruit_choice3.png","images/fruit_choice1.png","images/fruit_choice2.png","[2,0,1]","2","0","3","images/fruit_choice2.png","-1","fruit","","apple","2","0"
"html-keyboard-response","168","712827","0.0-9.0-2.0-0.41","1531","2","2","""event"",""trial"",""time""
""fullscreenenter"",""1"",""2715""
","
","
","""event"",""trial"",""time""
""fullscreenenter"",""1"",""2715""
","
","","","","","","null","<div style=""font-size:60px;"">+</div>","null","","fixation","","","","","","","","","","","","","",""
"learning-trial","169","716830","0.0-9.0-2.0-1.41","1531","2","2","""event"",""trial"",""time""
""fullscreenenter"",""1"",""2715""
","
","
","""event"",""trial"",""time""
""fullscreenenter"",""1"",""2715""
","
","","","","","","1134.3000000715256","images/apple3.png","","","learning","images/fruit_choice1.png","images/fruit_choice3.png","images/fruit_choice2.png","[0,2,1]","0","0","1","images/fruit_choice1.png","1","fruit","","apple","2","0"
"html-keyboard-response","170","717332","0.0-9.0-2.0-0.42","1531","2","2","""event"",""trial"",""time""
""fullscreenenter"",""1"",""2715""
","
","
","""event"",""trial"",""time""
""fullscreenenter"",""1"",""2715""
","
","","","","","","null","<div style=""font-size:60px;"">+</div>","null","","fixation","","","","","","","","","","","","","",""
"learning-trial","171","721336","0.0-9.0-2.0-1.42","1531","2","2","""event"",""trial"",""time""
""fullscreenenter"",""1"",""2715""
","
","
","""event"",""trial"",""time""
""fullscreenenter"",""1"",""2715""
","
","","","","","","2709","images/banana5.png","","","learning","images/fruit_choice3.png","images/fruit_choice1.png","images/fruit_choice2.png","[2,0,1]","0","1","1","images/fruit_choice3.png","-1","fruit","","banana","2","0"
"html-keyboard-response","172","721837","0.0-9.0-2.0-0.43","1531","2","2","""event"",""trial"",""time""
""fullscreenenter"",""1"",""2715""
","
","
","""event"",""trial"",""time""
""fullscreenenter"",""1"",""2715""
","
","","","","","","null","<div style=""font-size:60px;"">+</div>","null","","fixation","","","","","","","","","","","","","",""
"learning-trial","173","725846","0.0-9.0-2.0-1.43","1531","2","2","""event"",""trial"",""time""
""fullscreenenter"",""1"",""2715""
","
","
","""event"",""trial"",""time""
""fullscreenenter"",""1"",""2715""
","
","","","","","","1235.5","images/banana4.png","","","learning","images/fruit_choice3.png","images/fruit_choice2.png","images/fruit_choice1.png","[2,1,0]","1","1","3","images/fruit_choice1.png","1","fruit","","banana","2","0"
"html-keyboard-response","174","726348","0.0-9.0-2.0-0.44","1531","2","2","""event"",""trial"",""time""
""fullscreenenter"",""1"",""2715""
","
","
","""event"",""trial"",""time""
""fullscreenenter"",""1"",""2715""
","
","","","","","","null","<div style=""font-size:60px;"">+</div>","null","","fixation","","","","","","","","","","","","","",""
"learning-trial","175","730351","0.0-9.0-2.0-1.44","1531","2","2","""event"",""trial"",""time""
""fullscreenenter"",""1"",""2715""
","
","
","""event"",""trial"",""time""
""fullscreenenter"",""1"",""2715""
","
","","","","","","1210.6999999284744","images/orange3.png","","","learning","images/fruit_choice1.png","images/fruit_choice2.png","images/fruit_choice3.png","[0,1,2]","2","2","2","images/fruit_choice2.png","-1","fruit","","orange","2","0"
"html-keyboard-response","176","730853","0.0-9.0-2.0-0.45","1531","2","2","""event"",""trial"",""time""
""fullscreenenter"",""1"",""2715""
","
","
","""event"",""trial"",""time""
""fullscreenenter"",""1"",""2715""
","
","","","","","","null","<div style=""font-size:60px;"">+</div>","null","","fixation","","","","","","","","","","","","","",""
"learning-trial","177","734856","0.0-9.0-2.0-1.45","1531","2","2","""event"",""trial"",""time""
""fullscreenenter"",""1"",""2715""
","
","
","""event"",""trial"",""time""
""fullscreenenter"",""1"",""2715""
","
","","","","","","1409","images/orange3.png","","","learning","images/fruit_choice3.png","images/fruit_choice1.png","images/fruit_choice2.png","[2,0,1]","2","0","3","images/fruit_choice2.png","-1","fruit","","orange","2","0"
"html-keyboard-response","178","735357","0.0-9.0-2.0-0.46","1531","2","2","""event"",""trial"",""time""
""fullscreenenter"",""1"",""2715""
","
","
","""event"",""trial"",""time""
""fullscreenenter"",""1"",""2715""
","
","","","","","","null","<div style=""font-size:60px;"">+</div>","null","","fixation","","","","","","","","","","","","","",""
"learning-trial","179","739360","0.0-9.0-2.0-1.46","1531","2","2","""event"",""trial"",""time""
""fullscreenenter"",""1"",""2715""
","
","
","""event"",""trial"",""time""
""fullscreenenter"",""1"",""2715""
","
","","","","","","1256.8999999761581","images/apple5.png","","","learning","images/fruit_choice1.png","images/fruit_choice2.png","images/fruit_choice3.png","[0,1,2]","1","1","1","images/fruit_choice1.png","-1","fruit","","apple","2","0"
"html-keyboard-response","180","739861","0.0-9.0-2.0-0.47","1531","2","2","""event"",""trial"",""time""
""fullscreenenter"",""1"",""2715""
","
","
","""event"",""trial"",""time""
""fullscreenenter"",""1"",""2715""
","
","","","","","","null","<div style=""font-size:60px;"">+</div>","null","","fixation","","","","","","","","","","","","","",""
"learning-trial","181","743864","0.0-9.0-2.0-1.47","1531","2","2","""event"",""trial"",""time""
""fullscreenenter"",""1"",""2715""
","
","
","""event"",""trial"",""time""
""fullscreenenter"",""1"",""2715""
","
","","","","","","1104.6000000238419","images/apple3.png","","","learning","images/fruit_choice3.png","images/fruit_choice1.png","images/fruit_choice2.png","[2,0,1]","0","1","2","images/fruit_choice1.png","1","fruit","","apple","2","0"
"html-keyboard-response","182","744366","0.0-9.0-2.0-0.48","1531","2","2","""event"",""trial"",""time""
""fullscreenenter"",""1"",""2715""
","
","
","""event"",""trial"",""time""
""fullscreenenter"",""1"",""2715""
","
","","","","","","null","<div style=""font-size:60px;"">+</div>","null","","fixation","","","","","","","","","","","","","",""
"learning-trial","183","748369","0.0-9.0-2.0-1.48","1531","2","2","""event"",""trial"",""time""
""fullscreenenter"",""1"",""2715""
","
","
","""event"",""trial"",""time""
""fullscreenenter"",""1"",""2715""
","
","","","","","","3699.9000000953674","images/banana1.png","","","learning","images/fruit_choice1.png","images/fruit_choice3.png","images/fruit_choice2.png","[0,2,1]","2","1","2","images/fruit_choice3.png","1","fruit","","banana","2","0"
"html-keyboard-response","184","748871","0.0-9.0-2.0-0.49","1531","2","2","""event"",""trial"",""time""
""fullscreenenter"",""1"",""2715""
","
","
","""event"",""trial"",""time""
""fullscreenenter"",""1"",""2715""
","
","","","","","","null","<div style=""font-size:60px;"">+</div>","null","","fixation","","","","","","","","","","","","","",""
"learning-trial","185","752874","0.0-9.0-2.0-1.49","1531","2","2","""event"",""trial"",""time""
""fullscreenenter"",""1"",""2715""
","
","
","""event"",""trial"",""time""
""fullscreenenter"",""1"",""2715""
","
","","","","","","1741","images/apple1.png","","","learning","images/fruit_choice1.png","images/fruit_choice3.png","images/fruit_choice2.png","[0,2,1]","2","1","1","images/fruit_choice1.png","-1","fruit","","apple","2","0"
"html-keyboard-response","186","753376","0.0-9.0-2.0-0.50","1531","2","2","""event"",""trial"",""time""
""fullscreenenter"",""1"",""2715""
","
","
","""event"",""trial"",""time""
""fullscreenenter"",""1"",""2715""
","
","","","","","","null","<div style=""font-size:60px;"">+</div>","null","","fixation","","","","","","","","","","","","","",""
"learning-trial","187","757380","0.0-9.0-2.0-1.50","1531","2","2","""event"",""trial"",""time""
""fullscreenenter"",""1"",""2715""
","
","
","""event"",""trial"",""time""
""fullscreenenter"",""1"",""2715""
","
","","","","","","1570.7000000476837","images/orange3.png","","","learning","images/fruit_choice1.png","images/fruit_choice2.png","images/fruit_choice3.png","[0,1,2]","2","2","2","images/fruit_choice2.png","-1","fruit","","orange","2","0"
"html-keyboard-response","188","757882","0.0-9.0-2.0-0.51","1531","2","2","""event"",""trial"",""time""
""fullscreenenter"",""1"",""2715""
","
","
","""event"",""trial"",""time""
""fullscreenenter"",""1"",""2715""
","
","","","","","","null","<div style=""font-size:60px;"">+</div>","null","","fixation","","","","","","","","","","","","","",""
"learning-trial","189","761885","0.0-9.0-2.0-1.51","1531","2","2","""event"",""trial"",""time""
""fullscreenenter"",""1"",""2715""
","
","
","""event"",""trial"",""time""
""fullscreenenter"",""1"",""2715""
","
","","","","","","2603.5","images/apple5.png","","","learning","images/fruit_choice1.png","images/fruit_choice2.png","images/fruit_choice3.png","[0,1,2]","1","1","1","images/fruit_choice1.png","-1","fruit","","apple","2","0"
"html-keyboard-response","190","762388","0.0-9.0-2.0-0.52","1531","2","2","""event"",""trial"",""time""
""fullscreenenter"",""1"",""2715""
","
","
","""event"",""trial"",""time""
""fullscreenenter"",""1"",""2715""
","
","","","","","","null","<div style=""font-size:60px;"">+</div>","null","","fixation","","","","","","","","","","","","","",""
"learning-trial","191","766390","0.0-9.0-2.0-1.52","1531","2","2","""event"",""trial"",""time""
""fullscreenenter"",""1"",""2715""
","
","
","""event"",""trial"",""time""
""fullscreenenter"",""1"",""2715""
","
","","","","","","1893.2999999523163","images/orange1.png","","","learning","images/fruit_choice2.png","images/fruit_choice1.png","images/fruit_choice3.png","[1,0,2]","0","1","3","images/fruit_choice3.png","-1","fruit","","orange","2","0"
"html-keyboard-response","192","766891","0.0-9.0-2.0-0.53","1531","2","2","""event"",""trial"",""time""
""fullscreenenter"",""1"",""2715""
","
","
","""event"",""trial"",""time""
""fullscreenenter"",""1"",""2715""
","
","","","","","","null","<div style=""font-size:60px;"">+</div>","null","","fixation","","","","","","","","","","","","","",""
"learning-trial","193","770895","0.0-9.0-2.0-1.53","1531","2","2","""event"",""trial"",""time""
""fullscreenenter"",""1"",""2715""
","
","
","""event"",""trial"",""time""
""fullscreenenter"",""1"",""2715""
","
","","","","","","1263.1000000238419","images/banana4.png","","","learning","images/fruit_choice3.png","images/fruit_choice2.png","images/fruit_choice1.png","[2,1,0]","1","1","2","images/fruit_choice2.png","-1","fruit","","banana","2","0"
"html-keyboard-response","194","771396","0.0-9.0-2.0-0.54","1531","2","2","""event"",""trial"",""time""
""fullscreenenter"",""1"",""2715""
","
","
","""event"",""trial"",""time""
""fullscreenenter"",""1"",""2715""
","
","","","","","","null","<div style=""font-size:60px;"">+</div>","null","","fixation","","","","","","","","","","","","","",""
"learning-trial","195","775399","0.0-9.0-2.0-1.54","1531","2","2","""event"",""trial"",""time""
""fullscreenenter"",""1"",""2715""
","
","
","""event"",""trial"",""time""
""fullscreenenter"",""1"",""2715""
","
","","","","","","290","images/apple3.png","","","learning","images/fruit_choice1.png","images/fruit_choice3.png","images/fruit_choice2.png","[0,2,1]","0","0","1","images/fruit_choice1.png","1","fruit","","apple","2","0"
"html-keyboard-response","196","775901","0.0-9.0-2.0-0.55","1531","2","2","""event"",""trial"",""time""
""fullscreenenter"",""1"",""2715""
","
","
","""event"",""trial"",""time""
""fullscreenenter"",""1"",""2715""
","
","","","","","","null","<div style=""font-size:60px;"">+</div>","null","","fixation","","","","","","","","","","","","","",""
"learning-trial","197","779905","0.0-9.0-2.0-1.55","1531","2","2","""event"",""trial"",""time""
""fullscreenenter"",""1"",""2715""
","
","
","""event"",""trial"",""time""
""fullscreenenter"",""1"",""2715""
","
","","","","","","1146","images/apple1.png","","","learning","images/fruit_choice2.png","images/fruit_choice1.png","images/fruit_choice3.png","[1,0,2]","2","2","2","images/fruit_choice1.png","-1","fruit","","apple","2","0"
"html-keyboard-response","198","780407","0.0-9.0-2.0-0.56","1531","2","2","""event"",""trial"",""time""
""fullscreenenter"",""1"",""2715""
","
","
","""event"",""trial"",""time""
""fullscreenenter"",""1"",""2715""
","
","","","","","","null","<div style=""font-size:60px;"">+</div>","null","","fixation","","","","","","","","","","","","","",""
"learning-trial","199","784411","0.0-9.0-2.0-1.56","1531","2","2","""event"",""trial"",""time""
""fullscreenenter"",""1"",""2715""
","
","
","""event"",""trial"",""time""
""fullscreenenter"",""1"",""2715""
","
","","","","","","1569.3999999761581","images/orange1.png","","","learning","images/fruit_choice2.png","images/fruit_choice1.png","images/fruit_choice3.png","[1,0,2]","0","1","1","images/fruit_choice2.png","1","fruit","","orange","2","0"
"html-keyboard-response","200","784914","0.0-9.0-2.0-0.57","1531","2","2","""event"",""trial"",""time""
""fullscreenenter"",""1"",""2715""
","
","
","""event"",""trial"",""time""
""fullscreenenter"",""1"",""2715""
","
","","","","","","null","<div style=""font-size:60px;"">+</div>","null","","fixation","","","","","","","","","","","","","",""
"learning-trial","201","788917","0.0-9.0-2.0-1.57","1531","2","2","""event"",""trial"",""time""
""fullscreenenter"",""1"",""2715""
","
","
","""event"",""trial"",""time""
""fullscreenenter"",""1"",""2715""
","
","","","","","","1523","images/orange4.png","","","learning","images/fruit_choice3.png","images/fruit_choice1.png","images/fruit_choice2.png","[2,0,1]","1","2","3","images/fruit_choice2.png","1","fruit","","orange","2","0"
"html-keyboard-response","202","789418","0.0-9.0-2.0-0.58","1531","2","2","""event"",""trial"",""time""
""fullscreenenter"",""1"",""2715""
","
","
","""event"",""trial"",""time""
""fullscreenenter"",""1"",""2715""
","
","","","","","","null","<div style=""font-size:60px;"">+</div>","null","","fixation","","","","","","","","","","","","","",""
"learning-trial","203","793422","0.0-9.0-2.0-1.58","1531","2","2","""event"",""trial"",""time""
""fullscreenenter"",""1"",""2715""
","
","
","""event"",""trial"",""time""
""fullscreenenter"",""1"",""2715""
","
","","","","","","1995.2999999523163","images/banana4.png","","","learning","images/fruit_choice1.png","images/fruit_choice3.png","images/fruit_choice2.png","[0,2,1]","1","2","2","images/fruit_choice3.png","-1","fruit","","banana","2","0"
"html-keyboard-response","204","793924","0.0-9.0-2.0-0.59","1531","2","2","""event"",""trial"",""time""
""fullscreenenter"",""1"",""2715""
","
","
","""event"",""trial"",""time""
""fullscreenenter"",""1"",""2715""
","
","","","","","","null","<div style=""font-size:60px;"">+</div>","null","","fixation","","","","","","","","","","","","","",""
"learning-trial","205","797928","0.0-9.0-2.0-1.59","1531","2","2","""event"",""trial"",""time""
""fullscreenenter"",""1"",""2715""
","
","
","""event"",""trial"",""time""
""fullscreenenter"",""1"",""2715""
","
","","","","","","1779.2999999523163","images/apple3.png","","","learning","images/fruit_choice2.png","images/fruit_choice3.png","images/fruit_choice1.png","[1,2,0]","0","2","3","images/fruit_choice1.png","1","fruit","","apple","2","0"
"html-keyboard-response","206","798430","0.0-9.0-2.0-0.60","1531","2","2","""event"",""trial"",""time""
""fullscreenenter"",""1"",""2715""
","
","
","""event"",""trial"",""time""
""fullscreenenter"",""1"",""2715""
","
","","","","","","null","<div style=""font-size:60px;"">+</div>","null","","fixation","","","","","","","","","","","","","",""
"learning-trial","207","802434","0.0-9.0-2.0-1.60","1531","2","2","""event"",""trial"",""time""
""fullscreenenter"",""1"",""2715""
","
","
","""event"",""trial"",""time""
""fullscreenenter"",""1"",""2715""
","
","","","","","","1838.7999999523163","images/banana1.png","","","learning","images/fruit_choice2.png","images/fruit_choice3.png","images/fruit_choice1.png","[1,2,0]","2","1","2","images/fruit_choice3.png","1","fruit","","banana","2","0"
"html-keyboard-response","208","802939","0.0-9.0-2.0-0.61","1531","2","2","""event"",""trial"",""time""
""fullscreenenter"",""1"",""2715""
","
","
","""event"",""trial"",""time""
""fullscreenenter"",""1"",""2715""
","
","","","","","","null","<div style=""font-size:60px;"">+</div>","null","","fixation","","","","","","","","","","","","","",""
"learning-trial","209","806954","0.0-9.0-2.0-1.61","1531","2","2","""event"",""trial"",""time""
""fullscreenenter"",""1"",""2715""
","
","
","""event"",""trial"",""time""
""fullscreenenter"",""1"",""2715""
","
","","","","","","2204.7000000476837","images/orange3.png","","","learning","images/fruit_choice2.png","images/fruit_choice3.png","images/fruit_choice1.png","[1,2,0]","2","1","1","images/fruit_choice2.png","-1","fruit","","orange","2","0"
"html-keyboard-response","210","807455","0.0-9.0-2.0-0.62","1531","2","2","""event"",""trial"",""time""
""fullscreenenter"",""1"",""2715""
","
","
","""event"",""trial"",""time""
""fullscreenenter"",""1"",""2715""
","
","","","","","","null","<div style=""font-size:60px;"">+</div>","null","","fixation","","","","","","","","","","","","","",""
"learning-trial","211","811458","0.0-9.0-2.0-1.62","1531","2","2","""event"",""trial"",""time""
""fullscreenenter"",""1"",""2715""
","
","
","""event"",""trial"",""time""
""fullscreenenter"",""1"",""2715""
","
","","","","","","2273.5999999046326","images/banana4.png","","","learning","images/fruit_choice1.png","images/fruit_choice2.png","images/fruit_choice3.png","[0,1,2]","1","1","3","images/fruit_choice3.png","-1","fruit","","banana","2","0"
"html-keyboard-response","212","811959","0.0-9.0-2.0-0.63","1531","2","2","""event"",""trial"",""time""
""fullscreenenter"",""1"",""2715""
","
","
","""event"",""trial"",""time""
""fullscreenenter"",""1"",""2715""
","
","","","","","","null","<div style=""font-size:60px;"">+</div>","null","","fixation","","","","","","","","","","","","","",""
"learning-trial","213","815963","0.0-9.0-2.0-1.63","1531","2","2","""event"",""trial"",""time""
""fullscreenenter"",""1"",""2715""
","
","
","""event"",""trial"",""time""
""fullscreenenter"",""1"",""2715""
","
","","","","","","1398.5","images/apple3.png","","","learning","images/fruit_choice2.png","images/fruit_choice1.png","images/fruit_choice3.png","[1,0,2]","0","1","2","images/fruit_choice1.png","1","fruit","","apple","2","0"
"html-keyboard-response","214","816465","0.0-9.0-2.0-0.64","1531","2","2","""event"",""trial"",""time""
""fullscreenenter"",""1"",""2715""
","
","
","""event"",""trial"",""time""
""fullscreenenter"",""1"",""2715""
","
","","","","","","null","<div style=""font-size:60px;"">+</div>","null","","fixation","","","","","","","","","","","","","",""
"learning-trial","215","820468","0.0-9.0-2.0-1.64","1531","2","2","""event"",""trial"",""time""
""fullscreenenter"",""1"",""2715""
","
","
","""event"",""trial"",""time""
""fullscreenenter"",""1"",""2715""
","
","","","","","","2195.7999999523163","images/apple3.png","","","learning","images/fruit_choice1.png","images/fruit_choice3.png","images/fruit_choice2.png","[0,2,1]","0","0","1","images/fruit_choice1.png","1","fruit","","apple","2","0"
"html-keyboard-response","216","820969","0.0-9.0-2.0-0.65","1531","2","2","""event"",""trial"",""time""
""fullscreenenter"",""1"",""2715""
","
","
","""event"",""trial"",""time""
""fullscreenenter"",""1"",""2715""
","
","","","","","","null","<div style=""font-size:60px;"">+</div>","null","","fixation","","","","","","","","","","","","","",""
"learning-trial","217","824973","0.0-9.0-2.0-1.65","1531","2","2","""event"",""trial"",""time""
""fullscreenenter"",""1"",""2715""
","
","
","""event"",""trial"",""time""
""fullscreenenter"",""1"",""2715""
","
","","","","","","1086","images/apple3.png","","","learning","images/fruit_choice2.png","images/fruit_choice1.png","images/fruit_choice3.png","[1,0,2]","0","1","2","images/fruit_choice1.png","1","fruit","","apple","2","0"
"html-keyboard-response","218","825475","0.0-9.0-2.0-0.66","1531","2","2","""event"",""trial"",""time""
""fullscreenenter"",""1"",""2715""
","
","
","""event"",""trial"",""time""
""fullscreenenter"",""1"",""2715""
","
","","","","","","null","<div style=""font-size:60px;"">+</div>","null","","fixation","","","","","","","","","","","","","",""
"learning-trial","219","829478","0.0-9.0-2.0-1.66","1531","2","2","""event"",""trial"",""time""
""fullscreenenter"",""1"",""2715""
","
","
","""event"",""trial"",""time""
""fullscreenenter"",""1"",""2715""
","
","","","","","","1013.5","images/banana4.png","","","learning","images/fruit_choice3.png","images/fruit_choice2.png","images/fruit_choice1.png","[2,1,0]","1","1","3","images/fruit_choice1.png","-1","fruit","","banana","2","0"
"html-keyboard-response","220","829979","0.0-9.0-2.0-0.67","1531","2","2","""event"",""trial"",""time""
""fullscreenenter"",""1"",""2715""
","
","
","""event"",""trial"",""time""
""fullscreenenter"",""1"",""2715""
","
","","","","","","null","<div style=""font-size:60px;"">+</div>","null","","fixation","","","","","","","","","","","","","",""
"learning-trial","221","833983","0.0-9.0-2.0-1.67","1531","2","2","""event"",""trial"",""time""
""fullscreenenter"",""1"",""2715""
","
","
","""event"",""trial"",""time""
""fullscreenenter"",""1"",""2715""
","
","","","","","","1158.7000000476837","images/apple5.png","","","learning","images/fruit_choice2.png","images/fruit_choice1.png","images/fruit_choice3.png","[1,0,2]","1","0","2","images/fruit_choice1.png","-1","fruit","","apple","2","0"
"html-keyboard-response","222","834485","0.0-9.0-2.0-0.68","1531","2","2","""event"",""trial"",""time""
""fullscreenenter"",""1"",""2715""
","
","
","""event"",""trial"",""time""
""fullscreenenter"",""1"",""2715""
","
","","","","","","null","<div style=""font-size:60px;"">+</div>","null","","fixation","","","","","","","","","","","","","",""
"learning-trial","223","838489","0.0-9.0-2.0-1.68","1531","2","2","""event"",""trial"",""time""
""fullscreenenter"",""1"",""2715""
","
","
","""event"",""trial"",""time""
""fullscreenenter"",""1"",""2715""
","
","","","","","","1370.3999999761581","images/orange4.png","","","learning","images/fruit_choice2.png","images/fruit_choice3.png","images/fruit_choice1.png","[1,2,0]","1","0","1","images/fruit_choice2.png","1","fruit","","orange","2","0"
"html-keyboard-response","224","838990","0.0-9.0-2.0-0.69","1531","2","2","""event"",""trial"",""time""
""fullscreenenter"",""1"",""2715""
","
","
","""event"",""trial"",""time""
""fullscreenenter"",""1"",""2715""
","
","","","","","","null","<div style=""font-size:60px;"">+</div>","null","","fixation","","","","","","","","","","","","","",""
"learning-trial","225","842994","0.0-9.0-2.0-1.69","1531","2","2","""event"",""trial"",""time""
""fullscreenenter"",""1"",""2715""
","
","
","""event"",""trial"",""time""
""fullscreenenter"",""1"",""2715""
","
","","","","","","1274.7000000476837","images/apple5.png","","","learning","images/fruit_choice1.png","images/fruit_choice3.png","images/fruit_choice2.png","[0,2,1]","1","2","1","images/fruit_choice1.png","-1","fruit","","apple","2","0"
"html-keyboard-response","226","843496","0.0-9.0-2.0-0.70","1531","2","2","""event"",""trial"",""time""
""fullscreenenter"",""1"",""2715""
","
","
","""event"",""trial"",""time""
""fullscreenenter"",""1"",""2715""
","
","","","","","","null","<div style=""font-size:60px;"">+</div>","null","","fixation","","","","","","","","","","","","","",""
"learning-trial","227","847499","0.0-9.0-2.0-1.70","1531","2","2","""event"",""trial"",""time""
""fullscreenenter"",""1"",""2715""
","
","
","""event"",""trial"",""time""
""fullscreenenter"",""1"",""2715""
","
","","","","","","1966","images/banana1.png","","","learning","images/fruit_choice1.png","images/fruit_choice2.png","images/fruit_choice3.png","[0,1,2]","2","2","3","images/fruit_choice3.png","1","fruit","","banana","2","0"
"html-keyboard-response","228","848001","0.0-9.0-2.0-0.71","1531","2","2","""event"",""trial"",""time""
""fullscreenenter"",""1"",""2715""
","
","
","""event"",""trial"",""time""
""fullscreenenter"",""1"",""2715""
","
","","","","","","null","<div style=""font-size:60px;"">+</div>","null","","fixation","","","","","","","","","","","","","",""
"learning-trial","229","852005","0.0-9.0-2.0-1.71","1531","2","2","""event"",""trial"",""time""
""fullscreenenter"",""1"",""2715""
","
","
","""event"",""trial"",""time""
""fullscreenenter"",""1"",""2715""
","
","","","","","","1658.2999999523163","images/orange1.png","","","learning","images/fruit_choice2.png","images/fruit_choice1.png","images/fruit_choice3.png","[1,0,2]","0","1","1","images/fruit_choice2.png","-1","fruit","","orange","2","0"
"html-button-response","230","855757","0.0-9.0-3.0","1531","2","2","""event"",""trial"",""time""
""fullscreenenter"",""1"",""2715""
","
","
","""event"",""trial"",""time""
""fullscreenenter"",""1"",""2715""
","
","","","","","","3750","<p> You have completed the round! <p> In this round, you earned -12 points! </p>","0","","break","","","","","","","","","","","","","",""
"html-button-response","231","856907","0.0-10.0","1531","2","2","""event"",""trial"",""time""
""fullscreenenter"",""1"",""2715""
","
","
","""event"",""trial"",""time""
""fullscreenenter"",""1"",""2715""
","
","","","","","","1149.1000000238419","<p> Now it's time to play another round. </p>","0","","transition_screen","","","","","","","","","","","","","",""
"preload","232","868102","0.0-11.0-0.0","1531","2","2","""event"",""trial"",""time""
""fullscreenenter"",""1"",""2715""
","
","
","""event"",""trial"",""time""
""fullscreenenter"",""1"",""2715""
","
","true","false","[]","[]","[]","","","","","","","","","","","","","","","","","","",""
"learning-instructions","233","878020","0.0-11.0-1.0-0.0","1531","2","2","""event"",""trial"",""time""
""fullscreenenter"",""1"",""2715""
","
","
","""event"",""trial"",""time""
""fullscreenenter"",""1"",""2715""
","
","","","","","","1249.7000000476837","<p> Your goal in this round is to return farm animals to the barns where they live. </p><p>  Different animals wandered away from different barns! </p></div>","","0","instructions","","","","","","","","","","","","","",""
"learning-instructions","234","887941","0.0-11.0-1.0-0.1","1531","2","2","""event"",""trial"",""time""
""fullscreenenter"",""1"",""2715""
","
","
","""event"",""trial"",""time""
""fullscreenenter"",""1"",""2715""
","
","","","","","","1281.2000000476837","<p> On each turn, you will see a picture of a farm animal and three different barns.  </p><p> You need to select the barn where each animal lives.  </p>","","0","instructions","","","","","","","","","","","","","",""
"learning-instructions","235","896150","0.0-11.0-1.0-0.2","1531","2","2","""event"",""trial"",""time""
""fullscreenenter"",""1"",""2715""
","
","
","""event"",""trial"",""time""
""fullscreenenter"",""1"",""2715""
","
","","","","","","1018.8999999761581","<p> You can select the barn on the left by pressing 1, the barn in the middle by pressing 2, and the barn on the right by pressing 3. </p><br><div class=""choice-instructions-grid""> <div class=""choice-option""><img src=""images/animals_choice1.png"" class=""choice-option-img"" stage=""instructions"" position=""0"" ><div class=""choice-option-text""> Press ""1."" </div></div><div class=""choice-option""><img src=""images/animals_choice2.png"" class=""choice-option-img"" stage=""instructions"" position=""1"" ><div class=""choice-option-text""> Press ""2."" </div></div><div class=""choice-option""><img src=""images/animals_choice3.png"" class=""choice-option-img"" stage=""instructions"" position=""2"" ><div class=""choice-option-text""> Press ""3."" </div></div></div>","","0","instructions","","","","","","","","","","","","","",""
"learning-instructions","236","901970","0.0-11.0-1.0-0.3","1531","2","2","""event"",""trial"",""time""
""fullscreenenter"",""1"",""2715""
","
","
","""event"",""trial"",""time""
""fullscreenenter"",""1"",""2715""
","
","","","","","","659.5999999046326","<p> If you return the farm animal to the correct barn, it will usually be happy! </p><div style='float: center;'><img src='images/check.png' width = '200' height = '200'></img>","","0","instructions","","","","","","","","","","","","","",""
"learning-instructions","237","907970","0.0-11.0-1.0-0.4","1531","2","2","""event"",""trial"",""time""
""fullscreenenter"",""1"",""2715""
","
","
","""event"",""trial"",""time""
""fullscreenenter"",""1"",""2715""
","
