"trial_type","trial_index","time_elapsed","internal_node_id","subject_id","condition","task_version","interactions","blur_events","focus_events","fullscreenenter_events","fullscreenexit_events","success","timeout","failed_images","failed_audio","failed_video","rt","stimulus","response","button_pressed","task_part","left_choice","middle_choice","right_choice","choice_positions","correct_response","correct_position","key_press","option_selected","points","task_block","correct","stim_cat","block_condition","block_number"
"pavlovia","0","5","0.0-0.0","1584","1","2","""event"",""trial"",""time""
""fullscreenenter"",""1"",""2997""
","
","
","""event"",""trial"",""time""
""fullscreenenter"",""1"",""2997""
","
","","","","","","","","","","","","","","","","","","","","","","","",""
"fullscreen","1","3979","0.0-1.0","1584","1","2","""event"",""trial"",""time""
""fullscreenenter"",""1"",""2997""
","
","
","""event"",""trial"",""time""
""fullscreenenter"",""1"",""2997""
","
","true","","","","","","","","","","","","","","","","","","","","","","",""
"preload","2","9598","0.0-2.0","1584","1","2","""event"",""trial"",""time""
""fullscreenenter"",""1"",""2997""
","
","
","""event"",""trial"",""time""
""fullscreenenter"",""1"",""2997""
","
","true","false","[]","[]","[]","","","","","","","","","","","","","","","","","","",""
"audio-keyboard-response","3","12406","0.0-3.0","1584","1","2","""event"",""trial"",""time""
""fullscreenenter"",""1"",""2997""
","
","
","""event"",""trial"",""time""
""fullscreenenter"",""1"",""2997""
","
","","","","","","2803.809523809524","audio/beep_loop.wav"," ","","","","","","","","","","","","","","","",""
"audio-button-response","4","14895","0.0-4.0","1584","1","2","""event"",""trial"",""time""
""fullscreenenter"",""1"",""2997""
","
","
","""event"",""trial"",""time""
""fullscreenenter"",""1"",""2997""
","
","","","","","","2485","audio/shark.wav","4","","","","","","","","","","","","","","","",""
"audio-button-response","5","17002","0.0-5.0","1584","1","2","""event"",""trial"",""time""
""fullscreenenter"",""1"",""2997""
","
","
","""event"",""trial"",""time""
""fullscreenenter"",""1"",""2997""
","
","","","","","","1103","audio/turtle.wav","1","","","","","","","","","","","","","","","",""
"preload","6","21097","0.0-6.0","1584","1","2","""event"",""trial"",""time""
""fullscreenenter"",""1"",""2997""
","
","
","""event"",""trial"",""time""
""fullscreenenter"",""1"",""2997""
","
","true","false","[]","[]","[]","","","","","","","","","","","","","","","","","","",""
"html-keyboard-response","7","23384","0.0-7.0","1584","1","2","""event"",""trial"",""time""
""fullscreenenter"",""1"",""2997""
","
","
","""event"",""trial"",""time""
""fullscreenenter"",""1"",""2997""
","
","","","","","","2285.600000023842","Welcome to the experiment. Press any key to begin and to advance the instructions."," ","","","","","","","","","","","","","","","",""
"learning-instructions","8","32934","0.0-8.0-0.0-0.0","1584","1","2","""event"",""trial"",""time""
""fullscreenenter"",""1"",""2997""
","
","
","""event"",""trial"",""time""
""fullscreenenter"",""1"",""2997""
","
","","","","","","1802.0999999940395","<p> Welcome! Today you are going to play 6 different rounds of a decision-making game. </p><p> Use the mouse to click next to continue. </p>","","0","instructions","","","","","","","","","","","","","",""
"learning-instructions","9","36426","0.0-8.0-0.0-0.1","1584","1","2","""event"",""trial"",""time""
""fullscreenenter"",""1"",""2997""
","
","
","""event"",""trial"",""time""
""fullscreenenter"",""1"",""2997""
","
","","","","","","487.30000001192093","<p> You will start with a practice round to learn the rules. </p>","","0","instructions","","","","","","","","","","","","","",""
"learning-instructions","10","46706","0.0-8.0-0.0-0.2","1584","1","2","""event"",""trial"",""time""
""fullscreenenter"",""1"",""2997""
","
","
","""event"",""trial"",""time""
""fullscreenenter"",""1"",""2997""
","
","","","","","","2535.4000000059605","<p> Your goal in this round is to deliver sports equipment to three different parks. </p><p> You will need to deliver many types of equipment. </p></div>","","0","instructions","","","","","","","","","","","","","",""
"learning-instructions","11","55659","0.0-8.0-0.0-0.3","1584","1","2","""event"",""trial"",""time""
""fullscreenenter"",""1"",""2997""
","
","
","""event"",""trial"",""time""
""fullscreenenter"",""1"",""2997""
","
","","","","","","465","<p> On each turn, you will see one piece of sports equipment and three different parks.  </p><p> You need to select which park to deliver the equipment to.  </p>","","0","instructions","","","","","","","","","","","","","",""
"learning-instructions","12","69531","0.0-8.0-0.0-0.4","1584","1","2","""event"",""trial"",""time""
""fullscreenenter"",""1"",""2997""
","
","
","""event"",""trial"",""time""
""fullscreenenter"",""1"",""2997""
","
","","","","","","589.2999999821186","<p> You can select the park on the left by pressing the '1' key on your keyboard. <br>You can select the park in the middle by pressing the '2' key on your keyboard. <br>You can select the park on the right by pressing the '3' key on your keyboard.  </p><br><div class=""choice-instructions-grid""> <div class=""choice-option""><img src=""images/park1.png"" class=""choice-option-img"" stage=""instructions"" position=""0"" ><div class=""choice-option-text""> Press ""1."" </div></div><div class=""choice-option""><img src=""images/park2.png"" class=""choice-option-img"" stage=""instructions"" position=""1"" ><div class=""choice-option-text""> Press ""2."" </div></div><div class=""choice-option""><img src=""images/park3.png"" class=""choice-option-img"" stage=""instructions"" position=""2"" ><div class=""choice-option-text""> Press ""3."" </div></div></div>","","0","instructions","","","","","","","","","","","","","",""
"learning-instructions","13","75909","0.0-8.0-0.0-0.5","1584","1","2","""event"",""trial"",""time""
""fullscreenenter"",""1"",""2997""
","
","
","""event"",""trial"",""time""
""fullscreenenter"",""1"",""2997""
","
","","","","","","999.5999999940395","<p> If the kids in the park you chose like the equipment, they will be very happy! </p><div style='float: center;'><img src='images/check.png' width = '200' height = '200'></img>","","0","instructions","","","","","","","","","","","","","",""
"learning-instructions","14","82785","0.0-8.0-0.0-0.6","1584","1","2","""event"",""trial"",""time""
""fullscreenenter"",""1"",""2997""
","
","
","""event"",""trial"",""time""
""fullscreenenter"",""1"",""2997""
","
","","","","","","1287","<p> But, if the kids in the park you chose do not like the equipment, they will be sad. </p><div style='float: center;'><img src='images/x.png' width = '200' height = '200'></img>","","0","instructions","","","","","","","","","","","","","",""
"learning-instructions","15","90593","0.0-8.0-0.0-0.7","1584","1","2","""event"",""trial"",""time""
""fullscreenenter"",""1"",""2997""
","
","
","""event"",""trial"",""time""
""fullscreenenter"",""1"",""2997""
","
","","","","","","1374.5999999940395","<p> Importantly, the kids in each park like some pieces of sports equipment more than others. </p>","","0","instructions","","","","","","","","","","","","","",""
"learning-instructions","16","97049","0.0-8.0-0.0-0.8","1584","1","2","""event"",""trial"",""time""
""fullscreenenter"",""1"",""2997""
","
","
","""event"",""trial"",""time""
""fullscreenenter"",""1"",""2997""
","
","","","","","","411.90000000596046","<p> If you choose the best park for each piece of equipment, the kids there will usually be happy. </p>","","0","instructions","","","","","","","","","","","","","",""
"learning-instructions","17","104066","0.0-8.0-0.0-0.9","1584","1","2","""event"",""trial"",""time""
""fullscreenenter"",""1"",""2997""
","
","
","""event"",""trial"",""time""
""fullscreenenter"",""1"",""2997""
","
","","","","","","369.30000001192093","<p> However, even if you choose the best park for the equipment, the kids may sometimes be sad. </p>","","0","instructions","","","","","","","","","","","","","",""
"learning-instructions","18","112068","0.0-8.0-0.0-0.10","1584","1","2","""event"",""trial"",""time""
""fullscreenenter"",""1"",""2997""
","
","
","""event"",""trial"",""time""
""fullscreenenter"",""1"",""2997""
","
","","","","","","778.4000000059605","<p> Similarly, even if you choose the <i>wrong</i> park for the equipment, the kids may still be happy sometimes.","","0","instructions","","","","","","","","","","","","","",""
"learning-instructions","19","118036","0.0-8.0-0.0-0.11","1584","1","2","""event"",""trial"",""time""
""fullscreenenter"",""1"",""2997""
","
","
","""event"",""trial"",""time""
""fullscreenenter"",""1"",""2997""
","
","","","","","","912.5999999940395","<p> For example, the best park for this soccer ball is this one.<div style='float: center;'><img src='images/i1.png' width = '500' height = '268'></img>","","0","instructions","","","","","","","","","","","","","",""
"learning-instructions","20","123718","0.0-8.0-0.0-0.12","1584","1","2","""event"",""trial"",""time""
""fullscreenenter"",""1"",""2997""
","
","
","""event"",""trial"",""time""
""fullscreenenter"",""1"",""2997""
","
","","","","","","399.5","<p> Let's see what happens if you choose this park for the soccer ball five times.","","0","instructions","","","","","","","","","","","","","",""
"learning-instructions","21","126625","0.0-8.0-0.0-0.13","1584","1","2","""event"",""trial"",""time""
""fullscreenenter"",""1"",""2997""
","
","
","""event"",""trial"",""time""
""fullscreenenter"",""1"",""2997""
","
","","","","","","740.5999999940395","<p> The kids are happy.<div style='float: left;'><img src='images/i2.png' width = '640' height = '360'></img>","","0","instructions","","","","","","","","","","","","","",""
"learning-instructions","22","129405","0.0-8.0-0.0-0.14","1584","1","2","""event"",""trial"",""time""
""fullscreenenter"",""1"",""2997""
","
","
","""event"",""trial"",""time""
""fullscreenenter"",""1"",""2997""
","
","","","","","","618.3000000119209","<p> The kids are happy.<div style='float: left;'><img src='images/i3.png' width = '640' height = '360'></img>","","0","instructions","","","","","","","","","","","","","",""
"learning-instructions","23","132457","0.0-8.0-0.0-0.15","1584","1","2","""event"",""trial"",""time""
""fullscreenenter"",""1"",""2997""
","
","
","""event"",""trial"",""time""
""fullscreenenter"",""1"",""2997""
","
","","","","","","890.2000000178814","<p> The kids are happy.<div style='float: left;'><img src='images/i4.png' width = '640' height = '360'></img>","","0","instructions","","","","","","","","","","","","","",""
"learning-instructions","24","135212","0.0-8.0-0.0-0.16","1584","1","2","""event"",""trial"",""time""
""fullscreenenter"",""1"",""2997""
","
","
","""event"",""trial"",""time""
""fullscreenenter"",""1"",""2997""
","
","","","","","","550.2999999821186","<p> The kids are sad.<div style='float: left;'><img src='images/i5.png' width = '640' height = '360'></img>","","0","instructions","","","","","","","","","","","","","",""
"learning-instructions","25","138312","0.0-8.0-0.0-0.17","1584","1","2","""event"",""trial"",""time""
""fullscreenenter"",""1"",""2997""
","
","
","""event"",""trial"",""time""
""fullscreenenter"",""1"",""2997""
","
","","","","","","934.1999999880791","<p> The kids are happy.<div style='float: left;'><img src='images/i6.png' width = '640' height = '360'></img>","","0","instructions","","","","","","","","","","","","","",""
"learning-instructions","26","147529","0.0-8.0-0.0-0.18","1584","1","2","""event"",""trial"",""time""
""fullscreenenter"",""1"",""2997""
","
","
","""event"",""trial"",""time""
""fullscreenenter"",""1"",""2997""
","
","","","","","","1954.7000000178814","<p> As you can see, selecting that park for the soccer ball made the kids happy most of the time, but not all the time.","","0","instructions","","","","","","","","","","","","","",""
"learning-instructions","27","153934","0.0-8.0-0.0-0.19","1584","1","2","""event"",""trial"",""time""
""fullscreenenter"",""1"",""2997""
","
","
","""event"",""trial"",""time""
""fullscreenenter"",""1"",""2997""
","
","","","","","","406.10000002384186","<p> Now let's see what happens if you choose a DIFFERENT park for the soccer ball 5 times.","","0","instructions","","","","","","","","","","","","","",""
"learning-instructions","28","156506","0.0-8.0-0.0-0.20","1584","1","2","""event"",""trial"",""time""
""fullscreenenter"",""1"",""2997""
","
","
","""event"",""trial"",""time""
""fullscreenenter"",""1"",""2997""
","
","","","","","","366","<p> The kids are sad.<div style='float: left;'><img src='images/i7.png' width = '640' height = '360'></img>","","0","instructions","","","","","","","","","","","","","",""
"learning-instructions","29","159326","0.0-8.0-0.0-0.21","1584","1","2","""event"",""trial"",""time""
""fullscreenenter"",""1"",""2997""
","
","
","""event"",""trial"",""time""
""fullscreenenter"",""1"",""2997""
","
","","","","","","614","<p> The kids are sad.<div style='float: left;'><img src='images/i8.png' width = '640' height = '360'></img>","","0","instructions","","","","","","","","","","","","","",""
"learning-instructions","30","161890","0.0-8.0-0.0-0.22","1584","1","2","""event"",""trial"",""time""
""fullscreenenter"",""1"",""2997""
","
","
","""event"",""trial"",""time""
""fullscreenenter"",""1"",""2997""
","
","","","","","","403.30000001192093","<p> The kids are happy.<div style='float: left;'><img src='images/i9.png' width = '640' height = '360'></img>","","0","instructions","","","","","","","","","","","","","",""
"learning-instructions","31","164430","0.0-8.0-0.0-0.23","1584","1","2","""event"",""trial"",""time""
""fullscreenenter"",""1"",""2997""
","
","
","""event"",""trial"",""time""
""fullscreenenter"",""1"",""2997""
","
","","","","","","337.2000000178814","<p> The kids are sad.<div style='float: left;'><img src='images/i10.png' width = '640' height = '360'></img>","","0","instructions","","","","","","","","","","","","","",""
"learning-instructions","32","167407","0.0-8.0-0.0-0.24","1584","1","2","""event"",""trial"",""time""
""fullscreenenter"",""1"",""2997""
","
","
","""event"",""trial"",""time""
""fullscreenenter"",""1"",""2997""
","
","","","","","","776.9000000059605","<p> The kids are sad.<div style='float: left;'><img src='images/i11.png' width = '640' height = '360'></img>","","0","instructions","","","","","","","","","","","","","",""
"learning-instructions","33","176136","0.0-8.0-0.0-0.25","1584","1","2","""event"",""trial"",""time""
""fullscreenenter"",""1"",""2997""
","
","
","""event"",""trial"",""time""
""fullscreenenter"",""1"",""2997""
","
","","","","","","612.3999999761581","<p> As you can see, selecting the wrong park for the soccer ball made the kids sad most of the time, but not all the time.","","0","instructions","","","","","","","","","","","","","",""
"learning-instructions","34","187030","0.0-8.0-0.0-0.26","1584","1","2","""event"",""trial"",""time""
""fullscreenenter"",""1"",""2997""
","
","
","""event"",""trial"",""time""
""fullscreenenter"",""1"",""2997""
","
","","","","","","1782","<p> The different pieces of equipment belong in different parks. You need to try to learn which is the best park for each piece of equipment.","","0","instructions","","","","","","","","","","","","","",""
"learning-instructions","35","203896","0.0-8.0-0.0-0.27","1584","1","2","""event"",""trial"",""time""
""fullscreenenter"",""1"",""2997""
","
","
","""event"",""trial"",""time""
""fullscreenenter"",""1"",""2997""
","
","","","","","","478.80000001192093","<p> Try to choose the best park for each piece of equipment, because you will <b> WIN </b> 1 point for each time you make the kids happy and <b>LOSE</b> 1 point for each time you make them sad. </p><p> Remember, if you make the best choice, you will win 1 point most of the time, but not all the time. </p>","","0","instructions","","","","","","","","","","","","","",""
"learning-instructions","36","211104","0.0-8.0-0.0-0.28","1584","1","2","""event"",""trial"",""time""
""fullscreenenter"",""1"",""2997""
","
","
","""event"",""trial"",""time""
""fullscreenenter"",""1"",""2997""
","
","","","","","","1729.5999999940395","<p> This is just a practice round, but in the real game, your bonus payment will depend on your total number of points.","","0","instructions","","","","","","","","","","","","","",""
"learning-instructions","37","221846","0.0-8.0-0.0-0.29","1584","1","2","""event"",""trial"",""time""
""fullscreenenter"",""1"",""2997""
","
","
","""event"",""trial"",""time""
""fullscreenenter"",""1"",""2997""
","
","","","","","","414.60000002384186","<p> The position where each park appears will change throughout the game. </p><p> The position where the park appears <i> does not </i> influence how likely the kids are to be happy or sad. </p>","","0","instructions","","","","","","","","","","","","","",""
"learning-instructions","38","233453","0.0-8.0-0.0-0.30","1584","1","2","""event"",""trial"",""time""
""fullscreenenter"",""1"",""2997""
","
","
","""event"",""trial"",""time""
""fullscreenenter"",""1"",""2997""
","
","","","","","","1142.6000000238419","<p> You will have 4 seconds to make each choice. Try to respond before time runs out! </p><p> You will lose 1 point each time you do not make a response. </p>","","0","instructions","","","","","","","","","","","","","",""
"learning-instructions","39","240646","0.0-8.0-0.0-0.31","1584","1","2","""event"",""trial"",""time""
""fullscreenenter"",""1"",""2997""
","
","
","""event"",""trial"",""time""
""fullscreenenter"",""1"",""2997""
","
","","","","","","405.30000001192093","<p> Remember, you should use the 1, 2, and 3 keys to select the park for each piece of equipment. </p><br><div class=""choice-instructions-grid""> <div class=""choice-option""><img src=""images/park1.png"" class=""choice-option-img"" stage=""instructions"" position=""0"" ><div class=""choice-option-text""> Press ""1."" </div></div><div class=""choice-option""><img src=""images/park2.png"" class=""choice-option-img"" stage=""instructions"" position=""1"" ><div class=""choice-option-text""> Press ""2."" </div></div><div class=""choice-option""><img src=""images/park3.png"" class=""choice-option-img"" stage=""instructions"" position=""2"" ><div class=""choice-option-text""> Press ""3."" </div></div></div>","","0","instructions","","","","","","","","","","","","","",""
"html-button-response","40","242945","0.0-8.0-1.0","1584","1","2","""event"",""trial"",""time""
""fullscreenenter"",""1"",""2997""
","
","
","""event"",""trial"",""time""
""fullscreenenter"",""1"",""2997""
","
","","","","","","2193.9000000059605","<p> Ready to practice? </p>","0","","","","","","","","","","","","","","","",""
"html-keyboard-response","41","243550","0.0-8.0-2.0-0.0","1584","1","2","""event"",""trial"",""time""
""fullscreenenter"",""1"",""2997""
","
","
","""event"",""trial"",""time""
""fullscreenenter"",""1"",""2997""
","
","","","","","","null","<div style=""font-size:60px;"">+</div>","null","","fixation","","","","","","","","","","","","","",""
"learning-trial","42","247558","0.0-8.0-2.0-1.0","1584","1","2","""event"",""trial"",""time""
""fullscreenenter"",""1"",""2997""
","
","
","""event"",""trial"",""time""
""fullscreenenter"",""1"",""2997""
","
","","","","","","1148.699999988079","images/ball2.png","","","practice","images/park1.png","images/park2.png","images/park3.png","[0,1,2]","2","2","1","images/park1.png","-1","practice","","","",""
"html-keyboard-response","43","248064","0.0-8.0-2.0-0.1","1584","1","2","""event"",""trial"",""time""
""fullscreenenter"",""1"",""2997""
","
","
","""event"",""trial"",""time""
""fullscreenenter"",""1"",""2997""
","
","","","","","","null","<div style=""font-size:60px;"">+</div>","null","","fixation","","","","","","","","","","","","","",""
"learning-trial","44","252070","0.0-8.0-2.0-1.1","1584","1","2","""event"",""trial"",""time""
""fullscreenenter"",""1"",""2997""
","
","
","""event"",""trial"",""time""
""fullscreenenter"",""1"",""2997""
","
","","","","","","853.6999999880791","images/ball1.png","","","practice","images/park2.png","images/park3.png","images/park1.png","[1,2,0]","0","2","1","images/park2.png","-1","practice","","","",""
"html-keyboard-response","45","252575","0.0-8.0-2.0-0.2","1584","1","2","""event"",""trial"",""time""
""fullscreenenter"",""1"",""2997""
","
","
","""event"",""trial"",""time""
""fullscreenenter"",""1"",""2997""
","
","","","","","","null","<div style=""font-size:60px;"">+</div>","null","","fixation","","","","","","","","","","","","","",""
"learning-trial","46","256580","0.0-8.0-2.0-1.2","1584","1","2","""event"",""trial"",""time""
""fullscreenenter"",""1"",""2997""
","
","
","""event"",""trial"",""time""
""fullscreenenter"",""1"",""2997""
","
","","","","","","628","images/racket4.png","","","practice","images/park2.png","images/park3.png","images/park1.png","[1,2,0]","1","0","1","images/park2.png","-1","practice","","","",""
"html-keyboard-response","47","257085","0.0-8.0-2.0-0.3","1584","1","2","""event"",""trial"",""time""
""fullscreenenter"",""1"",""2997""
","
","
","""event"",""trial"",""time""
""fullscreenenter"",""1"",""2997""
","
","","","","","","null","<div style=""font-size:60px;"">+</div>","null","","fixation","","","","","","","","","","","","","",""
"learning-trial","48","261089","0.0-8.0-2.0-1.3","1584","1","2","""event"",""trial"",""time""
""fullscreenenter"",""1"",""2997""
","
","
","""event"",""trial"",""time""
""fullscreenenter"",""1"",""2997""
","
","","","","","","2084.300000011921","images/ball3.png","","","practice","images/park2.png","images/park1.png","images/park3.png","[1,0,2]","1","0","3","images/park3.png","-1","practice","","","",""
"html-keyboard-response","49","261591","0.0-8.0-2.0-0.4","1584","1","2","""event"",""trial"",""time""
""fullscreenenter"",""1"",""2997""
","
","
","""event"",""trial"",""time""
""fullscreenenter"",""1"",""2997""
","
","","","","","","null","<div style=""font-size:60px;"">+</div>","null","","fixation","","","","","","","","","","","","","",""
"learning-trial","50","265596","0.0-8.0-2.0-1.4","1584","1","2","""event"",""trial"",""time""
""fullscreenenter"",""1"",""2997""
","
","
","""event"",""trial"",""time""
""fullscreenenter"",""1"",""2997""
","
","","","","","","1454.5999999940395","images/racket3.png","","","practice","images/park2.png","images/park1.png","images/park3.png","[1,0,2]","0","1","2","images/park1.png","1","practice","","","",""
"html-keyboard-response","51","266099","0.0-8.0-2.0-0.5","1584","1","2","""event"",""trial"",""time""
""fullscreenenter"",""1"",""2997""
","
","
","""event"",""trial"",""time""
""fullscreenenter"",""1"",""2997""
","
","","","","","","null","<div style=""font-size:60px;"">+</div>","null","","fixation","","","","","","","","","","","","","",""
"learning-trial","52","270106","0.0-8.0-2.0-1.5","1584","1","2","""event"",""trial"",""time""
""fullscreenenter"",""1"",""2997""
","
","
","""event"",""trial"",""time""
""fullscreenenter"",""1"",""2997""
","
","","","","","","953","images/racket1.png","","","practice","images/park2.png","images/park1.png","images/park3.png","[1,0,2]","2","2","2","images/park1.png","-1","practice","","","",""
"html-keyboard-response","53","270612","0.0-8.0-2.0-0.6","1584","1","2","""event"",""trial"",""time""
""fullscreenenter"",""1"",""2997""
","
","
","""event"",""trial"",""time""
""fullscreenenter"",""1"",""2997""
","
","","","","","","null","<div style=""font-size:60px;"">+</div>","null","","fixation","","","","","","","","","","","","","",""
"learning-trial","54","274618","0.0-8.0-2.0-1.6","1584","1","2","""event"",""trial"",""time""
""fullscreenenter"",""1"",""2997""
","
","
","""event"",""trial"",""time""
""fullscreenenter"",""1"",""2997""
","
","","","","","","508.2000000178814","images/racket4.png","","","practice","images/park2.png","images/park3.png","images/park1.png","[1,2,0]","1","0","2","images/park3.png","-1","practice","","","",""
"html-keyboard-response","55","275122","0.0-8.0-2.0-0.7","1584","1","2","""event"",""trial"",""time""
""fullscreenenter"",""1"",""2997""
","
","
","""event"",""trial"",""time""
""fullscreenenter"",""1"",""2997""
","
","","","","","","null","<div style=""font-size:60px;"">+</div>","null","","fixation","","","","","","","","","","","","","",""
"learning-trial","56","279129","0.0-8.0-2.0-1.7","1584","1","2","""event"",""trial"",""time""
""fullscreenenter"",""1"",""2997""
","
","
","""event"",""trial"",""time""
""fullscreenenter"",""1"",""2997""
","
","","","","","","2094.300000011921","images/ball2.png","","","practice","images/park1.png","images/park3.png","images/park2.png","[0,2,1]","2","1","1","images/park1.png","-1","practice","","","",""
"html-keyboard-response","57","279634","0.0-8.0-2.0-0.8","1584","1","2","""event"",""trial"",""time""
""fullscreenenter"",""1"",""2997""
","
","
","""event"",""trial"",""time""
""fullscreenenter"",""1"",""2997""
","
","","","","","","null","<div style=""font-size:60px;"">+</div>","null","","fixation","","","","","","","","","","","","","",""
"learning-trial","58","283641","0.0-8.0-2.0-1.8","1584","1","2","""event"",""trial"",""time""
""fullscreenenter"",""1"",""2997""
","
","
","""event"",""trial"",""time""
""fullscreenenter"",""1"",""2997""
","
","","","","","","1834.4000000059605","images/racket3.png","","","practice","images/park3.png","images/park2.png","images/park1.png","[2,1,0]","0","2","3","images/park1.png","1","practice","","","",""
"html-keyboard-response","59","284144","0.0-8.0-2.0-0.9","1584","1","2","""event"",""trial"",""time""
""fullscreenenter"",""1"",""2997""
","
","
","""event"",""trial"",""time""
""fullscreenenter"",""1"",""2997""
","
","","","","","","null","<div style=""font-size:60px;"">+</div>","null","","fixation","","","","","","","","","","","","","",""
"learning-trial","60","288150","0.0-8.0-2.0-1.9","1584","1","2","""event"",""trial"",""time""
""fullscreenenter"",""1"",""2997""
","
","
","""event"",""trial"",""time""
""fullscreenenter"",""1"",""2997""
","
","","","","","","1561.199999988079","images/ball1.png","","","practice","images/park1.png","images/park3.png","images/park2.png","[0,2,1]","0","0","3","images/park2.png","-1","practice","","","",""
"html-keyboard-response","61","288655","0.0-8.0-2.0-0.10","1584","1","2","""event"",""trial"",""time""
""fullscreenenter"",""1"",""2997""
","
","
","""event"",""trial"",""time""
""fullscreenenter"",""1"",""2997""
","
","","","","","","null","<div style=""font-size:60px;"">+</div>","null","","fixation","","","","","","","","","","","","","",""
"learning-trial","62","292661","0.0-8.0-2.0-1.10","1584","1","2","""event"",""trial"",""time""
""fullscreenenter"",""1"",""2997""
","
","
","""event"",""trial"",""time""
""fullscreenenter"",""1"",""2997""
","
","","","","","","1877.7999999821186","images/ball3.png","","","practice","images/park2.png","images/park1.png","images/park3.png","[1,0,2]","1","0","3","images/park3.png","-1","practice","","","",""
"html-keyboard-response","63","293165","0.0-8.0-2.0-0.11","1584","1","2","""event"",""trial"",""time""
""fullscreenenter"",""1"",""2997""
","
","
","""event"",""trial"",""time""
""fullscreenenter"",""1"",""2997""
","
","","","","","","null","<div style=""font-size:60px;"">+</div>","null","","fixation","","","","","","","","","","","","","",""
"learning-trial","64","297171","0.0-8.0-2.0-1.11","1584","1","2","""event"",""trial"",""time""
""fullscreenenter"",""1"",""2997""
","
","
","""event"",""trial"",""time""
""fullscreenenter"",""1"",""2997""
","
","","","","","","1478.4000000059605","images/racket1.png","","","practice","images/park2.png","images/park1.png","images/park3.png","[1,0,2]","2","2","2","images/park1.png","-1","practice","","","",""
"html-button-response","65","302502","0.0-8.0-3.0","1584","1","2","""event"",""trial"",""time""
""fullscreenenter"",""1"",""2997""
","
","
","""event"",""trial"",""time""
""fullscreenenter"",""1"",""2997""
","
","","","","","","5327.899999976158","<p> You earned -8 points in the practice round! </p>","0","","break","","","","","","","","","","","","","",""
"learning-instructions","66","312182","0.0-8.0-4.0-0.0","1584","1","2","""event"",""trial"",""time""
""fullscreenenter"",""1"",""2997""
","
","
","""event"",""trial"",""time""
""fullscreenenter"",""1"",""2997""
","
","","","","","","1991.800000011921","<p> It's almost time to start the real game. </p><p> Before you start, we're going to ask you a few questions about how the game works. </p>","","0","instructions","","","","","","","","","","","","","",""
"preload","67","313682","0.0-8.0-5.0","1584","1","2","""event"",""trial"",""time""
""fullscreenenter"",""1"",""2997""
","
","
","""event"",""trial"",""time""
""fullscreenenter"",""1"",""2997""
","
","true","false","[]","[]","[]","","","","","","","","","","","","","","","","","","",""
"comp-q","68","320903","0.0-8.0-6.0-0.0","1584","1","2","""event"",""trial"",""time""
""fullscreenenter"",""1"",""2997""
","
","
","""event"",""trial"",""time""
""fullscreenenter"",""1"",""2997""
","
","","","","","","1769.4000000059605","<p> <b> True or False? </b> </p><p> If you choose the best option, you will always earn 1 point. </p>","","0","comp_question","","","","","","","","","","","false","","",""
"comp-q","69","328444","0.0-8.0-6.0-1.0","1584","1","2","""event"",""trial"",""time""
""fullscreenenter"",""1"",""2997""
","
","
","""event"",""trial"",""time""
""fullscreenenter"",""1"",""2997""
","
","","","","","","1990.699999988079","<p><b> Incorrect. </b> Sometimes you will lose 1 point, even if you choose the best option. </p>","","0","comp_answer","","","","","","","","","","","","","",""
"comp-q","70","333733","0.0-8.0-6.0-0.1","1584","1","2","""event"",""trial"",""time""
""fullscreenenter"",""1"",""2997""
","
","
","""event"",""trial"",""time""
""fullscreenenter"",""1"",""2997""
","
","","","","","","654.8000000119209","<p> <b> True or False? </b> </p><p> You will have as much time as you want to make each choice. </p>","","1","comp_question","","","","","","","","","","","true","","",""
"comp-q","71","340044","0.0-8.0-6.0-1.1","1584","1","2","""event"",""trial"",""time""
""fullscreenenter"",""1"",""2997""
","
","
","""event"",""trial"",""time""
""fullscreenenter"",""1"",""2997""
","
","","","","","","1497.5999999940395","<p> <b> That's right! </b> You will only have 4 seconds to make each choice. </p>","","0","comp_answer","","","","","","","","","","","","","",""
"comp-q","72","347057","0.0-8.0-6.0-0.2","1584","1","2","""event"",""trial"",""time""
""fullscreenenter"",""1"",""2997""
","
","
","""event"",""trial"",""time""
""fullscreenenter"",""1"",""2997""
","
","","","","","","862.5999999940395","<p> <b> True or False? </b> </p><p> You should use the '1', '2', and '3' keys to make your choices. </p>","","0","comp_question","","","","","","","","","","","true","","",""
"comp-q","73","354105","0.0-8.0-6.0-1.2","1584","1","2","""event"",""trial"",""time""
""fullscreenenter"",""1"",""2997""
","
","
","""event"",""trial"",""time""
""fullscreenenter"",""1"",""2997""
","
","","","","","","2204.5999999940395","<p> <b> That's right! </b> You should use the '1', '2', and '3' keys to make each choice. </p>","","0","comp_answer","","","","","","","","","","","","","",""
"learning-instructions","74","365089","0.0-8.0-7.0-0.0","1584","1","2","""event"",""trial"",""time""
""fullscreenenter"",""1"",""2997""
","
","
","""event"",""trial"",""time""
""fullscreenenter"",""1"",""2997""
","
","","","","","","2497.5","<p> It's now time to start the real game. </p>Do your best, because the points you earn in the next rounds will influence your bonus payment. </p>","","0","instructions","","","","","","","","","","","","","",""
"preload","75","367900","0.0-9.0-0.0","1584","1","2","""event"",""trial"",""time""
""fullscreenenter"",""1"",""2997""
","
","
","""event"",""trial"",""time""
""fullscreenenter"",""1"",""2997""
","
","true","false","[]","[]","[]","","","","","","","","","","","","","","","","","","",""
"learning-instructions","76","377365","0.0-9.0-1.0-0.0","1584","1","2","""event"",""trial"",""time""
""fullscreenenter"",""1"",""2997""
","
","
","""event"",""trial"",""time""
""fullscreenenter"",""1"",""2997""
","
","","","","","","1805.0999999940395","<p> Your goal in this round is to return farm animals to the barns where they live. </p><p>  Different animals wandered away from different barns! </p></div>","","0","instructions","","","","","","","","","","","","","",""
"learning-instructions","77","387986","0.0-9.0-1.0-0.1","1584","1","2","""event"",""trial"",""time""
""fullscreenenter"",""1"",""2997""
","
","
","""event"",""trial"",""time""
""fullscreenenter"",""1"",""2997""
","
","","","","","","1994.5999999940395","<p> On each turn, you will see a picture of a farm animal and three different barns.  </p><p> You need to select the barn where each animal lives.  </p>","","0","instructions","","","","","","","","","","","","","",""
"learning-instructions","78","398315","0.0-9.0-1.0-0.2","1584","1","2","""event"",""trial"",""time""
""fullscreenenter"",""1"",""2997""
","
","
","""event"",""trial"",""time""
""fullscreenenter"",""1"",""2997""
","
","","","","","","3144.2000000178814","<p> You can select the barn on the left by pressing 1, the barn in the middle by pressing 2, and the barn on the right by pressing 3. </p><br><div class=""choice-instructions-grid""> <div class=""choice-option""><img src=""images/animals_choice1.png"" class=""choice-option-img"" stage=""instructions"" position=""0"" ><div class=""choice-option-text""> Press ""1."" </div></div><div class=""choice-option""><img src=""images/animals_choice2.png"" class=""choice-option-img"" stage=""instructions"" position=""1"" ><div class=""choice-option-text""> Press ""2."" </div></div><div class=""choice-option""><img src=""images/animals_choice3.png"" class=""choice-option-img"" stage=""instructions"" position=""2"" ><div class=""choice-option-text""> Press ""3."" </div></div></div>","","0","instructions","","","","","","","","","","","","","",""
"learning-instructions","79","404589","0.0-9.0-1.0-0.3","1584","1","2","""event"",""trial"",""time""
""fullscreenenter"",""1"",""2997""
","
","
","""event"",""trial"",""time""
""fullscreenenter"",""1"",""2997""
","
","","","","","","1135","<p> If you return the farm animal to the correct barn, it will usually be happy! </p><div style='float: center;'><img src='images/check.png' width = '200' height = '200'></img>","","0","instructions","","","","","","","","","","","","","",""
"learning-instructions","80","411645","0.0-9.0-1.0-0.4","1584","1","2","""event"",""trial"",""time""
""fullscreenenter"",""1"",""2997""
","
","
","""event"",""trial"",""time""
""fullscreenenter"",""1"",""2997""
","
","","","","","","1745.5999999940395","<p> But, if you return the farm animal to the wrong barn, it will usually be sad. </p><div style='float: center;'><img src='images/x.png' width = '200' height = '200'></img>","","0","instructions","","","","","","","","","","","","","",""
"learning-instructions","81","424873","0.0-9.0-1.0-0.5","1584","1","2","""event"",""trial"",""time""
""fullscreenenter"",""1"",""2997""
","
","
","""event"",""trial"",""time""
""fullscreenenter"",""1"",""2997""
","
","","","","","","2663.5","<p> Importantly, each farm animal belongs in one of the barns. </p><p> If you choose the correct barn, the farm animal will return home safely and will be more likely to be happy! </p>","","0","instructions","","","","","","","","","","","","","",""
"learning-instructions","82","435905","0.0-9.0-1.0-0.6","1584","1","2","""event"",""trial"",""time""
""fullscreenenter"",""1"",""2997""
","
","
","""event"",""trial"",""time""
""fullscreenenter"",""1"",""2997""
","
","","","","","","516.3000000119209","<p> However, even if you choose the correct barn for the farm animal, it might still feel sad. </p><p> Similarly, even if you choose the <i>wrong</i> barn, it might still feel happy.","","0","instructions","","","","","","","","","","","","","",""
"learning-instructions","83","451147","0.0-9.0-1.0-0.7","1584","1","2","""event"",""trial"",""time""
""fullscreenenter"",""1"",""2997""
","
","
","""event"",""trial"",""time""
""fullscreenenter"",""1"",""2997""
","
","","","","","","1539.800000011921","<p> Try to choose the correct barn for each farm animal, because you will <b> WIN </b> 1 point for each farm animal you make happy and <b>LOSE</b> 1 point for each farm animal you make sad. </p><p> Your bonus payment will depend on your total number of points.","","0","instructions","","","","","","","","","","","","","",""
"learning-instructions","84","460570","0.0-9.0-1.0-0.8","1584","1","2","""event"",""trial"",""time""
""fullscreenenter"",""1"",""2997""
","
","
","""event"",""trial"",""time""
""fullscreenenter"",""1"",""2997""
","
","","","","","","1314.2999999821186","<p> The position of each barn will change throughout the round. </p><p> The barn's position <i> does not </i> influence how likely it is to be the correct one. </p>","","0","instructions","","","","","","","","","","","","","",""
"learning-instructions","85","471051","0.0-9.0-1.0-0.9","1584","1","2","""event"",""trial"",""time""
""fullscreenenter"",""1"",""2997""
","
","
","""event"",""trial"",""time""
""fullscreenenter"",""1"",""2997""
","
","","","","","","1190.0999999940395","<p> You will have 4 seconds to make each choice. Try to respond before time runs out! </p><p> You will lose 1 point each time you do not make a response. </p>","","0","instructions","","","","","","","","","","","","","",""
"html-keyboard-response","86","471654","0.0-9.0-2.0-0.0","1584","1","2","""event"",""trial"",""time""
""fullscreenenter"",""1"",""2997""
","
","
","""event"",""trial"",""time""
""fullscreenenter"",""1"",""2997""
","
","","","","","","null","<div style=""font-size:60px;"">+</div>","null","","fixation","","","","","","","","","","","","","",""
"learning-trial","87","475660","0.0-9.0-2.0-1.0","1584","1","2","""event"",""trial"",""time""
""fullscreenenter"",""1"",""2997""
","
","
","""event"",""trial"",""time""
""fullscreenenter"",""1"",""2997""
","
","","","","","","2045.9000000059605","images/goat5.png","","","learning","images/animals_choice1.png","images/animals_choice2.png","images/animals_choice3.png","[0,1,2]","1","1","2","images/animals_choice2.png","1","animals","","goat","1","0"
"html-keyboard-response","88","476165","0.0-9.0-2.0-0.1","1584","1","2","""event"",""trial"",""time""
""fullscreenenter"",""1"",""2997""
","
","
","""event"",""trial"",""time""
""fullscreenenter"",""1"",""2997""
","
","","","","","","null","<div style=""font-size:60px;"">+</div>","null","","fixation","","","","","","","","","","","","","",""
"learning-trial","89","480171","0.0-9.0-2.0-1.1","1584","1","2","""event"",""trial"",""time""
""fullscreenenter"",""1"",""2997""
","
","
","""event"",""trial"",""time""
""fullscreenenter"",""1"",""2997""
","
","","","","","","1066.9000000059605","images/cow1.png","","","learning","images/animals_choice2.png","images/animals_choice3.png","images/animals_choice1.png","[1,2,0]","0","2","3","images/animals_choice1.png","1","animals","","cow","1","0"
"html-keyboard-response","90","480676","0.0-9.0-2.0-0.2","1584","1","2","""event"",""trial"",""time""
""fullscreenenter"",""1"",""2997""
","
","
","""event"",""trial"",""time""
""fullscreenenter"",""1"",""2997""
","
","","","","","","null","<div style=""font-size:60px;"">+</div>","null","","fixation","","","","","","","","","","","","","",""
"learning-trial","91","484682","0.0-9.0-2.0-1.2","1584","1","2","""event"",""trial"",""time""
""fullscreenenter"",""1"",""2997""
","
","
","""event"",""trial"",""time""
""fullscreenenter"",""1"",""2997""
","
","","","","","","973.5","images/goat5.png","","","learning","images/animals_choice1.png","images/animals_choice3.png","images/animals_choice2.png","[0,2,1]","1","2","2","images/animals_choice3.png","-1","animals","","goat","1","0"
"html-keyboard-response","92","485186","0.0-9.0-2.0-0.3","1584","1","2","""event"",""trial"",""time""
""fullscreenenter"",""1"",""2997""
","
","
","""event"",""trial"",""time""
""fullscreenenter"",""1"",""2997""
","
","","","","","","null","<div style=""font-size:60px;"">+</div>","null","","fixation","","","","","","","","","","","","","",""
"learning-trial","93","489190","0.0-9.0-2.0-1.3","1584","1","2","""event"",""trial"",""time""
""fullscreenenter"",""1"",""2997""
","
","
","""event"",""trial"",""time""
""fullscreenenter"",""1"",""2997""
","
","","","","","","1938.9000000059605","images/sheep3.png","","","learning","images/animals_choice3.png","images/animals_choice2.png","images/animals_choice1.png","[2,1,0]","2","0","1","images/animals_choice3.png","1","animals","","sheep","1","0"
"html-keyboard-response","94","489691","0.0-9.0-2.0-0.4","1584","1","2","""event"",""trial"",""time""
""fullscreenenter"",""1"",""2997""
","
","
","""event"",""trial"",""time""
""fullscreenenter"",""1"",""2997""
","
","","","","","","null","<div style=""font-size:60px;"">+</div>","null","","fixation","","","","","","","","","","","","","",""
"learning-trial","95","493697","0.0-9.0-2.0-1.4","1584","1","2","""event"",""trial"",""time""
""fullscreenenter"",""1"",""2997""
","
","
","""event"",""trial"",""time""
""fullscreenenter"",""1"",""2997""
","
","","","","","","1001.2999999821186","images/goat2.png","","","learning","images/animals_choice2.png","images/animals_choice3.png","images/animals_choice1.png","[1,2,0]","1","0","1","images/animals_choice2.png","1","animals","","goat","1","0"
"html-keyboard-response","96","494202","0.0-9.0-2.0-0.5","1584","1","2","""event"",""trial"",""time""
""fullscreenenter"",""1"",""2997""
","
","
","""event"",""trial"",""time""
""fullscreenenter"",""1"",""2997""
","
","","","","","","null","<div style=""font-size:60px;"">+</div>","null","","fixation","","","","","","","","","","","","","",""
"learning-trial","97","498208","0.0-9.0-2.0-1.5","1584","1","2","""event"",""trial"",""time""
""fullscreenenter"",""1"",""2997""
","
","
","""event"",""trial"",""time""
""fullscreenenter"",""1"",""2997""
","
","","","","","","1354.800000011921","images/cow3.png","","","learning","images/animals_choice1.png","images/animals_choice3.png","images/animals_choice2.png","[0,2,1]","0","0","2","images/animals_choice3.png","-1","animals","","cow","1","0"
"html-keyboard-response","98","498713","0.0-9.0-2.0-0.6","1584","1","2","""event"",""trial"",""time""
""fullscreenenter"",""1"",""2997""
","
","
","""event"",""trial"",""time""
""fullscreenenter"",""1"",""2997""
","
","","","","","","null","<div style=""font-size:60px;"">+</div>","null","","fixation","","","","","","","","","","","","","",""
"learning-trial","99","502719","0.0-9.0-2.0-1.6","1584","1","2","""event"",""trial"",""time""
""fullscreenenter"",""1"",""2997""
","
","
","""event"",""trial"",""time""
""fullscreenenter"",""1"",""2997""
","
","","","","","","793.7000000178814","images/sheep5.png","","","learning","images/animals_choice3.png","images/animals_choice1.png","images/animals_choice2.png","[2,0,1]","2","0","1","images/animals_choice3.png","1","animals","","sheep","1","0"
"html-keyboard-response","100","503224","0.0-9.0-2.0-0.7","1584","1","2","""event"",""trial"",""time""
""fullscreenenter"",""1"",""2997""
","
","
","""event"",""trial"",""time""
""fullscreenenter"",""1"",""2997""
","
","","","","","","null","<div style=""font-size:60px;"">+</div>","null","","fixation","","","","","","","","","","","","","",""
"learning-trial","101","507230","0.0-9.0-2.0-1.7","1584","1","2","""event"",""trial"",""time""
""fullscreenenter"",""1"",""2997""
","
","
","""event"",""trial"",""time""
""fullscreenenter"",""1"",""2997""
","
","","","","","","1109.7000000178814","images/cow5.png","","","learning","images/animals_choice1.png","images/animals_choice2.png","images/animals_choice3.png","[0,1,2]","0","0","2","images/animals_choice2.png","-1","animals","","cow","1","0"
"html-keyboard-response","102","507735","0.0-9.0-2.0-0.8","1584","1","2","""event"",""trial"",""time""
""fullscreenenter"",""1"",""2997""
","
","
","""event"",""trial"",""time""
""fullscreenenter"",""1"",""2997""
","
","","","","","","null","<div style=""font-size:60px;"">+</div>","null","","fixation","","","","","","","","","","","","","",""
"learning-trial","103","511741","0.0-9.0-2.0-1.8","1584","1","2","""event"",""trial"",""time""
""fullscreenenter"",""1"",""2997""
","
","
","""event"",""trial"",""time""
""fullscreenenter"",""1"",""2997""
","
","","","","","","1358.5","images/sheep5.png","","","learning","images/animals_choice1.png","images/animals_choice2.png","images/animals_choice3.png","[0,1,2]","2","2","1","images/animals_choice1.png","-1","animals","","sheep","1","0"
"html-keyboard-response","104","512245","0.0-9.0-2.0-0.9","1584","1","2","""event"",""trial"",""time""
""fullscreenenter"",""1"",""2997""
","
","
","""event"",""trial"",""time""
""fullscreenenter"",""1"",""2997""
","
","","","","","","null","<div style=""font-size:60px;"">+</div>","null","","fixation","","","","","","","","","","","","","",""
"learning-trial","105","516251","0.0-9.0-2.0-1.9","1584","1","2","""event"",""trial"",""time""
""fullscreenenter"",""1"",""2997""
","
","
","""event"",""trial"",""time""
""fullscreenenter"",""1"",""2997""
","
","","","","","","422.40000000596046","images/sheep3.png","","","learning","images/animals_choice2.png","images/animals_choice1.png","images/animals_choice3.png","[1,0,2]","2","2","3","images/animals_choice3.png","1","animals","","sheep","1","0"
"html-keyboard-response","106","516756","0.0-9.0-2.0-0.10","1584","1","2","""event"",""trial"",""time""
""fullscreenenter"",""1"",""2997""
","
","
","""event"",""trial"",""time""
""fullscreenenter"",""1"",""2997""
","
","","","","","","null","<div style=""font-size:60px;"">+</div>","null","","fixation","","","","","","","","","","","","","",""
"learning-trial","107","520760","0.0-9.0-2.0-1.10","1584","1","2","""event"",""trial"",""time""
""fullscreenenter"",""1"",""2997""
","
","
","""event"",""trial"",""time""
""fullscreenenter"",""1"",""2997""
","
","","","","","","968.5","images/goat2.png","","","learning","images/animals_choice2.png","images/animals_choice3.png","images/animals_choice1.png","[1,2,0]","1","0","1","images/animals_choice2.png","1","animals","","goat","1","0"
"html-keyboard-response","108","521263","0.0-9.0-2.0-0.11","1584","1","2","""event"",""trial"",""time""
""fullscreenenter"",""1"",""2997""
","
","
","""event"",""trial"",""time""
""fullscreenenter"",""1"",""2997""
","
","","","","","","null","<div style=""font-size:60px;"">+</div>","null","","fixation","","","","","","","","","","","","","",""
"learning-trial","109","525267","0.0-9.0-2.0-1.11","1584","1","2","""event"",""trial"",""time""
""fullscreenenter"",""1"",""2997""
","
","
","""event"",""trial"",""time""
""fullscreenenter"",""1"",""2997""
","
","","","","","","927.3000000119209","images/sheep2.png","","","learning","images/animals_choice3.png","images/animals_choice2.png","images/animals_choice1.png","[2,1,0]","2","0","2","images/animals_choice2.png","-1","animals","","sheep","1","0"
"html-keyboard-response","110","525771","0.0-9.0-2.0-0.12","1584","1","2","""event"",""trial"",""time""
""fullscreenenter"",""1"",""2997""
","
","
","""event"",""trial"",""time""
""fullscreenenter"",""1"",""2997""
","
","","","","","","null","<div style=""font-size:60px;"">+</div>","null","","fixation","","","","","","","","","","","","","",""
"learning-trial","111","529779","0.0-9.0-2.0-1.12","1584","1","2","""event"",""trial"",""time""
""fullscreenenter"",""1"",""2997""
","
","
","""event"",""trial"",""time""
""fullscreenenter"",""1"",""2997""
","
","","","","","","1021.9000000059605","images/sheep2.png","","","learning","images/animals_choice1.png","images/animals_choice3.png","images/animals_choice2.png","[0,2,1]","2","1","3","images/animals_choice2.png","-1","animals","","sheep","1","0"
"html-keyboard-response","112","530282","0.0-9.0-2.0-0.13","1584","1","2","""event"",""trial"",""time""
""fullscreenenter"",""1"",""2997""
","
","
","""event"",""trial"",""time""
""fullscreenenter"",""1"",""2997""
","
","","","","","","null","<div style=""font-size:60px;"">+</div>","null","","fixation","","","","","","","","","","","","","",""
"learning-trial","113","534290","0.0-9.0-2.0-1.13","1584","1","2","""event"",""trial"",""time""
""fullscreenenter"",""1"",""2997""
","
","
","""event"",""trial"",""time""
""fullscreenenter"",""1"",""2997""
","
","","","","","","1176.4000000059605","images/sheep3.png","","","learning","images/animals_choice3.png","images/animals_choice1.png","images/animals_choice2.png","[2,0,1]","2","0","2","images/animals_choice1.png","-1","animals","","sheep","1","0"
"html-keyboard-response","114","534792","0.0-9.0-2.0-0.14","1584","1","2","""event"",""trial"",""time""
""fullscreenenter"",""1"",""2997""
","
","
","""event"",""trial"",""time""
""fullscreenenter"",""1"",""2997""
","
","","","","","","null","<div style=""font-size:60px;"">+</div>","null","","fixation","","","","","","","","","","","","","",""
"learning-trial","115","538799","0.0-9.0-2.0-1.14","1584","1","2","""event"",""trial"",""time""
""fullscreenenter"",""1"",""2997""
","
","
","""event"",""trial"",""time""
""fullscreenenter"",""1"",""2997""
","
","","","","","","7.699999988079071","images/cow3.png","","","learning","images/animals_choice1.png","images/animals_choice3.png","images/animals_choice2.png","[0,2,1]","0","0","3","images/animals_choice2.png","-1","animals","","cow","1","0"
"html-keyboard-response","116","539303","0.0-9.0-2.0-0.15","1584","1","2","""event"",""trial"",""time""
""fullscreenenter"",""1"",""2997""
","
","
","""event"",""trial"",""time""
""fullscreenenter"",""1"",""2997""
","
","","","","","","null","<div style=""font-size:60px;"">+</div>","null","","fixation","","","","","","","","","","","","","",""
"learning-trial","117","543311","0.0-9.0-2.0-1.15","1584","1","2","""event"",""trial"",""time""
""fullscreenenter"",""1"",""2997""
","
","
","""event"",""trial"",""time""
""fullscreenenter"",""1"",""2997""
","
","","","","","","216.5","images/cow5.png","","","learning","images/animals_choice2.png","images/animals_choice1.png","images/animals_choice3.png","[1,0,2]","0","1","1","images/animals_choice2.png","-1","animals","","cow","1","0"
"html-keyboard-response","118","543815","0.0-9.0-2.0-0.16","1584","1","2","""event"",""trial"",""time""
""fullscreenenter"",""1"",""2997""
","
","
","""event"",""trial"",""time""
""fullscreenenter"",""1"",""2997""
","
","","","","","","null","<div style=""font-size:60px;"">+</div>","null","","fixation","","","","","","","","","","","","","",""
"learning-trial","119","547821","0.0-9.0-2.0-1.16","1584","1","2","""event"",""trial"",""time""
""fullscreenenter"",""1"",""2997""
","
","
","""event"",""trial"",""time""
""fullscreenenter"",""1"",""2997""
","
","","","","","","1184.300000011921","images/cow1.png","","","learning","images/animals_choice3.png","images/animals_choice1.png","images/animals_choice2.png","[2,0,1]","0","1","1","images/animals_choice3.png","-1","animals","","cow","1","0"
"html-keyboard-response","120","548324","0.0-9.0-2.0-0.17","1584","1","2","""event"",""trial"",""time""
""fullscreenenter"",""1"",""2997""
","
","
","""event"",""trial"",""time""
""fullscreenenter"",""1"",""2997""
","
","","","","","","null","<div style=""font-size:60px;"">+</div>","null","","fixation","","","","","","","","","","","","","",""
"learning-trial","121","552330","0.0-9.0-2.0-1.17","1584","1","2","""event"",""trial"",""time""
""fullscreenenter"",""1"",""2997""
","
","
","""event"",""trial"",""time""
""fullscreenenter"",""1"",""2997""
","
","","","","","","39.5","images/cow5.png","","","learning","images/animals_choice2.png","images/animals_choice1.png","images/animals_choice3.png","[1,0,2]","0","1","2","images/animals_choice1.png","1","animals","","cow","1","0"
"html-keyboard-response","122","552835","0.0-9.0-2.0-0.18","1584","1","2","""event"",""trial"",""time""
""fullscreenenter"",""1"",""2997""
","
","
","""event"",""trial"",""time""
""fullscreenenter"",""1"",""2997""
","
","","","","","","null","<div style=""font-size:60px;"">+</div>","null","","fixation","","","","","","","","","","","","","",""
"learning-trial","123","556841","0.0-9.0-2.0-1.18","1584","1","2","""event"",""trial"",""time""
""fullscreenenter"",""1"",""2997""
","
","
","""event"",""trial"",""time""
""fullscreenenter"",""1"",""2997""
","
","","","","","","892.8000000119209","images/sheep2.png","","","learning","images/animals_choice1.png","images/animals_choice2.png","images/animals_choice3.png","[0,1,2]","2","2","3","images/animals_choice3.png","1","animals","","sheep","1","0"
"html-keyboard-response","124","557346","0.0-9.0-2.0-0.19","1584","1","2","""event"",""trial"",""time""
""fullscreenenter"",""1"",""2997""
","
","
","""event"",""trial"",""time""
""fullscreenenter"",""1"",""2997""
","
","","","","","","null","<div style=""font-size:60px;"">+</div>","null","","fixation","","","","","","","","","","","","","",""
"learning-trial","125","561352","0.0-9.0-2.0-1.19","1584","1","2","""event"",""trial"",""time""
""fullscreenenter"",""1"",""2997""
","
","
","""event"",""trial"",""time""
""fullscreenenter"",""1"",""2997""
","
","","","","","","945.2000000178814","images/goat3.png","","","learning","images/animals_choice2.png","images/animals_choice3.png","images/animals_choice1.png","[1,2,0]","1","0","1","images/animals_choice2.png","1","animals","","goat","1","0"
"html-keyboard-response","126","561856","0.0-9.0-2.0-0.20","1584","1","2","""event"",""trial"",""time""
""fullscreenenter"",""1"",""2997""
","
","
","""event"",""trial"",""time""
""fullscreenenter"",""1"",""2997""
","
","","","","","","null","<div style=""font-size:60px;"">+</div>","null","","fixation","","","","","","","","","","","","","",""
"learning-trial","127","565862","0.0-9.0-2.0-1.20","1584","1","2","""event"",""trial"",""time""
""fullscreenenter"",""1"",""2997""
","
","
","""event"",""trial"",""time""
""fullscreenenter"",""1"",""2997""
","
","","","","","","1246.5999999940395","images/cow5.png","","","learning","images/animals_choice3.png","images/animals_choice2.png","images/animals_choice1.png","[2,1,0]","0","2","1","images/animals_choice3.png","-1","animals","","cow","1","0"
"html-keyboard-response","128","566367","0.0-9.0-2.0-0.21","1584","1","2","""event"",""trial"",""time""
""fullscreenenter"",""1"",""2997""
","
","
","""event"",""trial"",""time""
""fullscreenenter"",""1"",""2997""
","
","","","","","","null","<div style=""font-size:60px;"">+</div>","null","","fixation","","","","","","","","","","","","","",""
"learning-trial","129","570375","0.0-9.0-2.0-1.21","1584","1","2","""event"",""trial"",""time""
""fullscreenenter"",""1"",""2997""
","
","
","""event"",""trial"",""time""
""fullscreenenter"",""1"",""2997""
","
","","","","","","1094.300000011921","images/cow3.png","","","learning","images/animals_choice3.png","images/animals_choice2.png","images/animals_choice1.png","[2,1,0]","0","2","3","images/animals_choice1.png","1","animals","","cow","1","0"
"html-keyboard-response","130","570878","0.0-9.0-2.0-0.22","1584","1","2","""event"",""trial"",""time""
""fullscreenenter"",""1"",""2997""
","
","
","""event"",""trial"",""time""
""fullscreenenter"",""1"",""2997""
","
","","","","","","null","<div style=""font-size:60px;"">+</div>","null","","fixation","","","","","","","","","","","","","",""
"learning-trial","131","574883","0.0-9.0-2.0-1.22","1584","1","2","""event"",""trial"",""time""
""fullscreenenter"",""1"",""2997""
","
","
","""event"",""trial"",""time""
""fullscreenenter"",""1"",""2997""
","
","","","","","","885.6999999880791","images/goat2.png","","","learning","images/animals_choice1.png","images/animals_choice2.png","images/animals_choice3.png","[0,1,2]","1","1","1","images/animals_choice1.png","-1","animals","","goat","1","0"
"html-keyboard-response","132","575388","0.0-9.0-2.0-0.23","1584","1","2","""event"",""trial"",""time""
""fullscreenenter"",""1"",""2997""
","
","
","""event"",""trial"",""time""
""fullscreenenter"",""1"",""2997""
","
","","","","","","null","<div style=""font-size:60px;"">+</div>","null","","fixation","","","","","","","","","","","","","",""
"learning-trial","133","579394","0.0-9.0-2.0-1.23","1584","1","2","""event"",""trial"",""time""
""fullscreenenter"",""1"",""2997""
","
","
","""event"",""trial"",""time""
""fullscreenenter"",""1"",""2997""
","
","","","","","","215","images/cow5.png","","","learning","images/animals_choice2.png","images/animals_choice1.png","images/animals_choice3.png","[1,0,2]","0","1","2","images/animals_choice1.png","1","animals","","cow","1","0"
"html-keyboard-response","134","579898","0.0-9.0-2.0-0.24","1584","1","2","""event"",""trial"",""time""
""fullscreenenter"",""1"",""2997""
","
","
","""event"",""trial"",""time""
""fullscreenenter"",""1"",""2997""
","
","","","","","","null","<div style=""font-size:60px;"">+</div>","null","","fixation","","","","","","","","","","","","","",""
"learning-trial","135","583905","0.0-9.0-2.0-1.24","1584","1","2","""event"",""trial"",""time""
""fullscreenenter"",""1"",""2997""
","
","
","""event"",""trial"",""time""
""fullscreenenter"",""1"",""2997""
","
","","","","","","898.3000000119209","images/sheep5.png","","","learning","images/animals_choice3.png","images/animals_choice1.png","images/animals_choice2.png","[2,0,1]","2","0","1","images/animals_choice3.png","-1","animals","","sheep","1","0"
"html-keyboard-response","136","584409","0.0-9.0-2.0-0.25","1584","1","2","""event"",""trial"",""time""
""fullscreenenter"",""1"",""2997""
","
","
","""event"",""trial"",""time""
""fullscreenenter"",""1"",""2997""
","
","","","","","","null","<div style=""font-size:60px;"">+</div>","null","","fixation","","","","","","","","","","","","","",""
"learning-trial","137","588415","0.0-9.0-2.0-1.25","1584","1","2","""event"",""trial"",""time""
""fullscreenenter"",""1"",""2997""
","
","
","""event"",""trial"",""time""
""fullscreenenter"",""1"",""2997""
","
","","","","","","1574","images/cow1.png","","","learning","images/animals_choice3.png","images/animals_choice2.png","images/animals_choice1.png","[2,1,0]","0","2","2","images/animals_choice2.png","-1","animals","","cow","1","0"
"html-keyboard-response","138","588920","0.0-9.0-2.0-0.26","1584","1","2","""event"",""trial"",""time""
""fullscreenenter"",""1"",""2997""
","
","
","""event"",""trial"",""time""
""fullscreenenter"",""1"",""2997""
","
","","","","","","null","<div style=""font-size:60px;"">+</div>","null","","fixation","","","","","","","","","","","","","",""
"learning-trial","139","592926","0.0-9.0-2.0-1.26","1584","1","2","""event"",""trial"",""time""
""fullscreenenter"",""1"",""2997""
","
","
","""event"",""trial"",""time""
""fullscreenenter"",""1"",""2997""
","
","","","","","","811.4000000059605","images/goat2.png","","","learning","images/animals_choice3.png","images/animals_choice1.png","images/animals_choice2.png","[2,0,1]","1","2","3","images/animals_choice2.png","1","animals","","goat","1","0"
"html-keyboard-response","140","593431","0.0-9.0-2.0-0.27","1584","1","2","""event"",""trial"",""time""
""fullscreenenter"",""1"",""2997""
","
","
","""event"",""trial"",""time""
""fullscreenenter"",""1"",""2997""
","
","","","","","","null","<div style=""font-size:60px;"">+</div>","null","","fixation","","","","","","","","","","","","","",""
"learning-trial","141","597436","0.0-9.0-2.0-1.27","1584","1","2","""event"",""trial"",""time""
""fullscreenenter"",""1"",""2997""
","
","
","""event"",""trial"",""time""
""fullscreenenter"",""1"",""2997""
","
","","","","","","944.1999999880791","images/sheep2.png","","","learning","images/animals_choice3.png","images/animals_choice2.png","images/animals_choice1.png","[2,1,0]","2","0","1","images/animals_choice3.png","1","animals","","sheep","1","0"
"html-keyboard-response","142","597941","0.0-9.0-2.0-0.28","1584","1","2","""event"",""trial"",""time""
""fullscreenenter"",""1"",""2997""
","
","
","""event"",""trial"",""time""
""fullscreenenter"",""1"",""2997""
","
","","","","","","null","<div style=""font-size:60px;"">+</div>","null","","fixation","","","","","","","","","","","","","",""
"learning-trial","143","601945","0.0-9.0-2.0-1.28","1584","1","2","""event"",""trial"",""time""
""fullscreenenter"",""1"",""2997""
","
","
","""event"",""trial"",""time""
""fullscreenenter"",""1"",""2997""
","
","","","","","","694.5999999940395","images/sheep3.png","","","learning","images/animals_choice3.png","images/animals_choice1.png","images/animals_choice2.png","[2,0,1]","2","0","2","images/animals_choice1.png","-1","animals","","sheep","1","0"
"html-keyboard-response","144","602449","0.0-9.0-2.0-0.29","1584","1","2","""event"",""trial"",""time""
""fullscreenenter"",""1"",""2997""
","
","
","""event"",""trial"",""time""
""fullscreenenter"",""1"",""2997""
","
","","","","","","null","<div style=""font-size:60px;"">+</div>","null","","fixation","","","","","","","","","","","","","",""
"learning-trial","145","606456","0.0-9.0-2.0-1.29","1584","1","2","""event"",""trial"",""time""
""fullscreenenter"",""1"",""2997""
","
","
","""event"",""trial"",""time""
""fullscreenenter"",""1"",""2997""
","
","","","","","","1400.9000000059605","images/cow3.png","","","learning","images/animals_choice2.png","images/animals_choice1.png","images/animals_choice3.png","[1,0,2]","0","1","2","images/animals_choice1.png","1","animals","","cow","1","0"
"html-keyboard-response","146","606962","0.0-9.0-2.0-0.30","1584","1","2","""event"",""trial"",""time""
""fullscreenenter"",""1"",""2997""
","
","
","""event"",""trial"",""time""
""fullscreenenter"",""1"",""2997""
","
","","","","","","null","<div style=""font-size:60px;"">+</div>","null","","fixation","","","","","","","","","","","","","",""
"learning-trial","147","610968","0.0-9.0-2.0-1.30","1584","1","2","""event"",""trial"",""time""
""fullscreenenter"",""1"",""2997""
","
","
","""event"",""trial"",""time""
""fullscreenenter"",""1"",""2997""
","
","","","","","","1300","images/cow1.png","","","learning","images/animals_choice1.png","images/animals_choice2.png","images/animals_choice3.png","[0,1,2]","0","0","1","images/animals_choice1.png","1","animals","","cow","1","0"
"html-keyboard-response","148","611473","0.0-9.0-2.0-0.31","1584","1","2","""event"",""trial"",""time""
""fullscreenenter"",""1"",""2997""
","
","
","""event"",""trial"",""time""
""fullscreenenter"",""1"",""2997""
","
","","","","","","null","<div style=""font-size:60px;"">+</div>","null","","fixation","","","","","","","","","","","","","",""
"learning-trial","149","615479","0.0-9.0-2.0-1.31","1584","1","2","""event"",""trial"",""time""
""fullscreenenter"",""1"",""2997""
","
","
","""event"",""trial"",""time""
""fullscreenenter"",""1"",""2997""
","
","","","","","","1535.9000000059605","images/cow3.png","","","learning","images/animals_choice2.png","images/animals_choice1.png","images/animals_choice3.png","[1,0,2]","0","1","1","images/animals_choice2.png","-1","animals","","cow","1","0"
"html-keyboard-response","150","615984","0.0-9.0-2.0-0.32","1584","1","2","""event"",""trial"",""time""
""fullscreenenter"",""1"",""2997""
","
","
","""event"",""trial"",""time""
""fullscreenenter"",""1"",""2997""
","
","","","","","","null","<div style=""font-size:60px;"">+</div>","null","","fixation","","","","","","","","","","","","","",""
"learning-trial","151","619990","0.0-9.0-2.0-1.32","1584","1","2","""event"",""trial"",""time""
""fullscreenenter"",""1"",""2997""
","
","
","""event"",""trial"",""time""
""fullscreenenter"",""1"",""2997""
","
","","","","","","663.0999999940395","images/goat5.png","","","learning","images/animals_choice1.png","images/animals_choice2.png","images/animals_choice3.png","[0,1,2]","1","1","3","images/animals_choice3.png","-1","animals","","goat","1","0"
"html-keyboard-response","152","620494","0.0-9.0-2.0-0.33","1584","1","2","""event"",""trial"",""time""
""fullscreenenter"",""1"",""2997""
","
","
","""event"",""trial"",""time""
""fullscreenenter"",""1"",""2997""
","
","","","","","","null","<div style=""font-size:60px;"">+</div>","null","","fixation","","","","","","","","","","","","","",""
"learning-trial","153","624500","0.0-9.0-2.0-1.33","1584","1","2","""event"",""trial"",""time""
""fullscreenenter"",""1"",""2997""
","
","
","""event"",""trial"",""time""
""fullscreenenter"",""1"",""2997""
","
","","","","","","257.69999998807907","images/goat2.png","","","learning","images/animals_choice2.png","images/animals_choice1.png","images/animals_choice3.png","[1,0,2]","1","0","1","images/animals_choice2.png","1","animals","","goat","1","0"
"html-keyboard-response","154","625005","0.0-9.0-2.0-0.34","1584","1","2","""event"",""trial"",""time""
""fullscreenenter"",""1"",""2997""
","
","
","""event"",""trial"",""time""
""fullscreenenter"",""1"",""2997""
","
","","","","","","null","<div style=""font-size:60px;"">+</div>","null","","fixation","","","","","","","","","","","","","",""
"learning-trial","155","629011","0.0-9.0-2.0-1.34","1584","1","2","""event"",""trial"",""time""
""fullscreenenter"",""1"",""2997""
","
","
","""event"",""trial"",""time""
""fullscreenenter"",""1"",""2997""
","
","","","","","","608.5","images/goat3.png","","","learning","images/animals_choice1.png","images/animals_choice3.png","images/animals_choice2.png","[0,2,1]","1","2","2","images/animals_choice3.png","-1","animals","","goat","1","0"
"html-keyboard-response","156","629516","0.0-9.0-2.0-0.35","1584","1","2","""event"",""trial"",""time""
""fullscreenenter"",""1"",""2997""
","
","
","""event"",""trial"",""time""
""fullscreenenter"",""1"",""2997""
","
","","","","","","null","<div style=""font-size:60px;"">+</div>","null","","fixation","","","","","","","","","","","","","",""
"learning-trial","157","633521","0.0-9.0-2.0-1.35","1584","1","2","""event"",""trial"",""time""
""fullscreenenter"",""1"",""2997""
","
","
","""event"",""trial"",""time""
""fullscreenenter"",""1"",""2997""
","
","","","","","","1324.0999999940395","images/goat5.png","","","learning","images/animals_choice1.png","images/animals_choice3.png","images/animals_choice2.png","[0,2,1]","1","2","3","images/animals_choice2.png","-1","animals","","goat","1","0"
"html-keyboard-response","158","634023","0.0-9.0-2.0-0.36","1584","1","2","""event"",""trial"",""time""
""fullscreenenter"",""1"",""2997""
","
","
","""event"",""trial"",""time""
""fullscreenenter"",""1"",""2997""
","
","","","","","","null","<div style=""font-size:60px;"">+</div>","null","","fixation","","","","","","","","","","","","","",""
"learning-trial","159","638027","0.0-9.0-2.0-1.36","1584","1","2","""event"",""trial"",""time""
""fullscreenenter"",""1"",""2997""
","
","
","""event"",""trial"",""time""
""fullscreenenter"",""1"",""2997""
","
","","","","","","252.39999997615814","images/sheep2.png","","","learning","images/animals_choice3.png","images/animals_choice1.png","images/animals_choice2.png","[2,0,1]","2","0","1","images/animals_choice3.png","1","animals","","sheep","1","0"
"html-keyboard-response","160","638531","0.0-9.0-2.0-0.37","1584","1","2","""event"",""trial"",""time""
""fullscreenenter"",""1"",""2997""
","
","
","""event"",""trial"",""time""
""fullscreenenter"",""1"",""2997""
","
","","","","","","null","<div style=""font-size:60px;"">+</div>","null","","fixation","","","","","","","","","","","","","",""
"learning-trial","161","642539","0.0-9.0-2.0-1.37","1584","1","2","""event"",""trial"",""time""
""fullscreenenter"",""1"",""2997""
","
","
","""event"",""trial"",""time""
""fullscreenenter"",""1"",""2997""
","
","","","","","","1030.7999999821186","images/goat5.png","","","learning","images/animals_choice1.png","images/animals_choice3.png","images/animals_choice2.png","[0,2,1]","1","2","2","images/animals_choice3.png","-1","animals","","goat","1","0"
"html-keyboard-response","162","643042","0.0-9.0-2.0-0.38","1584","1","2","""event"",""trial"",""time""
""fullscreenenter"",""1"",""2997""
","
","
","""event"",""trial"",""time""
""fullscreenenter"",""1"",""2997""
","
","","","","","","null","<div style=""font-size:60px;"">+</div>","null","","fixation","","","","","","","","","","","","","",""
"learning-trial","163","647047","0.0-9.0-2.0-1.38","1584","1","2","""event"",""trial"",""time""
""fullscreenenter"",""1"",""2997""
","
","
","""event"",""trial"",""time""
""fullscreenenter"",""1"",""2997""
","
","","","","","","436.59999999403954","images/goat3.png","","","learning","images/animals_choice3.png","images/animals_choice2.png","images/animals_choice1.png","[2,1,0]","1","1","1","images/animals_choice3.png","-1","animals","","goat","1","0"
"html-keyboard-response","164","647552","0.0-9.0-2.0-0.39","1584","1","2","""event"",""trial"",""time""
""fullscreenenter"",""1"",""2997""
","
","
","""event"",""trial"",""time""
""fullscreenenter"",""1"",""2997""
","
","","","","","","null","<div style=""font-size:60px;"">+</div>","null","","fixation","","","","","","","","","","","","","",""
"learning-trial","165","651558","0.0-9.0-2.0-1.39","1584","1","2","""event"",""trial"",""time""
""fullscreenenter"",""1"",""2997""
","
","
","""event"",""trial"",""time""
""fullscreenenter"",""1"",""2997""
","
","","","","","","1492.5999999940395","images/cow5.png","","","learning","images/animals_choice3.png","images/animals_choice2.png","images/animals_choice1.png","[2,1,0]","0","2","1","images/animals_choice3.png","-1","animals","","cow","1","0"
"html-keyboard-response","166","652063","0.0-9.0-2.0-0.40","1584","1","2","""event"",""trial"",""time""
""fullscreenenter"",""1"",""2997""
","
","
","""event"",""trial"",""time""
""fullscreenenter"",""1"",""2997""
","
","","","","","","null","<div style=""font-size:60px;"">+</div>","null","","fixation","","","","","","","","","","","","","",""
"learning-trial","167","656071","0.0-9.0-2.0-1.40","1584","1","2","""event"",""trial"",""time""
""fullscreenenter"",""1"",""2997""
","
","
","""event"",""trial"",""time""
""fullscreenenter"",""1"",""2997""
","
","","","","","","549.8000000119209","images/goat3.png","","","learning","images/animals_choice2.png","images/animals_choice3.png","images/animals_choice1.png","[1,2,0]","1","0","3","images/animals_choice1.png","-1","animals","","goat","1","0"
"html-keyboard-response","168","656576","0.0-9.0-2.0-0.41","1584","1","2","""event"",""trial"",""time""
""fullscreenenter"",""1"",""2997""
","
","
","""event"",""trial"",""time""
""fullscreenenter"",""1"",""2997""
","
","","","","","","null","<div style=""font-size:60px;"">+</div>","null","","fixation","","","","","","","","","","","","","",""
"learning-trial","169","660585","0.0-9.0-2.0-1.41","1584","1","2","""event"",""trial"",""time""
""fullscreenenter"",""1"",""2997""
","
","
","""event"",""trial"",""time""
""fullscreenenter"",""1"",""2997""
","
","","","","","","351.19999998807907","images/cow1.png","","","learning","images/animals_choice3.png","images/animals_choice1.png","images/animals_choice2.png","[2,0,1]","0","1","2","images/animals_choice1.png","1","animals","","cow","1","0"
"html-keyboard-response","170","661090","0.0-9.0-2.0-0.42","1584","1","2","""event"",""trial"",""time""
""fullscreenenter"",""1"",""2997""
","
","
","""event"",""trial"",""time""
""fullscreenenter"",""1"",""2997""
","
","","","","","","null","<div style=""font-size:60px;"">+</div>","null","","fixation","","","","","","","","","","","","","",""
"learning-trial","171","665096","0.0-9.0-2.0-1.42","1584","1","2","""event"",""trial"",""time""
""fullscreenenter"",""1"",""2997""
","
","
","""event"",""trial"",""time""
""fullscreenenter"",""1"",""2997""
","
","","","","","","288.09999999403954","images/sheep5.png","","","learning","images/animals_choice2.png","images/animals_choice3.png","images/animals_choice1.png","[1,2,0]","2","1","1","images/animals_choice2.png","-1","animals","","sheep","1","0"
"html-keyboard-response","172","665600","0.0-9.0-2.0-0.43","1584","1","2","""event"",""trial"",""time""
""fullscreenenter"",""1"",""2997""
","
","
","""event"",""trial"",""time""
""fullscreenenter"",""1"",""2997""
","
","","","","","","null","<div style=""font-size:60px;"">+</div>","null","","fixation","","","","","","","","","","","","","",""
"learning-trial","173","669606","0.0-9.0-2.0-1.43","1584","1","2","""event"",""trial"",""time""
""fullscreenenter"",""1"",""2997""
","
","
","""event"",""trial"",""time""
""fullscreenenter"",""1"",""2997""
","
","","","","","","359.19999998807907","images/sheep5.png","","","learning","images/animals_choice3.png","images/animals_choice2.png","images/animals_choice1.png","[2,1,0]","2","0","2","images/animals_choice2.png","-1","animals","","sheep","1","0"
"html-keyboard-response","174","670111","0.0-9.0-2.0-0.44","1584","1","2","""event"",""trial"",""time""
""fullscreenenter"",""1"",""2997""
","
","
","""event"",""trial"",""time""
""fullscreenenter"",""1"",""2997""
","
","","","","","","null","<div style=""font-size:60px;"">+</div>","null","","fixation","","","","","","","","","","","","","",""
"learning-trial","175","674117","0.0-9.0-2.0-1.44","1584","1","2","""event"",""trial"",""time""
""fullscreenenter"",""1"",""2997""
","
","
","""event"",""trial"",""time""
""fullscreenenter"",""1"",""2997""
","
","","","","","","317.80000001192093","images/goat3.png","","","learning","images/animals_choice2.png","images/animals_choice3.png","images/animals_choice1.png","[1,2,0]","1","0","2","images/animals_choice3.png","-1","animals","","goat","1","0"
"html-keyboard-response","176","674622","0.0-9.0-2.0-0.45","1584","1","2","""event"",""trial"",""time""
""fullscreenenter"",""1"",""2997""
","
","
","""event"",""trial"",""time""
""fullscreenenter"",""1"",""2997""
","
","","","","","","null","<div style=""font-size:60px;"">+</div>","null","","fixation","","","","","","","","","","","","","",""
"learning-trial","177","678625","0.0-9.0-2.0-1.45","1584","1","2","""event"",""trial"",""time""
""fullscreenenter"",""1"",""2997""
","
","
","""event"",""trial"",""time""
""fullscreenenter"",""1"",""2997""
","
","","","","","","986.6999999880791","images/sheep3.png","","","learning","images/animals_choice3.png","images/animals_choice2.png","images/animals_choice1.png","[2,1,0]","2","0","2","images/animals_choice2.png","-1","animals","","sheep","1","0"
"html-keyboard-response","178","679126","0.0-9.0-2.0-0.46","1584","1","2","""event"",""trial"",""time""
""fullscreenenter"",""1"",""2997""
","
","
","""event"",""trial"",""time""
""fullscreenenter"",""1"",""2997""
","
","","","","","","null","<div style=""font-size:60px;"">+</div>","null","","fixation","","","","","","","","","","","","","",""
"learning-trial","179","683132","0.0-9.0-2.0-1.46","1584","1","2","""event"",""trial"",""time""
""fullscreenenter"",""1"",""2997""
","
","
","""event"",""trial"",""time""
""fullscreenenter"",""1"",""2997""
","
","","","","","","96.7999999821186","images/sheep5.png","","","learning","images/animals_choice1.png","images/animals_choice3.png","images/animals_choice2.png","[0,2,1]","2","1","3","images/animals_choice2.png","1","animals","","sheep","1","0"
"html-keyboard-response","180","683637","0.0-9.0-2.0-0.47","1584","1","2","""event"",""trial"",""time""
""fullscreenenter"",""1"",""2997""
","
","
","""event"",""trial"",""time""
""fullscreenenter"",""1"",""2997""
","
","","","","","","null","<div style=""font-size:60px;"">+</div>","null","","fixation","","","","","","","","","","","","","",""
"learning-trial","181","687643","0.0-9.0-2.0-1.47","1584","1","2","""event"",""trial"",""time""
""fullscreenenter"",""1"",""2997""
","
","
","""event"",""trial"",""time""
""fullscreenenter"",""1"",""2997""
","
","","","","","","231","images/sheep3.png","","","learning","images/animals_choice1.png","images/animals_choice3.png","images/animals_choice2.png","[0,2,1]","2","1","3","images/animals_choice2.png","-1","animals","","sheep","1","0"
"html-keyboard-response","182","688147","0.0-9.0-2.0-0.48","1584","1","2","""event"",""trial"",""time""
""fullscreenenter"",""1"",""2997""
""blur"",""183"",""689000""
""focus"",""183"",""689002""
","""event"",""trial"",""time""
""blur"",""183"",""689000""
","""event"",""trial"",""time""
""focus"",""183"",""689002""
","""event"",""trial"",""time""
""fullscreenenter"",""1"",""2997""
","
","","","","","","null","<div style=""font-size:60px;"">+</div>","null","","fixation","","","","","","","","","","","","","",""
"learning-trial","183","692153","0.0-9.0-2.0-1.48","1584","1","2","""event"",""trial"",""time""
""fullscreenenter"",""1"",""2997""
""blur"",""183"",""689000""
""focus"",""183"",""689002""
","""event"",""trial"",""time""
""blur"",""183"",""689000""
","""event"",""trial"",""time""
""focus"",""183"",""689002""
","""event"",""trial"",""time""
""fullscreenenter"",""1"",""2997""
","
","","","","","","1539.699999988079","images/goat2.png","","","learning","images/animals_choice2.png","images/animals_choice1.png","images/animals_choice3.png","[1,0,2]","1","0","1","images/animals_choice2.png","1","animals","","goat","1","0"
"html-keyboard-response","184","692658","0.0-9.0-2.0-0.49","1584","1","2","""event"",""trial"",""time""
""fullscreenenter"",""1"",""2997""
""blur"",""183"",""689000""
""focus"",""183"",""689002""
","""event"",""trial"",""time""
""blur"",""183"",""689000""
","""event"",""trial"",""time""
""focus"",""183"",""689002""
","""event"",""trial"",""time""
""fullscreenenter"",""1"",""2997""
","
","","","","","","null","<div style=""font-size:60px;"">+</div>","null","","fixation","","","","","","","","","","","","","",""
"learning-trial","185","696664","0.0-9.0-2.0-1.49","1584","1","2","""event"",""trial"",""time""
""fullscreenenter"",""1"",""2997""
""blur"",""183"",""689000""
""focus"",""183"",""689002""
","""event"",""trial"",""time""
""blur"",""183"",""689000""
","""event"",""trial"",""time""
""focus"",""183"",""689002""
","""event"",""trial"",""time""
""fullscreenenter"",""1"",""2997""
","
","","","","","","562.3999999761581","images/cow1.png","","","learning","images/animals_choice2.png","images/animals_choice3.png","images/animals_choice1.png","[1,2,0]","0","2","1","images/animals_choice2.png","-1","animals","","cow","1","0"
"html-keyboard-response","186","697168","0.0-9.0-2.0-0.50","1584","1","2","""event"",""trial"",""time""
""fullscreenenter"",""1"",""2997""
""blur"",""183"",""689000""
""focus"",""183"",""689002""
","""event"",""trial"",""time""
""blur"",""183"",""689000""
","""event"",""trial"",""time""
""focus"",""183"",""689002""
","""event"",""trial"",""time""
""fullscreenenter"",""1"",""2997""
","
","","","","","","null","<div style=""font-size:60px;"">+</div>","null","","fixation","","","","","","","","","","","","","",""
"learning-trial","187","701174","0.0-9.0-2.0-1.50","1584","1","2","""event"",""trial"",""time""
""fullscreenenter"",""1"",""2997""
""blur"",""183"",""689000""
""focus"",""183"",""689002""
","""event"",""trial"",""time""
""blur"",""183"",""689000""
","""event"",""trial"",""time""
""focus"",""183"",""689002""
","""event"",""trial"",""time""
""fullscreenenter"",""1"",""2997""
","
","","","","","","608.2999999821186","images/cow1.png","","","learning","images/animals_choice1.png","images/animals_choice3.png","images/animals_choice2.png","[0,2,1]","0","0","3","images/animals_choice2.png","-1","animals","","cow","1","0"
"html-keyboard-response","188","701680","0.0-9.0-2.0-0.51","1584","1","2","""event"",""trial"",""time""
""fullscreenenter"",""1"",""2997""
""blur"",""183"",""689000""
""focus"",""183"",""689002""
","""event"",""trial"",""time""
""blur"",""183"",""689000""
","""event"",""trial"",""time""
""focus"",""183"",""689002""
","""event"",""trial"",""time""
""fullscreenenter"",""1"",""2997""
","
","","","","","","null","<div style=""font-size:60px;"">+</div>","null","","fixation","","","","","","","","","","","","","",""
"learning-trial","189","705685","0.0-9.0-2.0-1.51","1584","1","2","""event"",""trial"",""time""
""fullscreenenter"",""1"",""2997""
""blur"",""183"",""689000""
""focus"",""183"",""689002""
","""event"",""trial"",""time""
""blur"",""183"",""689000""
","""event"",""trial"",""time""
""focus"",""183"",""689002""
","""event"",""trial"",""time""
""fullscreenenter"",""1"",""2997""
","
","","","","","","884.5999999940395","images/goat5.png","","","learning","images/animals_choice2.png","images/animals_choice3.png","images/animals_choice1.png","[1,2,0]","1","0","1","images/animals_choice2.png","1","animals","","goat","1","0"
"html-keyboard-response","190","706190","0.0-9.0-2.0-0.52","1584","1","2","""event"",""trial"",""time""
""fullscreenenter"",""1"",""2997""
""blur"",""183"",""689000""
""focus"",""183"",""689002""
","""event"",""trial"",""time""
""blur"",""183"",""689000""
","""event"",""trial"",""time""
""focus"",""183"",""689002""
","""event"",""trial"",""time""
""fullscreenenter"",""1"",""2997""
","
","","","","","","null","<div style=""font-size:60px;"">+</div>","null","","fixation","","","","","","","","","","","","","",""
"learning-trial","191","710196","0.0-9.0-2.0-1.52","1584","1","2","""event"",""trial"",""time""
""fullscreenenter"",""1"",""2997""
""blur"",""183"",""689000""
""focus"",""183"",""689002""
","""event"",""trial"",""time""
""blur"",""183"",""689000""
","""event"",""trial"",""time""
""focus"",""183"",""689002""
","""event"",""trial"",""time""
""fullscreenenter"",""1"",""2997""
","
","","","","","","521.6999999880791","images/goat5.png","","","learning","images/animals_choice1.png","images/animals_choice2.png","images/animals_choice3.png","[0,1,2]","1","1","2","images/animals_choice2.png","1","animals","","goat","1","0"
"html-keyboard-response","192","710701","0.0-9.0-2.0-0.53","1584","1","2","""event"",""trial"",""time""
""fullscreenenter"",""1"",""2997""
""blur"",""183"",""689000""
""focus"",""183"",""689002""
","""event"",""trial"",""time""
""blur"",""183"",""689000""
","""event"",""trial"",""time""
""focus"",""183"",""689002""
","""event"",""trial"",""time""
""fullscreenenter"",""1"",""2997""
","
","","","","","","null","<div style=""font-size:60px;"">+</div>","null","","fixation","","","","","","","","","","","","","",""
"learning-trial","193","714706","0.0-9.0-2.0-1.53","1584","1","2","""event"",""trial"",""time""
""fullscreenenter"",""1"",""2997""
""blur"",""183"",""689000""
""focus"",""183"",""689002""
","""event"",""trial"",""time""
""blur"",""183"",""689000""
","""event"",""trial"",""time""
""focus"",""183"",""689002""
","""event"",""trial"",""time""
""fullscreenenter"",""1"",""2997""
","
","","","","","","1139.3999999761581","images/sheep2.png","","","learning","images/animals_choice1.png","images/animals_choice3.png","images/animals_choice2.png","[0,2,1]","2","1","2","images/animals_choice3.png","1","animals","","sheep","1","0"
"html-keyboard-response","194","715211","0.0-9.0-2.0-0.54","1584","1","2","""event"",""trial"",""time""
""fullscreenenter"",""1"",""2997""
""blur"",""183"",""689000""
""focus"",""183"",""689002""
","""event"",""trial"",""time""
""blur"",""183"",""689000""
","""event"",""trial"",""time""
""focus"",""183"",""689002""
","""event"",""trial"",""time""
""fullscreenenter"",""1"",""2997""
","
","","","","","","null","<div style=""font-size:60px;"">+</div>","null","","fixation","","","","","","","","","","","","","",""
"learning-trial","195","719217","0.0-9.0-2.0-1.54","1584","1","2","""event"",""trial"",""time""
""fullscreenenter"",""1"",""2997""
""blur"",""183"",""689000""
""focus"",""183"",""689002""
","""event"",""trial"",""time""
""blur"",""183"",""689000""
","""event"",""trial"",""time""
""focus"",""183"",""689002""
","""event"",""trial"",""time""
""fullscreenenter"",""1"",""2997""
","
","","","","","","853.6999999880791","images/cow3.png","","","learning","images/animals_choice3.png","images/animals_choice2.png","images/animals_choice1.png","[2,1,0]","0","2","2","images/animals_choice2.png","-1","animals","","cow","1","0"
"html-keyboard-response","196","719722","0.0-9.0-2.0-0.55","1584","1","2","""event"",""trial"",""time""
""fullscreenenter"",""1"",""2997""
""blur"",""183"",""689000""
""focus"",""183"",""689002""
","""event"",""trial"",""time""
""blur"",""183"",""689000""
","""event"",""trial"",""time""
""focus"",""183"",""689002""
","""event"",""trial"",""time""
""fullscreenenter"",""1"",""2997""
","
","","","","","","null","<div style=""font-size:60px;"">+</div>","null","","fixation","","","","","","","","","","","","","",""
"learning-trial","197","723728","0.0-9.0-2.0-1.55","1584","1","2","""event"",""trial"",""time""
""fullscreenenter"",""1"",""2997""
""blur"",""183"",""689000""
""focus"",""183"",""689002""
","""event"",""trial"",""time""
""blur"",""183"",""689000""
","""event"",""trial"",""time""
""focus"",""183"",""689002""
","""event"",""trial"",""time""
""fullscreenenter"",""1"",""2997""
","
","","","","","","824.6000000238419","images/sheep2.png","","","learning","images/animals_choice3.png","images/animals_choice1.png","images/animals_choice2.png","[2,0,1]","2","0","3","images/animals_choice2.png","-1","animals","","sheep","1","0"
"html-keyboard-response","198","724233","0.0-9.0-2.0-0.56","1584","1","2","""event"",""trial"",""time""
""fullscreenenter"",""1"",""2997""
""blur"",""183"",""689000""
""focus"",""183"",""689002""
","""event"",""trial"",""time""
""blur"",""183"",""689000""
","""event"",""trial"",""time""
""focus"",""183"",""689002""
","""event"",""trial"",""time""
""fullscreenenter"",""1"",""2997""
","
","","","","","","null","<div style=""font-size:60px;"">+</div>","null","","fixation","","","","","","","","","","","","","",""
"learning-trial","199","728241","0.0-9.0-2.0-1.56","1584","1","2","""event"",""trial"",""time""
""fullscreenenter"",""1"",""2997""
""blur"",""183"",""689000""
""focus"",""183"",""689002""
","""event"",""trial"",""time""
""blur"",""183"",""689000""
","""event"",""trial"",""time""
""focus"",""183"",""689002""
","""event"",""trial"",""time""
""fullscreenenter"",""1"",""2997""
","
","","","","","","1349.699999988079","images/cow3.png","","","learning","images/animals_choice3.png","images/animals_choice1.png","images/animals_choice2.png","[2,0,1]","0","1","3","images/animals_choice2.png","1","animals","","cow","1","0"
"html-keyboard-response","200","728746","0.0-9.0-2.0-0.57","1584","1","2","""event"",""trial"",""time""
""fullscreenenter"",""1"",""2997""
""blur"",""183"",""689000""
""focus"",""183"",""689002""
","""event"",""trial"",""time""
""blur"",""183"",""689000""
","""event"",""trial"",""time""
""focus"",""183"",""689002""
","""event"",""trial"",""time""
""fullscreenenter"",""1"",""2997""
","
","","","","","","null","<div style=""font-size:60px;"">+</div>","null","","fixation","","","","","","","","","","","","","",""
"learning-trial","201","732754","0.0-9.0-2.0-1.57","1584","1","2","""event"",""trial"",""time""
""fullscreenenter"",""1"",""2997""
""blur"",""183"",""689000""
""focus"",""183"",""689002""
","""event"",""trial"",""time""
""blur"",""183"",""689000""
","""event"",""trial"",""time""
""focus"",""183"",""689002""
","""event"",""trial"",""time""
""fullscreenenter"",""1"",""2997""
","
","","","","","","1563.800000011921","images/cow5.png","","","learning","images/animals_choice2.png","images/animals_choice1.png","images/animals_choice3.png","[1,0,2]","0","1","3","images/animals_choice3.png","-1","animals","","cow","1","0"
"html-keyboard-response","202","733259","0.0-9.0-2.0-0.58","1584","1","2","""event"",""trial"",""time""
""fullscreenenter"",""1"",""2997""
""blur"",""183"",""689000""
""focus"",""183"",""689002""
","""event"",""trial"",""time""
""blur"",""183"",""689000""
","""event"",""trial"",""time""
""focus"",""183"",""689002""
","""event"",""trial"",""time""
""fullscreenenter"",""1"",""2997""
","
","","","","","","null","<div style=""font-size:60px;"">+</div>","null","","fixation","","","","","","","","","","","","","",""
"learning-trial","203","737263","0.0-9.0-2.0-1.58","1584","1","2","""event"",""trial"",""time""
""fullscreenenter"",""1"",""2997""
""blur"",""183"",""689000""
""focus"",""183"",""689002""
","""event"",""trial"",""time""
""blur"",""183"",""689000""
","""event"",""trial"",""time""
""focus"",""183"",""689002""
","""event"",""trial"",""time""
""fullscreenenter"",""1"",""2997""
","
","","","","","","1459.699999988079","images/sheep3.png","","","learning","images/animals_choice1.png","images/animals_choice2.png","images/animals_choice3.png","[0,1,2]","2","2","2","images/animals_choice2.png","-1","animals","","sheep","1","0"
"html-keyboard-response","204","737769","0.0-9.0-2.0-0.59","1584","1","2","""event"",""trial"",""time""
""fullscreenenter"",""1"",""2997""
""blur"",""183"",""689000""
""focus"",""183"",""689002""
","""event"",""trial"",""time""
""blur"",""183"",""689000""
","""event"",""trial"",""time""
""focus"",""183"",""689002""
","""event"",""trial"",""time""
""fullscreenenter"",""1"",""2997""
","
","","","","","","null","<div style=""font-size:60px;"">+</div>","null","","fixation","","","","","","","","","","","","","",""
"learning-trial","205","741776","0.0-9.0-2.0-1.59","1584","1","2","""event"",""trial"",""time""
""fullscreenenter"",""1"",""2997""
""blur"",""183"",""689000""
""focus"",""183"",""689002""
","""event"",""trial"",""time""
""blur"",""183"",""689000""
","""event"",""trial"",""time""
""focus"",""183"",""689002""
","""event"",""trial"",""time""
""fullscreenenter"",""1"",""2997""
","
","","","","","","598.5","images/sheep5.png","","","learning","images/animals_choice3.png","images/animals_choice2.png","images/animals_choice1.png","[2,1,0]","2","0","2","images/animals_choice2.png","1","animals","","sheep","1","0"
"html-keyboard-response","206","742281","0.0-9.0-2.0-0.60","1584","1","2","""event"",""trial"",""time""
""fullscreenenter"",""1"",""2997""
""blur"",""183"",""689000""
""focus"",""183"",""689002""
""blur"",""207"",""743103""
""focus"",""207"",""743105""
","""event"",""trial"",""time""
""blur"",""183"",""689000""
""blur"",""207"",""743103""
","""event"",""trial"",""time""
""focus"",""183"",""689002""
""focus"",""207"",""743105""
","""event"",""trial"",""time""
""fullscreenenter"",""1"",""2997""
","
","","","","","","null","<div style=""font-size:60px;"">+</div>","null","","fixation","","","","","","","","","","","","","",""
"learning-trial","207","746286","0.0-9.0-2.0-1.60","1584","1","2","""event"",""trial"",""time""
""fullscreenenter"",""1"",""2997""
""blur"",""183"",""689000""
""focus"",""183"",""689002""
""blur"",""207"",""743103""
""focus"",""207"",""743105""
","""event"",""trial"",""time""
""blur"",""183"",""689000""
""blur"",""207"",""743103""
","""event"",""trial"",""time""
""focus"",""183"",""689002""
""focus"",""207"",""743105""
","""event"",""trial"",""time""
""fullscreenenter"",""1"",""2997""
","
","","","","","","1788.5","images/goat2.png","","","learning","images/animals_choice2.png","images/animals_choice3.png","images/animals_choice1.png","[1,2,0]","1","0","1","images/animals_choice2.png","1","animals","","goat","1","0"
"html-keyboard-response","208","746791","0.0-9.0-2.0-0.61","1584","1","2","""event"",""trial"",""time""
""fullscreenenter"",""1"",""2997""
""blur"",""183"",""689000""
""focus"",""183"",""689002""
""blur"",""207"",""743103""
""focus"",""207"",""743105""
","""event"",""trial"",""time""
""blur"",""183"",""689000""
""blur"",""207"",""743103""
","""event"",""trial"",""time""
""focus"",""183"",""689002""
""focus"",""207"",""743105""
","""event"",""trial"",""time""
""fullscreenenter"",""1"",""2997""
","
","","","","","","null","<div style=""font-size:60px;"">+</div>","null","","fixation","","","","","","","","","","","","","",""
"learning-trial","209","750797","0.0-9.0-2.0-1.61","1584","1","2","""event"",""trial"",""time""
""fullscreenenter"",""1"",""2997""
""blur"",""183"",""689000""
""focus"",""183"",""689002""
""blur"",""207"",""743103""
""focus"",""207"",""743105""
","""event"",""trial"",""time""
""blur"",""183"",""689000""
""blur"",""207"",""743103""
","""event"",""trial"",""time""
""focus"",""183"",""689002""
""focus"",""207"",""743105""
","""event"",""trial"",""time""
""fullscreenenter"",""1"",""2997""
","
","","","","","","1003.3000000119209","images/goat3.png","","","learning","images/animals_choice3.png","images/animals_choice1.png","images/animals_choice2.png","[2,0,1]","1","2","3","images/animals_choice2.png","1","animals","","goat","1","0"
"html-keyboard-response","210","751302","0.0-9.0-2.0-0.62","1584","1","2","""event"",""trial"",""time""
""fullscreenenter"",""1"",""2997""
""blur"",""183"",""689000""
""focus"",""183"",""689002""
""blur"",""207"",""743103""
""focus"",""207"",""743105""
","""event"",""trial"",""time""
""blur"",""183"",""689000""
""blur"",""207"",""743103""
","""event"",""trial"",""time""
""focus"",""183"",""689002""
""focus"",""207"",""743105""
","""event"",""trial"",""time""
""fullscreenenter"",""1"",""2997""
","
","","","","","","null","<div style=""font-size:60px;"">+</div>","null","","fixation","","","","","","","","","","","","","",""
"learning-trial","211","755308","0.0-9.0-2.0-1.62","1584","1","2","""event"",""trial"",""time""
""fullscreenenter"",""1"",""2997""
""blur"",""183"",""689000""
""focus"",""183"",""689002""
""blur"",""207"",""743103""
""focus"",""207"",""743105""
","""event"",""trial"",""time""
""blur"",""183"",""689000""
""blur"",""207"",""743103""
","""event"",""trial"",""time""
""focus"",""183"",""689002""
""focus"",""207"",""743105""
","""event"",""trial"",""time""
""fullscreenenter"",""1"",""2997""
","
","","","","","","406.59999999403954","images/sheep3.png","","","learning","images/animals_choice2.png","images/animals_choice1.png","images/animals_choice3.png","[1,0,2]","2","2","1","images/animals_choice2.png","-1","animals","","sheep","1","0"
"html-keyboard-response","212","755813","0.0-9.0-2.0-0.63","1584","1","2","""event"",""trial"",""time""
""fullscreenenter"",""1"",""2997""
""blur"",""183"",""689000""
""focus"",""183"",""689002""
""blur"",""207"",""743103""
""focus"",""207"",""743105""
","""event"",""trial"",""time""
""blur"",""183"",""689000""
""blur"",""207"",""743103""
","""event"",""trial"",""time""
""focus"",""183"",""689002""
""focus"",""207"",""743105""
","""event"",""trial"",""time""
""fullscreenenter"",""1"",""2997""
","
","","","","","","null","<div style=""font-size:60px;"">+</div>","null","","fixation","","","","","","","","","","","","","",""
"learning-trial","213","759818","0.0-9.0-2.0-1.63","1584","1","2","""event"",""trial"",""time""
""fullscreenenter"",""1"",""2997""
""blur"",""183"",""689000""
""focus"",""183"",""689002""
""blur"",""207"",""743103""
""focus"",""207"",""743105""
","""event"",""trial"",""time""
""blur"",""183"",""689000""
""blur"",""207"",""743103""
","""event"",""trial"",""time""
""focus"",""183"",""689002""
""focus"",""207"",""743105""
","""event"",""trial"",""time""
""fullscreenenter"",""1"",""2997""
","
","","","","","","454.30000001192093","images/goat2.png","","","learning","images/animals_choice2.png","images/animals_choice3.png","images/animals_choice1.png","[1,2,0]","1","0","2","images/animals_choice3.png","-1","animals","","goat","1","0"
"html-keyboard-response","214","760323","0.0-9.0-2.0-0.64","1584","1","2","""event"",""trial"",""time""
""fullscreenenter"",""1"",""2997""
""blur"",""183"",""689000""
""focus"",""183"",""689002""
""blur"",""207"",""743103""
""focus"",""207"",""743105""
","""event"",""trial"",""time""
""blur"",""183"",""689000""
""blur"",""207"",""743103""
","""event"",""trial"",""time""
""focus"",""183"",""689002""
""focus"",""207"",""743105""
","""event"",""trial"",""time""
""fullscreenenter"",""1"",""2997""
","
","","","","","","null","<div style=""font-size:60px;"">+</div>","null","","fixation","","","","","","","","","","","","","",""
"learning-trial","215","764329","0.0-9.0-2.0-1.64","1584","1","2","""event"",""trial"",""time""
""fullscreenenter"",""1"",""2997""
""blur"",""183"",""689000""
""focus"",""183"",""689002""
""blur"",""207"",""743103""
""focus"",""207"",""743105""
","""event"",""trial"",""time""
""blur"",""183"",""689000""
""blur"",""207"",""743103""
","""event"",""trial"",""time""
""focus"",""183"",""689002""
""focus"",""207"",""743105""
","""event"",""trial"",""time""
""fullscreenenter"",""1"",""2997""
","
","","","","","","461.7999999821186","images/goat5.png","","","learning","images/animals_choice2.png","images/animals_choice3.png","images/animals_choice1.png","[1,2,0]","1","0","1","images/animals_choice2.png","1","animals","","goat","1","0"
"html-keyboard-response","216","764834","0.0-9.0-2.0-0.65","1584","1","2","""event"",""trial"",""time""
""fullscreenenter"",""1"",""2997""
""blur"",""183"",""689000""
""focus"",""183"",""689002""
""blur"",""207"",""743103""
""focus"",""207"",""743105""
","""event"",""trial"",""time""
""blur"",""183"",""689000""
""blur"",""207"",""743103""
","""event"",""trial"",""time""
""focus"",""183"",""689002""
""focus"",""207"",""743105""
","""event"",""trial"",""time""
""fullscreenenter"",""1"",""2997""
","
","","","","","","null","<div style=""font-size:60px;"">+</div>","null","","fixation","","","","","","","","","","","","","",""
"learning-trial","217","768839","0.0-9.0-2.0-1.65","1584","1","2","""event"",""trial"",""time""
""fullscreenenter"",""1"",""2997""
""blur"",""183"",""689000""
""focus"",""183"",""689002""
""blur"",""207"",""743103""
""focus"",""207"",""743105""
","""event"",""trial"",""time""
""blur"",""183"",""689000""
""blur"",""207"",""743103""
","""event"",""trial"",""time""
""focus"",""183"",""689002""
""focus"",""207"",""743105""
","""event"",""trial"",""time""
""fullscreenenter"",""1"",""2997""
","
","","","","","","445.40000000596046","images/sheep2.png","","","learning","images/animals_choice2.png","images/animals_choice3.png","images/animals_choice1.png","[1,2,0]","2","1","1","images/animals_choice2.png","-1","animals","","sheep","1","0"
"html-keyboard-response","218","769344","0.0-9.0-2.0-0.66","1584","1","2","""event"",""trial"",""time""
""fullscreenenter"",""1"",""2997""
""blur"",""183"",""689000""
""focus"",""183"",""689002""
""blur"",""207"",""743103""
""focus"",""207"",""743105""
","""event"",""trial"",""time""
