"trial_type","trial_index","time_elapsed","internal_node_id","subject_id","condition","task_version","interactions","blur_events","focus_events","fullscreenenter_events","fullscreenexit_events","success","timeout","failed_images","failed_audio","failed_video","rt","stimulus","response","button_pressed","task_part","left_choice","middle_choice","right_choice","choice_positions","correct_response","correct_position","key_press","option_selected","points","task_block","correct","stim_cat","block_condition","block_number"
"pavlovia","0","2","0.0-0.0","1500","2","2","""event"",""trial"",""time""
""fullscreenenter"",""1"",""2019""
","
","
","""event"",""trial"",""time""
""fullscreenenter"",""1"",""2019""
","
","","","","","","","","","","","","","","","","","","","","","","","",""
"fullscreen","1","3013","0.0-1.0","1500","2","2","""event"",""trial"",""time""
""fullscreenenter"",""1"",""2019""
","
","
","""event"",""trial"",""time""
""fullscreenenter"",""1"",""2019""
","
","true","","","","","","","","","","","","","","","","","","","","","","",""
"preload","2","11082","0.0-2.0","1500","2","2","""event"",""trial"",""time""
""fullscreenenter"",""1"",""2019""
","
","
","""event"",""trial"",""time""
""fullscreenenter"",""1"",""2019""
","
","true","false","[]","[]","[]","","","","","","","","","","","","","","","","","","",""
"audio-keyboard-response","3","16956","0.0-3.0","1500","2","2","""event"",""trial"",""time""
""fullscreenenter"",""1"",""2019""
","
","
","""event"",""trial"",""time""
""fullscreenenter"",""1"",""2019""
","
","","","","","","5880.000000000001","audio/beep_loop.wav"," ","","","","","","","","","","","","","","","",""
"audio-button-response","4","19800","0.0-4.0","1500","2","2","""event"",""trial"",""time""
""fullscreenenter"",""1"",""2019""
","
","
","""event"",""trial"",""time""
""fullscreenenter"",""1"",""2019""
","
","","","","","","2840","audio/shark.wav","4","","","","","","","","","","","","","","","",""
"audio-button-response","5","21985","0.0-5.0","1500","2","2","""event"",""trial"",""time""
""fullscreenenter"",""1"",""2019""
","
","
","""event"",""trial"",""time""
""fullscreenenter"",""1"",""2019""
","
","","","","","","1189","audio/turtle.wav","1","","","","","","","","","","","","","","","",""
"preload","6","32881","0.0-6.0","1500","2","2","""event"",""trial"",""time""
""fullscreenenter"",""1"",""2019""
","
","
","""event"",""trial"",""time""
""fullscreenenter"",""1"",""2019""
","
","true","false","[]","[]","[]","","","","","","","","","","","","","","","","","","",""
"html-keyboard-response","7","35093","0.0-7.0","1500","2","2","""event"",""trial"",""time""
""fullscreenenter"",""1"",""2019""
","
","
","""event"",""trial"",""time""
""fullscreenenter"",""1"",""2019""
","
","","","","","","2211.9000000953674","Welcome to the experiment. Press any key to begin and to advance the instructions."," ","","","","","","","","","","","","","","","",""
"learning-instructions","8","43775","0.0-8.0-0.0-0.0","1500","2","2","""event"",""trial"",""time""
""fullscreenenter"",""1"",""2019""
","
","
","""event"",""trial"",""time""
""fullscreenenter"",""1"",""2019""
","
","","","","","","932.5","<p> Welcome! Today you are going to play 6 different rounds of a decision-making game. </p><p> Use the mouse to click next to continue. </p>","","0","instructions","","","","","","","","","","","","","",""
"learning-instructions","9","47233","0.0-8.0-0.0-0.1","1500","2","2","""event"",""trial"",""time""
""fullscreenenter"",""1"",""2019""
","
","
","""event"",""trial"",""time""
""fullscreenenter"",""1"",""2019""
","
","","","","","","450","<p> You will start with a practice round to learn the rules. </p>","","0","instructions","","","","","","","","","","","","","",""
"learning-instructions","10","56201","0.0-8.0-0.0-0.2","1500","2","2","""event"",""trial"",""time""
""fullscreenenter"",""1"",""2019""
","
","
","""event"",""trial"",""time""
""fullscreenenter"",""1"",""2019""
","
","","","","","","1218.0999999046326","<p> Your goal in this round is to deliver sports equipment to three different parks. </p><p> You will need to deliver many types of equipment. </p></div>","","0","instructions","","","","","","","","","","","","","",""
"learning-instructions","11","70107","0.0-8.0-0.0-0.3","1500","2","2","""event"",""trial"",""time""
""fullscreenenter"",""1"",""2019""
","
","
","""event"",""trial"",""time""
""fullscreenenter"",""1"",""2019""
","
","","","","","","5424","<p> On each turn, you will see one piece of sports equipment and three different parks.  </p><p> You need to select which park to deliver the equipment to.  </p>","","0","instructions","","","","","","","","","","","","","",""
"learning-instructions","12","83682","0.0-8.0-0.0-0.4","1500","2","2","""event"",""trial"",""time""
""fullscreenenter"",""1"",""2019""
","
","
","""event"",""trial"",""time""
""fullscreenenter"",""1"",""2019""
","
","","","","","","299.2000000476837","<p> You can select the park on the left by pressing the '1' key on your keyboard. <br>You can select the park in the middle by pressing the '2' key on your keyboard. <br>You can select the park on the right by pressing the '3' key on your keyboard.  </p><br><div class=""choice-instructions-grid""> <div class=""choice-option""><img src=""images/park1.png"" class=""choice-option-img"" stage=""instructions"" position=""0"" ><div class=""choice-option-text""> Press ""1."" </div></div><div class=""choice-option""><img src=""images/park2.png"" class=""choice-option-img"" stage=""instructions"" position=""1"" ><div class=""choice-option-text""> Press ""2."" </div></div><div class=""choice-option""><img src=""images/park3.png"" class=""choice-option-img"" stage=""instructions"" position=""2"" ><div class=""choice-option-text""> Press ""3."" </div></div></div>","","0","instructions","","","","","","","","","","","","","",""
"learning-instructions","13","94841","0.0-8.0-0.0-0.5","1500","2","2","""event"",""trial"",""time""
""fullscreenenter"",""1"",""2019""
","
","
","""event"",""trial"",""time""
""fullscreenenter"",""1"",""2019""
","
","","","","","","5778.5","<p> If the kids in the park you chose like the equipment, they will be very happy! </p><div style='float: center;'><img src='images/check.png' width = '200' height = '200'></img>","","0","instructions","","","","","","","","","","","","","",""
"learning-instructions","14","101695","0.0-8.0-0.0-0.6","1500","2","2","""event"",""trial"",""time""
""fullscreenenter"",""1"",""2019""
","
","
","""event"",""trial"",""time""
""fullscreenenter"",""1"",""2019""
","
","","","","","","1261.8999998569489","<p> But, if the kids in the park you chose do not like the equipment, they will be sad. </p><div style='float: center;'><img src='images/x.png' width = '200' height = '200'></img>","","0","instructions","","","","","","","","","","","","","",""
"learning-instructions","15","109267","0.0-8.0-0.0-0.7","1500","2","2","""event"",""trial"",""time""
""fullscreenenter"",""1"",""2019""
","
","
","""event"",""trial"",""time""
""fullscreenenter"",""1"",""2019""
","
","","","","","","1142.7000000476837","<p> Importantly, the kids in each park like some pieces of sports equipment more than others. </p>","","0","instructions","","","","","","","","","","","","","",""
"learning-instructions","16","116446","0.0-8.0-0.0-0.8","1500","2","2","""event"",""trial"",""time""
""fullscreenenter"",""1"",""2019""
","
","
","""event"",""trial"",""time""
""fullscreenenter"",""1"",""2019""
","
","","","","","","1132.2999999523163","<p> If you choose the best park for each piece of equipment, the kids there will usually be happy. </p>","","0","instructions","","","","","","","","","","","","","",""
"learning-instructions","17","124535","0.0-8.0-0.0-0.9","1500","2","2","""event"",""trial"",""time""
""fullscreenenter"",""1"",""2019""
","
","
","""event"",""trial"",""time""
""fullscreenenter"",""1"",""2019""
","
","","","","","","1441.7000000476837","<p> However, even if you choose the best park for the equipment, the kids may sometimes be sad. </p>","","0","instructions","","","","","","","","","","","","","",""
"learning-instructions","18","132129","0.0-8.0-0.0-0.10","1500","2","2","""event"",""trial"",""time""
""fullscreenenter"",""1"",""2019""
","
","
","""event"",""trial"",""time""
""fullscreenenter"",""1"",""2019""
","
","","","","","","365.2999999523163","<p> Similarly, even if you choose the <i>wrong</i> park for the equipment, the kids may still be happy sometimes.","","0","instructions","","","","","","","","","","","","","",""
"learning-instructions","19","137831","0.0-8.0-0.0-0.11","1500","2","2","""event"",""trial"",""time""
""fullscreenenter"",""1"",""2019""
","
","
","""event"",""trial"",""time""
""fullscreenenter"",""1"",""2019""
","
","","","","","","646.7999999523163","<p> For example, the best park for this soccer ball is this one.<div style='float: center;'><img src='images/i1.png' width = '500' height = '268'></img>","","0","instructions","","","","","","","","","","","","","",""
"learning-instructions","20","143492","0.0-8.0-0.0-0.12","1500","2","2","""event"",""trial"",""time""
""fullscreenenter"",""1"",""2019""
","
","
","""event"",""trial"",""time""
""fullscreenenter"",""1"",""2019""
","
","","","","","","368.40000009536743","<p> Let's see what happens if you choose this park for the soccer ball five times.","","0","instructions","","","","","","","","","","","","","",""
"learning-instructions","21","146345","0.0-8.0-0.0-0.13","1500","2","2","""event"",""trial"",""time""
""fullscreenenter"",""1"",""2019""
","
","
","""event"",""trial"",""time""
""fullscreenenter"",""1"",""2019""
","
","","","","","","691.1000001430511","<p> The kids are happy.<div style='float: left;'><img src='images/i2.png' width = '640' height = '360'></img>","","0","instructions","","","","","","","","","","","","","",""
"learning-instructions","22","148682","0.0-8.0-0.0-0.14","1500","2","2","""event"",""trial"",""time""
""fullscreenenter"",""1"",""2019""
","
","
","""event"",""trial"",""time""
""fullscreenenter"",""1"",""2019""
","
","","","","","","168.10000014305115","<p> The kids are happy.<div style='float: left;'><img src='images/i3.png' width = '640' height = '360'></img>","","0","instructions","","","","","","","","","","","","","",""
"learning-instructions","23","151141","0.0-8.0-0.0-0.15","1500","2","2","""event"",""trial"",""time""
""fullscreenenter"",""1"",""2019""
","
","
","""event"",""trial"",""time""
""fullscreenenter"",""1"",""2019""
","
","","","","","","296.7999999523163","<p> The kids are happy.<div style='float: left;'><img src='images/i4.png' width = '640' height = '360'></img>","","0","instructions","","","","","","","","","","","","","",""
"learning-instructions","24","153664","0.0-8.0-0.0-0.16","1500","2","2","""event"",""trial"",""time""
""fullscreenenter"",""1"",""2019""
","
","
","""event"",""trial"",""time""
""fullscreenenter"",""1"",""2019""
","
","","","","","","299.60000014305115","<p> The kids are sad.<div style='float: left;'><img src='images/i5.png' width = '640' height = '360'></img>","","0","instructions","","","","","","","","","","","","","",""
"learning-instructions","25","156221","0.0-8.0-0.0-0.17","1500","2","2","""event"",""trial"",""time""
""fullscreenenter"",""1"",""2019""
","
","
","""event"",""trial"",""time""
""fullscreenenter"",""1"",""2019""
","
","","","","","","377.60000014305115","<p> The kids are happy.<div style='float: left;'><img src='images/i6.png' width = '640' height = '360'></img>","","0","instructions","","","","","","","","","","","","","",""
"learning-instructions","26","163807","0.0-8.0-0.0-0.18","1500","2","2","""event"",""trial"",""time""
""fullscreenenter"",""1"",""2019""
","
","
","""event"",""trial"",""time""
""fullscreenenter"",""1"",""2019""
","
","","","","","","303.2999999523163","<p> As you can see, selecting that park for the soccer ball made the kids happy most of the time, but not all the time.","","0","instructions","","","","","","","","","","","","","",""
"learning-instructions","27","170223","0.0-8.0-0.0-0.19","1500","2","2","""event"",""trial"",""time""
""fullscreenenter"",""1"",""2019""
","
","
","""event"",""trial"",""time""
""fullscreenenter"",""1"",""2019""
","
","","","","","","418.7999999523163","<p> Now let's see what happens if you choose a DIFFERENT park for the soccer ball 5 times.","","0","instructions","","","","","","","","","","","","","",""
"learning-instructions","28","173032","0.0-8.0-0.0-0.20","1500","2","2","""event"",""trial"",""time""
""fullscreenenter"",""1"",""2019""
","
","
","""event"",""trial"",""time""
""fullscreenenter"",""1"",""2019""
","
","","","","","","598.2999999523163","<p> The kids are sad.<div style='float: left;'><img src='images/i7.png' width = '640' height = '360'></img>","","0","instructions","","","","","","","","","","","","","",""
"learning-instructions","29","175469","0.0-8.0-0.0-0.21","1500","2","2","""event"",""trial"",""time""
""fullscreenenter"",""1"",""2019""
","
","
","""event"",""trial"",""time""
""fullscreenenter"",""1"",""2019""
","
","","","","","","225.10000014305115","<p> The kids are sad.<div style='float: left;'><img src='images/i8.png' width = '640' height = '360'></img>","","0","instructions","","","","","","","","","","","","","",""
"learning-instructions","30","177763","0.0-8.0-0.0-0.22","1500","2","2","""event"",""trial"",""time""
""fullscreenenter"",""1"",""2019""
","
","
","""event"",""trial"",""time""
""fullscreenenter"",""1"",""2019""
","
","","","","","","128.5","<p> The kids are happy.<div style='float: left;'><img src='images/i9.png' width = '640' height = '360'></img>","","0","instructions","","","","","","","","","","","","","",""
"learning-instructions","31","180345","0.0-8.0-0.0-0.23","1500","2","2","""event"",""trial"",""time""
""fullscreenenter"",""1"",""2019""
","
","
","""event"",""trial"",""time""
""fullscreenenter"",""1"",""2019""
","
","","","","","","371.2000000476837","<p> The kids are sad.<div style='float: left;'><img src='images/i10.png' width = '640' height = '360'></img>","","0","instructions","","","","","","","","","","","","","",""
"learning-instructions","32","183234","0.0-8.0-0.0-0.24","1500","2","2","""event"",""trial"",""time""
""fullscreenenter"",""1"",""2019""
","
","
","""event"",""trial"",""time""
""fullscreenenter"",""1"",""2019""
","
","","","","","","680","<p> The kids are sad.<div style='float: left;'><img src='images/i11.png' width = '640' height = '360'></img>","","0","instructions","","","","","","","","","","","","","",""
"learning-instructions","33","196440","0.0-8.0-0.0-0.25","1500","2","2","""event"",""trial"",""time""
""fullscreenenter"",""1"",""2019""
","
","
","""event"",""trial"",""time""
""fullscreenenter"",""1"",""2019""
","
","","","","","","5075.700000047684","<p> As you can see, selecting the wrong park for the soccer ball made the kids sad most of the time, but not all the time.","","0","instructions","","","","","","","","","","","","","",""
"learning-instructions","34","209929","0.0-8.0-0.0-0.26","1500","2","2","""event"",""trial"",""time""
""fullscreenenter"",""1"",""2019""
","
","
","""event"",""trial"",""time""
""fullscreenenter"",""1"",""2019""
","
","","","","","","4365.5","<p> The different pieces of equipment belong in different parks. You need to try to learn which is the best park for each piece of equipment.","","0","instructions","","","","","","","","","","","","","",""
"learning-instructions","35","233315","0.0-8.0-0.0-0.27","1500","2","2","""event"",""trial"",""time""
""fullscreenenter"",""1"",""2019""
","
","
","""event"",""trial"",""time""
""fullscreenenter"",""1"",""2019""
","
","","","","","","7002.5","<p> Try to choose the best park for each piece of equipment, because you will <b> WIN </b> 1 point for each time you make the kids happy and <b>LOSE</b> 1 point for each time you make them sad. </p><p> Remember, if you make the best choice, you will win 1 point most of the time, but not all the time. </p>","","0","instructions","","","","","","","","","","","","","",""
"learning-instructions","36","239165","0.0-8.0-0.0-0.28","1500","2","2","""event"",""trial"",""time""
""fullscreenenter"",""1"",""2019""
","
","
","""event"",""trial"",""time""
""fullscreenenter"",""1"",""2019""
","
","","","","","","361.7000000476837","<p> This is just a practice round, but in the real game, your bonus payment will depend on your total number of points.","","0","instructions","","","","","","","","","","","","","",""
"learning-instructions","37","251997","0.0-8.0-0.0-0.29","1500","2","2","""event"",""trial"",""time""
""fullscreenenter"",""1"",""2019""
","
","
","""event"",""trial"",""time""
""fullscreenenter"",""1"",""2019""
","
","","","","","","2514.4000000953674","<p> The position where each park appears will change throughout the game. </p><p> The position where the park appears <i> does not </i> influence how likely the kids are to be happy or sad. </p>","","0","instructions","","","","","","","","","","","","","",""
"learning-instructions","38","264648","0.0-8.0-0.0-0.30","1500","2","2","""event"",""trial"",""time""
""fullscreenenter"",""1"",""2019""
","
","
","""event"",""trial"",""time""
""fullscreenenter"",""1"",""2019""
","
","","","","","","1864.6999998092651","<p> You will have 4 seconds to make each choice. Try to respond before time runs out! </p><p> You will lose 1 point each time you do not make a response. </p>","","0","instructions","","","","","","","","","","","","","",""
"learning-instructions","39","274799","0.0-8.0-0.0-0.31","1500","2","2","""event"",""trial"",""time""
""fullscreenenter"",""1"",""2019""
","
","
","""event"",""trial"",""time""
""fullscreenenter"",""1"",""2019""
","
","","","","","","3355.5999999046326","<p> Remember, you should use the 1, 2, and 3 keys to select the park for each piece of equipment. </p><br><div class=""choice-instructions-grid""> <div class=""choice-option""><img src=""images/park1.png"" class=""choice-option-img"" stage=""instructions"" position=""0"" ><div class=""choice-option-text""> Press ""1."" </div></div><div class=""choice-option""><img src=""images/park2.png"" class=""choice-option-img"" stage=""instructions"" position=""1"" ><div class=""choice-option-text""> Press ""2."" </div></div><div class=""choice-option""><img src=""images/park3.png"" class=""choice-option-img"" stage=""instructions"" position=""2"" ><div class=""choice-option-text""> Press ""3."" </div></div></div>","","0","instructions","","","","","","","","","","","","","",""
"html-button-response","40","276162","0.0-8.0-1.0","1500","2","2","""event"",""trial"",""time""
""fullscreenenter"",""1"",""2019""
","
","
","""event"",""trial"",""time""
""fullscreenenter"",""1"",""2019""
","
","","","","","","1252.1000001430511","<p> Ready to practice? </p>","0","","","","","","","","","","","","","","","",""
"html-keyboard-response","41","276769","0.0-8.0-2.0-0.0","1500","2","2","""event"",""trial"",""time""
""fullscreenenter"",""1"",""2019""
","
","
","""event"",""trial"",""time""
""fullscreenenter"",""1"",""2019""
","
","","","","","","null","<div style=""font-size:60px;"">+</div>","null","","fixation","","","","","","","","","","","","","",""
"learning-trial","42","280770","0.0-8.0-2.0-1.0","1500","2","2","""event"",""trial"",""time""
""fullscreenenter"",""1"",""2019""
","
","
","""event"",""trial"",""time""
""fullscreenenter"",""1"",""2019""
","
","","","","","","2058.7000000476837","images/racket4.png","","","practice","images/park3.png","images/park1.png","images/park2.png","[2,0,1]","0","1","2","images/park1.png","1","practice","","","",""
"html-keyboard-response","43","281271","0.0-8.0-2.0-0.1","1500","2","2","""event"",""trial"",""time""
""fullscreenenter"",""1"",""2019""
","
","
","""event"",""trial"",""time""
""fullscreenenter"",""1"",""2019""
","
","","","","","","null","<div style=""font-size:60px;"">+</div>","null","","fixation","","","","","","","","","","","","","",""
"learning-trial","44","285272","0.0-8.0-2.0-1.1","1500","2","2","""event"",""trial"",""time""
""fullscreenenter"",""1"",""2019""
","
","
","""event"",""trial"",""time""
""fullscreenenter"",""1"",""2019""
","
","","","","","","1710.8000001907349","images/racket4.png","","","practice","images/park2.png","images/park1.png","images/park3.png","[1,0,2]","0","1","2","images/park1.png","1","practice","","","",""
"html-keyboard-response","45","285784","0.0-8.0-2.0-0.2","1500","2","2","""event"",""trial"",""time""
""fullscreenenter"",""1"",""2019""
","
","
","""event"",""trial"",""time""
""fullscreenenter"",""1"",""2019""
","
","","","","","","null","<div style=""font-size:60px;"">+</div>","null","","fixation","","","","","","","","","","","","","",""
"learning-trial","46","289797","0.0-8.0-2.0-1.2","1500","2","2","""event"",""trial"",""time""
""fullscreenenter"",""1"",""2019""
","
","
","""event"",""trial"",""time""
""fullscreenenter"",""1"",""2019""
","
","","","","","","1389.1000001430511","images/ball2.png","","","practice","images/park1.png","images/park2.png","images/park3.png","[0,1,2]","1","1","1","images/park1.png","-1","practice","","","",""
"html-keyboard-response","47","290304","0.0-8.0-2.0-0.3","1500","2","2","""event"",""trial"",""time""
""fullscreenenter"",""1"",""2019""
","
","
","""event"",""trial"",""time""
""fullscreenenter"",""1"",""2019""
","
","","","","","","null","<div style=""font-size:60px;"">+</div>","null","","fixation","","","","","","","","","","","","","",""
"learning-trial","48","294305","0.0-8.0-2.0-1.3","1500","2","2","""event"",""trial"",""time""
""fullscreenenter"",""1"",""2019""
","
","
","""event"",""trial"",""time""
""fullscreenenter"",""1"",""2019""
","
","","","","","","1199.4000000953674","images/ball4.png","","","practice","images/park2.png","images/park1.png","images/park3.png","[1,0,2]","0","1","1","images/park2.png","-1","practice","","","",""
"html-keyboard-response","49","294810","0.0-8.0-2.0-0.4","1500","2","2","""event"",""trial"",""time""
""fullscreenenter"",""1"",""2019""
","
","
","""event"",""trial"",""time""
""fullscreenenter"",""1"",""2019""
","
","","","","","","null","<div style=""font-size:60px;"">+</div>","null","","fixation","","","","","","","","","","","","","",""
"learning-trial","50","298815","0.0-8.0-2.0-1.4","1500","2","2","""event"",""trial"",""time""
""fullscreenenter"",""1"",""2019""
","
","
","""event"",""trial"",""time""
""fullscreenenter"",""1"",""2019""
","
","","","","","","987.5","images/ball2.png","","","practice","images/park1.png","images/park3.png","images/park2.png","[0,2,1]","1","2","1","images/park1.png","-1","practice","","","",""
"html-keyboard-response","51","299324","0.0-8.0-2.0-0.5","1500","2","2","""event"",""trial"",""time""
""fullscreenenter"",""1"",""2019""
","
","
","""event"",""trial"",""time""
""fullscreenenter"",""1"",""2019""
","
","","","","","","null","<div style=""font-size:60px;"">+</div>","null","","fixation","","","","","","","","","","","","","",""
"learning-trial","52","303326","0.0-8.0-2.0-1.5","1500","2","2","""event"",""trial"",""time""
""fullscreenenter"",""1"",""2019""
","
","
","""event"",""trial"",""time""
""fullscreenenter"",""1"",""2019""
","
","","","","","","1618","images/racket2.png","","","practice","images/park2.png","images/park3.png","images/park1.png","[1,2,0]","1","0","1","images/park2.png","1","practice","","","",""
"html-keyboard-response","53","303827","0.0-8.0-2.0-0.6","1500","2","2","""event"",""trial"",""time""
""fullscreenenter"",""1"",""2019""
","
","
","""event"",""trial"",""time""
""fullscreenenter"",""1"",""2019""
","
","","","","","","null","<div style=""font-size:60px;"">+</div>","null","","fixation","","","","","","","","","","","","","",""
"learning-trial","54","307842","0.0-8.0-2.0-1.6","1500","2","2","""event"",""trial"",""time""
""fullscreenenter"",""1"",""2019""
","
","
","""event"",""trial"",""time""
""fullscreenenter"",""1"",""2019""
","
","","","","","","1443.2999999523163","images/ball4.png","","","practice","images/park2.png","images/park1.png","images/park3.png","[1,0,2]","0","1","3","images/park3.png","-1","practice","","","",""
"html-keyboard-response","55","308343","0.0-8.0-2.0-0.7","1500","2","2","""event"",""trial"",""time""
""fullscreenenter"",""1"",""2019""
","
","
","""event"",""trial"",""time""
""fullscreenenter"",""1"",""2019""
","
","","","","","","null","<div style=""font-size:60px;"">+</div>","null","","fixation","","","","","","","","","","","","","",""
"learning-trial","56","312345","0.0-8.0-2.0-1.7","1500","2","2","""event"",""trial"",""time""
""fullscreenenter"",""1"",""2019""
","
","
","""event"",""trial"",""time""
""fullscreenenter"",""1"",""2019""
","
","","","","","","1335.6000001430511","images/racket1.png","","","practice","images/park1.png","images/park3.png","images/park2.png","[0,2,1]","2","1","1","images/park1.png","-1","practice","","","",""
"html-keyboard-response","57","312846","0.0-8.0-2.0-0.8","1500","2","2","""event"",""trial"",""time""
""fullscreenenter"",""1"",""2019""
","
","
","""event"",""trial"",""time""
""fullscreenenter"",""1"",""2019""
","
","","","","","","null","<div style=""font-size:60px;"">+</div>","null","","fixation","","","","","","","","","","","","","",""
"learning-trial","58","316847","0.0-8.0-2.0-1.8","1500","2","2","""event"",""trial"",""time""
""fullscreenenter"",""1"",""2019""
","
","
","""event"",""trial"",""time""
""fullscreenenter"",""1"",""2019""
","
","","","","","","1545.9000000953674","images/racket3.png","","","practice","images/park3.png","images/park2.png","images/park1.png","[2,1,0]","2","0","3","images/park1.png","-1","practice","","","",""
"html-keyboard-response","59","317348","0.0-8.0-2.0-0.9","1500","2","2","""event"",""trial"",""time""
""fullscreenenter"",""1"",""2019""
","
","
","""event"",""trial"",""time""
""fullscreenenter"",""1"",""2019""
","
","","","","","","null","<div style=""font-size:60px;"">+</div>","null","","fixation","","","","","","","","","","","","","",""
"learning-trial","60","321350","0.0-8.0-2.0-1.9","1500","2","2","""event"",""trial"",""time""
""fullscreenenter"",""1"",""2019""
","
","
","""event"",""trial"",""time""
""fullscreenenter"",""1"",""2019""
","
","","","","","","883.2000000476837","images/racket1.png","","","practice","images/park1.png","images/park3.png","images/park2.png","[0,2,1]","2","1","1","images/park1.png","-1","practice","","","",""
"html-keyboard-response","61","321851","0.0-8.0-2.0-0.10","1500","2","2","""event"",""trial"",""time""
""fullscreenenter"",""1"",""2019""
","
","
","""event"",""trial"",""time""
""fullscreenenter"",""1"",""2019""
","
","","","","","","null","<div style=""font-size:60px;"">+</div>","null","","fixation","","","","","","","","","","","","","",""
"learning-trial","62","325853","0.0-8.0-2.0-1.10","1500","2","2","""event"",""trial"",""time""
""fullscreenenter"",""1"",""2019""
","
","
","""event"",""trial"",""time""
""fullscreenenter"",""1"",""2019""
","
","","","","","","1150.8999998569489","images/racket2.png","","","practice","images/park3.png","images/park2.png","images/park1.png","[2,1,0]","1","1","2","images/park2.png","1","practice","","","",""
"html-keyboard-response","63","326354","0.0-8.0-2.0-0.11","1500","2","2","""event"",""trial"",""time""
""fullscreenenter"",""1"",""2019""
","
","
","""event"",""trial"",""time""
""fullscreenenter"",""1"",""2019""
","
","","","","","","null","<div style=""font-size:60px;"">+</div>","null","","fixation","","","","","","","","","","","","","",""
"learning-trial","64","330355","0.0-8.0-2.0-1.11","1500","2","2","""event"",""trial"",""time""
""fullscreenenter"",""1"",""2019""
","
","
","""event"",""trial"",""time""
""fullscreenenter"",""1"",""2019""
","
","","","","","","1718.5","images/racket3.png","","","practice","images/park1.png","images/park3.png","images/park2.png","[0,2,1]","2","1","2","images/park3.png","-1","practice","","","",""
"html-button-response","65","335114","0.0-8.0-3.0","1500","2","2","""event"",""trial"",""time""
""fullscreenenter"",""1"",""2019""
","
","
","""event"",""trial"",""time""
""fullscreenenter"",""1"",""2019""
","
","","","","","","4757.299999952316","<p> You earned -4 points in the practice round! </p>","0","","break","","","","","","","","","","","","","",""
"learning-instructions","66","344433","0.0-8.0-4.0-0.0","1500","2","2","""event"",""trial"",""time""
""fullscreenenter"",""1"",""2019""
","
","
","""event"",""trial"",""time""
""fullscreenenter"",""1"",""2019""
","
","","","","","","1649.0999999046326","<p> It's almost time to start the real game. </p><p> Before you start, we're going to ask you a few questions about how the game works. </p>","","0","instructions","","","","","","","","","","","","","",""
"preload","67","347054","0.0-8.0-5.0","1500","2","2","""event"",""trial"",""time""
""fullscreenenter"",""1"",""2019""
","
","
","""event"",""trial"",""time""
""fullscreenenter"",""1"",""2019""
","
","true","false","[]","[]","[]","","","","","","","","","","","","","","","","","","",""
"comp-q","68","353714","0.0-8.0-6.0-0.0","1500","2","2","""event"",""trial"",""time""
""fullscreenenter"",""1"",""2019""
","
","
","""event"",""trial"",""time""
""fullscreenenter"",""1"",""2019""
","
","","","","","","1210.7999999523163","<p> <b> True or False? </b> </p><p> If you choose the best option, you will always earn 1 point. </p>","","1","comp_question","","","","","","","","","","","true","","",""
"comp-q","69","360559","0.0-8.0-6.0-1.0","1500","2","2","""event"",""trial"",""time""
""fullscreenenter"",""1"",""2019""
","
","
","""event"",""trial"",""time""
""fullscreenenter"",""1"",""2019""
","
","","","","","","1175.7999999523163","<p><b> That's right! </b> Sometimes you will lose 1 point, even if you choose the best option. </p>","","0","comp_answer","","","","","","","","","","","","","",""
"comp-q","70","365756","0.0-8.0-6.0-0.1","1500","2","2","""event"",""trial"",""time""
""fullscreenenter"",""1"",""2019""
","
","
","""event"",""trial"",""time""
""fullscreenenter"",""1"",""2019""
","
","","","","","","553.3999998569489","<p> <b> True or False? </b> </p><p> You will have as much time as you want to make each choice. </p>","","1","comp_question","","","","","","","","","","","true","","",""
"comp-q","71","380554","0.0-8.0-6.0-1.1","1500","2","2","""event"",""trial"",""time""
""fullscreenenter"",""1"",""2019""
","
","
","""event"",""trial"",""time""
""fullscreenenter"",""1"",""2019""
","
","","","","","","9970.799999952316","<p> <b> That's right! </b> You will only have 4 seconds to make each choice. </p>","","0","comp_answer","","","","","","","","","","","","","",""
"comp-q","72","387185","0.0-8.0-6.0-0.2","1500","2","2","""event"",""trial"",""time""
""fullscreenenter"",""1"",""2019""
","
","
","""event"",""trial"",""time""
""fullscreenenter"",""1"",""2019""
","
","","","","","","481.7999999523163","<p> <b> True or False? </b> </p><p> You should use the '1', '2', and '3' keys to make your choices. </p>","","0","comp_question","","","","","","","","","","","true","","",""
"comp-q","73","433152","0.0-8.0-6.0-1.2","1500","2","2","""event"",""trial"",""time""
""fullscreenenter"",""1"",""2019""
","
","
","""event"",""trial"",""time""
""fullscreenenter"",""1"",""2019""
","
","","","","","","41128.5","<p> <b> That's right! </b> You should use the '1', '2', and '3' keys to make each choice. </p>","","0","comp_answer","","","","","","","","","","","","","",""
"learning-instructions","74","443765","0.0-8.0-7.0-0.0","1500","2","2","""event"",""trial"",""time""
""fullscreenenter"",""1"",""2019""
","
","
","""event"",""trial"",""time""
""fullscreenenter"",""1"",""2019""
","
","","","","","","2131.600000143051","<p> It's now time to start the real game. </p>Do your best, because the points you earn in the next rounds will influence your bonus payment. </p>","","0","instructions","","","","","","","","","","","","","",""
"preload","75","450036","0.0-9.0-0.0","1500","2","2","""event"",""trial"",""time""
""fullscreenenter"",""1"",""2019""
","
","
","""event"",""trial"",""time""
""fullscreenenter"",""1"",""2019""
","
","true","false","[]","[]","[]","","","","","","","","","","","","","","","","","","",""
"learning-instructions","76","458740","0.0-9.0-1.0-0.0","1500","2","2","""event"",""trial"",""time""
""fullscreenenter"",""1"",""2019""
","
","
","""event"",""trial"",""time""
""fullscreenenter"",""1"",""2019""
","
","","","","","","915.5999999046326","<p> Your goal in this round is to deliver furniture to three different buildings. </p><p> You will need to deliver many pieces of furniture. </p></div>","","0","instructions","","","","","","","","","","","","","",""
"learning-instructions","77","467183","0.0-9.0-1.0-0.1","1500","2","2","""event"",""trial"",""time""
""fullscreenenter"",""1"",""2019""
","
","
","""event"",""trial"",""time""
""fullscreenenter"",""1"",""2019""
","
","","","","","","998.7999999523163","<p> On each turn, you will see a picture of a furniture item and three different buildings.  </p><p> You need to select the building that you want to deliver the furniture to.  </p>","","0","instructions","","","","","","","","","","","","","",""
"learning-instructions","78","476093","0.0-9.0-1.0-0.2","1500","2","2","""event"",""trial"",""time""
""fullscreenenter"",""1"",""2019""
","
","
","""event"",""trial"",""time""
""fullscreenenter"",""1"",""2019""
","
","","","","","","619.3999998569489","<p> You can select the building on the left by pressing 1, the building in the middle by pressing 2, and the building on the right by pressing 3.  </p><br><div class=""choice-instructions-grid""> <div class=""choice-option""><img src=""images/furniture_choice1.png"" class=""choice-option-img"" stage=""instructions"" position=""0"" ><div class=""choice-option-text""> Press ""1."" </div></div><div class=""choice-option""><img src=""images/furniture_choice2.png"" class=""choice-option-img"" stage=""instructions"" position=""1"" ><div class=""choice-option-text""> Press ""2."" </div></div><div class=""choice-option""><img src=""images/furniture_choice3.png"" class=""choice-option-img"" stage=""instructions"" position=""2"" ><div class=""choice-option-text""> Press ""3."" </div></div></div>","","0","instructions","","","","","","","","","","","","","",""
"learning-instructions","79","483419","0.0-9.0-1.0-0.3","1500","2","2","""event"",""trial"",""time""
""fullscreenenter"",""1"",""2019""
","
","
","""event"",""trial"",""time""
""fullscreenenter"",""1"",""2019""
","
","","","","","","1305.2000000476837","<p> If the furniture belongs in the building you chose, the building owner will likely be very happy! </p><div style='float: center;'><img src='images/check.png' width = '200' height = '200'></img>","","0","instructions","","","","","","","","","","","","","",""
"learning-instructions","80","490918","0.0-9.0-1.0-0.4","1500","2","2","""event"",""trial"",""time""
""fullscreenenter"",""1"",""2019""
","
","
","""event"",""trial"",""time""
""fullscreenenter"",""1"",""2019""
","
","","","","","","1504.5","<p> But, if the furniture does not belong in the building you chose, the owner will likely be mad. </p><div style='float: center;'><img src='images/x.png' width = '200' height = '200'></img>","","0","instructions","","","","","","","","","","","","","",""
"learning-instructions","81","503030","0.0-9.0-1.0-0.5","1500","2","2","""event"",""trial"",""time""
""fullscreenenter"",""1"",""2019""
","
","
","""event"",""trial"",""time""
""fullscreenenter"",""1"",""2019""
","
","","","","","","905.5999999046326","<p> Importantly, each piece of furniture belongs in one of the three buildings. </p><p> If you choose the correct building for the piece of furniture, you will be more likely to make the building owner happy! </p>","","0","instructions","","","","","","","","","","","","","",""
"learning-instructions","82","515646","0.0-9.0-1.0-0.6","1500","2","2","""event"",""trial"",""time""
""fullscreenenter"",""1"",""2019""
","
","
","""event"",""trial"",""time""
""fullscreenenter"",""1"",""2019""
","
","","","","","","1101.8999998569489","<p> However, even if you choose the best building for the furniture, the owner may still be mad sometimes. </p><p> Similarly, even if you choose the <i>wrong</i> building, the owner may still be happy.","","0","instructions","","","","","","","","","","","","","",""
"learning-instructions","83","539596","0.0-9.0-1.0-0.7","1500","2","2","""event"",""trial"",""time""
""fullscreenenter"",""1"",""2019""
","
","
","""event"",""trial"",""time""
""fullscreenenter"",""1"",""2019""
","
","","","","","","10702.5","<p> Try to choose the best building for each piece of furniture, because you will <b> WIN </b> 1 point each time a building owner is happy and <b>LOSE</b>  1 point each time a building owner is mad. </p><p> Your bonus payment will depend on your total number of points.","","0","instructions","","","","","","","","","","","","","",""
"learning-instructions","84","549101","0.0-9.0-1.0-0.8","1500","2","2","""event"",""trial"",""time""
""fullscreenenter"",""1"",""2019""
","
","
","""event"",""trial"",""time""
""fullscreenenter"",""1"",""2019""
","
","","","","","","547.2999999523163","<p> The position of each building will change throughout the round. </p><p> The building's position <i> does not </i> influence how likely the owner is to be happy or mad. </p>","","0","instructions","","","","","","","","","","","","","",""
"learning-instructions","85","559680","0.0-9.0-1.0-0.9","1500","2","2","""event"",""trial"",""time""
""fullscreenenter"",""1"",""2019""
","
","
","""event"",""trial"",""time""
""fullscreenenter"",""1"",""2019""
","
","","","","","","1286.2000000476837","<p> You will have 4 seconds to make each choice. Try to respond before time runs out! </p><p> You will lose 1 point each time you do not make a response. </p>","","0","instructions","","","","","","","","","","","","","",""
"html-keyboard-response","86","560308","0.0-9.0-2.0-0.0","1500","2","2","""event"",""trial"",""time""
""fullscreenenter"",""1"",""2019""
","
","
","""event"",""trial"",""time""
""fullscreenenter"",""1"",""2019""
","
","","","","","","null","<div style=""font-size:60px;"">+</div>","null","","fixation","","","","","","","","","","","","","",""
"learning-trial","87","564322","0.0-9.0-2.0-1.0","1500","2","2","""event"",""trial"",""time""
""fullscreenenter"",""1"",""2019""
","
","
","""event"",""trial"",""time""
""fullscreenenter"",""1"",""2019""
","
","","","","","","1398","images/bed4.png","","","learning","images/furniture_choice3.png","images/furniture_choice2.png","images/furniture_choice1.png","[2,1,0]","0","2","1","images/furniture_choice3.png","-1","furniture","","bed","2","0"
"html-keyboard-response","88","564823","0.0-9.0-2.0-0.1","1500","2","2","""event"",""trial"",""time""
""fullscreenenter"",""1"",""2019""
","
","
","""event"",""trial"",""time""
""fullscreenenter"",""1"",""2019""
","
","","","","","","null","<div style=""font-size:60px;"">+</div>","null","","fixation","","","","","","","","","","","","","",""
"learning-trial","89","568832","0.0-9.0-2.0-1.1","1500","2","2","""event"",""trial"",""time""
""fullscreenenter"",""1"",""2019""
","
","
","""event"",""trial"",""time""
""fullscreenenter"",""1"",""2019""
","
","","","","","","1217.2999999523163","images/bed1.png","","","learning","images/furniture_choice1.png","images/furniture_choice2.png","images/furniture_choice3.png","[0,1,2]","1","1","2","images/furniture_choice2.png","1","furniture","","bed","2","0"
"html-keyboard-response","90","569342","0.0-9.0-2.0-0.2","1500","2","2","""event"",""trial"",""time""
""fullscreenenter"",""1"",""2019""
","
","
","""event"",""trial"",""time""
""fullscreenenter"",""1"",""2019""
","
","","","","","","null","<div style=""font-size:60px;"">+</div>","null","","fixation","","","","","","","","","","","","","",""
"learning-trial","91","573356","0.0-9.0-2.0-1.2","1500","2","2","""event"",""trial"",""time""
""fullscreenenter"",""1"",""2019""
","
","
","""event"",""trial"",""time""
""fullscreenenter"",""1"",""2019""
","
","","","","","","1685","images/sofa4.png","","","learning","images/furniture_choice3.png","images/furniture_choice2.png","images/furniture_choice1.png","[2,1,0]","2","0","1","images/furniture_choice3.png","1","furniture","","sofa","2","0"
"html-keyboard-response","92","573865","0.0-9.0-2.0-0.3","1500","2","2","""event"",""trial"",""time""
""fullscreenenter"",""1"",""2019""
","
","
","""event"",""trial"",""time""
""fullscreenenter"",""1"",""2019""
","
","","","","","","null","<div style=""font-size:60px;"">+</div>","null","","fixation","","","","","","","","","","","","","",""
"learning-trial","93","577869","0.0-9.0-2.0-1.3","1500","2","2","""event"",""trial"",""time""
""fullscreenenter"",""1"",""2019""
","
","
","""event"",""trial"",""time""
""fullscreenenter"",""1"",""2019""
","
","","","","","","1655.5999999046326","images/bed4.png","","","learning","images/furniture_choice2.png","images/furniture_choice3.png","images/furniture_choice1.png","[1,2,0]","0","2","1","images/furniture_choice2.png","-1","furniture","","bed","2","0"
"html-keyboard-response","94","578370","0.0-9.0-2.0-0.4","1500","2","2","""event"",""trial"",""time""
""fullscreenenter"",""1"",""2019""
","
","
","""event"",""trial"",""time""
""fullscreenenter"",""1"",""2019""
","
","","","","","","null","<div style=""font-size:60px;"">+</div>","null","","fixation","","","","","","","","","","","","","",""
"learning-trial","95","582380","0.0-9.0-2.0-1.4","1500","2","2","""event"",""trial"",""time""
""fullscreenenter"",""1"",""2019""
","
","
","""event"",""trial"",""time""
""fullscreenenter"",""1"",""2019""
","
","","","","","","1664.8000001907349","images/table1.png","","","learning","images/furniture_choice3.png","images/furniture_choice1.png","images/furniture_choice2.png","[2,0,1]","2","0","1","images/furniture_choice3.png","1","furniture","","table","2","0"
"html-keyboard-response","96","582890","0.0-9.0-2.0-0.5","1500","2","2","""event"",""trial"",""time""
""fullscreenenter"",""1"",""2019""
","
","
","""event"",""trial"",""time""
""fullscreenenter"",""1"",""2019""
","
","","","","","","null","<div style=""font-size:60px;"">+</div>","null","","fixation","","","","","","","","","","","","","",""
"learning-trial","97","586893","0.0-9.0-2.0-1.5","1500","2","2","""event"",""trial"",""time""
""fullscreenenter"",""1"",""2019""
","
","
","""event"",""trial"",""time""
""fullscreenenter"",""1"",""2019""
","
","","","","","","1551.7999999523163","images/bed4.png","","","learning","images/furniture_choice3.png","images/furniture_choice2.png","images/furniture_choice1.png","[2,1,0]","0","2","3","images/furniture_choice1.png","1","furniture","","bed","2","0"
"html-keyboard-response","98","587395","0.0-9.0-2.0-0.6","1500","2","2","""event"",""trial"",""time""
""fullscreenenter"",""1"",""2019""
","
","
","""event"",""trial"",""time""
""fullscreenenter"",""1"",""2019""
","
","","","","","","null","<div style=""font-size:60px;"">+</div>","null","","fixation","","","","","","","","","","","","","",""
"learning-trial","99","591396","0.0-9.0-2.0-1.6","1500","2","2","""event"",""trial"",""time""
""fullscreenenter"",""1"",""2019""
","
","
","""event"",""trial"",""time""
""fullscreenenter"",""1"",""2019""
","
","","","","","","1536.8999998569489","images/table5.png","","","learning","images/furniture_choice3.png","images/furniture_choice2.png","images/furniture_choice1.png","[2,1,0]","1","1","1","images/furniture_choice3.png","-1","furniture","","table","2","0"
"html-keyboard-response","100","591897","0.0-9.0-2.0-0.7","1500","2","2","""event"",""trial"",""time""
""fullscreenenter"",""1"",""2019""
","
","
","""event"",""trial"",""time""
""fullscreenenter"",""1"",""2019""
","
","","","","","","null","<div style=""font-size:60px;"">+</div>","null","","fixation","","","","","","","","","","","","","",""
"learning-trial","101","595899","0.0-9.0-2.0-1.7","1500","2","2","""event"",""trial"",""time""
""fullscreenenter"",""1"",""2019""
","
","
","""event"",""trial"",""time""
""fullscreenenter"",""1"",""2019""
","
","","","","","","1201.7999999523163","images/bed4.png","","","learning","images/furniture_choice3.png","images/furniture_choice1.png","images/furniture_choice2.png","[2,0,1]","0","1","2","images/furniture_choice1.png","1","furniture","","bed","2","0"
"html-keyboard-response","102","596400","0.0-9.0-2.0-0.8","1500","2","2","""event"",""trial"",""time""
""fullscreenenter"",""1"",""2019""
","
","
","""event"",""trial"",""time""
""fullscreenenter"",""1"",""2019""
","
","","","","","","null","<div style=""font-size:60px;"">+</div>","null","","fixation","","","","","","","","","","","","","",""
"learning-trial","103","600402","0.0-9.0-2.0-1.8","1500","2","2","""event"",""trial"",""time""
""fullscreenenter"",""1"",""2019""
","
","
","""event"",""trial"",""time""
""fullscreenenter"",""1"",""2019""
","
","","","","","","1531.3999998569489","images/bed1.png","","","learning","images/furniture_choice3.png","images/furniture_choice1.png","images/furniture_choice2.png","[2,0,1]","1","2","1","images/furniture_choice3.png","-1","furniture","","bed","2","0"
"html-keyboard-response","104","600903","0.0-9.0-2.0-0.9","1500","2","2","""event"",""trial"",""time""
""fullscreenenter"",""1"",""2019""
","
","
","""event"",""trial"",""time""
""fullscreenenter"",""1"",""2019""
","
","","","","","","null","<div style=""font-size:60px;"">+</div>","null","","fixation","","","","","","","","","","","","","",""
"learning-trial","105","604906","0.0-9.0-2.0-1.9","1500","2","2","""event"",""trial"",""time""
""fullscreenenter"",""1"",""2019""
","
","
","""event"",""trial"",""time""
""fullscreenenter"",""1"",""2019""
","
","","","","","","1548.5999999046326","images/sofa5.png","","","learning","images/furniture_choice1.png","images/furniture_choice2.png","images/furniture_choice3.png","[0,1,2]","1","1","2","images/furniture_choice2.png","1","furniture","","sofa","2","0"
"html-keyboard-response","106","605407","0.0-9.0-2.0-0.10","1500","2","2","""event"",""trial"",""time""
""fullscreenenter"",""1"",""2019""
","
","
","""event"",""trial"",""time""
""fullscreenenter"",""1"",""2019""
","
","","","","","","null","<div style=""font-size:60px;"">+</div>","null","","fixation","","","","","","","","","","","","","",""
"learning-trial","107","609408","0.0-9.0-2.0-1.10","1500","2","2","""event"",""trial"",""time""
""fullscreenenter"",""1"",""2019""
","
","
","""event"",""trial"",""time""
""fullscreenenter"",""1"",""2019""
","
","","","","","","1789.1999998092651","images/bed4.png","","","learning","images/furniture_choice3.png","images/furniture_choice2.png","images/furniture_choice1.png","[2,1,0]","0","2","3","images/furniture_choice1.png","1","furniture","","bed","2","0"
"html-keyboard-response","108","609909","0.0-9.0-2.0-0.11","1500","2","2","""event"",""trial"",""time""
""fullscreenenter"",""1"",""2019""
","
","
","""event"",""trial"",""time""
""fullscreenenter"",""1"",""2019""
","
","","","","","","null","<div style=""font-size:60px;"">+</div>","null","","fixation","","","","","","","","","","","","","",""
"learning-trial","109","613911","0.0-9.0-2.0-1.11","1500","2","2","""event"",""trial"",""time""
""fullscreenenter"",""1"",""2019""
","
","
","""event"",""trial"",""time""
""fullscreenenter"",""1"",""2019""
","
","","","","","","1495.6999998092651","images/table1.png","","","learning","images/furniture_choice2.png","images/furniture_choice3.png","images/furniture_choice1.png","[1,2,0]","2","1","2","images/furniture_choice3.png","1","furniture","","table","2","0"
"html-keyboard-response","110","614412","0.0-9.0-2.0-0.12","1500","2","2","""event"",""trial"",""time""
""fullscreenenter"",""1"",""2019""
","
","
","""event"",""trial"",""time""
""fullscreenenter"",""1"",""2019""
","
","","","","","","null","<div style=""font-size:60px;"">+</div>","null","","fixation","","","","","","","","","","","","","",""
"learning-trial","111","618414","0.0-9.0-2.0-1.12","1500","2","2","""event"",""trial"",""time""
""fullscreenenter"",""1"",""2019""
","
","
","""event"",""trial"",""time""
""fullscreenenter"",""1"",""2019""
","
","","","","","","1281.2000000476837","images/bed4.png","","","learning","images/furniture_choice3.png","images/furniture_choice1.png","images/furniture_choice2.png","[2,0,1]","0","1","2","images/furniture_choice1.png","1","furniture","","bed","2","0"
"html-keyboard-response","112","618915","0.0-9.0-2.0-0.13","1500","2","2","""event"",""trial"",""time""
""fullscreenenter"",""1"",""2019""
","
","
","""event"",""trial"",""time""
""fullscreenenter"",""1"",""2019""
","
","","","","","","null","<div style=""font-size:60px;"">+</div>","null","","fixation","","","","","","","","","","","","","",""
"learning-trial","113","622916","0.0-9.0-2.0-1.13","1500","2","2","""event"",""trial"",""time""
""fullscreenenter"",""1"",""2019""
","
","
","""event"",""trial"",""time""
""fullscreenenter"",""1"",""2019""
","
","","","","","","1650.7000000476837","images/sofa4.png","","","learning","images/furniture_choice2.png","images/furniture_choice1.png","images/furniture_choice3.png","[1,0,2]","2","2","1","images/furniture_choice2.png","-1","furniture","","sofa","2","0"
"html-keyboard-response","114","623417","0.0-9.0-2.0-0.14","1500","2","2","""event"",""trial"",""time""
""fullscreenenter"",""1"",""2019""
","
","
","""event"",""trial"",""time""
""fullscreenenter"",""1"",""2019""
","
","","","","","","null","<div style=""font-size:60px;"">+</div>","null","","fixation","","","","","","","","","","","","","",""
"learning-trial","115","627418","0.0-9.0-2.0-1.14","1500","2","2","""event"",""trial"",""time""
""fullscreenenter"",""1"",""2019""
","
","
","""event"",""trial"",""time""
""fullscreenenter"",""1"",""2019""
","
","","","","","","1261.7000000476837","images/sofa2.png","","","learning","images/furniture_choice1.png","images/furniture_choice2.png","images/furniture_choice3.png","[0,1,2]","0","0","1","images/furniture_choice1.png","1","furniture","","sofa","2","0"
"html-keyboard-response","116","627920","0.0-9.0-2.0-0.15","1500","2","2","""event"",""trial"",""time""
""fullscreenenter"",""1"",""2019""
","
","
","""event"",""trial"",""time""
""fullscreenenter"",""1"",""2019""
","
","","","","","","null","<div style=""font-size:60px;"">+</div>","null","","fixation","","","","","","","","","","","","","",""
"learning-trial","117","631922","0.0-9.0-2.0-1.15","1500","2","2","""event"",""trial"",""time""
""fullscreenenter"",""1"",""2019""
","
","
","""event"",""trial"",""time""
""fullscreenenter"",""1"",""2019""
","
","","","","","","1486.7999999523163","images/bed5.png","","","learning","images/furniture_choice2.png","images/furniture_choice3.png","images/furniture_choice1.png","[1,2,0]","2","1","1","images/furniture_choice2.png","-1","furniture","","bed","2","0"
"html-keyboard-response","118","632423","0.0-9.0-2.0-0.16","1500","2","2","""event"",""trial"",""time""
""fullscreenenter"",""1"",""2019""
","
","
","""event"",""trial"",""time""
""fullscreenenter"",""1"",""2019""
","
","","","","","","null","<div style=""font-size:60px;"">+</div>","null","","fixation","","","","","","","","","","","","","",""
"learning-trial","119","636425","0.0-9.0-2.0-1.16","1500","2","2","""event"",""trial"",""time""
""fullscreenenter"",""1"",""2019""
","
","
","""event"",""trial"",""time""
""fullscreenenter"",""1"",""2019""
","
","","","","","","1879.9000000953674","images/table5.png","","","learning","images/furniture_choice2.png","images/furniture_choice3.png","images/furniture_choice1.png","[1,2,0]","1","0","2","images/furniture_choice3.png","-1","furniture","","table","2","0"
"html-keyboard-response","120","636926","0.0-9.0-2.0-0.17","1500","2","2","""event"",""trial"",""time""
""fullscreenenter"",""1"",""2019""
","
","
","""event"",""trial"",""time""
""fullscreenenter"",""1"",""2019""
","
","","","","","","null","<div style=""font-size:60px;"">+</div>","null","","fixation","","","","","","","","","","","","","",""
"learning-trial","121","640927","0.0-9.0-2.0-1.17","1500","2","2","""event"",""trial"",""time""
""fullscreenenter"",""1"",""2019""
","
","
","""event"",""trial"",""time""
""fullscreenenter"",""1"",""2019""
","
","","","","","","793.7000000476837","images/sofa5.png","","","learning","images/furniture_choice2.png","images/furniture_choice1.png","images/furniture_choice3.png","[1,0,2]","1","0","1","images/furniture_choice2.png","-1","furniture","","sofa","2","0"
"html-keyboard-response","122","641429","0.0-9.0-2.0-0.18","1500","2","2","""event"",""trial"",""time""
""fullscreenenter"",""1"",""2019""
","
","
","""event"",""trial"",""time""
""fullscreenenter"",""1"",""2019""
","
","","","","","","null","<div style=""font-size:60px;"">+</div>","null","","fixation","","","","","","","","","","","","","",""
"learning-trial","123","645431","0.0-9.0-2.0-1.18","1500","2","2","""event"",""trial"",""time""
""fullscreenenter"",""1"",""2019""
","
","
","""event"",""trial"",""time""
""fullscreenenter"",""1"",""2019""
","
","","","","","","2306.5","images/bed1.png","","","learning","images/furniture_choice3.png","images/furniture_choice1.png","images/furniture_choice2.png","[2,0,1]","1","2","3","images/furniture_choice2.png","-1","furniture","","bed","2","0"
"html-keyboard-response","124","645932","0.0-9.0-2.0-0.19","1500","2","2","""event"",""trial"",""time""
""fullscreenenter"",""1"",""2019""
","
","
","""event"",""trial"",""time""
""fullscreenenter"",""1"",""2019""
","
","","","","","","null","<div style=""font-size:60px;"">+</div>","null","","fixation","","","","","","","","","","","","","",""
"learning-trial","125","649934","0.0-9.0-2.0-1.19","1500","2","2","""event"",""trial"",""time""
""fullscreenenter"",""1"",""2019""
","
","
","""event"",""trial"",""time""
""fullscreenenter"",""1"",""2019""
","
","","","","","","2068.7999999523163","images/sofa2.png","","","learning","images/furniture_choice3.png","images/furniture_choice2.png","images/furniture_choice1.png","[2,1,0]","0","2","3","images/furniture_choice1.png","1","furniture","","sofa","2","0"
"html-keyboard-response","126","650435","0.0-9.0-2.0-0.20","1500","2","2","""event"",""trial"",""time""
""fullscreenenter"",""1"",""2019""
","
","
","""event"",""trial"",""time""
""fullscreenenter"",""1"",""2019""
","
","","","","","","null","<div style=""font-size:60px;"">+</div>","null","","fixation","","","","","","","","","","","","","",""
"learning-trial","127","654437","0.0-9.0-2.0-1.20","1500","2","2","""event"",""trial"",""time""
""fullscreenenter"",""1"",""2019""
","
","
","""event"",""trial"",""time""
""fullscreenenter"",""1"",""2019""
","
","","","","","","1765.4000000953674","images/bed5.png","","","learning","images/furniture_choice1.png","images/furniture_choice2.png","images/furniture_choice3.png","[0,1,2]","2","2","2","images/furniture_choice2.png","-1","furniture","","bed","2","0"
"html-keyboard-response","128","654938","0.0-9.0-2.0-0.21","1500","2","2","""event"",""trial"",""time""
""fullscreenenter"",""1"",""2019""
","
","
","""event"",""trial"",""time""
""fullscreenenter"",""1"",""2019""
","
","","","","","","null","<div style=""font-size:60px;"">+</div>","null","","fixation","","","","","","","","","","","","","",""
"learning-trial","129","658940","0.0-9.0-2.0-1.21","1500","2","2","""event"",""trial"",""time""
""fullscreenenter"",""1"",""2019""
","
","
","""event"",""trial"",""time""
""fullscreenenter"",""1"",""2019""
","
","","","","","","1353","images/table3.png","","","learning","images/furniture_choice3.png","images/furniture_choice2.png","images/furniture_choice1.png","[2,1,0]","0","2","2","images/furniture_choice2.png","-1","furniture","","table","2","0"
"html-keyboard-response","130","659440","0.0-9.0-2.0-0.22","1500","2","2","""event"",""trial"",""time""
""fullscreenenter"",""1"",""2019""
","
","
","""event"",""trial"",""time""
""fullscreenenter"",""1"",""2019""
","
","","","","","","null","<div style=""font-size:60px;"">+</div>","null","","fixation","","","","","","","","","","","","","",""
"learning-trial","131","663442","0.0-9.0-2.0-1.22","1500","2","2","""event"",""trial"",""time""
""fullscreenenter"",""1"",""2019""
","
","
","""event"",""trial"",""time""
""fullscreenenter"",""1"",""2019""
","
","","","","","","1097.2999999523163","images/table3.png","","","learning","images/furniture_choice3.png","images/furniture_choice2.png","images/furniture_choice1.png","[2,1,0]","0","2","1","images/furniture_choice3.png","-1","furniture","","table","2","0"
"html-keyboard-response","132","663942","0.0-9.0-2.0-0.23","1500","2","2","""event"",""trial"",""time""
""fullscreenenter"",""1"",""2019""
","
","
","""event"",""trial"",""time""
""fullscreenenter"",""1"",""2019""
","
","","","","","","null","<div style=""font-size:60px;"">+</div>","null","","fixation","","","","","","","","","","","","","",""
"learning-trial","133","667944","0.0-9.0-2.0-1.23","1500","2","2","""event"",""trial"",""time""
""fullscreenenter"",""1"",""2019""
","
","
","""event"",""trial"",""time""
""fullscreenenter"",""1"",""2019""
","
","","","","","","907.5","images/table1.png","","","learning","images/furniture_choice1.png","images/furniture_choice2.png","images/furniture_choice3.png","[0,1,2]","2","2","3","images/furniture_choice3.png","-1","furniture","","table","2","0"
"html-keyboard-response","134","668445","0.0-9.0-2.0-0.24","1500","2","2","""event"",""trial"",""time""
""fullscreenenter"",""1"",""2019""
","
","
","""event"",""trial"",""time""
""fullscreenenter"",""1"",""2019""
","
","","","","","","null","<div style=""font-size:60px;"">+</div>","null","","fixation","","","","","","","","","","","","","",""
"learning-trial","135","672446","0.0-9.0-2.0-1.24","1500","2","2","""event"",""trial"",""time""
""fullscreenenter"",""1"",""2019""
","
","
","""event"",""trial"",""time""
""fullscreenenter"",""1"",""2019""
","
","","","","","","941.7999999523163","images/sofa2.png","","","learning","images/furniture_choice3.png","images/furniture_choice2.png","images/furniture_choice1.png","[2,1,0]","0","2","3","images/furniture_choice1.png","-1","furniture","","sofa","2","0"
"html-keyboard-response","136","672947","0.0-9.0-2.0-0.25","1500","2","2","""event"",""trial"",""time""
""fullscreenenter"",""1"",""2019""
","
","
","""event"",""trial"",""time""
""fullscreenenter"",""1"",""2019""
","
","","","","","","null","<div style=""font-size:60px;"">+</div>","null","","fixation","","","","","","","","","","","","","",""
"learning-trial","137","676948","0.0-9.0-2.0-1.25","1500","2","2","""event"",""trial"",""time""
""fullscreenenter"",""1"",""2019""
","
","
","""event"",""trial"",""time""
""fullscreenenter"",""1"",""2019""
","
","","","","","","1560","images/table3.png","","","learning","images/furniture_choice3.png","images/furniture_choice2.png","images/furniture_choice1.png","[2,1,0]","0","2","3","images/furniture_choice1.png","1","furniture","","table","2","0"
"html-keyboard-response","138","677450","0.0-9.0-2.0-0.26","1500","2","2","""event"",""trial"",""time""
""fullscreenenter"",""1"",""2019""
","
","
","""event"",""trial"",""time""
""fullscreenenter"",""1"",""2019""
","
","","","","","","null","<div style=""font-size:60px;"">+</div>","null","","fixation","","","","","","","","","","","","","",""
"learning-trial","139","681452","0.0-9.0-2.0-1.26","1500","2","2","""event"",""trial"",""time""
""fullscreenenter"",""1"",""2019""
","
","
","""event"",""trial"",""time""
""fullscreenenter"",""1"",""2019""
","
","","","","","","1723.8999998569489","images/bed1.png","","","learning","images/furniture_choice2.png","images/furniture_choice1.png","images/furniture_choice3.png","[1,0,2]","1","0","3","images/furniture_choice3.png","-1","furniture","","bed","2","0"
"html-keyboard-response","140","681953","0.0-9.0-2.0-0.27","1500","2","2","""event"",""trial"",""time""
""fullscreenenter"",""1"",""2019""
","
","
","""event"",""trial"",""time""
""fullscreenenter"",""1"",""2019""
","
","","","","","","null","<div style=""font-size:60px;"">+</div>","null","","fixation","","","","","","","","","","","","","",""
"learning-trial","141","685955","0.0-9.0-2.0-1.27","1500","2","2","""event"",""trial"",""time""
""fullscreenenter"",""1"",""2019""
","
","
","""event"",""trial"",""time""
""fullscreenenter"",""1"",""2019""
","
","","","","","","1915","images/sofa4.png","","","learning","images/furniture_choice3.png","images/furniture_choice1.png","images/furniture_choice2.png","[2,0,1]","2","0","3","images/furniture_choice2.png","-1","furniture","","sofa","2","0"
"html-keyboard-response","142","686456","0.0-9.0-2.0-0.28","1500","2","2","""event"",""trial"",""time""
""fullscreenenter"",""1"",""2019""
","
","
","""event"",""trial"",""time""
""fullscreenenter"",""1"",""2019""
","
","","","","","","null","<div style=""font-size:60px;"">+</div>","null","","fixation","","","","","","","","","","","","","",""
"learning-trial","143","690458","0.0-9.0-2.0-1.28","1500","2","2","""event"",""trial"",""time""
""fullscreenenter"",""1"",""2019""
","
","
","""event"",""trial"",""time""
""fullscreenenter"",""1"",""2019""
","
","","","","","","1766.2000000476837","images/sofa5.png","","","learning","images/furniture_choice3.png","images/furniture_choice1.png","images/furniture_choice2.png","[2,0,1]","1","2","2","images/furniture_choice1.png","1","furniture","","sofa","2","0"
"html-keyboard-response","144","690959","0.0-9.0-2.0-0.29","1500","2","2","""event"",""trial"",""time""
""fullscreenenter"",""1"",""2019""
","
","
","""event"",""trial"",""time""
""fullscreenenter"",""1"",""2019""
","
","","","","","","null","<div style=""font-size:60px;"">+</div>","null","","fixation","","","","","","","","","","","","","",""
"learning-trial","145","694961","0.0-9.0-2.0-1.29","1500","2","2","""event"",""trial"",""time""
""fullscreenenter"",""1"",""2019""
","
","
","""event"",""trial"",""time""
""fullscreenenter"",""1"",""2019""
","
","","","","","","1165.4000000953674","images/table3.png","","","learning","images/furniture_choice1.png","images/furniture_choice2.png","images/furniture_choice3.png","[0,1,2]","0","0","1","images/furniture_choice1.png","1","furniture","","table","2","0"
"html-keyboard-response","146","695463","0.0-9.0-2.0-0.30","1500","2","2","""event"",""trial"",""time""
""fullscreenenter"",""1"",""2019""
","
","
","""event"",""trial"",""time""
""fullscreenenter"",""1"",""2019""
","
","","","","","","null","<div style=""font-size:60px;"">+</div>","null","","fixation","","","","","","","","","","","","","",""
"learning-trial","147","699465","0.0-9.0-2.0-1.30","1500","2","2","""event"",""trial"",""time""
""fullscreenenter"",""1"",""2019""
","
","
","""event"",""trial"",""time""
""fullscreenenter"",""1"",""2019""
","
","","","","","","1206.0999999046326","images/sofa2.png","","","learning","images/furniture_choice3.png","images/furniture_choice1.png","images/furniture_choice2.png","[2,0,1]","0","1","2","images/furniture_choice1.png","-1","furniture","","sofa","2","0"
"html-keyboard-response","148","699966","0.0-9.0-2.0-0.31","1500","2","2","""event"",""trial"",""time""
""fullscreenenter"",""1"",""2019""
","
","
","""event"",""trial"",""time""
""fullscreenenter"",""1"",""2019""
","
","","","","","","null","<div style=""font-size:60px;"">+</div>","null","","fixation","","","","","","","","","","","","","",""
"learning-trial","149","703968","0.0-9.0-2.0-1.31","1500","2","2","""event"",""trial"",""time""
""fullscreenenter"",""1"",""2019""
","
","
","""event"",""trial"",""time""
""fullscreenenter"",""1"",""2019""
","
","","","","","","985.2000000476837","images/sofa2.png","","","learning","images/furniture_choice3.png","images/furniture_choice2.png","images/furniture_choice1.png","[2,1,0]","0","2","3","images/furniture_choice1.png","1","furniture","","sofa","2","0"
"html-keyboard-response","150","704469","0.0-9.0-2.0-0.32","1500","2","2","""event"",""trial"",""time""
""fullscreenenter"",""1"",""2019""
","
","
","""event"",""trial"",""time""
""fullscreenenter"",""1"",""2019""
","
","","","","","","null","<div style=""font-size:60px;"">+</div>","null","","fixation","","","","","","","","","","","","","",""
"learning-trial","151","708470","0.0-9.0-2.0-1.32","1500","2","2","""event"",""trial"",""time""
""fullscreenenter"",""1"",""2019""
","
","
","""event"",""trial"",""time""
""fullscreenenter"",""1"",""2019""
","
","","","","","","1008.7999999523163","images/sofa2.png","","","learning","images/furniture_choice1.png","images/furniture_choice2.png","images/furniture_choice3.png","[0,1,2]","0","0","1","images/furniture_choice1.png","-1","furniture","","sofa","2","0"
"html-keyboard-response","152","708970","0.0-9.0-2.0-0.33","1500","2","2","""event"",""trial"",""time""
""fullscreenenter"",""1"",""2019""
","
","
","""event"",""trial"",""time""
""fullscreenenter"",""1"",""2019""
","
","","","","","","null","<div style=""font-size:60px;"">+</div>","null","","fixation","","","","","","","","","","","","","",""
"learning-trial","153","712972","0.0-9.0-2.0-1.33","1500","2","2","""event"",""trial"",""time""
""fullscreenenter"",""1"",""2019""
","
","
","""event"",""trial"",""time""
""fullscreenenter"",""1"",""2019""
","
","","","","","","803.3999998569489","images/table1.png","","","learning","images/furniture_choice3.png","images/furniture_choice2.png","images/furniture_choice1.png","[2,1,0]","2","0","1","images/furniture_choice3.png","1","furniture","","table","2","0"
"html-keyboard-response","154","713473","0.0-9.0-2.0-0.34","1500","2","2","""event"",""trial"",""time""
""fullscreenenter"",""1"",""2019""
","
","
","""event"",""trial"",""time""
""fullscreenenter"",""1"",""2019""
","
","","","","","","null","<div style=""font-size:60px;"">+</div>","null","","fixation","","","","","","","","","","","","","",""
"learning-trial","155","717475","0.0-9.0-2.0-1.34","1500","2","2","""event"",""trial"",""time""
""fullscreenenter"",""1"",""2019""
","
","
","""event"",""trial"",""time""
""fullscreenenter"",""1"",""2019""
","
","","","","","","1215","images/sofa5.png","","","learning","images/furniture_choice2.png","images/furniture_choice1.png","images/furniture_choice3.png","[1,0,2]","1","0","1","images/furniture_choice2.png","1","furniture","","sofa","2","0"
"html-keyboard-response","156","717976","0.0-9.0-2.0-0.35","1500","2","2","""event"",""trial"",""time""
""fullscreenenter"",""1"",""2019""
","
","
","""event"",""trial"",""time""
""fullscreenenter"",""1"",""2019""
","
","","","","","","null","<div style=""font-size:60px;"">+</div>","null","","fixation","","","","","","","","","","","","","",""
"learning-trial","157","721978","0.0-9.0-2.0-1.35","1500","2","2","""event"",""trial"",""time""
""fullscreenenter"",""1"",""2019""
","
","
","""event"",""trial"",""time""
""fullscreenenter"",""1"",""2019""
","
","","","","","","1454.2000000476837","images/table5.png","","","learning","images/furniture_choice1.png","images/furniture_choice3.png","images/furniture_choice2.png","[0,2,1]","1","2","2","images/furniture_choice3.png","-1","furniture","","table","2","0"
"html-keyboard-response","158","722479","0.0-9.0-2.0-0.36","1500","2","2","""event"",""trial"",""time""
""fullscreenenter"",""1"",""2019""
","
","
","""event"",""trial"",""time""
""fullscreenenter"",""1"",""2019""
","
","","","","","","null","<div style=""font-size:60px;"">+</div>","null","","fixation","","","","","","","","","","","","","",""
"learning-trial","159","726480","0.0-9.0-2.0-1.36","1500","2","2","""event"",""trial"",""time""
""fullscreenenter"",""1"",""2019""
","
","
","""event"",""trial"",""time""
""fullscreenenter"",""1"",""2019""
","
","","","","","","1207.7999999523163","images/sofa4.png","","","learning","images/furniture_choice3.png","images/furniture_choice1.png","images/furniture_choice2.png","[2,0,1]","2","0","1","images/furniture_choice3.png","1","furniture","","sofa","2","0"
"html-keyboard-response","160","726981","0.0-9.0-2.0-0.37","1500","2","2","""event"",""trial"",""time""
""fullscreenenter"",""1"",""2019""
","
","
","""event"",""trial"",""time""
""fullscreenenter"",""1"",""2019""
","
","","","","","","null","<div style=""font-size:60px;"">+</div>","null","","fixation","","","","","","","","","","","","","",""
"learning-trial","161","730983","0.0-9.0-2.0-1.37","1500","2","2","""event"",""trial"",""time""
""fullscreenenter"",""1"",""2019""
","
","
","""event"",""trial"",""time""
""fullscreenenter"",""1"",""2019""
","
","","","","","","1762.2999999523163","images/bed1.png","","","learning","images/furniture_choice1.png","images/furniture_choice3.png","images/furniture_choice2.png","[0,2,1]","1","2","2","images/furniture_choice3.png","-1","furniture","","bed","2","0"
"html-keyboard-response","162","731484","0.0-9.0-2.0-0.38","1500","2","2","""event"",""trial"",""time""
""fullscreenenter"",""1"",""2019""
","
","
","""event"",""trial"",""time""
""fullscreenenter"",""1"",""2019""
","
","","","","","","null","<div style=""font-size:60px;"">+</div>","null","","fixation","","","","","","","","","","","","","",""
"learning-trial","163","735486","0.0-9.0-2.0-1.38","1500","2","2","""event"",""trial"",""time""
""fullscreenenter"",""1"",""2019""
","
","
","""event"",""trial"",""time""
""fullscreenenter"",""1"",""2019""
","
","","","","","","1965.6000001430511","images/bed5.png","","","learning","images/furniture_choice3.png","images/furniture_choice2.png","images/furniture_choice1.png","[2,1,0]","2","0","1","images/furniture_choice3.png","-1","furniture","","bed","2","0"
"html-keyboard-response","164","735987","0.0-9.0-2.0-0.39","1500","2","2","""event"",""trial"",""time""
""fullscreenenter"",""1"",""2019""
","
","
","""event"",""trial"",""time""
""fullscreenenter"",""1"",""2019""
","
","","","","","","null","<div style=""font-size:60px;"">+</div>","null","","fixation","","","","","","","","","","","","","",""
"learning-trial","165","739989","0.0-9.0-2.0-1.39","1500","2","2","""event"",""trial"",""time""
""fullscreenenter"",""1"",""2019""
","
","
","""event"",""trial"",""time""
""fullscreenenter"",""1"",""2019""
","
","","","","","","1349.7999999523163","images/sofa4.png","","","learning","images/furniture_choice1.png","images/furniture_choice2.png","images/furniture_choice3.png","[0,1,2]","2","2","2","images/furniture_choice2.png","-1","furniture","","sofa","2","0"
"html-keyboard-response","166","740490","0.0-9.0-2.0-0.40","1500","2","2","""event"",""trial"",""time""
""fullscreenenter"",""1"",""2019""
","
","
","""event"",""trial"",""time""
""fullscreenenter"",""1"",""2019""
","
","","","","","","null","<div style=""font-size:60px;"">+</div>","null","","fixation","","","","","","","","","","","","","",""
"learning-trial","167","744491","0.0-9.0-2.0-1.40","1500","2","2","""event"",""trial"",""time""
""fullscreenenter"",""1"",""2019""
","
","
","""event"",""trial"",""time""
""fullscreenenter"",""1"",""2019""
","
","","","","","","775.4000000953674","images/sofa4.png","","","learning","images/furniture_choice2.png","images/furniture_choice3.png","images/furniture_choice1.png","[1,2,0]","2","1","2","images/furniture_choice3.png","1","furniture","","sofa","2","0"
"html-keyboard-response","168","744992","0.0-9.0-2.0-0.41","1500","2","2","""event"",""trial"",""time""
""fullscreenenter"",""1"",""2019""
","
","
","""event"",""trial"",""time""
""fullscreenenter"",""1"",""2019""
","
","","","","","","null","<div style=""font-size:60px;"">+</div>","null","","fixation","","","","","","","","","","","","","",""
"learning-trial","169","748994","0.0-9.0-2.0-1.41","1500","2","2","""event"",""trial"",""time""
""fullscreenenter"",""1"",""2019""
","
","
","""event"",""trial"",""time""
""fullscreenenter"",""1"",""2019""
","
","","","","","","1873.7999999523163","images/table5.png","","","learning","images/furniture_choice1.png","images/furniture_choice2.png","images/furniture_choice3.png","[0,1,2]","1","1","2","images/furniture_choice2.png","1","furniture","","table","2","0"
"html-keyboard-response","170","749495","0.0-9.0-2.0-0.42","1500","2","2","""event"",""trial"",""time""
""fullscreenenter"",""1"",""2019""
","
","
","""event"",""trial"",""time""
""fullscreenenter"",""1"",""2019""
","
","","","","","","null","<div style=""font-size:60px;"">+</div>","null","","fixation","","","","","","","","","","","","","",""
"learning-trial","171","753497","0.0-9.0-2.0-1.42","1500","2","2","""event"",""trial"",""time""
""fullscreenenter"",""1"",""2019""
","
","
","""event"",""trial"",""time""
""fullscreenenter"",""1"",""2019""
","
","","","","","","971.2000000476837","images/table5.png","","","learning","images/furniture_choice2.png","images/furniture_choice3.png","images/furniture_choice1.png","[1,2,0]","1","0","1","images/furniture_choice2.png","1","furniture","","table","2","0"
"html-keyboard-response","172","753998","0.0-9.0-2.0-0.43","1500","2","2","""event"",""trial"",""time""
""fullscreenenter"",""1"",""2019""
","
","
","""event"",""trial"",""time""
""fullscreenenter"",""1"",""2019""
","
","","","","","","null","<div style=""font-size:60px;"">+</div>","null","","fixation","","","","","","","","","","","","","",""
"learning-trial","173","758000","0.0-9.0-2.0-1.43","1500","2","2","""event"",""trial"",""time""
""fullscreenenter"",""1"",""2019""
","
","
","""event"",""trial"",""time""
""fullscreenenter"",""1"",""2019""
","
","","","","","","916.5","images/sofa2.png","","","learning","images/furniture_choice1.png","images/furniture_choice3.png","images/furniture_choice2.png","[0,2,1]","0","0","1","images/furniture_choice1.png","1","furniture","","sofa","2","0"
"html-keyboard-response","174","758501","0.0-9.0-2.0-0.44","1500","2","2","""event"",""trial"",""time""
""fullscreenenter"",""1"",""2019""
","
","
","""event"",""trial"",""time""
""fullscreenenter"",""1"",""2019""
","
","","","","","","null","<div style=""font-size:60px;"">+</div>","null","","fixation","","","","","","","","","","","","","",""
"learning-trial","175","762502","0.0-9.0-2.0-1.44","1500","2","2","""event"",""trial"",""time""
""fullscreenenter"",""1"",""2019""
","
","
","""event"",""trial"",""time""
""fullscreenenter"",""1"",""2019""
","
","","","","","","1918.8999998569489","images/bed4.png","","","learning","images/furniture_choice2.png","images/furniture_choice3.png","images/furniture_choice1.png","[1,2,0]","0","2","1","images/furniture_choice2.png","-1","furniture","","bed","2","0"
"html-keyboard-response","176","763003","0.0-9.0-2.0-0.45","1500","2","2","""event"",""trial"",""time""
""fullscreenenter"",""1"",""2019""
","
","
","""event"",""trial"",""time""
""fullscreenenter"",""1"",""2019""
","
","","","","","","null","<div style=""font-size:60px;"">+</div>","null","","fixation","","","","","","","","","","","","","",""
"learning-trial","177","767005","0.0-9.0-2.0-1.45","1500","2","2","""event"",""trial"",""time""
""fullscreenenter"",""1"",""2019""
","
","
","""event"",""trial"",""time""
""fullscreenenter"",""1"",""2019""
","
","","","","","","2216","images/bed5.png","","","learning","images/furniture_choice2.png","images/furniture_choice1.png","images/furniture_choice3.png","[1,0,2]","2","2","3","images/furniture_choice3.png","1","furniture","","bed","2","0"
"html-keyboard-response","178","767505","0.0-9.0-2.0-0.46","1500","2","2","""event"",""trial"",""time""
""fullscreenenter"",""1"",""2019""
","
","
","""event"",""trial"",""time""
""fullscreenenter"",""1"",""2019""
","
","","","","","","null","<div style=""font-size:60px;"">+</div>","null","","fixation","","","","","","","","","","","","","",""
"learning-trial","179","771507","0.0-9.0-2.0-1.46","1500","2","2","""event"",""trial"",""time""
""fullscreenenter"",""1"",""2019""
","
","
","""event"",""trial"",""time""
""fullscreenenter"",""1"",""2019""
","
","","","","","","2274.600000143051","images/bed1.png","","","learning","images/furniture_choice1.png","images/furniture_choice2.png","images/furniture_choice3.png","[0,1,2]","1","1","2","images/furniture_choice2.png","1","furniture","","bed","2","0"
"html-keyboard-response","180","772007","0.0-9.0-2.0-0.47","1500","2","2","""event"",""trial"",""time""
""fullscreenenter"",""1"",""2019""
","
","
","""event"",""trial"",""time""
""fullscreenenter"",""1"",""2019""
","
","","","","","","null","<div style=""font-size:60px;"">+</div>","null","","fixation","","","","","","","","","","","","","",""
"learning-trial","181","776009","0.0-9.0-2.0-1.47","1500","2","2","""event"",""trial"",""time""
""fullscreenenter"",""1"",""2019""
","
","
","""event"",""trial"",""time""
""fullscreenenter"",""1"",""2019""
","
","","","","","","1252.8999998569489","images/table3.png","","","learning","images/furniture_choice3.png","images/furniture_choice2.png","images/furniture_choice1.png","[2,1,0]","0","2","1","images/furniture_choice3.png","-1","furniture","","table","2","0"
"html-keyboard-response","182","776510","0.0-9.0-2.0-0.48","1500","2","2","""event"",""trial"",""time""
""fullscreenenter"",""1"",""2019""
","
","
","""event"",""trial"",""time""
""fullscreenenter"",""1"",""2019""
","
","","","","","","null","<div style=""font-size:60px;"">+</div>","null","","fixation","","","","","","","","","","","","","",""
"learning-trial","183","780511","0.0-9.0-2.0-1.48","1500","2","2","""event"",""trial"",""time""
""fullscreenenter"",""1"",""2019""
","
","
","""event"",""trial"",""time""
""fullscreenenter"",""1"",""2019""
","
","","","","","","839.8000001907349","images/table1.png","","","learning","images/furniture_choice2.png","images/furniture_choice3.png","images/furniture_choice1.png","[1,2,0]","2","1","2","images/furniture_choice3.png","-1","furniture","","table","2","0"
"html-keyboard-response","184","781012","0.0-9.0-2.0-0.49","1500","2","2","""event"",""trial"",""time""
""fullscreenenter"",""1"",""2019""
","
","
","""event"",""trial"",""time""
""fullscreenenter"",""1"",""2019""
","
","","","","","","null","<div style=""font-size:60px;"">+</div>","null","","fixation","","","","","","","","","","","","","",""
"learning-trial","185","785014","0.0-9.0-2.0-1.49","1500","2","2","""event"",""trial"",""time""
""fullscreenenter"",""1"",""2019""
","
","
","""event"",""trial"",""time""
""fullscreenenter"",""1"",""2019""
","
","","","","","","1592.9000000953674","images/table3.png","","","learning","images/furniture_choice3.png","images/furniture_choice1.png","images/furniture_choice2.png","[2,0,1]","0","1","2","images/furniture_choice1.png","1","furniture","","table","2","0"
"html-keyboard-response","186","785515","0.0-9.0-2.0-0.50","1500","2","2","""event"",""trial"",""time""
""fullscreenenter"",""1"",""2019""
","
","
","""event"",""trial"",""time""
""fullscreenenter"",""1"",""2019""
","
","","","","","","null","<div style=""font-size:60px;"">+</div>","null","","fixation","","","","","","","","","","","","","",""
"learning-trial","187","789516","0.0-9.0-2.0-1.50","1500","2","2","""event"",""trial"",""time""
""fullscreenenter"",""1"",""2019""
","
","
","""event"",""trial"",""time""
""fullscreenenter"",""1"",""2019""
","
","","","","","","1106.7999999523163","images/table3.png","","","learning","images/furniture_choice2.png","images/furniture_choice3.png","images/furniture_choice1.png","[1,2,0]","0","2","3","images/furniture_choice1.png","1","furniture","","table","2","0"
"html-keyboard-response","188","790017","0.0-9.0-2.0-0.51","1500","2","2","""event"",""trial"",""time""
""fullscreenenter"",""1"",""2019""
","
","
","""event"",""trial"",""time""
""fullscreenenter"",""1"",""2019""
","
","","","","","","null","<div style=""font-size:60px;"">+</div>","null","","fixation","","","","","","","","","","","","","",""
"learning-trial","189","794018","0.0-9.0-2.0-1.51","1500","2","2","""event"",""trial"",""time""
""fullscreenenter"",""1"",""2019""
","
","
","""event"",""trial"",""time""
""fullscreenenter"",""1"",""2019""
","
","","","","","","1605","images/sofa5.png","","","learning","images/furniture_choice2.png","images/furniture_choice1.png","images/furniture_choice3.png","[1,0,2]","1","0","3","images/furniture_choice3.png","-1","furniture","","sofa","2","0"
"html-keyboard-response","190","794519","0.0-9.0-2.0-0.52","1500","2","2","""event"",""trial"",""time""
""fullscreenenter"",""1"",""2019""
","
","
","""event"",""trial"",""time""
""fullscreenenter"",""1"",""2019""
","
","","","","","","null","<div style=""font-size:60px;"">+</div>","null","","fixation","","","","","","","","","","","","","",""
"learning-trial","191","798521","0.0-9.0-2.0-1.52","1500","2","2","""event"",""trial"",""time""
""fullscreenenter"",""1"",""2019""
","
","
","""event"",""trial"",""time""
""fullscreenenter"",""1"",""2019""
","
","","","","","","1440.0999999046326","images/sofa5.png","","","learning","images/furniture_choice2.png","images/furniture_choice3.png","images/furniture_choice1.png","[1,2,0]","1","0","2","images/furniture_choice3.png","-1","furniture","","sofa","2","0"
"html-keyboard-response","192","799022","0.0-9.0-2.0-0.53","1500","2","2","""event"",""trial"",""time""
""fullscreenenter"",""1"",""2019""
","
","
","""event"",""trial"",""time""
""fullscreenenter"",""1"",""2019""
","
","","","","","","null","<div style=""font-size:60px;"">+</div>","null","","fixation","","","","","","","","","","","","","",""
"learning-trial","193","803024","0.0-9.0-2.0-1.53","1500","2","2","""event"",""trial"",""time""
""fullscreenenter"",""1"",""2019""
","
","
","""event"",""trial"",""time""
""fullscreenenter"",""1"",""2019""
","
","","","","","","2240.699999809265","images/sofa4.png","","","learning","images/furniture_choice2.png","images/furniture_choice1.png","images/furniture_choice3.png","[1,0,2]","2","2","3","images/furniture_choice3.png","1","furniture","","sofa","2","0"
"html-keyboard-response","194","803525","0.0-9.0-2.0-0.54","1500","2","2","""event"",""trial"",""time""
""fullscreenenter"",""1"",""2019""
","
","
","""event"",""trial"",""time""
""fullscreenenter"",""1"",""2019""
","
","","","","","","null","<div style=""font-size:60px;"">+</div>","null","","fixation","","","","","","","","","","","","","",""
"learning-trial","195","807537","0.0-9.0-2.0-1.54","1500","2","2","""event"",""trial"",""time""
""fullscreenenter"",""1"",""2019""
","
","
","""event"",""trial"",""time""
""fullscreenenter"",""1"",""2019""
","
","","","","","","2491.2999999523163","images/bed5.png","","","learning","images/furniture_choice1.png","images/furniture_choice2.png","images/furniture_choice3.png","[0,1,2]","2","2","3","images/furniture_choice3.png","1","furniture","","bed","2","0"
"html-keyboard-response","196","808038","0.0-9.0-2.0-0.55","1500","2","2","""event"",""trial"",""time""
""fullscreenenter"",""1"",""2019""
","
","
","""event"",""trial"",""time""
""fullscreenenter"",""1"",""2019""
","
","","","","","","null","<div style=""font-size:60px;"">+</div>","null","","fixation","","","","","","","","","","","","","",""
"learning-trial","197","812039","0.0-9.0-2.0-1.55","1500","2","2","""event"",""trial"",""time""
""fullscreenenter"",""1"",""2019""
","
","
","""event"",""trial"",""time""
""fullscreenenter"",""1"",""2019""
","
","","","","","","897.5","images/table1.png","","","learning","images/furniture_choice3.png","images/furniture_choice2.png","images/furniture_choice1.png","[2,1,0]","2","0","1","images/furniture_choice3.png","1","furniture","","table","2","0"
"html-keyboard-response","198","812540","0.0-9.0-2.0-0.56","1500","2","2","""event"",""trial"",""time""
""fullscreenenter"",""1"",""2019""
","
","
","""event"",""trial"",""time""
""fullscreenenter"",""1"",""2019""
","
","","","","","","null","<div style=""font-size:60px;"">+</div>","null","","fixation","","","","","","","","","","","","","",""
"learning-trial","199","816542","0.0-9.0-2.0-1.56","1500","2","2","""event"",""trial"",""time""
""fullscreenenter"",""1"",""2019""
","
","
","""event"",""trial"",""time""
""fullscreenenter"",""1"",""2019""
","
","","","","","","2011.4000000953674","images/table5.png","","","learning","images/furniture_choice2.png","images/furniture_choice3.png","images/furniture_choice1.png","[1,2,0]","1","0","3","images/furniture_choice1.png","-1","furniture","","table","2","0"
"html-keyboard-response","200","817043","0.0-9.0-2.0-0.57","1500","2","2","""event"",""trial"",""time""
""fullscreenenter"",""1"",""2019""
","
","
","""event"",""trial"",""time""
""fullscreenenter"",""1"",""2019""
","
","","","","","","null","<div style=""font-size:60px;"">+</div>","null","","fixation","","","","","","","","","","","","","",""
"learning-trial","201","821045","0.0-9.0-2.0-1.57","1500","2","2","""event"",""trial"",""time""
""fullscreenenter"",""1"",""2019""
","
","
","""event"",""trial"",""time""
""fullscreenenter"",""1"",""2019""
","
","","","","","","877.8999998569489","images/table1.png","","","learning","images/furniture_choice2.png","images/furniture_choice3.png","images/furniture_choice1.png","[1,2,0]","2","1","2","images/furniture_choice3.png","1","furniture","","table","2","0"
"html-keyboard-response","202","821546","0.0-9.0-2.0-0.58","1500","2","2","""event"",""trial"",""time""
""fullscreenenter"",""1"",""2019""
","
","
","""event"",""trial"",""time""
""fullscreenenter"",""1"",""2019""
","
","","","","","","null","<div style=""font-size:60px;"">+</div>","null","","fixation","","","","","","","","","","","","","",""
"learning-trial","203","825548","0.0-9.0-2.0-1.58","1500","2","2","""event"",""trial"",""time""
""fullscreenenter"",""1"",""2019""
","
","
","""event"",""trial"",""time""
""fullscreenenter"",""1"",""2019""
","
","","","","","","2150.7999999523163","images/bed4.png","","","learning","images/furniture_choice2.png","images/furniture_choice1.png","images/furniture_choice3.png","[1,0,2]","0","1","2","images/furniture_choice1.png","1","furniture","","bed","2","0"
"html-keyboard-response","204","826049","0.0-9.0-2.0-0.59","1500","2","2","""event"",""trial"",""time""
""fullscreenenter"",""1"",""2019""
","
","
","""event"",""trial"",""time""
""fullscreenenter"",""1"",""2019""
","
","","","","","","null","<div style=""font-size:60px;"">+</div>","null","","fixation","","","","","","","","","","","","","",""
"learning-trial","205","830051","0.0-9.0-2.0-1.59","1500","2","2","""event"",""trial"",""time""
""fullscreenenter"",""1"",""2019""
","
","
","""event"",""trial"",""time""
""fullscreenenter"",""1"",""2019""
","
","","","","","","1553.1999998092651","images/table5.png","","","learning","images/furniture_choice1.png","images/furniture_choice2.png","images/furniture_choice3.png","[0,1,2]","1","1","3","images/furniture_choice3.png","-1","furniture","","table","2","0"
"html-keyboard-response","206","830552","0.0-9.0-2.0-0.60","1500","2","2","""event"",""trial"",""time""
""fullscreenenter"",""1"",""2019""
","
","
","""event"",""trial"",""time""
""fullscreenenter"",""1"",""2019""
","
","","","","","","null","<div style=""font-size:60px;"">+</div>","null","","fixation","","","","","","","","","","","","","",""
"learning-trial","207","834553","0.0-9.0-2.0-1.60","1500","2","2","""event"",""trial"",""time""
""fullscreenenter"",""1"",""2019""
","
","
","""event"",""trial"",""time""
""fullscreenenter"",""1"",""2019""
","
","","","","","","931","images/sofa2.png","","","learning","images/furniture_choice2.png","images/furniture_choice3.png","images/furniture_choice1.png","[1,2,0]","0","2","3","images/furniture_choice1.png","-1","furniture","","sofa","2","0"
"html-keyboard-response","208","835054","0.0-9.0-2.0-0.61","1500","2","2","""event"",""trial"",""time""
""fullscreenenter"",""1"",""2019""
","
","
","""event"",""trial"",""time""
""fullscreenenter"",""1"",""2019""
","
","","","","","","null","<div style=""font-size:60px;"">+</div>","null","","fixation","","","","","","","","","","","","","",""
"learning-trial","209","839056","0.0-9.0-2.0-1.61","1500","2","2","""event"",""trial"",""time""
""fullscreenenter"",""1"",""2019""
","
","
","""event"",""trial"",""time""
""fullscreenenter"",""1"",""2019""
","
","","","","","","1683.5999999046326","images/sofa5.png","","","learning","images/furniture_choice1.png","images/furniture_choice2.png","images/furniture_choice3.png","[0,1,2]","1","1","3","images/furniture_choice3.png","-1","furniture","","sofa","2","0"
"html-keyboard-response","210","839557","0.0-9.0-2.0-0.62","1500","2","2","""event"",""trial"",""time""
""fullscreenenter"",""1"",""2019""
","
","
","""event"",""trial"",""time""
""fullscreenenter"",""1"",""2019""
","
","","","","","","null","<div style=""font-size:60px;"">+</div>","null","","fixation","","","","","","","","","","","","","",""
"learning-trial","211","843559","0.0-9.0-2.0-1.62","1500","2","2","""event"",""trial"",""time""
""fullscreenenter"",""1"",""2019""
","
","
","""event"",""trial"",""time""
""fullscreenenter"",""1"",""2019""
","
","","","","","","1276.9000000953674","images/sofa4.png","","","learning","images/furniture_choice3.png","images/furniture_choice1.png","images/furniture_choice2.png","[2,0,1]","2","0","1","images/furniture_choice3.png","1","furniture","","sofa","2","0"
"html-keyboard-response","212","844060","0.0-9.0-2.0-0.63","1500","2","2","""event"",""trial"",""time""
""fullscreenenter"",""1"",""2019""
","
","
","""event"",""trial"",""time""
""fullscreenenter"",""1"",""2019""
","
","","","","","","null","<div style=""font-size:60px;"">+</div>","null","","fixation","","","","","","","","","","","","","",""
"learning-trial","213","848062","0.0-9.0-2.0-1.63","1500","2","2","""event"",""trial"",""time""
""fullscreenenter"",""1"",""2019""
","
","
","""event"",""trial"",""time""
""fullscreenenter"",""1"",""2019""
","
","","","","","","2607.100000143051","images/bed5.png","","","learning","images/furniture_choice3.png","images/furniture_choice2.png","images/furniture_choice1.png","[2,1,0]","2","0","3","images/furniture_choice1.png","-1","furniture","","bed","2","0"
"html-keyboard-response","214","848563","0.0-9.0-2.0-0.64","1500","2","2","""event"",""trial"",""time""
""fullscreenenter"",""1"",""2019""
","
","
","""event"",""trial"",""time""
""fullscreenenter"",""1"",""2019""
","
","","","","","","null","<div style=""font-size:60px;"">+</div>","null","","fixation","","","","","","","","","","","","","",""
"learning-trial","215","852565","0.0-9.0-2.0-1.64","1500","2","2","""event"",""trial"",""time""
""fullscreenenter"",""1"",""2019""
","
","
","""event"",""trial"",""time""
""fullscreenenter"",""1"",""2019""
","
","","","","","","995.2999999523163","images/table1.png","","","learning","images/furniture_choice3.png","images/furniture_choice2.png","images/furniture_choice1.png","[2,1,0]","2","0","1","images/furniture_choice3.png","1","furniture","","table","2","0"
"html-keyboard-response","216","853066","0.0-9.0-2.0-0.65","1500","2","2","""event"",""trial"",""time""
""fullscreenenter"",""1"",""2019""
","
","
","""event"",""trial"",""time""
""fullscreenenter"",""1"",""2019""
","
","","","","","","null","<div style=""font-size:60px;"">+</div>","null","","fixation","","","","","","","","","","","","","",""
"learning-trial","217","857068","0.0-9.0-2.0-1.65","1500","2","2","""event"",""trial"",""time""
""fullscreenenter"",""1"",""2019""
","
","
","""event"",""trial"",""time""
""fullscreenenter"",""1"",""2019""
","
","","","","","","2705.7000000476837","images/table3.png","","","learning","images/furniture_choice1.png","images/furniture_choice3.png","images/furniture_choice2.png","[0,2,1]","0","0","2","images/furniture_choice3.png","-1","furniture","","table","2","0"
"html-keyboard-response","218","857569","0.0-9.0-2.0-0.66","1500","2","2","""event"",""trial"",""time""
""fullscreenenter"",""1"",""2019""
","
","
","""event"",""trial"",""time""
""fullscreenenter"",""1"",""2019""
","
","","","","","","null","<div style=""font-size:60px;"">+</div>","null","","fixation","","","","","","","","","","","","","",""
"learning-trial","219","861572","0.0-9.0-2.0-1.66","1500","2","2","""event"",""trial"",""time""
""fullscreenenter"",""1"",""2019""
","
","
","""event"",""trial"",""time""
""fullscreenenter"",""1"",""2019""
","
","","","","","","2267.4000000953674","images/bed5.png","","","learning","images/furniture_choice2.png","images/furniture_choice3.png","images/furniture_choice1.png","[1,2,0]","2","1","3","images/furniture_choice1.png","-1","furniture","","bed","2","0"
"html-keyboard-response","220","862073","0.0-9.0-2.0-0.67","1500","2","2","""event"",""trial"",""time""
""fullscreenenter"",""1"",""2019""
","
","
","""event"",""trial"",""time""
""fullscreenenter"",""1"",""2019""
","
","","","","","","null","<div style=""font-size:60px;"">+</div>","null","","fixation","","","","","","","","","","","","","",""
"learning-trial","221","866075","0.0-9.0-2.0-1.67","1500","2","2","""event"",""trial"",""time""
""fullscreenenter"",""1"",""2019""
","
","
","""event"",""trial"",""time""
""fullscreenenter"",""1"",""2019""
","
","","","","","","2116","images/sofa5.png","","","learning","images/furniture_choice2.png","images/furniture_choice1.png","images/furniture_choice3.png","[1,0,2]","1","0","2","images/furniture_choice1.png","-1","furniture","","sofa","2","0"
"html-keyboard-response","222","866575","0.0-9.0-2.0-0.68","1500","2","2","""event"",""trial"",""time""
""fullscreenenter"",""1"",""2019""
","
","
","""event"",""trial"",""time""
""fullscreenenter"",""1"",""2019""
","
","","","","","","null","<div style=""font-size:60px;"">+</div>","null","","fixation","","","","","","","","","","","","","",""
"learning-trial","223","870577","0.0-9.0-2.0-1.68","1500","2","2","""event"",""trial"",""time""
""fullscreenenter"",""1"",""2019""
","
","
","""event"",""trial"",""time""
""fullscreenenter"",""1"",""2019""
","
","","","","","","2422.199999809265","images/bed1.png","","","learning","images/furniture_choice1.png","images/furniture_choice3.png","images/furniture_choice2.png","[0,2,1]","1","2","1","images/furniture_choice1.png","-1","furniture","","bed","2","0"
"html-keyboard-response","224","871078","0.0-9.0-2.0-0.69","1500","2","2","""event"",""trial"",""time""
""fullscreenenter"",""1"",""2019""
","
","
","""event"",""trial"",""time""
""fullscreenenter"",""1"",""2019""
","
","","","","","","null","<div style=""font-size:60px;"">+</div>","null","","fixation","","","","","","","","","","","","","",""
"learning-trial","225","875080","0.0-9.0-2.0-1.69","1500","2","2","""event"",""trial"",""time""
""fullscreenenter"",""1"",""2019""
","
","
","""event"",""trial"",""time""
""fullscreenenter"",""1"",""2019""
","
","","","","","","1351.6999998092651","images/bed5.png","","","learning","images/furniture_choice2.png","images/furniture_choice1.png","images/furniture_choice3.png","[1,0,2]","2","2","1","images/furniture_choice2.png","-1","furniture","","bed","2","0"
"html-keyboard-response","226","875581","0.0-9.0-2.0-0.70","1500","2","2","""event"",""trial"",""time""
""fullscreenenter"",""1"",""2019""
","
","
","""event"",""trial"",""time""
""fullscreenenter"",""1"",""2019""
","
","","","","","","null","<div style=""font-size:60px;"">+</div>","null","","fixation","","","","","","","","","","","","","",""
"learning-trial","227","879583","0.0-9.0-2.0-1.70","1500","2","2","""event"",""trial"",""time""
""fullscreenenter"",""1"",""2019""
","
","
","""event"",""trial"",""time""
""fullscreenenter"",""1"",""2019""
","
","","","","","","1411.3000001907349","images/table5.png","","","learning","images/furniture_choice1.png","images/furniture_choice3.png","images/furniture_choice2.png","[0,2,1]","1","2","3","images/furniture_choice2.png","1","furniture","","table","2","0"
"html-keyboard-response","228","880084","0.0-9.0-2.0-0.71","1500","2","2","""event"",""trial"",""time""
""fullscreenenter"",""1"",""2019""
","
","
","""event"",""trial"",""time""
""fullscreenenter"",""1"",""2019""
","
","","","","","","null","<div style=""font-size:60px;"">+</div>","null","","fixation","","","","","","","","","","","","","",""
"learning-trial","229","884086","0.0-9.0-2.0-1.71","1500","2","2","""event"",""trial"",""time""
""fullscreenenter"",""1"",""2019""
","
","
","""event"",""trial"",""time""
""fullscreenenter"",""1"",""2019""
","
","","","","","","1565.2000000476837","images/bed1.png","","","learning","images/furniture_choice1.png","images/furniture_choice2.png","images/furniture_choice3.png","[0,1,2]","1","1","1","images/furniture_choice1.png","-1","furniture","","bed","2","0"
"html-button-response","230","887601","0.0-9.0-3.0","1500","2","2","""event"",""trial"",""time""
""fullscreenenter"",""1"",""2019""
","
","
","""event"",""trial"",""time""
""fullscreenenter"",""1"",""2019""
","
","","","","","","3514.2000000476837","<p> You have completed the round! <p> In this round, you earned -4 points! </p>","0","","break","","","","","","","","","","","","","",""
"html-button-response","231","888350","0.0-10.0","1500","2","2","""event"",""trial"",""time""
""fullscreenenter"",""1"",""2019""
","
","
","""event"",""trial"",""time""
""fullscreenenter"",""1"",""2019""
","
","","","","","","748.1999998092651","<p> Now it's time to play another round. </p>","0","","transition_screen","","","","","","","","","","","","","",""
"preload","232","892130","0.0-11.0-0.0","1500","2","2","""event"",""trial"",""time""
""fullscreenenter"",""1"",""2019""
","
","
","""event"",""trial"",""time""
""fullscreenenter"",""1"",""2019""
","
","true","false","[]","[]","[]","","","","","","","","","","","","","","","","","","",""
"learning-instructions","233","905751","0.0-11.0-1.0-0.0","1500","2","2","""event"",""trial"",""time""
""fullscreenenter"",""1"",""2019""
","
","
","""event"",""trial"",""time""
""fullscreenenter"",""1"",""2019""
","
","","","","","","5957.400000095367","<p> Your goal in this round is to return farm animals to the barns where they live. </p><p>  Different animals wandered away from different barns! </p></div>","","0","instructions","","","","","","","","","","","","","",""
"learning-instructions","234","916485","0.0-11.0-1.0-0.1","1500","2","2","""event"",""trial"",""time""
""fullscreenenter"",""1"",""2019""
","
","
","""event"",""trial"",""time""
""fullscreenenter"",""1"",""2019""
","
","","","","","","2111.0999999046326","<p> On each turn, you will see a picture of a farm animal and three different barns.  </p><p> You need to select the barn where each animal lives.  </p>","","0","instructions","","","","","","","","","","","","","",""
"learning-instructions","235","925766","0.0-11.0-1.0-0.2","1500","2","2","""event"",""trial"",""time""
""fullscreenenter"",""1"",""2019""
","
","
","""event"",""trial"",""time""
""fullscreenenter"",""1"",""2019""
","
