"trial_type","trial_index","time_elapsed","internal_node_id","subject_id","condition","task_version","interactions","blur_events","focus_events","fullscreenenter_events","fullscreenexit_events","success","timeout","failed_images","failed_audio","failed_video","rt","stimulus","response","button_pressed","task_part","left_choice","middle_choice","right_choice","choice_positions","correct_response","correct_position","key_press","option_selected","points","task_block","correct","stim_cat","block_condition","block_number"
"pavlovia","0","3","0.0-0.0","1611","1","2","""event"",""trial"",""time""
""fullscreenenter"",""1"",""2781""
","
","
","""event"",""trial"",""time""
""fullscreenenter"",""1"",""2781""
","
","","","","","","","","","","","","","","","","","","","","","","","",""
"fullscreen","1","3769","0.0-1.0","1611","1","2","""event"",""trial"",""time""
""fullscreenenter"",""1"",""2781""
","
","
","""event"",""trial"",""time""
""fullscreenenter"",""1"",""2781""
","
","true","","","","","","","","","","","","","","","","","","","","","","",""
"preload","2","78870","0.0-2.0","1611","1","2","""event"",""trial"",""time""
""fullscreenenter"",""1"",""2781""
","
","
","""event"",""trial"",""time""
""fullscreenenter"",""1"",""2781""
","
","true","false","[]","[]","[]","","","","","","","","","","","","","","","","","","",""
"audio-keyboard-response","3","81986","0.0-3.0","1611","1","2","""event"",""trial"",""time""
""fullscreenenter"",""1"",""2781""
","
","
","""event"",""trial"",""time""
""fullscreenenter"",""1"",""2781""
","
","","","","","","1789.3333333333317","audio/beep_loop.wav"," ","","","","","","","","","","","","","","","",""
"audio-button-response","4","84160","0.0-4.0","1611","1","2","""event"",""trial"",""time""
""fullscreenenter"",""1"",""2781""
","
","
","""event"",""trial"",""time""
""fullscreenenter"",""1"",""2781""
","
","","","","","","2171","audio/shark.wav","4","","","","","","","","","","","","","","","",""
"audio-button-response","5","86334","0.0-5.0","1611","1","2","""event"",""trial"",""time""
""fullscreenenter"",""1"",""2781""
","
","
","""event"",""trial"",""time""
""fullscreenenter"",""1"",""2781""
","
","","","","","","1160","audio/turtle.wav","1","","","","","","","","","","","","","","","",""
"preload","6","149823","0.0-6.0","1611","1","2","""event"",""trial"",""time""
""fullscreenenter"",""1"",""2781""
","
","
","""event"",""trial"",""time""
""fullscreenenter"",""1"",""2781""
","
","true","false","[]","[]","[]","","","","","","","","","","","","","","","","","","",""
"html-keyboard-response","7","157346","0.0-7.0","1611","1","2","""event"",""trial"",""time""
""fullscreenenter"",""1"",""2781""
","
","
","""event"",""trial"",""time""
""fullscreenenter"",""1"",""2781""
","
","","","","","","7520.29999999702","Welcome to the experiment. Press any key to begin and to advance the instructions."," ","","","","","","","","","","","","","","","",""
"learning-instructions","8","167438","0.0-8.0-0.0-0.0","1611","1","2","""event"",""trial"",""time""
""fullscreenenter"",""1"",""2781""
","
","
","""event"",""trial"",""time""
""fullscreenenter"",""1"",""2781""
","
","","","","","","1023.3999999910593","<p> Welcome! Today you are going to play 6 different rounds of a decision-making game. </p><p> Use the mouse to click next to continue. </p>","","0","instructions","","","","","","","","","","","","","",""
"learning-instructions","9","171270","0.0-8.0-0.0-0.1","1611","1","2","""event"",""trial"",""time""
""fullscreenenter"",""1"",""2781""
","
","
","""event"",""trial"",""time""
""fullscreenenter"",""1"",""2781""
","
","","","","","","835.6999999880791","<p> You will start with a practice round to learn the rules. </p>","","0","instructions","","","","","","","","","","","","","",""
"learning-instructions","10","179452","0.0-8.0-0.0-0.2","1611","1","2","""event"",""trial"",""time""
""fullscreenenter"",""1"",""2781""
","
","
","""event"",""trial"",""time""
""fullscreenenter"",""1"",""2781""
","
","","","","","","428.1000000089407","<p> Your goal in this round is to deliver sports equipment to three different parks. </p><p> You will need to deliver many types of equipment. </p></div>","","0","instructions","","","","","","","","","","","","","",""
"learning-instructions","11","188388","0.0-8.0-0.0-0.3","1611","1","2","""event"",""trial"",""time""
""fullscreenenter"",""1"",""2781""
","
","
","""event"",""trial"",""time""
""fullscreenenter"",""1"",""2781""
","
","","","","","","453.8999999910593","<p> On each turn, you will see one piece of sports equipment and three different parks.  </p><p> You need to select which park to deliver the equipment to.  </p>","","0","instructions","","","","","","","","","","","","","",""
"learning-instructions","12","202060","0.0-8.0-0.0-0.4","1611","1","2","""event"",""trial"",""time""
""fullscreenenter"",""1"",""2781""
","
","
","""event"",""trial"",""time""
""fullscreenenter"",""1"",""2781""
","
","","","","","","374.40000000596046","<p> You can select the park on the left by pressing the '1' key on your keyboard. <br>You can select the park in the middle by pressing the '2' key on your keyboard. <br>You can select the park on the right by pressing the '3' key on your keyboard.  </p><br><div class=""choice-instructions-grid""> <div class=""choice-option""><img src=""images/park1.png"" class=""choice-option-img"" stage=""instructions"" position=""0"" ><div class=""choice-option-text""> Press ""1."" </div></div><div class=""choice-option""><img src=""images/park2.png"" class=""choice-option-img"" stage=""instructions"" position=""1"" ><div class=""choice-option-text""> Press ""2."" </div></div><div class=""choice-option""><img src=""images/park3.png"" class=""choice-option-img"" stage=""instructions"" position=""2"" ><div class=""choice-option-text""> Press ""3."" </div></div></div>","","0","instructions","","","","","","","","","","","","","",""
"learning-instructions","13","208098","0.0-8.0-0.0-0.5","1611","1","2","""event"",""trial"",""time""
""fullscreenenter"",""1"",""2781""
","
","
","""event"",""trial"",""time""
""fullscreenenter"",""1"",""2781""
","
","","","","","","642.8999999910593","<p> If the kids in the park you chose like the equipment, they will be very happy! </p><div style='float: center;'><img src='images/check.png' width = '200' height = '200'></img>","","0","instructions","","","","","","","","","","","","","",""
"learning-instructions","14","214127","0.0-8.0-0.0-0.6","1611","1","2","""event"",""trial"",""time""
""fullscreenenter"",""1"",""2781""
","
","
","""event"",""trial"",""time""
""fullscreenenter"",""1"",""2781""
","
","","","","","","433.69999998807907","<p> But, if the kids in the park you chose do not like the equipment, they will be sad. </p><div style='float: center;'><img src='images/x.png' width = '200' height = '200'></img>","","0","instructions","","","","","","","","","","","","","",""
"learning-instructions","15","221273","0.0-8.0-0.0-0.7","1611","1","2","""event"",""trial"",""time""
""fullscreenenter"",""1"",""2781""
","
","
","""event"",""trial"",""time""
""fullscreenenter"",""1"",""2781""
","
","","","","","","719.5","<p> Importantly, the kids in each park like some pieces of sports equipment more than others. </p>","","0","instructions","","","","","","","","","","","","","",""
"learning-instructions","16","227628","0.0-8.0-0.0-0.8","1611","1","2","""event"",""trial"",""time""
""fullscreenenter"",""1"",""2781""
","
","
","""event"",""trial"",""time""
""fullscreenenter"",""1"",""2781""
","
","","","","","","303.8999999910593","<p> If you choose the best park for each piece of equipment, the kids there will usually be happy. </p>","","0","instructions","","","","","","","","","","","","","",""
"learning-instructions","17","234543","0.0-8.0-0.0-0.9","1611","1","2","""event"",""trial"",""time""
""fullscreenenter"",""1"",""2781""
","
","
","""event"",""trial"",""time""
""fullscreenenter"",""1"",""2781""
","
","","","","","","278.79999999701977","<p> However, even if you choose the best park for the equipment, the kids may sometimes be sad. </p>","","0","instructions","","","","","","","","","","","","","",""
"learning-instructions","18","242232","0.0-8.0-0.0-0.10","1611","1","2","""event"",""trial"",""time""
""fullscreenenter"",""1"",""2781""
","
","
","""event"",""trial"",""time""
""fullscreenenter"",""1"",""2781""
","
","","","","","","457.5","<p> Similarly, even if you choose the <i>wrong</i> park for the equipment, the kids may still be happy sometimes.","","0","instructions","","","","","","","","","","","","","",""
"learning-instructions","19","247713","0.0-8.0-0.0-0.11","1611","1","2","""event"",""trial"",""time""
""fullscreenenter"",""1"",""2781""
","
","
","""event"",""trial"",""time""
""fullscreenenter"",""1"",""2781""
","
","","","","","","419.30000001192093","<p> For example, the best park for this soccer ball is this one.<div style='float: center;'><img src='images/i1.png' width = '500' height = '268'></img>","","0","instructions","","","","","","","","","","","","","",""
"learning-instructions","20","253843","0.0-8.0-0.0-0.12","1611","1","2","""event"",""trial"",""time""
""fullscreenenter"",""1"",""2781""
","
","
","""event"",""trial"",""time""
""fullscreenenter"",""1"",""2781""
","
","","","","","","839.5999999940395","<p> Let's see what happens if you choose this park for the soccer ball five times.","","0","instructions","","","","","","","","","","","","","",""
"learning-instructions","21","257043","0.0-8.0-0.0-0.13","1611","1","2","""event"",""trial"",""time""
""fullscreenenter"",""1"",""2781""
","
","
","""event"",""trial"",""time""
""fullscreenenter"",""1"",""2781""
","
","","","","","","1039","<p> The kids are happy.<div style='float: left;'><img src='images/i2.png' width = '640' height = '360'></img>","","0","instructions","","","","","","","","","","","","","",""
"learning-instructions","22","259549","0.0-8.0-0.0-0.14","1611","1","2","""event"",""trial"",""time""
""fullscreenenter"",""1"",""2781""
","
","
","""event"",""trial"",""time""
""fullscreenenter"",""1"",""2781""
","
","","","","","","345.40000000596046","<p> The kids are happy.<div style='float: left;'><img src='images/i3.png' width = '640' height = '360'></img>","","0","instructions","","","","","","","","","","","","","",""
"learning-instructions","23","262110","0.0-8.0-0.0-0.15","1611","1","2","""event"",""trial"",""time""
""fullscreenenter"",""1"",""2781""
","
","
","""event"",""trial"",""time""
""fullscreenenter"",""1"",""2781""
","
","","","","","","394.8999999910593","<p> The kids are happy.<div style='float: left;'><img src='images/i4.png' width = '640' height = '360'></img>","","0","instructions","","","","","","","","","","","","","",""
"learning-instructions","24","264508","0.0-8.0-0.0-0.16","1611","1","2","""event"",""trial"",""time""
""fullscreenenter"",""1"",""2781""
","
","
","""event"",""trial"",""time""
""fullscreenenter"",""1"",""2781""
","
","","","","","","182.8999999910593","<p> The kids are sad.<div style='float: left;'><img src='images/i5.png' width = '640' height = '360'></img>","","0","instructions","","","","","","","","","","","","","",""
"learning-instructions","25","267065","0.0-8.0-0.0-0.17","1611","1","2","""event"",""trial"",""time""
""fullscreenenter"",""1"",""2781""
","
","
","""event"",""trial"",""time""
""fullscreenenter"",""1"",""2781""
","
","","","","","","391.29999999701977","<p> The kids are happy.<div style='float: left;'><img src='images/i6.png' width = '640' height = '360'></img>","","0","instructions","","","","","","","","","","","","","",""
"learning-instructions","26","274716","0.0-8.0-0.0-0.18","1611","1","2","""event"",""trial"",""time""
""fullscreenenter"",""1"",""2781""
","
","
","""event"",""trial"",""time""
""fullscreenenter"",""1"",""2781""
","
","","","","","","381.5","<p> As you can see, selecting that park for the soccer ball made the kids happy most of the time, but not all the time.","","0","instructions","","","","","","","","","","","","","",""
"learning-instructions","27","281099","0.0-8.0-0.0-0.19","1611","1","2","""event"",""trial"",""time""
""fullscreenenter"",""1"",""2781""
","
","
","""event"",""trial"",""time""
""fullscreenenter"",""1"",""2781""
","
","","","","","","365.5","<p> Now let's see what happens if you choose a DIFFERENT park for the soccer ball 5 times.","","0","instructions","","","","","","","","","","","","","",""
"learning-instructions","28","283673","0.0-8.0-0.0-0.20","1611","1","2","""event"",""trial"",""time""
""fullscreenenter"",""1"",""2781""
","
","
","""event"",""trial"",""time""
""fullscreenenter"",""1"",""2781""
","
","","","","","","359.90000000596046","<p> The kids are sad.<div style='float: left;'><img src='images/i7.png' width = '640' height = '360'></img>","","0","instructions","","","","","","","","","","","","","",""
"learning-instructions","29","286195","0.0-8.0-0.0-0.21","1611","1","2","""event"",""trial"",""time""
""fullscreenenter"",""1"",""2781""
","
","
","""event"",""trial"",""time""
""fullscreenenter"",""1"",""2781""
","
","","","","","","320.70000000298023","<p> The kids are sad.<div style='float: left;'><img src='images/i8.png' width = '640' height = '360'></img>","","0","instructions","","","","","","","","","","","","","",""
"learning-instructions","30","288893","0.0-8.0-0.0-0.22","1611","1","2","""event"",""trial"",""time""
""fullscreenenter"",""1"",""2781""
","
","
","""event"",""trial"",""time""
""fullscreenenter"",""1"",""2781""
","
","","","","","","529.1000000089407","<p> The kids are happy.<div style='float: left;'><img src='images/i9.png' width = '640' height = '360'></img>","","0","instructions","","","","","","","","","","","","","",""
"learning-instructions","31","291486","0.0-8.0-0.0-0.23","1611","1","2","""event"",""trial"",""time""
""fullscreenenter"",""1"",""2781""
","
","
","""event"",""trial"",""time""
""fullscreenenter"",""1"",""2781""
","
","","","","","","371.6000000089407","<p> The kids are sad.<div style='float: left;'><img src='images/i10.png' width = '640' height = '360'></img>","","0","instructions","","","","","","","","","","","","","",""
"learning-instructions","32","294076","0.0-8.0-0.0-0.24","1611","1","2","""event"",""trial"",""time""
""fullscreenenter"",""1"",""2781""
","
","
","""event"",""trial"",""time""
""fullscreenenter"",""1"",""2781""
","
","","","","","","370.8999999910593","<p> The kids are sad.<div style='float: left;'><img src='images/i11.png' width = '640' height = '360'></img>","","0","instructions","","","","","","","","","","","","","",""
"learning-instructions","33","302503","0.0-8.0-0.0-0.25","1611","1","2","""event"",""trial"",""time""
""fullscreenenter"",""1"",""2781""
","
","
","""event"",""trial"",""time""
""fullscreenenter"",""1"",""2781""
","
","","","","","","310.5","<p> As you can see, selecting the wrong park for the soccer ball made the kids sad most of the time, but not all the time.","","0","instructions","","","","","","","","","","","","","",""
"learning-instructions","34","312096","0.0-8.0-0.0-0.26","1611","1","2","""event"",""trial"",""time""
""fullscreenenter"",""1"",""2781""
","
","
","""event"",""trial"",""time""
""fullscreenenter"",""1"",""2781""
","
","","","","","","472.40000000596046","<p> The different pieces of equipment belong in different parks. You need to try to learn which is the best park for each piece of equipment.","","0","instructions","","","","","","","","","","","","","",""
"learning-instructions","35","328825","0.0-8.0-0.0-0.27","1611","1","2","""event"",""trial"",""time""
""fullscreenenter"",""1"",""2781""
","
","
","""event"",""trial"",""time""
""fullscreenenter"",""1"",""2781""
","
","","","","","","341.5","<p> Try to choose the best park for each piece of equipment, because you will <b> WIN </b> 1 point for each time you make the kids happy and <b>LOSE</b> 1 point for each time you make them sad. </p><p> Remember, if you make the best choice, you will win 1 point most of the time, but not all the time. </p>","","0","instructions","","","","","","","","","","","","","",""
"learning-instructions","36","334987","0.0-8.0-0.0-0.28","1611","1","2","""event"",""trial"",""time""
""fullscreenenter"",""1"",""2781""
","
","
","""event"",""trial"",""time""
""fullscreenenter"",""1"",""2781""
","
","","","","","","673.9000000059605","<p> This is just a practice round, but in the real game, your bonus payment will depend on your total number of points.","","0","instructions","","","","","","","","","","","","","",""
"learning-instructions","37","345629","0.0-8.0-0.0-0.29","1611","1","2","""event"",""trial"",""time""
""fullscreenenter"",""1"",""2781""
","
","
","""event"",""trial"",""time""
""fullscreenenter"",""1"",""2781""
","
","","","","","","305.29999999701977","<p> The position where each park appears will change throughout the game. </p><p> The position where the park appears <i> does not </i> influence how likely the kids are to be happy or sad. </p>","","0","instructions","","","","","","","","","","","","","",""
"learning-instructions","38","360119","0.0-8.0-0.0-0.30","1611","1","2","""event"",""trial"",""time""
""fullscreenenter"",""1"",""2781""
","
","
","""event"",""trial"",""time""
""fullscreenenter"",""1"",""2781""
","
","","","","","","1125.2000000029802","<p> You will have 4 seconds to make each choice. Try to respond before time runs out! </p><p> You will lose 1 point each time you do not make a response. </p>","","0","instructions","","","","","","","","","","","","","",""
"learning-instructions","39","367297","0.0-8.0-0.0-0.31","1611","1","2","""event"",""trial"",""time""
""fullscreenenter"",""1"",""2781""
","
","
","""event"",""trial"",""time""
""fullscreenenter"",""1"",""2781""
","
","","","","","","383","<p> Remember, you should use the 1, 2, and 3 keys to select the park for each piece of equipment. </p><br><div class=""choice-instructions-grid""> <div class=""choice-option""><img src=""images/park1.png"" class=""choice-option-img"" stage=""instructions"" position=""0"" ><div class=""choice-option-text""> Press ""1."" </div></div><div class=""choice-option""><img src=""images/park2.png"" class=""choice-option-img"" stage=""instructions"" position=""1"" ><div class=""choice-option-text""> Press ""2."" </div></div><div class=""choice-option""><img src=""images/park3.png"" class=""choice-option-img"" stage=""instructions"" position=""2"" ><div class=""choice-option-text""> Press ""3."" </div></div></div>","","0","instructions","","","","","","","","","","","","","",""
"html-button-response","40","368693","0.0-8.0-1.0","1611","1","2","""event"",""trial"",""time""
""fullscreenenter"",""1"",""2781""
","
","
","""event"",""trial"",""time""
""fullscreenenter"",""1"",""2781""
","
","","","","","","1285.7000000029802","<p> Ready to practice? </p>","0","","","","","","","","","","","","","","","",""
"html-keyboard-response","41","369311","0.0-8.0-2.0-0.0","1611","1","2","""event"",""trial"",""time""
""fullscreenenter"",""1"",""2781""
","
","
","""event"",""trial"",""time""
""fullscreenenter"",""1"",""2781""
","
","","","","","","null","<div style=""font-size:60px;"">+</div>","null","","fixation","","","","","","","","","","","","","",""
"learning-trial","42","373323","0.0-8.0-2.0-1.0","1611","1","2","""event"",""trial"",""time""
""fullscreenenter"",""1"",""2781""
","
","
","""event"",""trial"",""time""
""fullscreenenter"",""1"",""2781""
","
","","","","","","882.3999999910593","images/ball4.png","","","practice","images/park1.png","images/park2.png","images/park3.png","[0,1,2]","2","2","1","images/park1.png","-1","practice","","","",""
"html-keyboard-response","43","373836","0.0-8.0-2.0-0.1","1611","1","2","""event"",""trial"",""time""
""fullscreenenter"",""1"",""2781""
","
","
","""event"",""trial"",""time""
""fullscreenenter"",""1"",""2781""
","
","","","","","","null","<div style=""font-size:60px;"">+</div>","null","","fixation","","","","","","","","","","","","","",""
"learning-trial","44","377846","0.0-8.0-2.0-1.1","1611","1","2","""event"",""trial"",""time""
""fullscreenenter"",""1"",""2781""
","
","
","""event"",""trial"",""time""
""fullscreenenter"",""1"",""2781""
","
","","","","","","821.8000000119209","images/racket3.png","","","practice","images/park3.png","images/park2.png","images/park1.png","[2,1,0]","1","1","2","images/park2.png","1","practice","","","",""
"html-keyboard-response","45","378362","0.0-8.0-2.0-0.2","1611","1","2","""event"",""trial"",""time""
""fullscreenenter"",""1"",""2781""
","
","
","""event"",""trial"",""time""
""fullscreenenter"",""1"",""2781""
","
","","","","","","null","<div style=""font-size:60px;"">+</div>","null","","fixation","","","","","","","","","","","","","",""
"learning-trial","46","382383","0.0-8.0-2.0-1.2","1611","1","2","""event"",""trial"",""time""
""fullscreenenter"",""1"",""2781""
","
","
","""event"",""trial"",""time""
""fullscreenenter"",""1"",""2781""
","
","","","","","","895.2999999970198","images/ball3.png","","","practice","images/park2.png","images/park1.png","images/park3.png","[1,0,2]","0","1","3","images/park3.png","-1","practice","","","",""
"html-keyboard-response","47","382894","0.0-8.0-2.0-0.3","1611","1","2","""event"",""trial"",""time""
""fullscreenenter"",""1"",""2781""
","
","
","""event"",""trial"",""time""
""fullscreenenter"",""1"",""2781""
","
","","","","","","null","<div style=""font-size:60px;"">+</div>","null","","fixation","","","","","","","","","","","","","",""
"learning-trial","48","386899","0.0-8.0-2.0-1.3","1611","1","2","""event"",""trial"",""time""
""fullscreenenter"",""1"",""2781""
","
","
","""event"",""trial"",""time""
""fullscreenenter"",""1"",""2781""
","
","","","","","","1180.7000000029802","images/ball4.png","","","practice","images/park1.png","images/park2.png","images/park3.png","[0,1,2]","2","2","3","images/park3.png","1","practice","","","",""
"html-keyboard-response","49","387401","0.0-8.0-2.0-0.4","1611","1","2","""event"",""trial"",""time""
""fullscreenenter"",""1"",""2781""
","
","
","""event"",""trial"",""time""
""fullscreenenter"",""1"",""2781""
","
","","","","","","null","<div style=""font-size:60px;"">+</div>","null","","fixation","","","","","","","","","","","","","",""
"learning-trial","50","391422","0.0-8.0-2.0-1.4","1611","1","2","""event"",""trial"",""time""
""fullscreenenter"",""1"",""2781""
","
","
","""event"",""trial"",""time""
""fullscreenenter"",""1"",""2781""
","
","","","","","","1001","images/ball2.png","","","practice","images/park1.png","images/park2.png","images/park3.png","[0,1,2]","0","0","3","images/park3.png","-1","practice","","","",""
"html-keyboard-response","51","391931","0.0-8.0-2.0-0.5","1611","1","2","""event"",""trial"",""time""
""fullscreenenter"",""1"",""2781""
","
","
","""event"",""trial"",""time""
""fullscreenenter"",""1"",""2781""
","
","","","","","","null","<div style=""font-size:60px;"">+</div>","null","","fixation","","","","","","","","","","","","","",""
"learning-trial","52","395947","0.0-8.0-2.0-1.5","1611","1","2","""event"",""trial"",""time""
""fullscreenenter"",""1"",""2781""
","
","
","""event"",""trial"",""time""
""fullscreenenter"",""1"",""2781""
","
","","","","","","814.8000000119209","images/ball1.png","","","practice","images/park1.png","images/park3.png","images/park2.png","[0,2,1]","1","2","1","images/park1.png","-1","practice","","","",""
"html-keyboard-response","53","396450","0.0-8.0-2.0-0.6","1611","1","2","""event"",""trial"",""time""
""fullscreenenter"",""1"",""2781""
","
","
","""event"",""trial"",""time""
""fullscreenenter"",""1"",""2781""
","
","","","","","","null","<div style=""font-size:60px;"">+</div>","null","","fixation","","","","","","","","","","","","","",""
"learning-trial","54","400458","0.0-8.0-2.0-1.6","1611","1","2","""event"",""trial"",""time""
""fullscreenenter"",""1"",""2781""
","
","
","""event"",""trial"",""time""
""fullscreenenter"",""1"",""2781""
","
","","","","","","1087.7999999970198","images/ball1.png","","","practice","images/park2.png","images/park3.png","images/park1.png","[1,2,0]","1","0","2","images/park3.png","-1","practice","","","",""
"html-keyboard-response","55","400962","0.0-8.0-2.0-0.7","1611","1","2","""event"",""trial"",""time""
""fullscreenenter"",""1"",""2781""
","
","
","""event"",""trial"",""time""
""fullscreenenter"",""1"",""2781""
","
","","","","","","null","<div style=""font-size:60px;"">+</div>","null","","fixation","","","","","","","","","","","","","",""
"learning-trial","56","404967","0.0-8.0-2.0-1.7","1611","1","2","""event"",""trial"",""time""
""fullscreenenter"",""1"",""2781""
","
","
","""event"",""trial"",""time""
""fullscreenenter"",""1"",""2781""
","
","","","","","","848.3999999910593","images/racket1.png","","","practice","images/park2.png","images/park1.png","images/park3.png","[1,0,2]","2","2","1","images/park2.png","-1","practice","","","",""
"html-keyboard-response","57","405470","0.0-8.0-2.0-0.8","1611","1","2","""event"",""trial"",""time""
""fullscreenenter"",""1"",""2781""
","
","
","""event"",""trial"",""time""
""fullscreenenter"",""1"",""2781""
","
","","","","","","null","<div style=""font-size:60px;"">+</div>","null","","fixation","","","","","","","","","","","","","",""
"learning-trial","58","409475","0.0-8.0-2.0-1.8","1611","1","2","""event"",""trial"",""time""
""fullscreenenter"",""1"",""2781""
","
","
","""event"",""trial"",""time""
""fullscreenenter"",""1"",""2781""
","
","","","","","","1098.7000000029802","images/ball2.png","","","practice","images/park3.png","images/park1.png","images/park2.png","[2,0,1]","0","1","1","images/park3.png","-1","practice","","","",""
"html-keyboard-response","59","409978","0.0-8.0-2.0-0.9","1611","1","2","""event"",""trial"",""time""
""fullscreenenter"",""1"",""2781""
","
","
","""event"",""trial"",""time""
""fullscreenenter"",""1"",""2781""
","
","","","","","","null","<div style=""font-size:60px;"">+</div>","null","","fixation","","","","","","","","","","","","","",""
"learning-trial","60","413983","0.0-8.0-2.0-1.9","1611","1","2","""event"",""trial"",""time""
""fullscreenenter"",""1"",""2781""
","
","
","""event"",""trial"",""time""
""fullscreenenter"",""1"",""2781""
","
","","","","","","810.2999999970198","images/racket3.png","","","practice","images/park2.png","images/park3.png","images/park1.png","[1,2,0]","1","0","1","images/park2.png","1","practice","","","",""
"html-keyboard-response","61","414486","0.0-8.0-2.0-0.10","1611","1","2","""event"",""trial"",""time""
""fullscreenenter"",""1"",""2781""
","
","
","""event"",""trial"",""time""
""fullscreenenter"",""1"",""2781""
","
","","","","","","null","<div style=""font-size:60px;"">+</div>","null","","fixation","","","","","","","","","","","","","",""
"learning-trial","62","418491","0.0-8.0-2.0-1.10","1611","1","2","""event"",""trial"",""time""
""fullscreenenter"",""1"",""2781""
","
","
","""event"",""trial"",""time""
""fullscreenenter"",""1"",""2781""
","
","","","","","","909.2000000029802","images/ball3.png","","","practice","images/park1.png","images/park2.png","images/park3.png","[0,1,2]","0","0","2","images/park2.png","-1","practice","","","",""
"html-keyboard-response","63","418993","0.0-8.0-2.0-0.11","1611","1","2","""event"",""trial"",""time""
""fullscreenenter"",""1"",""2781""
","
","
","""event"",""trial"",""time""
""fullscreenenter"",""1"",""2781""
","
","","","","","","null","<div style=""font-size:60px;"">+</div>","null","","fixation","","","","","","","","","","","","","",""
"learning-trial","64","422997","0.0-8.0-2.0-1.11","1611","1","2","""event"",""trial"",""time""
""fullscreenenter"",""1"",""2781""
","
","
","""event"",""trial"",""time""
""fullscreenenter"",""1"",""2781""
","
","","","","","","803.0999999940395","images/racket1.png","","","practice","images/park2.png","images/park1.png","images/park3.png","[1,0,2]","2","2","1","images/park2.png","-1","practice","","","",""
"html-button-response","65","425391","0.0-8.0-3.0","1611","1","2","""event"",""trial"",""time""
""fullscreenenter"",""1"",""2781""
","
","
","""event"",""trial"",""time""
""fullscreenenter"",""1"",""2781""
","
","","","","","","2392.5999999940395","<p> You earned -6 points in the practice round! </p>","0","","break","","","","","","","","","","","","","",""
"learning-instructions","66","434992","0.0-8.0-4.0-0.0","1611","1","2","""event"",""trial"",""time""
""fullscreenenter"",""1"",""2781""
","
","
","""event"",""trial"",""time""
""fullscreenenter"",""1"",""2781""
","
","","","","","","618.0999999940395","<p> It's almost time to start the real game. </p><p> Before you start, we're going to ask you a few questions about how the game works. </p>","","0","instructions","","","","","","","","","","","","","",""
"preload","67","450986","0.0-8.0-5.0","1611","1","2","""event"",""trial"",""time""
""fullscreenenter"",""1"",""2781""
","
","
","""event"",""trial"",""time""
""fullscreenenter"",""1"",""2781""
","
","true","false","[]","[]","[]","","","","","","","","","","","","","","","","","","",""
"comp-q","68","457406","0.0-8.0-6.0-0.0","1611","1","2","""event"",""trial"",""time""
""fullscreenenter"",""1"",""2781""
","
","
","""event"",""trial"",""time""
""fullscreenenter"",""1"",""2781""
","
","","","","","","972.4000000059605","<p> <b> True or False? </b> </p><p> If you choose the best option, you will always earn 1 point. </p>","","1","comp_question","","","","","","","","","","","true","","",""
"comp-q","69","464164","0.0-8.0-6.0-1.0","1611","1","2","""event"",""trial"",""time""
""fullscreenenter"",""1"",""2781""
","
","
","""event"",""trial"",""time""
""fullscreenenter"",""1"",""2781""
","
","","","","","","1090.300000011921","<p><b> That's right! </b> Sometimes you will lose 1 point, even if you choose the best option. </p>","","0","comp_answer","","","","","","","","","","","","","",""
"comp-q","70","470064","0.0-8.0-6.0-0.1","1611","1","2","""event"",""trial"",""time""
""fullscreenenter"",""1"",""2781""
","
","
","""event"",""trial"",""time""
""fullscreenenter"",""1"",""2781""
","
","","","","","","1260.0999999940395","<p> <b> True or False? </b> </p><p> You will have as much time as you want to make each choice. </p>","","1","comp_question","","","","","","","","","","","true","","",""
"comp-q","71","476758","0.0-8.0-6.0-1.1","1611","1","2","""event"",""trial"",""time""
""fullscreenenter"",""1"",""2781""
","
","
","""event"",""trial"",""time""
""fullscreenenter"",""1"",""2781""
","
","","","","","","1884.2999999970198","<p> <b> That's right! </b> You will only have 4 seconds to make each choice. </p>","","0","comp_answer","","","","","","","","","","","","","",""
"comp-q","72","483474","0.0-8.0-6.0-0.2","1611","1","2","""event"",""trial"",""time""
""fullscreenenter"",""1"",""2781""
","
","
","""event"",""trial"",""time""
""fullscreenenter"",""1"",""2781""
","
","","","","","","560.4000000059605","<p> <b> True or False? </b> </p><p> You should use the '1', '2', and '3' keys to make your choices. </p>","","0","comp_question","","","","","","","","","","","true","","",""
"comp-q","73","489668","0.0-8.0-6.0-1.2","1611","1","2","""event"",""trial"",""time""
""fullscreenenter"",""1"",""2781""
","
","
","""event"",""trial"",""time""
""fullscreenenter"",""1"",""2781""
","
","","","","","","1345.0999999940395","<p> <b> That's right! </b> You should use the '1', '2', and '3' keys to make each choice. </p>","","0","comp_answer","","","","","","","","","","","","","",""
"learning-instructions","74","499028","0.0-8.0-7.0-0.0","1611","1","2","""event"",""trial"",""time""
""fullscreenenter"",""1"",""2781""
","
","
","""event"",""trial"",""time""
""fullscreenenter"",""1"",""2781""
","
","","","","","","864.4000000059605","<p> It's now time to start the real game. </p>Do your best, because the points you earn in the next rounds will influence your bonus payment. </p>","","0","instructions","","","","","","","","","","","","","",""
"preload","75","522499","0.0-9.0-0.0","1611","1","2","""event"",""trial"",""time""
""fullscreenenter"",""1"",""2781""
","
","
","""event"",""trial"",""time""
""fullscreenenter"",""1"",""2781""
","
","true","false","[]","[]","[]","","","","","","","","","","","","","","","","","","",""
"learning-instructions","76","530732","0.0-9.0-1.0-0.0","1611","1","2","""event"",""trial"",""time""
""fullscreenenter"",""1"",""2781""
","
","
","""event"",""trial"",""time""
""fullscreenenter"",""1"",""2781""
","
","","","","","","1778.699999988079","<p> Your goal in this round is to feed all of your pets with the foods they like. </p><p> You will need to feed many pets. </p></div>","","0","instructions","","","","","","","","","","","","","",""
"learning-instructions","77","539570","0.0-9.0-1.0-0.1","1611","1","2","""event"",""trial"",""time""
""fullscreenenter"",""1"",""2781""
","
","
","""event"",""trial"",""time""
""fullscreenenter"",""1"",""2781""
","
","","","","","","846.7999999970198","<p> On each turn, you will see a picture of one of your pets and three different types of foods.  </p><p> You need to select the food that you want to give to your pet.  </p>","","0","instructions","","","","","","","","","","","","","",""
"learning-instructions","78","546694","0.0-9.0-1.0-0.2","1611","1","2","""event"",""trial"",""time""
""fullscreenenter"",""1"",""2781""
","
","
","""event"",""trial"",""time""
""fullscreenenter"",""1"",""2781""
","
","","","","","","419.40000000596046","<p> You can select the food on the left by pressing 1, the food in the middle by pressing 2, and the food on the right by pressing 3. </p><br><div class=""choice-instructions-grid""> <div class=""choice-option""><img src=""images/pets_choice1.png"" class=""choice-option-img"" stage=""instructions"" position=""0"" ><div class=""choice-option-text""> Press ""1."" </div></div><div class=""choice-option""><img src=""images/pets_choice2.png"" class=""choice-option-img"" stage=""instructions"" position=""1"" ><div class=""choice-option-text""> Press ""2."" </div></div><div class=""choice-option""><img src=""images/pets_choice3.png"" class=""choice-option-img"" stage=""instructions"" position=""2"" ><div class=""choice-option-text""> Press ""3."" </div></div></div>","","0","instructions","","","","","","","","","","","","","",""
"learning-instructions","79","551260","0.0-9.0-1.0-0.3","1611","1","2","""event"",""trial"",""time""
""fullscreenenter"",""1"",""2781""
","
","
","""event"",""trial"",""time""
""fullscreenenter"",""1"",""2781""
","
","","","","","","545.5","<p> If your pet likes the food you chose, it will be very happy! </p><div style='float: center;'><img src='images/check.png' width = '200' height = '200'></img>","","0","instructions","","","","","","","","","","","","","",""
"learning-instructions","80","556156","0.0-9.0-1.0-0.4","1611","1","2","""event"",""trial"",""time""
""fullscreenenter"",""1"",""2781""
","
","
","""event"",""trial"",""time""
""fullscreenenter"",""1"",""2781""
","
","","","","","","471.90000000596046","<p> But, if your pet does not like the food you chose, it will feel sick. </p><div style='float: center;'><img src='images/x.png' width = '200' height = '200'></img>","","0","instructions","","","","","","","","","","","","","",""
"learning-instructions","81","630510","0.0-9.0-1.0-0.5","1611","1","2","""event"",""trial"",""time""
""fullscreenenter"",""1"",""2781""
","
","
","""event"",""trial"",""time""
""fullscreenenter"",""1"",""2781""
","
","","","","","","66706","<p> Importantly, each pet has a food that it prefers. </p><p> If you choose the food that the pet prefers, it will be more likely to be happy! </p>","","0","instructions","","","","","","","","","","","","","",""
"learning-instructions","82","642218","0.0-9.0-1.0-0.6","1611","1","2","""event"",""trial"",""time""
""fullscreenenter"",""1"",""2781""
","
","
","""event"",""trial"",""time""
""fullscreenenter"",""1"",""2781""
","
","","","","","","783","<p> However, even if you choose the food the pet prefers, it may still feel sick sometimes. </p><p> Similarly, even if you choose the <i>wrong</i> food, it may still feel happy.","","0","instructions","","","","","","","","","","","","","",""
"learning-instructions","83","655354","0.0-9.0-1.0-0.7","1611","1","2","""event"",""trial"",""time""
""fullscreenenter"",""1"",""2781""
","
","
","""event"",""trial"",""time""
""fullscreenenter"",""1"",""2781""
","
","","","","","","338.6000000089407","<p> Try to choose the food each pet prefers, because you will <b> WIN </b> 1 point each time the pet is happy and <b>LOSE</b>  1 point each time the pet feels sick. </p><p> Your bonus payment will depend on your total number of points.","","0","instructions","","","","","","","","","","","","","",""
"learning-instructions","84","664764","0.0-9.0-1.0-0.8","1611","1","2","""event"",""trial"",""time""
""fullscreenenter"",""1"",""2781""
","
","
","""event"",""trial"",""time""
""fullscreenenter"",""1"",""2781""
","
","","","","","","798.9000000059605","<p> The position of each food will change throughout the round. </p><p> The food's position <i> does not </i> influence how likely the pet is to feel happy or sick. </p>","","0","instructions","","","","","","","","","","","","","",""
"learning-instructions","85","674582","0.0-9.0-1.0-0.9","1611","1","2","""event"",""trial"",""time""
""fullscreenenter"",""1"",""2781""
","
","
","""event"",""trial"",""time""
""fullscreenenter"",""1"",""2781""
","
","","","","","","518.5","<p> You will have 4 seconds to make each choice. Try to respond before time runs out! </p><p> You will lose 1 point each time you do not make a response. </p>","","0","instructions","","","","","","","","","","","","","",""
"html-keyboard-response","86","675193","0.0-9.0-2.0-0.0","1611","1","2","""event"",""trial"",""time""
""fullscreenenter"",""1"",""2781""
","
","
","""event"",""trial"",""time""
""fullscreenenter"",""1"",""2781""
","
","","","","","","null","<div style=""font-size:60px;"">+</div>","null","","fixation","","","","","","","","","","","","","",""
"learning-trial","87","679201","0.0-9.0-2.0-1.0","1611","1","2","""event"",""trial"",""time""
""fullscreenenter"",""1"",""2781""
","
","
","""event"",""trial"",""time""
""fullscreenenter"",""1"",""2781""
","
","","","","","","850","images/feline2.png","","","learning","images/pets_choice3.png","images/pets_choice2.png","images/pets_choice1.png","[2,1,0]","2","0","2","images/pets_choice2.png","-1","pets","","feline","1","0"
"html-keyboard-response","88","679716","0.0-9.0-2.0-0.1","1611","1","2","""event"",""trial"",""time""
""fullscreenenter"",""1"",""2781""
","
","
","""event"",""trial"",""time""
""fullscreenenter"",""1"",""2781""
","
","","","","","","null","<div style=""font-size:60px;"">+</div>","null","","fixation","","","","","","","","","","","","","",""
"learning-trial","89","683723","0.0-9.0-2.0-1.1","1611","1","2","""event"",""trial"",""time""
""fullscreenenter"",""1"",""2781""
","
","
","""event"",""trial"",""time""
""fullscreenenter"",""1"",""2781""
","
","","","","","","742.3999999910593","images/feline1.png","","","learning","images/pets_choice1.png","images/pets_choice3.png","images/pets_choice2.png","[0,2,1]","2","1","2","images/pets_choice3.png","1","pets","","feline","1","0"
"html-keyboard-response","90","684239","0.0-9.0-2.0-0.2","1611","1","2","""event"",""trial"",""time""
""fullscreenenter"",""1"",""2781""
","
","
","""event"",""trial"",""time""
""fullscreenenter"",""1"",""2781""
","
","","","","","","null","<div style=""font-size:60px;"">+</div>","null","","fixation","","","","","","","","","","","","","",""
"learning-trial","91","688248","0.0-9.0-2.0-1.2","1611","1","2","""event"",""trial"",""time""
""fullscreenenter"",""1"",""2781""
","
","
","""event"",""trial"",""time""
""fullscreenenter"",""1"",""2781""
","
","","","","","","733.7999999970198","images/rabbit4.png","","","learning","images/pets_choice3.png","images/pets_choice2.png","images/pets_choice1.png","[2,1,0]","0","2","1","images/pets_choice3.png","1","pets","","rabbit","1","0"
"html-keyboard-response","92","688759","0.0-9.0-2.0-0.3","1611","1","2","""event"",""trial"",""time""
""fullscreenenter"",""1"",""2781""
","
","
","""event"",""trial"",""time""
""fullscreenenter"",""1"",""2781""
","
","","","","","","null","<div style=""font-size:60px;"">+</div>","null","","fixation","","","","","","","","","","","","","",""
"learning-trial","93","692776","0.0-9.0-2.0-1.3","1611","1","2","""event"",""trial"",""time""
""fullscreenenter"",""1"",""2781""
","
","
","""event"",""trial"",""time""
""fullscreenenter"",""1"",""2781""
","
","","","","","","898.2000000029802","images/rabbit3.png","","","learning","images/pets_choice1.png","images/pets_choice3.png","images/pets_choice2.png","[0,2,1]","0","0","3","images/pets_choice2.png","-1","pets","","rabbit","1","0"
"html-keyboard-response","94","693282","0.0-9.0-2.0-0.4","1611","1","2","""event"",""trial"",""time""
""fullscreenenter"",""1"",""2781""
","
","
","""event"",""trial"",""time""
""fullscreenenter"",""1"",""2781""
","
","","","","","","null","<div style=""font-size:60px;"">+</div>","null","","fixation","","","","","","","","","","","","","",""
"learning-trial","95","697288","0.0-9.0-2.0-1.4","1611","1","2","""event"",""trial"",""time""
""fullscreenenter"",""1"",""2781""
","
","
","""event"",""trial"",""time""
""fullscreenenter"",""1"",""2781""
","
","","","","","","775.6999999880791","images/rabbit4.png","","","learning","images/pets_choice3.png","images/pets_choice1.png","images/pets_choice2.png","[2,0,1]","0","1","1","images/pets_choice3.png","-1","pets","","rabbit","1","0"
"html-keyboard-response","96","697802","0.0-9.0-2.0-0.5","1611","1","2","""event"",""trial"",""time""
""fullscreenenter"",""1"",""2781""
","
","
","""event"",""trial"",""time""
""fullscreenenter"",""1"",""2781""
","
","","","","","","null","<div style=""font-size:60px;"">+</div>","null","","fixation","","","","","","","","","","","","","",""
"learning-trial","97","701821","0.0-9.0-2.0-1.5","1611","1","2","""event"",""trial"",""time""
""fullscreenenter"",""1"",""2781""
","
","
","""event"",""trial"",""time""
""fullscreenenter"",""1"",""2781""
","
","","","","","","824.2000000029802","images/rabbit2.png","","","learning","images/pets_choice2.png","images/pets_choice3.png","images/pets_choice1.png","[1,2,0]","0","2","2","images/pets_choice3.png","-1","pets","","rabbit","1","0"
"html-keyboard-response","98","702337","0.0-9.0-2.0-0.6","1611","1","2","""event"",""trial"",""time""
""fullscreenenter"",""1"",""2781""
","
","
","""event"",""trial"",""time""
""fullscreenenter"",""1"",""2781""
","
","","","","","","null","<div style=""font-size:60px;"">+</div>","null","","fixation","","","","","","","","","","","","","",""
"learning-trial","99","706342","0.0-9.0-2.0-1.6","1611","1","2","""event"",""trial"",""time""
""fullscreenenter"",""1"",""2781""
","
","
","""event"",""trial"",""time""
""fullscreenenter"",""1"",""2781""
","
","","","","","","753","images/feline1.png","","","learning","images/pets_choice3.png","images/pets_choice1.png","images/pets_choice2.png","[2,0,1]","2","0","1","images/pets_choice3.png","1","pets","","feline","1","0"
"html-keyboard-response","100","706858","0.0-9.0-2.0-0.7","1611","1","2","""event"",""trial"",""time""
""fullscreenenter"",""1"",""2781""
","
","
","""event"",""trial"",""time""
""fullscreenenter"",""1"",""2781""
","
","","","","","","null","<div style=""font-size:60px;"">+</div>","null","","fixation","","","","","","","","","","","","","",""
"learning-trial","101","710863","0.0-9.0-2.0-1.7","1611","1","2","""event"",""trial"",""time""
""fullscreenenter"",""1"",""2781""
","
","
","""event"",""trial"",""time""
""fullscreenenter"",""1"",""2781""
","
","","","","","","799.9000000059605","images/feline5.png","","","learning","images/pets_choice3.png","images/pets_choice2.png","images/pets_choice1.png","[2,1,0]","2","0","1","images/pets_choice3.png","1","pets","","feline","1","0"
"html-keyboard-response","102","711365","0.0-9.0-2.0-0.8","1611","1","2","""event"",""trial"",""time""
""fullscreenenter"",""1"",""2781""
","
","
","""event"",""trial"",""time""
""fullscreenenter"",""1"",""2781""
","
","","","","","","null","<div style=""font-size:60px;"">+</div>","null","","fixation","","","","","","","","","","","","","",""
"learning-trial","103","715370","0.0-9.0-2.0-1.8","1611","1","2","""event"",""trial"",""time""
""fullscreenenter"",""1"",""2781""
","
","
","""event"",""trial"",""time""
""fullscreenenter"",""1"",""2781""
","
","","","","","","684.2999999970198","images/rabbit4.png","","","learning","images/pets_choice2.png","images/pets_choice3.png","images/pets_choice1.png","[1,2,0]","0","2","2","images/pets_choice3.png","-1","pets","","rabbit","1","0"
"html-keyboard-response","104","715871","0.0-9.0-2.0-0.9","1611","1","2","""event"",""trial"",""time""
""fullscreenenter"",""1"",""2781""
","
","
","""event"",""trial"",""time""
""fullscreenenter"",""1"",""2781""
","
","","","","","","null","<div style=""font-size:60px;"">+</div>","null","","fixation","","","","","","","","","","","","","",""
"learning-trial","105","719875","0.0-9.0-2.0-1.9","1611","1","2","""event"",""trial"",""time""
""fullscreenenter"",""1"",""2781""
","
","
","""event"",""trial"",""time""
""fullscreenenter"",""1"",""2781""
","
","","","","","","715.7999999970198","images/rabbit4.png","","","learning","images/pets_choice3.png","images/pets_choice2.png","images/pets_choice1.png","[2,1,0]","0","2","3","images/pets_choice1.png","1","pets","","rabbit","1","0"
"html-keyboard-response","106","720376","0.0-9.0-2.0-0.10","1611","1","2","""event"",""trial"",""time""
""fullscreenenter"",""1"",""2781""
","
","
","""event"",""trial"",""time""
""fullscreenenter"",""1"",""2781""
","
","","","","","","null","<div style=""font-size:60px;"">+</div>","null","","fixation","","","","","","","","","","","","","",""
"learning-trial","107","724380","0.0-9.0-2.0-1.10","1611","1","2","""event"",""trial"",""time""
""fullscreenenter"",""1"",""2781""
","
","
","""event"",""trial"",""time""
""fullscreenenter"",""1"",""2781""
","
","","","","","","857.6000000089407","images/dog3.png","","","learning","images/pets_choice1.png","images/pets_choice2.png","images/pets_choice3.png","[0,1,2]","1","1","3","images/pets_choice3.png","-1","pets","","dog","1","0"
"html-keyboard-response","108","724883","0.0-9.0-2.0-0.11","1611","1","2","""event"",""trial"",""time""
""fullscreenenter"",""1"",""2781""
","
","
","""event"",""trial"",""time""
""fullscreenenter"",""1"",""2781""
","
","","","","","","null","<div style=""font-size:60px;"">+</div>","null","","fixation","","","","","","","","","","","","","",""
"learning-trial","109","728889","0.0-9.0-2.0-1.11","1611","1","2","""event"",""trial"",""time""
""fullscreenenter"",""1"",""2781""
","
","
","""event"",""trial"",""time""
""fullscreenenter"",""1"",""2781""
","
","","","","","","871.5999999940395","images/dog2.png","","","learning","images/pets_choice3.png","images/pets_choice2.png","images/pets_choice1.png","[2,1,0]","1","1","2","images/pets_choice2.png","1","pets","","dog","1","0"
"html-keyboard-response","110","729391","0.0-9.0-2.0-0.12","1611","1","2","""event"",""trial"",""time""
""fullscreenenter"",""1"",""2781""
","
","
","""event"",""trial"",""time""
""fullscreenenter"",""1"",""2781""
","
","","","","","","null","<div style=""font-size:60px;"">+</div>","null","","fixation","","","","","","","","","","","","","",""
"learning-trial","111","733397","0.0-9.0-2.0-1.12","1611","1","2","""event"",""trial"",""time""
""fullscreenenter"",""1"",""2781""
","
","
","""event"",""trial"",""time""
""fullscreenenter"",""1"",""2781""
","
","","","","","","826.9000000059605","images/dog1.png","","","learning","images/pets_choice3.png","images/pets_choice2.png","images/pets_choice1.png","[2,1,0]","1","1","2","images/pets_choice2.png","1","pets","","dog","1","0"
"html-keyboard-response","112","733898","0.0-9.0-2.0-0.13","1611","1","2","""event"",""trial"",""time""
""fullscreenenter"",""1"",""2781""
","
","
","""event"",""trial"",""time""
""fullscreenenter"",""1"",""2781""
","
","","","","","","null","<div style=""font-size:60px;"">+</div>","null","","fixation","","","","","","","","","","","","","",""
"learning-trial","113","737903","0.0-9.0-2.0-1.13","1611","1","2","""event"",""trial"",""time""
""fullscreenenter"",""1"",""2781""
","
","
","""event"",""trial"",""time""
""fullscreenenter"",""1"",""2781""
","
","","","","","","895.6000000089407","images/feline2.png","","","learning","images/pets_choice1.png","images/pets_choice2.png","images/pets_choice3.png","[0,1,2]","2","2","3","images/pets_choice3.png","1","pets","","feline","1","0"
"html-keyboard-response","114","738405","0.0-9.0-2.0-0.14","1611","1","2","""event"",""trial"",""time""
""fullscreenenter"",""1"",""2781""
","
","
","""event"",""trial"",""time""
""fullscreenenter"",""1"",""2781""
","
","","","","","","null","<div style=""font-size:60px;"">+</div>","null","","fixation","","","","","","","","","","","","","",""
"learning-trial","115","742410","0.0-9.0-2.0-1.14","1611","1","2","""event"",""trial"",""time""
""fullscreenenter"",""1"",""2781""
","
","
","""event"",""trial"",""time""
""fullscreenenter"",""1"",""2781""
","
","","","","","","949.5","images/dog1.png","","","learning","images/pets_choice1.png","images/pets_choice2.png","images/pets_choice3.png","[0,1,2]","1","1","3","images/pets_choice3.png","1","pets","","dog","1","0"
"html-keyboard-response","116","742913","0.0-9.0-2.0-0.15","1611","1","2","""event"",""trial"",""time""
""fullscreenenter"",""1"",""2781""
","
","
","""event"",""trial"",""time""
""fullscreenenter"",""1"",""2781""
","
","","","","","","null","<div style=""font-size:60px;"">+</div>","null","","fixation","","","","","","","","","","","","","",""
"learning-trial","117","746917","0.0-9.0-2.0-1.15","1611","1","2","""event"",""trial"",""time""
""fullscreenenter"",""1"",""2781""
","
","
","""event"",""trial"",""time""
""fullscreenenter"",""1"",""2781""
","
","","","","","","888.9000000059605","images/rabbit3.png","","","learning","images/pets_choice3.png","images/pets_choice1.png","images/pets_choice2.png","[2,0,1]","0","1","3","images/pets_choice2.png","-1","pets","","rabbit","1","0"
"html-keyboard-response","118","747419","0.0-9.0-2.0-0.16","1611","1","2","""event"",""trial"",""time""
""fullscreenenter"",""1"",""2781""
","
","
","""event"",""trial"",""time""
""fullscreenenter"",""1"",""2781""
","
","","","","","","null","<div style=""font-size:60px;"">+</div>","null","","fixation","","","","","","","","","","","","","",""
"learning-trial","119","751424","0.0-9.0-2.0-1.16","1611","1","2","""event"",""trial"",""time""
""fullscreenenter"",""1"",""2781""
","
","
","""event"",""trial"",""time""
""fullscreenenter"",""1"",""2781""
","
","","","","","","943.1999999880791","images/dog2.png","","","learning","images/pets_choice1.png","images/pets_choice3.png","images/pets_choice2.png","[0,2,1]","1","2","3","images/pets_choice2.png","1","pets","","dog","1","0"
"html-keyboard-response","120","751926","0.0-9.0-2.0-0.17","1611","1","2","""event"",""trial"",""time""
""fullscreenenter"",""1"",""2781""
","
","
","""event"",""trial"",""time""
""fullscreenenter"",""1"",""2781""
","
","","","","","","null","<div style=""font-size:60px;"">+</div>","null","","fixation","","","","","","","","","","","","","",""
"learning-trial","121","755929","0.0-9.0-2.0-1.17","1611","1","2","""event"",""trial"",""time""
""fullscreenenter"",""1"",""2781""
","
","
","""event"",""trial"",""time""
""fullscreenenter"",""1"",""2781""
","
","","","","","","821.5","images/feline5.png","","","learning","images/pets_choice1.png","images/pets_choice3.png","images/pets_choice2.png","[0,2,1]","2","1","2","images/pets_choice3.png","1","pets","","feline","1","0"
"html-keyboard-response","122","756431","0.0-9.0-2.0-0.18","1611","1","2","""event"",""trial"",""time""
""fullscreenenter"",""1"",""2781""
","
","
","""event"",""trial"",""time""
""fullscreenenter"",""1"",""2781""
","
","","","","","","null","<div style=""font-size:60px;"">+</div>","null","","fixation","","","","","","","","","","","","","",""
"learning-trial","123","760436","0.0-9.0-2.0-1.18","1611","1","2","""event"",""trial"",""time""
""fullscreenenter"",""1"",""2781""
","
","
","""event"",""trial"",""time""
""fullscreenenter"",""1"",""2781""
","
","","","","","","1075","images/rabbit4.png","","","learning","images/pets_choice1.png","images/pets_choice2.png","images/pets_choice3.png","[0,1,2]","0","0","1","images/pets_choice1.png","-1","pets","","rabbit","1","0"
"html-keyboard-response","124","760939","0.0-9.0-2.0-0.19","1611","1","2","""event"",""trial"",""time""
""fullscreenenter"",""1"",""2781""
","
","
","""event"",""trial"",""time""
""fullscreenenter"",""1"",""2781""
","
","","","","","","null","<div style=""font-size:60px;"">+</div>","null","","fixation","","","","","","","","","","","","","",""
"learning-trial","125","764944","0.0-9.0-2.0-1.19","1611","1","2","""event"",""trial"",""time""
""fullscreenenter"",""1"",""2781""
","
","
","""event"",""trial"",""time""
""fullscreenenter"",""1"",""2781""
","
","","","","","","1327.4000000059605","images/feline1.png","","","learning","images/pets_choice2.png","images/pets_choice1.png","images/pets_choice3.png","[1,0,2]","2","2","3","images/pets_choice3.png","1","pets","","feline","1","0"
"html-keyboard-response","126","765447","0.0-9.0-2.0-0.20","1611","1","2","""event"",""trial"",""time""
""fullscreenenter"",""1"",""2781""
","
","
","""event"",""trial"",""time""
""fullscreenenter"",""1"",""2781""
","
","","","","","","null","<div style=""font-size:60px;"">+</div>","null","","fixation","","","","","","","","","","","","","",""
"learning-trial","127","769452","0.0-9.0-2.0-1.20","1611","1","2","""event"",""trial"",""time""
""fullscreenenter"",""1"",""2781""
","
","
","""event"",""trial"",""time""
""fullscreenenter"",""1"",""2781""
","
","","","","","","1068.199999988079","images/rabbit3.png","","","learning","images/pets_choice1.png","images/pets_choice3.png","images/pets_choice2.png","[0,2,1]","0","0","2","images/pets_choice3.png","-1","pets","","rabbit","1","0"
"html-keyboard-response","128","769962","0.0-9.0-2.0-0.21","1611","1","2","""event"",""trial"",""time""
""fullscreenenter"",""1"",""2781""
","
","
","""event"",""trial"",""time""
""fullscreenenter"",""1"",""2781""
","
","","","","","","null","<div style=""font-size:60px;"">+</div>","null","","fixation","","","","","","","","","","","","","",""
"learning-trial","129","773967","0.0-9.0-2.0-1.21","1611","1","2","""event"",""trial"",""time""
""fullscreenenter"",""1"",""2781""
","
","
","""event"",""trial"",""time""
""fullscreenenter"",""1"",""2781""
","
","","","","","","848.1000000089407","images/rabbit2.png","","","learning","images/pets_choice1.png","images/pets_choice3.png","images/pets_choice2.png","[0,2,1]","0","0","2","images/pets_choice3.png","1","pets","","rabbit","1","0"
"html-keyboard-response","130","774469","0.0-9.0-2.0-0.22","1611","1","2","""event"",""trial"",""time""
""fullscreenenter"",""1"",""2781""
","
","
","""event"",""trial"",""time""
""fullscreenenter"",""1"",""2781""
","
","","","","","","null","<div style=""font-size:60px;"">+</div>","null","","fixation","","","","","","","","","","","","","",""
"learning-trial","131","778475","0.0-9.0-2.0-1.22","1611","1","2","""event"",""trial"",""time""
""fullscreenenter"",""1"",""2781""
","
","
","""event"",""trial"",""time""
""fullscreenenter"",""1"",""2781""
","
","","","","","","1139.6000000089407","images/rabbit4.png","","","learning","images/pets_choice3.png","images/pets_choice2.png","images/pets_choice1.png","[2,1,0]","0","2","3","images/pets_choice1.png","1","pets","","rabbit","1","0"
"html-keyboard-response","132","778977","0.0-9.0-2.0-0.23","1611","1","2","""event"",""trial"",""time""
""fullscreenenter"",""1"",""2781""
","
","
","""event"",""trial"",""time""
""fullscreenenter"",""1"",""2781""
","
","","","","","","null","<div style=""font-size:60px;"">+</div>","null","","fixation","","","","","","","","","","","","","",""
"learning-trial","133","782981","0.0-9.0-2.0-1.23","1611","1","2","""event"",""trial"",""time""
""fullscreenenter"",""1"",""2781""
","
","
","""event"",""trial"",""time""
""fullscreenenter"",""1"",""2781""
","
","","","","","","907.6000000089407","images/rabbit2.png","","","learning","images/pets_choice3.png","images/pets_choice1.png","images/pets_choice2.png","[2,0,1]","0","1","3","images/pets_choice2.png","-1","pets","","rabbit","1","0"
"html-keyboard-response","134","783482","0.0-9.0-2.0-0.24","1611","1","2","""event"",""trial"",""time""
""fullscreenenter"",""1"",""2781""
","
","
","""event"",""trial"",""time""
""fullscreenenter"",""1"",""2781""
","
","","","","","","null","<div style=""font-size:60px;"">+</div>","null","","fixation","","","","","","","","","","","","","",""
"learning-trial","135","787486","0.0-9.0-2.0-1.24","1611","1","2","""event"",""trial"",""time""
""fullscreenenter"",""1"",""2781""
","
","
","""event"",""trial"",""time""
""fullscreenenter"",""1"",""2781""
","
","","","","","","977.7999999970198","images/feline2.png","","","learning","images/pets_choice2.png","images/pets_choice3.png","images/pets_choice1.png","[1,2,0]","2","1","2","images/pets_choice3.png","-1","pets","","feline","1","0"
"html-keyboard-response","136","787988","0.0-9.0-2.0-0.25","1611","1","2","""event"",""trial"",""time""
""fullscreenenter"",""1"",""2781""
","
","
","""event"",""trial"",""time""
""fullscreenenter"",""1"",""2781""
","
","","","","","","null","<div style=""font-size:60px;"">+</div>","null","","fixation","","","","","","","","","","","","","",""
"learning-trial","137","791992","0.0-9.0-2.0-1.25","1611","1","2","""event"",""trial"",""time""
""fullscreenenter"",""1"",""2781""
","
","
","""event"",""trial"",""time""
""fullscreenenter"",""1"",""2781""
","
","","","","","","1256.2000000029802","images/rabbit2.png","","","learning","images/pets_choice1.png","images/pets_choice2.png","images/pets_choice3.png","[0,1,2]","0","0","1","images/pets_choice1.png","1","pets","","rabbit","1","0"
"html-keyboard-response","138","792498","0.0-9.0-2.0-0.26","1611","1","2","""event"",""trial"",""time""
""fullscreenenter"",""1"",""2781""
","
","
","""event"",""trial"",""time""
""fullscreenenter"",""1"",""2781""
","
","","","","","","null","<div style=""font-size:60px;"">+</div>","null","","fixation","","","","","","","","","","","","","",""
"learning-trial","139","796504","0.0-9.0-2.0-1.26","1611","1","2","""event"",""trial"",""time""
""fullscreenenter"",""1"",""2781""
","
","
","""event"",""trial"",""time""
""fullscreenenter"",""1"",""2781""
","
","","","","","","848.4000000059605","images/dog3.png","","","learning","images/pets_choice2.png","images/pets_choice3.png","images/pets_choice1.png","[1,2,0]","1","0","1","images/pets_choice2.png","1","pets","","dog","1","0"
"html-keyboard-response","140","797006","0.0-9.0-2.0-0.27","1611","1","2","""event"",""trial"",""time""
""fullscreenenter"",""1"",""2781""
","
","
","""event"",""trial"",""time""
""fullscreenenter"",""1"",""2781""
","
","","","","","","null","<div style=""font-size:60px;"">+</div>","null","","fixation","","","","","","","","","","","","","",""
"learning-trial","141","801013","0.0-9.0-2.0-1.27","1611","1","2","""event"",""trial"",""time""
""fullscreenenter"",""1"",""2781""
","
","
","""event"",""trial"",""time""
""fullscreenenter"",""1"",""2781""
","
","","","","","","731.8999999910593","images/dog3.png","","","learning","images/pets_choice2.png","images/pets_choice1.png","images/pets_choice3.png","[1,0,2]","1","0","1","images/pets_choice2.png","1","pets","","dog","1","0"
"html-keyboard-response","142","801515","0.0-9.0-2.0-0.28","1611","1","2","""event"",""trial"",""time""
""fullscreenenter"",""1"",""2781""
","
","
","""event"",""trial"",""time""
""fullscreenenter"",""1"",""2781""
","
","","","","","","null","<div style=""font-size:60px;"">+</div>","null","","fixation","","","","","","","","","","","","","",""
"learning-trial","143","805522","0.0-9.0-2.0-1.28","1611","1","2","""event"",""trial"",""time""
""fullscreenenter"",""1"",""2781""
","
","
","""event"",""trial"",""time""
""fullscreenenter"",""1"",""2781""
","
","","","","","","783.0999999940395","images/dog2.png","","","learning","images/pets_choice1.png","images/pets_choice3.png","images/pets_choice2.png","[0,2,1]","1","2","3","images/pets_choice2.png","1","pets","","dog","1","0"
"html-keyboard-response","144","806025","0.0-9.0-2.0-0.29","1611","1","2","""event"",""trial"",""time""
""fullscreenenter"",""1"",""2781""
","
","
","""event"",""trial"",""time""
""fullscreenenter"",""1"",""2781""
","
","","","","","","null","<div style=""font-size:60px;"">+</div>","null","","fixation","","","","","","","","","","","","","",""
"learning-trial","145","810030","0.0-9.0-2.0-1.29","1611","1","2","""event"",""trial"",""time""
""fullscreenenter"",""1"",""2781""
","
","
","""event"",""trial"",""time""
""fullscreenenter"",""1"",""2781""
","
","","","","","","737.7000000029802","images/dog2.png","","","learning","images/pets_choice3.png","images/pets_choice1.png","images/pets_choice2.png","[2,0,1]","1","2","3","images/pets_choice2.png","1","pets","","dog","1","0"
"html-keyboard-response","146","810532","0.0-9.0-2.0-0.30","1611","1","2","""event"",""trial"",""time""
""fullscreenenter"",""1"",""2781""
","
","
","""event"",""trial"",""time""
""fullscreenenter"",""1"",""2781""
","
","","","","","","null","<div style=""font-size:60px;"">+</div>","null","","fixation","","","","","","","","","","","","","",""
"learning-trial","147","814536","0.0-9.0-2.0-1.30","1611","1","2","""event"",""trial"",""time""
""fullscreenenter"",""1"",""2781""
","
","
","""event"",""trial"",""time""
""fullscreenenter"",""1"",""2781""
","
","","","","","","888.0999999940395","images/feline5.png","","","learning","images/pets_choice1.png","images/pets_choice3.png","images/pets_choice2.png","[0,2,1]","2","1","2","images/pets_choice3.png","1","pets","","feline","1","0"
"html-keyboard-response","148","815039","0.0-9.0-2.0-0.31","1611","1","2","""event"",""trial"",""time""
""fullscreenenter"",""1"",""2781""
","
","
","""event"",""trial"",""time""
""fullscreenenter"",""1"",""2781""
","
","","","","","","null","<div style=""font-size:60px;"">+</div>","null","","fixation","","","","","","","","","","","","","",""
"learning-trial","149","819045","0.0-9.0-2.0-1.31","1611","1","2","""event"",""trial"",""time""
""fullscreenenter"",""1"",""2781""
","
","
","""event"",""trial"",""time""
""fullscreenenter"",""1"",""2781""
","
","","","","","","793.9000000059605","images/feline1.png","","","learning","images/pets_choice2.png","images/pets_choice3.png","images/pets_choice1.png","[1,2,0]","2","1","2","images/pets_choice3.png","1","pets","","feline","1","0"
"html-keyboard-response","150","819548","0.0-9.0-2.0-0.32","1611","1","2","""event"",""trial"",""time""
""fullscreenenter"",""1"",""2781""
","
","
","""event"",""trial"",""time""
""fullscreenenter"",""1"",""2781""
","
","","","","","","null","<div style=""font-size:60px;"">+</div>","null","","fixation","","","","","","","","","","","","","",""
"learning-trial","151","823552","0.0-9.0-2.0-1.32","1611","1","2","""event"",""trial"",""time""
""fullscreenenter"",""1"",""2781""
","
","
","""event"",""trial"",""time""
""fullscreenenter"",""1"",""2781""
","
","","","","","","783.7000000029802","images/dog1.png","","","learning","images/pets_choice3.png","images/pets_choice2.png","images/pets_choice1.png","[2,1,0]","1","1","2","images/pets_choice2.png","1","pets","","dog","1","0"
"html-keyboard-response","152","824055","0.0-9.0-2.0-0.33","1611","1","2","""event"",""trial"",""time""
""fullscreenenter"",""1"",""2781""
","
","
","""event"",""trial"",""time""
""fullscreenenter"",""1"",""2781""
","
","","","","","","null","<div style=""font-size:60px;"">+</div>","null","","fixation","","","","","","","","","","","","","",""
"learning-trial","153","828061","0.0-9.0-2.0-1.33","1611","1","2","""event"",""trial"",""time""
""fullscreenenter"",""1"",""2781""
","
","
","""event"",""trial"",""time""
""fullscreenenter"",""1"",""2781""
","
","","","","","","1170.5","images/rabbit3.png","","","learning","images/pets_choice1.png","images/pets_choice3.png","images/pets_choice2.png","[0,2,1]","0","0","3","images/pets_choice2.png","-1","pets","","rabbit","1","0"
"html-keyboard-response","154","828563","0.0-9.0-2.0-0.34","1611","1","2","""event"",""trial"",""time""
""fullscreenenter"",""1"",""2781""
","
","
","""event"",""trial"",""time""
""fullscreenenter"",""1"",""2781""
","
","","","","","","null","<div style=""font-size:60px;"">+</div>","null","","fixation","","","","","","","","","","","","","",""
"learning-trial","155","832568","0.0-9.0-2.0-1.34","1611","1","2","""event"",""trial"",""time""
""fullscreenenter"",""1"",""2781""
","
","
","""event"",""trial"",""time""
""fullscreenenter"",""1"",""2781""
","
","","","","","","702.7000000029802","images/dog1.png","","","learning","images/pets_choice3.png","images/pets_choice2.png","images/pets_choice1.png","[2,1,0]","1","1","2","images/pets_choice2.png","1","pets","","dog","1","0"
"html-keyboard-response","156","833071","0.0-9.0-2.0-0.35","1611","1","2","""event"",""trial"",""time""
""fullscreenenter"",""1"",""2781""
","
","
","""event"",""trial"",""time""
""fullscreenenter"",""1"",""2781""
","
","","","","","","null","<div style=""font-size:60px;"">+</div>","null","","fixation","","","","","","","","","","","","","",""
"learning-trial","157","837073","0.0-9.0-2.0-1.35","1611","1","2","""event"",""trial"",""time""
""fullscreenenter"",""1"",""2781""
","
","
","""event"",""trial"",""time""
""fullscreenenter"",""1"",""2781""
","
","","","","","","718.3000000119209","images/dog1.png","","","learning","images/pets_choice1.png","images/pets_choice3.png","images/pets_choice2.png","[0,2,1]","1","2","3","images/pets_choice2.png","1","pets","","dog","1","0"
"html-keyboard-response","158","837576","0.0-9.0-2.0-0.36","1611","1","2","""event"",""trial"",""time""
""fullscreenenter"",""1"",""2781""
","
","
","""event"",""trial"",""time""
""fullscreenenter"",""1"",""2781""
","
","","","","","","null","<div style=""font-size:60px;"">+</div>","null","","fixation","","","","","","","","","","","","","",""
"learning-trial","159","841582","0.0-9.0-2.0-1.36","1611","1","2","""event"",""trial"",""time""
""fullscreenenter"",""1"",""2781""
","
","
","""event"",""trial"",""time""
""fullscreenenter"",""1"",""2781""
","
","","","","","","712.2000000029802","images/feline2.png","","","learning","images/pets_choice3.png","images/pets_choice2.png","images/pets_choice1.png","[2,1,0]","2","0","1","images/pets_choice3.png","1","pets","","feline","1","0"
"html-keyboard-response","160","842084","0.0-9.0-2.0-0.37","1611","1","2","""event"",""trial"",""time""
""fullscreenenter"",""1"",""2781""
","
","
","""event"",""trial"",""time""
""fullscreenenter"",""1"",""2781""
","
","","","","","","null","<div style=""font-size:60px;"">+</div>","null","","fixation","","","","","","","","","","","","","",""
"learning-trial","161","846089","0.0-9.0-2.0-1.37","1611","1","2","""event"",""trial"",""time""
""fullscreenenter"",""1"",""2781""
","
","
","""event"",""trial"",""time""
""fullscreenenter"",""1"",""2781""
","
","","","","","","717.5","images/dog1.png","","","learning","images/pets_choice2.png","images/pets_choice3.png","images/pets_choice1.png","[1,2,0]","1","0","1","images/pets_choice2.png","1","pets","","dog","1","0"
"html-keyboard-response","162","846592","0.0-9.0-2.0-0.38","1611","1","2","""event"",""trial"",""time""
""fullscreenenter"",""1"",""2781""
","
","
","""event"",""trial"",""time""
""fullscreenenter"",""1"",""2781""
","
","","","","","","null","<div style=""font-size:60px;"">+</div>","null","","fixation","","","","","","","","","","","","","",""
"learning-trial","163","850597","0.0-9.0-2.0-1.38","1611","1","2","""event"",""trial"",""time""
""fullscreenenter"",""1"",""2781""
","
","
","""event"",""trial"",""time""
""fullscreenenter"",""1"",""2781""
","
","","","","","","1106.6000000089407","images/feline2.png","","","learning","images/pets_choice1.png","images/pets_choice2.png","images/pets_choice3.png","[0,1,2]","2","2","3","images/pets_choice3.png","1","pets","","feline","1","0"
"html-keyboard-response","164","851098","0.0-9.0-2.0-0.39","1611","1","2","""event"",""trial"",""time""
""fullscreenenter"",""1"",""2781""
","
","
","""event"",""trial"",""time""
""fullscreenenter"",""1"",""2781""
","
","","","","","","null","<div style=""font-size:60px;"">+</div>","null","","fixation","","","","","","","","","","","","","",""
"learning-trial","165","855103","0.0-9.0-2.0-1.39","1611","1","2","""event"",""trial"",""time""
""fullscreenenter"",""1"",""2781""
","
","
","""event"",""trial"",""time""
""fullscreenenter"",""1"",""2781""
","
","","","","","","807.5999999940395","images/feline5.png","","","learning","images/pets_choice1.png","images/pets_choice2.png","images/pets_choice3.png","[0,1,2]","2","2","3","images/pets_choice3.png","1","pets","","feline","1","0"
"html-keyboard-response","166","855605","0.0-9.0-2.0-0.40","1611","1","2","""event"",""trial"",""time""
""fullscreenenter"",""1"",""2781""
","
","
","""event"",""trial"",""time""
""fullscreenenter"",""1"",""2781""
","
","","","","","","null","<div style=""font-size:60px;"">+</div>","null","","fixation","","","","","","","","","","","","","",""
"learning-trial","167","859608","0.0-9.0-2.0-1.40","1611","1","2","""event"",""trial"",""time""
""fullscreenenter"",""1"",""2781""
","
","
","""event"",""trial"",""time""
""fullscreenenter"",""1"",""2781""
","
","","","","","","758.9000000059605","images/feline5.png","","","learning","images/pets_choice2.png","images/pets_choice3.png","images/pets_choice1.png","[1,2,0]","2","1","2","images/pets_choice3.png","1","pets","","feline","1","0"
"html-keyboard-response","168","860111","0.0-9.0-2.0-0.41","1611","1","2","""event"",""trial"",""time""
""fullscreenenter"",""1"",""2781""
","
","
","""event"",""trial"",""time""
""fullscreenenter"",""1"",""2781""
","
","","","","","","null","<div style=""font-size:60px;"">+</div>","null","","fixation","","","","","","","","","","","","","",""
"learning-trial","169","864117","0.0-9.0-2.0-1.41","1611","1","2","""event"",""trial"",""time""
""fullscreenenter"",""1"",""2781""
","
","
","""event"",""trial"",""time""
""fullscreenenter"",""1"",""2781""
","
","","","","","","835","images/rabbit4.png","","","learning","images/pets_choice2.png","images/pets_choice1.png","images/pets_choice3.png","[1,0,2]","0","1","3","images/pets_choice3.png","-1","pets","","rabbit","1","0"
"html-keyboard-response","170","864618","0.0-9.0-2.0-0.42","1611","1","2","""event"",""trial"",""time""
""fullscreenenter"",""1"",""2781""
","
","
","""event"",""trial"",""time""
""fullscreenenter"",""1"",""2781""
","
","","","","","","null","<div style=""font-size:60px;"">+</div>","null","","fixation","","","","","","","","","","","","","",""
"learning-trial","171","868621","0.0-9.0-2.0-1.42","1611","1","2","""event"",""trial"",""time""
""fullscreenenter"",""1"",""2781""
","
","
","""event"",""trial"",""time""
""fullscreenenter"",""1"",""2781""
","
","","","","","","1601.9000000059605","images/dog1.png","","","learning","images/pets_choice1.png","images/pets_choice3.png","images/pets_choice2.png","[0,2,1]","1","2","3","images/pets_choice2.png","1","pets","","dog","1","0"
"html-keyboard-response","172","869122","0.0-9.0-2.0-0.43","1611","1","2","""event"",""trial"",""time""
""fullscreenenter"",""1"",""2781""
","
","
","""event"",""trial"",""time""
""fullscreenenter"",""1"",""2781""
","
","","","","","","null","<div style=""font-size:60px;"">+</div>","null","","fixation","","","","","","","","","","","","","",""
"learning-trial","173","873128","0.0-9.0-2.0-1.43","1611","1","2","""event"",""trial"",""time""
""fullscreenenter"",""1"",""2781""
","
","
","""event"",""trial"",""time""
""fullscreenenter"",""1"",""2781""
","
","","","","","","718.7000000029802","images/dog1.png","","","learning","images/pets_choice2.png","images/pets_choice3.png","images/pets_choice1.png","[1,2,0]","1","0","1","images/pets_choice2.png","1","pets","","dog","1","0"
"html-keyboard-response","174","873632","0.0-9.0-2.0-0.44","1611","1","2","""event"",""trial"",""time""
""fullscreenenter"",""1"",""2781""
","
","
","""event"",""trial"",""time""
""fullscreenenter"",""1"",""2781""
","
","","","","","","null","<div style=""font-size:60px;"">+</div>","null","","fixation","","","","","","","","","","","","","",""
"learning-trial","175","877637","0.0-9.0-2.0-1.44","1611","1","2","""event"",""trial"",""time""
""fullscreenenter"",""1"",""2781""
","
","
","""event"",""trial"",""time""
""fullscreenenter"",""1"",""2781""
","
","","","","","","1097.5","images/rabbit2.png","","","learning","images/pets_choice3.png","images/pets_choice1.png","images/pets_choice2.png","[2,0,1]","0","1","1","images/pets_choice3.png","-1","pets","","rabbit","1","0"
"html-keyboard-response","176","878151","0.0-9.0-2.0-0.45","1611","1","2","""event"",""trial"",""time""
""fullscreenenter"",""1"",""2781""
","
","
","""event"",""trial"",""time""
""fullscreenenter"",""1"",""2781""
","
","","","","","","null","<div style=""font-size:60px;"">+</div>","null","","fixation","","","","","","","","","","","","","",""
"learning-trial","177","882168","0.0-9.0-2.0-1.45","1611","1","2","""event"",""trial"",""time""
""fullscreenenter"",""1"",""2781""
","
","
","""event"",""trial"",""time""
""fullscreenenter"",""1"",""2781""
","
","","","","","","848.5","images/dog3.png","","","learning","images/pets_choice2.png","images/pets_choice1.png","images/pets_choice3.png","[1,0,2]","1","0","1","images/pets_choice2.png","1","pets","","dog","1","0"
"html-keyboard-response","178","882670","0.0-9.0-2.0-0.46","1611","1","2","""event"",""trial"",""time""
""fullscreenenter"",""1"",""2781""
","
","
","""event"",""trial"",""time""
""fullscreenenter"",""1"",""2781""
","
","","","","","","null","<div style=""font-size:60px;"">+</div>","null","","fixation","","","","","","","","","","","","","",""
"learning-trial","179","886674","0.0-9.0-2.0-1.46","1611","1","2","""event"",""trial"",""time""
""fullscreenenter"",""1"",""2781""
","
","
","""event"",""trial"",""time""
""fullscreenenter"",""1"",""2781""
","
","","","","","","899.7999999970198","images/rabbit3.png","","","learning","images/pets_choice2.png","images/pets_choice3.png","images/pets_choice1.png","[1,2,0]","0","2","3","images/pets_choice1.png","1","pets","","rabbit","1","0"
"html-keyboard-response","180","887176","0.0-9.0-2.0-0.47","1611","1","2","""event"",""trial"",""time""
""fullscreenenter"",""1"",""2781""
","
","
","""event"",""trial"",""time""
""fullscreenenter"",""1"",""2781""
","
","","","","","","null","<div style=""font-size:60px;"">+</div>","null","","fixation","","","","","","","","","","","","","",""
"learning-trial","181","891181","0.0-9.0-2.0-1.47","1611","1","2","""event"",""trial"",""time""
""fullscreenenter"",""1"",""2781""
","
","
","""event"",""trial"",""time""
""fullscreenenter"",""1"",""2781""
","
","","","","","","1027","images/rabbit2.png","","","learning","images/pets_choice1.png","images/pets_choice2.png","images/pets_choice3.png","[0,1,2]","0","0","1","images/pets_choice1.png","1","pets","","rabbit","1","0"
"html-keyboard-response","182","891685","0.0-9.0-2.0-0.48","1611","1","2","""event"",""trial"",""time""
""fullscreenenter"",""1"",""2781""
","
","
","""event"",""trial"",""time""
""fullscreenenter"",""1"",""2781""
","
","","","","","","null","<div style=""font-size:60px;"">+</div>","null","","fixation","","","","","","","","","","","","","",""
"learning-trial","183","895690","0.0-9.0-2.0-1.48","1611","1","2","""event"",""trial"",""time""
""fullscreenenter"",""1"",""2781""
","
","
","""event"",""trial"",""time""
""fullscreenenter"",""1"",""2781""
","
","","","","","","740.6999999880791","images/feline1.png","","","learning","images/pets_choice3.png","images/pets_choice2.png","images/pets_choice1.png","[2,1,0]","2","0","1","images/pets_choice3.png","1","pets","","feline","1","0"
"html-keyboard-response","184","896192","0.0-9.0-2.0-0.49","1611","1","2","""event"",""trial"",""time""
""fullscreenenter"",""1"",""2781""
","
","
","""event"",""trial"",""time""
""fullscreenenter"",""1"",""2781""
","
","","","","","","null","<div style=""font-size:60px;"">+</div>","null","","fixation","","","","","","","","","","","","","",""
"learning-trial","185","900197","0.0-9.0-2.0-1.49","1611","1","2","""event"",""trial"",""time""
""fullscreenenter"",""1"",""2781""
","
","
","""event"",""trial"",""time""
""fullscreenenter"",""1"",""2781""
","
","","","","","","1113.4000000059605","images/rabbit3.png","","","learning","images/pets_choice1.png","images/pets_choice3.png","images/pets_choice2.png","[0,2,1]","0","0","1","images/pets_choice1.png","1","pets","","rabbit","1","0"
"html-keyboard-response","186","900700","0.0-9.0-2.0-0.50","1611","1","2","""event"",""trial"",""time""
""fullscreenenter"",""1"",""2781""
","
","
","""event"",""trial"",""time""
""fullscreenenter"",""1"",""2781""
","
","","","","","","null","<div style=""font-size:60px;"">+</div>","null","","fixation","","","","","","","","","","","","","",""
"learning-trial","187","904706","0.0-9.0-2.0-1.50","1611","1","2","""event"",""trial"",""time""
""fullscreenenter"",""1"",""2781""
","
","
","""event"",""trial"",""time""
""fullscreenenter"",""1"",""2781""
","
","","","","","","766.6000000089407","images/feline2.png","","","learning","images/pets_choice3.png","images/pets_choice1.png","images/pets_choice2.png","[2,0,1]","2","0","1","images/pets_choice3.png","1","pets","","feline","1","0"
"html-keyboard-response","188","905208","0.0-9.0-2.0-0.51","1611","1","2","""event"",""trial"",""time""
""fullscreenenter"",""1"",""2781""
","
","
","""event"",""trial"",""time""
""fullscreenenter"",""1"",""2781""
","
","","","","","","null","<div style=""font-size:60px;"">+</div>","null","","fixation","","","","","","","","","","","","","",""
"learning-trial","189","909211","0.0-9.0-2.0-1.51","1611","1","2","""event"",""trial"",""time""
""fullscreenenter"",""1"",""2781""
","
","
","""event"",""trial"",""time""
""fullscreenenter"",""1"",""2781""
","
","","","","","","811.3000000119209","images/feline1.png","","","learning","images/pets_choice2.png","images/pets_choice1.png","images/pets_choice3.png","[1,0,2]","2","2","3","images/pets_choice3.png","1","pets","","feline","1","0"
"html-keyboard-response","190","909713","0.0-9.0-2.0-0.52","1611","1","2","""event"",""trial"",""time""
""fullscreenenter"",""1"",""2781""
","
","
","""event"",""trial"",""time""
""fullscreenenter"",""1"",""2781""
","
","","","","","","null","<div style=""font-size:60px;"">+</div>","null","","fixation","","","","","","","","","","","","","",""
"learning-trial","191","913719","0.0-9.0-2.0-1.52","1611","1","2","""event"",""trial"",""time""
""fullscreenenter"",""1"",""2781""
","
","
","""event"",""trial"",""time""
""fullscreenenter"",""1"",""2781""
","
","","","","","","695.7999999970198","images/feline5.png","","","learning","images/pets_choice3.png","images/pets_choice1.png","images/pets_choice2.png","[2,0,1]","2","0","1","images/pets_choice3.png","1","pets","","feline","1","0"
"html-keyboard-response","192","914224","0.0-9.0-2.0-0.53","1611","1","2","""event"",""trial"",""time""
""fullscreenenter"",""1"",""2781""
","
","
","""event"",""trial"",""time""
""fullscreenenter"",""1"",""2781""
","
","","","","","","null","<div style=""font-size:60px;"">+</div>","null","","fixation","","","","","","","","","","","","","",""
"learning-trial","193","918230","0.0-9.0-2.0-1.53","1611","1","2","""event"",""trial"",""time""
""fullscreenenter"",""1"",""2781""
","
","
","""event"",""trial"",""time""
""fullscreenenter"",""1"",""2781""
","
","","","","","","985.5","images/rabbit3.png","","","learning","images/pets_choice3.png","images/pets_choice1.png","images/pets_choice2.png","[2,0,1]","0","1","2","images/pets_choice1.png","1","pets","","rabbit","1","0"
"html-keyboard-response","194","918731","0.0-9.0-2.0-0.54","1611","1","2","""event"",""trial"",""time""
""fullscreenenter"",""1"",""2781""
","
","
","""event"",""trial"",""time""
""fullscreenenter"",""1"",""2781""
","
","","","","","","null","<div style=""font-size:60px;"">+</div>","null","","fixation","","","","","","","","","","","","","",""
"learning-trial","195","922734","0.0-9.0-2.0-1.54","1611","1","2","""event"",""trial"",""time""
""fullscreenenter"",""1"",""2781""
","
","
","""event"",""trial"",""time""
""fullscreenenter"",""1"",""2781""
","
","","","","","","1065.4000000059605","images/rabbit2.png","","","learning","images/pets_choice1.png","images/pets_choice3.png","images/pets_choice2.png","[0,2,1]","0","0","1","images/pets_choice1.png","1","pets","","rabbit","1","0"
"html-keyboard-response","196","923236","0.0-9.0-2.0-0.55","1611","1","2","""event"",""trial"",""time""
""fullscreenenter"",""1"",""2781""
","
","
","""event"",""trial"",""time""
""fullscreenenter"",""1"",""2781""
","
","","","","","","null","<div style=""font-size:60px;"">+</div>","null","","fixation","","","","","","","","","","","","","",""
"learning-trial","197","927241","0.0-9.0-2.0-1.55","1611","1","2","""event"",""trial"",""time""
""fullscreenenter"",""1"",""2781""
","
","
","""event"",""trial"",""time""
""fullscreenenter"",""1"",""2781""
","
","","","","","","830.5","images/feline1.png","","","learning","images/pets_choice2.png","images/pets_choice3.png","images/pets_choice1.png","[1,2,0]","2","1","2","images/pets_choice3.png","1","pets","","feline","1","0"
"html-keyboard-response","198","927745","0.0-9.0-2.0-0.56","1611","1","2","""event"",""trial"",""time""
""fullscreenenter"",""1"",""2781""
","
","
","""event"",""trial"",""time""
""fullscreenenter"",""1"",""2781""
","
","","","","","","null","<div style=""font-size:60px;"">+</div>","null","","fixation","","","","","","","","","","","","","",""
"learning-trial","199","931751","0.0-9.0-2.0-1.56","1611","1","2","""event"",""trial"",""time""
""fullscreenenter"",""1"",""2781""
","
","
","""event"",""trial"",""time""
""fullscreenenter"",""1"",""2781""
","
","","","","","","752.7000000029802","images/dog3.png","","","learning","images/pets_choice1.png","images/pets_choice3.png","images/pets_choice2.png","[0,2,1]","1","2","3","images/pets_choice2.png","1","pets","","dog","1","0"
"html-keyboard-response","200","932253","0.0-9.0-2.0-0.57","1611","1","2","""event"",""trial"",""time""
""fullscreenenter"",""1"",""2781""
","
","
","""event"",""trial"",""time""
""fullscreenenter"",""1"",""2781""
","
","","","","","","null","<div style=""font-size:60px;"">+</div>","null","","fixation","","","","","","","","","","","","","",""
"learning-trial","201","936258","0.0-9.0-2.0-1.57","1611","1","2","""event"",""trial"",""time""
""fullscreenenter"",""1"",""2781""
","
","
","""event"",""trial"",""time""
""fullscreenenter"",""1"",""2781""
","
","","","","","","1086.199999988079","images/rabbit4.png","","","learning","images/pets_choice3.png","images/pets_choice1.png","images/pets_choice2.png","[2,0,1]","0","1","3","images/pets_choice2.png","-1","pets","","rabbit","1","0"
"html-keyboard-response","202","936761","0.0-9.0-2.0-0.58","1611","1","2","""event"",""trial"",""time""
""fullscreenenter"",""1"",""2781""
","
","
","""event"",""trial"",""time""
""fullscreenenter"",""1"",""2781""
","
","","","","","","null","<div style=""font-size:60px;"">+</div>","null","","fixation","","","","","","","","","","","","","",""
"learning-trial","203","940767","0.0-9.0-2.0-1.58","1611","1","2","""event"",""trial"",""time""
""fullscreenenter"",""1"",""2781""
","
","
","""event"",""trial"",""time""
""fullscreenenter"",""1"",""2781""
","
","","","","","","1008.7999999970198","images/dog2.png","","","learning","images/pets_choice1.png","images/pets_choice3.png","images/pets_choice2.png","[0,2,1]","1","2","3","images/pets_choice2.png","1","pets","","dog","1","0"
"html-keyboard-response","204","941269","0.0-9.0-2.0-0.59","1611","1","2","""event"",""trial"",""time""
""fullscreenenter"",""1"",""2781""
","
","
","""event"",""trial"",""time""
""fullscreenenter"",""1"",""2781""
","
","","","","","","null","<div style=""font-size:60px;"">+</div>","null","","fixation","","","","","","","","","","","","","",""
"learning-trial","205","945276","0.0-9.0-2.0-1.59","1611","1","2","""event"",""trial"",""time""
""fullscreenenter"",""1"",""2781""
","
","
","""event"",""trial"",""time""
""fullscreenenter"",""1"",""2781""
","
","","","","","","885.8999999910593","images/feline5.png","","","learning","images/pets_choice1.png","images/pets_choice3.png","images/pets_choice2.png","[0,2,1]","2","1","2","images/pets_choice3.png","1","pets","","feline","1","0"
"html-keyboard-response","206","945779","0.0-9.0-2.0-0.60","1611","1","2","""event"",""trial"",""time""
""fullscreenenter"",""1"",""2781""
","
","
","""event"",""trial"",""time""
""fullscreenenter"",""1"",""2781""
","
","","","","","","null","<div style=""font-size:60px;"">+</div>","null","","fixation","","","","","","","","","","","","","",""
"learning-trial","207","949782","0.0-9.0-2.0-1.60","1611","1","2","""event"",""trial"",""time""
""fullscreenenter"",""1"",""2781""
","
","
","""event"",""trial"",""time""
""fullscreenenter"",""1"",""2781""
","
","","","","","","761.1000000089407","images/dog3.png","","","learning","images/pets_choice1.png","images/pets_choice2.png","images/pets_choice3.png","[0,1,2]","1","1","2","images/pets_choice2.png","1","pets","","dog","1","0"
"html-keyboard-response","208","950285","0.0-9.0-2.0-0.61","1611","1","2","""event"",""trial"",""time""
""fullscreenenter"",""1"",""2781""
","
","
","""event"",""trial"",""time""
""fullscreenenter"",""1"",""2781""
","
","","","","","","null","<div style=""font-size:60px;"">+</div>","null","","fixation","","","","","","","","","","","","","",""
"learning-trial","209","954291","0.0-9.0-2.0-1.61","1611","1","2","""event"",""trial"",""time""
""fullscreenenter"",""1"",""2781""
","
","
","""event"",""trial"",""time""
""fullscreenenter"",""1"",""2781""
","
","","","","","","1004.5999999940395","images/rabbit3.png","","","learning","images/pets_choice3.png","images/pets_choice1.png","images/pets_choice2.png","[2,0,1]","0","1","2","images/pets_choice1.png","1","pets","","rabbit","1","0"
"html-keyboard-response","210","954794","0.0-9.0-2.0-0.62","1611","1","2","""event"",""trial"",""time""
""fullscreenenter"",""1"",""2781""
","
","
","""event"",""trial"",""time""
""fullscreenenter"",""1"",""2781""
","
","","","","","","null","<div style=""font-size:60px;"">+</div>","null","","fixation","","","","","","","","","","","","","",""
"learning-trial","211","958799","0.0-9.0-2.0-1.62","1611","1","2","""event"",""trial"",""time""
""fullscreenenter"",""1"",""2781""
","
","
","""event"",""trial"",""time""
""fullscreenenter"",""1"",""2781""
","
","","","","","","1529.2999999970198","images/dog3.png","","","learning","images/pets_choice2.png","images/pets_choice1.png","images/pets_choice3.png","[1,0,2]","1","0","1","images/pets_choice2.png","1","pets","","dog","1","0"
"html-keyboard-response","212","959302","0.0-9.0-2.0-0.63","1611","1","2","""event"",""trial"",""time""
""fullscreenenter"",""1"",""2781""
","
","
","""event"",""trial"",""time""
""fullscreenenter"",""1"",""2781""
","
","","","","","","null","<div style=""font-size:60px;"">+</div>","null","","fixation","","","","","","","","","","","","","",""
"learning-trial","213","963308","0.0-9.0-2.0-1.63","1611","1","2","""event"",""trial"",""time""
""fullscreenenter"",""1"",""2781""
","
","
","""event"",""trial"",""time""
""fullscreenenter"",""1"",""2781""
","
","","","","","","771.4000000059605","images/dog2.png","","","learning","images/pets_choice2.png","images/pets_choice1.png","images/pets_choice3.png","[1,0,2]","1","0","1","images/pets_choice2.png","-1","pets","","dog","1","0"
"html-keyboard-response","214","963810","0.0-9.0-2.0-0.64","1611","1","2","""event"",""trial"",""time""
""fullscreenenter"",""1"",""2781""
","
","
","""event"",""trial"",""time""
""fullscreenenter"",""1"",""2781""
","
","","","","","","null","<div style=""font-size:60px;"">+</div>","null","","fixation","","","","","","","","","","","","","",""
"learning-trial","215","967817","0.0-9.0-2.0-1.64","1611","1","2","""event"",""trial"",""time""
""fullscreenenter"",""1"",""2781""
","
","
","""event"",""trial"",""time""
""fullscreenenter"",""1"",""2781""
","
","","","","","","776","images/feline5.png","","","learning","images/pets_choice3.png","images/pets_choice2.png","images/pets_choice1.png","[2,1,0]","2","0","1","images/pets_choice3.png","1","pets","","feline","1","0"
"html-keyboard-response","216","968319","0.0-9.0-2.0-0.65","1611","1","2","""event"",""trial"",""time""
""fullscreenenter"",""1"",""2781""
","
","
","""event"",""trial"",""time""
""fullscreenenter"",""1"",""2781""
","
","","","","","","null","<div style=""font-size:60px;"">+</div>","null","","fixation","","","","","","","","","","","","","",""
"learning-trial","217","972323","0.0-9.0-2.0-1.65","1611","1","2","""event"",""trial"",""time""
""fullscreenenter"",""1"",""2781""
","
","
","""event"",""trial"",""time""
""fullscreenenter"",""1"",""2781""
","
","","","","","","741.7000000029802","images/feline2.png","","","learning","images/pets_choice3.png","images/pets_choice2.png","images/pets_choice1.png","[2,1,0]","2","0","1","images/pets_choice3.png","1","pets","","feline","1","0"
"html-keyboard-response","218","972826","0.0-9.0-2.0-0.66","1611","1","2","""event"",""trial"",""time""
""fullscreenenter"",""1"",""2781""
","
","
","""event"",""trial"",""time""
""fullscreenenter"",""1"",""2781""
","
","","","","","","null","<div style=""font-size:60px;"">+</div>","null","","fixation","","","","","","","","","","","","","",""
"learning-trial","219","976831","0.0-9.0-2.0-1.66","1611","1","2","""event"",""trial"",""time""
""fullscreenenter"",""1"",""2781""
","
","
","""event"",""trial"",""time""
""fullscreenenter"",""1"",""2781""
","
","","","","","","680","images/dog2.png","","","learning","images/pets_choice2.png","images/pets_choice1.png","images/pets_choice3.png","[1,0,2]","1","0","1","images/pets_choice2.png","1","pets","","dog","1","0"
"html-keyboard-response","220","977334","0.0-9.0-2.0-0.67","1611","1","2","""event"",""trial"",""time""
""fullscreenenter"",""1"",""2781""
","
","
","""event"",""trial"",""time""
""fullscreenenter"",""1"",""2781""
","
","","","","","","null","<div style=""font-size:60px;"">+</div>","null","","fixation","","","","","","","","","","","","","",""
"learning-trial","221","981336","0.0-9.0-2.0-1.67","1611","1","2","""event"",""trial"",""time""
""fullscreenenter"",""1"",""2781""
","
","
","""event"",""trial"",""time""
""fullscreenenter"",""1"",""2781""
","
","","","","","","797.5","images/feline1.png","","","learning","images/pets_choice2.png","images/pets_choice3.png","images/pets_choice1.png","[1,2,0]","2","1","2","images/pets_choice3.png","1","pets","","feline","1","0"
"html-keyboard-response","222","981839","0.0-9.0-2.0-0.68","1611","1","2","""event"",""trial"",""time""
""fullscreenenter"",""1"",""2781""
","
","
","""event"",""trial"",""time""
""fullscreenenter"",""1"",""2781""
","
","","","","","","null","<div style=""font-size:60px;"">+</div>","null","","fixation","","","","","","","","","","","","","",""
"learning-trial","223","985844","0.0-9.0-2.0-1.68","1611","1","2","""event"",""trial"",""time""
""fullscreenenter"",""1"",""2781""
","
","
","""event"",""trial"",""time""
""fullscreenenter"",""1"",""2781""
","
","","","","","","1140.3999999910593","images/rabbit2.png","","","learning","images/pets_choice1.png","images/pets_choice3.png","images/pets_choice2.png","[0,2,1]","0","0","3","images/pets_choice2.png","-1","pets","","rabbit","1","0"
"html-keyboard-response","224","986347","0.0-9.0-2.0-0.69","1611","1","2","""event"",""trial"",""time""
""fullscreenenter"",""1"",""2781""
","
","
","""event"",""trial"",""time""
""fullscreenenter"",""1"",""2781""
","
","","","","","","null","<div style=""font-size:60px;"">+</div>","null","","fixation","","","","","","","","","","","","","",""
"learning-trial","225","990353","0.0-9.0-2.0-1.69","1611","1","2","""event"",""trial"",""time""
""fullscreenenter"",""1"",""2781""
","
","
","""event"",""trial"",""time""
""fullscreenenter"",""1"",""2781""
","
","","","","","","728.5","images/dog3.png","","","learning","images/pets_choice2.png","images/pets_choice3.png","images/pets_choice1.png","[1,2,0]","1","0","1","images/pets_choice2.png","-1","pets","","dog","1","0"
"html-keyboard-response","226","990865","0.0-9.0-2.0-0.70","1611","1","2","""event"",""trial"",""time""
""fullscreenenter"",""1"",""2781""
","
","
","""event"",""trial"",""time""
""fullscreenenter"",""1"",""2781""
","
","","","","","","null","<div style=""font-size:60px;"">+</div>","null","","fixation","","","","","","","","","","","","","",""
"learning-trial","227","994871","0.0-9.0-2.0-1.70","1611","1","2","""event"",""trial"",""time""
""fullscreenenter"",""1"",""2781""
","
","
","""event"",""trial"",""time""
""fullscreenenter"",""1"",""2781""
","
","","","","","","881.2999999970198","images/dog2.png","","","learning","images/pets_choice1.png","images/pets_choice2.png","images/pets_choice3.png","[0,1,2]","1","1","2","images/pets_choice2.png","-1","pets","","dog","1","0"
"html-keyboard-response","228","995375","0.0-9.0-2.0-0.71","1611","1","2","""event"",""trial"",""time""
""fullscreenenter"",""1"",""2781""
","
","
","""event"",""trial"",""time""
""fullscreenenter"",""1"",""2781""
","
","","","","","","null","<div style=""font-size:60px;"">+</div>","null","","fixation","","","","","","","","","","","","","",""
"learning-trial","229","999382","0.0-9.0-2.0-1.71","1611","1","2","""event"",""trial"",""time""
""fullscreenenter"",""1"",""2781""
","
","
","""event"",""trial"",""time""
""fullscreenenter"",""1"",""2781""
","
","","","","","","1081.800000011921","images/feline2.png","","","learning","images/pets_choice1.png","images/pets_choice3.png","images/pets_choice2.png","[0,2,1]","2","1","2","images/pets_choice3.png","1","pets","","feline","1","0"
"html-button-response","230","1001382","0.0-9.0-3.0","1611","1","2","""event"",""trial"",""time""
""fullscreenenter"",""1"",""2781""
","
","
","""event"",""trial"",""time""
""fullscreenenter"",""1"",""2781""
","
","","","","","","1997.4000000059605","<p> You have completed the round! <p> In this round, you earned 34 points! </p>","0","","break","","","","","","","","","","","","","",""
"html-button-response","231","1002308","0.0-10.0","1611","1","2","""event"",""trial"",""time""
""fullscreenenter"",""1"",""2781""
","
","
","""event"",""trial"",""time""
""fullscreenenter"",""1"",""2781""
","
","","","","","","924.7999999970198","<p> Now it's time to play another round. </p>","0","","transition_screen","","","","","","","","","","","","","",""
"preload","232","1027253","0.0-11.0-0.0","1611","1","2","""event"",""trial"",""time""
""fullscreenenter"",""1"",""2781""
","
","
","""event"",""trial"",""time""
""fullscreenenter"",""1"",""2781""
","
","true","false","[]","[]","[]","","","","","","","","","","","","","","","","","","",""
"learning-instructions","233","1037530","0.0-11.0-1.0-0.0","1611","1","2","""event"",""trial"",""time""
""fullscreenenter"",""1"",""2781""
","
","
","""event"",""trial"",""time""
""fullscreenenter"",""1"",""2781""
","
","","","","","","2465.7000000029802","<p> Your goal in this round is to buy different types of fruits. </p><p> You will try to purchase many fruits from different stores. </p></div>","","0","instructions","","","","","","","","","","","","","",""
"learning-instructions","234","1047210","0.0-11.0-1.0-0.1","1611","1","2","""event"",""trial"",""time""
""fullscreenenter"",""1"",""2781""
","
","
","""event"",""trial"",""time""
""fullscreenenter"",""1"",""2781""
","
","","","","","","1167.199999988079","<p> On each turn, you will see a picture of a fruit and three different stores.  </p><p> You need to select the store where you can buy that fruit.  </p>","","0","instructions","","","","","","","","","","","","","",""
"learning-instructions","235","1057208","0.0-11.0-1.0-0.2","1611","1","2","""event"",""trial"",""time""
""fullscreenenter"",""1"",""2781""
","
","
","""event"",""trial"",""time""
""fullscreenenter"",""1"",""2781""
","
","","","","","","2602.3999999910593","<p> You can select the store on the left by pressing 1, the store in the middle by pressing 2, and the store on the right by pressing 3. </p><br><div class=""choice-instructions-grid""> <div class=""choice-option""><img src=""images/fruit_choice1.png"" class=""choice-option-img"" stage=""instructions"" position=""0"" ><div class=""choice-option-text""> Press ""1."" </div></div><div class=""choice-option""><img src=""images/fruit_choice2.png"" class=""choice-option-img"" stage=""instructions"" position=""1"" ><div class=""choice-option-text""> Press ""2."" </div></div><div class=""choice-option""><img src=""images/fruit_choice3.png"" class=""choice-option-img"" stage=""instructions"" position=""2"" ><div class=""choice-option-text""> Press ""3."" </div></div></div>","","0","instructions","","","","","","","","","","","","","",""
"learning-instructions","236","1063304","0.0-11.0-1.0-0.3","1611","1","2","""event"",""trial"",""time""
""fullscreenenter"",""1"",""2781""
","
","
","""event"",""trial"",""time""
""fullscreenenter"",""1"",""2781""
","
","","","","","","1139","<p> If you find the fruit in the store you chose, you will get to buy and eat it! </p><div style='float: center;'><img src='images/check.png' width = '200' height = '200'></img>","","0","instructions","","","","","","","","","","","","","",""
"learning-instructions","237","1068248","0.0-11.0-1.0-0.4","1611","1","2","""event"",""trial"",""time""
""fullscreenenter"",""1"",""2781""
","
","
","""event"",""trial"",""time""
""fullscreenenter"",""1"",""2781""
","
","","","","","","462.5","<p> But, if the fruit is not in that store, you will be hungry. </p><div style='float: center;'><img src='images/x.png' width = '200' height = '200'></img>","","0","instructions","","","","","","","","","","","","","",""
"learning-instructions","238","1078469","0.0-11.0-1.0-0.5","1611","1","2","""event"",""trial"",""time""
""fullscreenenter"",""1"",""2781""
","
","
