"trial_type","trial_index","time_elapsed","internal_node_id","subject_id","condition","task_version","interactions","blur_events","focus_events","fullscreenenter_events","fullscreenexit_events","success","timeout","failed_images","failed_audio","failed_video","rt","stimulus","response","button_pressed","task_part","left_choice","middle_choice","right_choice","choice_positions","correct_response","correct_position","key_press","option_selected","points","task_block","correct","stim_cat","block_condition","block_number"
"pavlovia","0","1","0.0-0.0","1530","1","2","""event"",""trial"",""time""
""fullscreenenter"",""1"",""58554""
","
","
","""event"",""trial"",""time""
""fullscreenenter"",""1"",""58554""
","
","","","","","","","","","","","","","","","","","","","","","","","",""
"fullscreen","1","59557","0.0-1.0","1530","1","2","""event"",""trial"",""time""
""fullscreenenter"",""1"",""58554""
","
","
","""event"",""trial"",""time""
""fullscreenenter"",""1"",""58554""
","
","true","","","","","","","","","","","","","","","","","","","","","","",""
"preload","2","78596","0.0-2.0","1530","1","2","""event"",""trial"",""time""
""fullscreenenter"",""1"",""58554""
","
","
","""event"",""trial"",""time""
""fullscreenenter"",""1"",""58554""
","
","true","false","[]","[]","[]","","","","","","","","","","","","","","","","","","",""
"audio-keyboard-response","3","81857","0.0-3.0","1530","1","2","""event"",""trial"",""time""
""fullscreenenter"",""1"",""58554""
","
","
","""event"",""trial"",""time""
""fullscreenenter"",""1"",""58554""
","
","","","","","","3258.6666666666665","audio/beep_loop.wav"," ","","","","","","","","","","","","","","","",""
"audio-button-response","4","85706","0.0-4.0","1530","1","2","""event"",""trial"",""time""
""fullscreenenter"",""1"",""58554""
","
","
","""event"",""trial"",""time""
""fullscreenenter"",""1"",""58554""
","
","","","","","","3851","audio/shark.wav","4","","","","","","","","","","","","","","","",""
"audio-button-response","5","88898","0.0-5.0","1530","1","2","""event"",""trial"",""time""
""fullscreenenter"",""1"",""58554""
","
","
","""event"",""trial"",""time""
""fullscreenenter"",""1"",""58554""
","
","","","","","","2179","audio/turtle.wav","1","","","","","","","","","","","","","","","",""
"preload","6","111170","0.0-6.0","1530","1","2","""event"",""trial"",""time""
""fullscreenenter"",""1"",""58554""
","
","
","""event"",""trial"",""time""
""fullscreenenter"",""1"",""58554""
","
","true","false","[]","[]","[]","","","","","","","","","","","","","","","","","","",""
"html-keyboard-response","7","114162","0.0-7.0","1530","1","2","""event"",""trial"",""time""
""fullscreenenter"",""1"",""58554""
","
","
","""event"",""trial"",""time""
""fullscreenenter"",""1"",""58554""
","
","","","","","","2991.10000000149","Welcome to the experiment. Press any key to begin and to advance the instructions."," ","","","","","","","","","","","","","","","",""
"learning-instructions","8","123277","0.0-8.0-0.0-0.0","1530","1","2","""event"",""trial"",""time""
""fullscreenenter"",""1"",""58554""
","
","
","""event"",""trial"",""time""
""fullscreenenter"",""1"",""58554""
","
","","","","","","1364.6000000014901","<p> Welcome! Today you are going to play 6 different rounds of a decision-making game. </p><p> Use the mouse to click next to continue. </p>","","0","instructions","","","","","","","","","","","","","",""
"learning-instructions","9","127598","0.0-8.0-0.0-0.1","1530","1","2","""event"",""trial"",""time""
""fullscreenenter"",""1"",""58554""
","
","
","""event"",""trial"",""time""
""fullscreenenter"",""1"",""58554""
","
","","","","","","1326.1000000014901","<p> You will start with a practice round to learn the rules. </p>","","0","instructions","","","","","","","","","","","","","",""
"learning-instructions","10","136246","0.0-8.0-0.0-0.2","1530","1","2","""event"",""trial"",""time""
""fullscreenenter"",""1"",""58554""
","
","
","""event"",""trial"",""time""
""fullscreenenter"",""1"",""58554""
","
","","","","","","903.3999999985099","<p> Your goal in this round is to deliver sports equipment to three different parks. </p><p> You will need to deliver many types of equipment. </p></div>","","0","instructions","","","","","","","","","","","","","",""
"learning-instructions","11","150525","0.0-8.0-0.0-0.3","1530","1","2","""event"",""trial"",""time""
""fullscreenenter"",""1"",""58554""
","
","
","""event"",""trial"",""time""
""fullscreenenter"",""1"",""58554""
","
","","","","","","5803.599999997765","<p> On each turn, you will see one piece of sports equipment and three different parks.  </p><p> You need to select which park to deliver the equipment to.  </p>","","0","instructions","","","","","","","","","","","","","",""
"learning-instructions","12","166214","0.0-8.0-0.0-0.4","1530","1","2","""event"",""trial"",""time""
""fullscreenenter"",""1"",""58554""
","
","
","""event"",""trial"",""time""
""fullscreenenter"",""1"",""58554""
","
","","","","","","2412.699999999255","<p> You can select the park on the left by pressing the '1' key on your keyboard. <br>You can select the park in the middle by pressing the '2' key on your keyboard. <br>You can select the park on the right by pressing the '3' key on your keyboard.  </p><br><div class=""choice-instructions-grid""> <div class=""choice-option""><img src=""images/park1.png"" class=""choice-option-img"" stage=""instructions"" position=""0"" ><div class=""choice-option-text""> Press ""1."" </div></div><div class=""choice-option""><img src=""images/park2.png"" class=""choice-option-img"" stage=""instructions"" position=""1"" ><div class=""choice-option-text""> Press ""2."" </div></div><div class=""choice-option""><img src=""images/park3.png"" class=""choice-option-img"" stage=""instructions"" position=""2"" ><div class=""choice-option-text""> Press ""3."" </div></div></div>","","0","instructions","","","","","","","","","","","","","",""
"learning-instructions","13","173156","0.0-8.0-0.0-0.5","1530","1","2","""event"",""trial"",""time""
""fullscreenenter"",""1"",""58554""
","
","
","""event"",""trial"",""time""
""fullscreenenter"",""1"",""58554""
","
","","","","","","1554.6000000014901","<p> If the kids in the park you chose like the equipment, they will be very happy! </p><div style='float: center;'><img src='images/check.png' width = '200' height = '200'></img>","","0","instructions","","","","","","","","","","","","","",""
"learning-instructions","14","180718","0.0-8.0-0.0-0.6","1530","1","2","""event"",""trial"",""time""
""fullscreenenter"",""1"",""58554""
","
","
","""event"",""trial"",""time""
""fullscreenenter"",""1"",""58554""
","
","","","","","","1956.5","<p> But, if the kids in the park you chose do not like the equipment, they will be sad. </p><div style='float: center;'><img src='images/x.png' width = '200' height = '200'></img>","","0","instructions","","","","","","","","","","","","","",""
"learning-instructions","15","188456","0.0-8.0-0.0-0.7","1530","1","2","""event"",""trial"",""time""
""fullscreenenter"",""1"",""58554""
","
","
","""event"",""trial"",""time""
""fullscreenenter"",""1"",""58554""
","
","","","","","","1294.0999999977648","<p> Importantly, the kids in each park like some pieces of sports equipment more than others. </p>","","0","instructions","","","","","","","","","","","","","",""
"learning-instructions","16","195435","0.0-8.0-0.0-0.8","1530","1","2","""event"",""trial"",""time""
""fullscreenenter"",""1"",""58554""
","
","
","""event"",""trial"",""time""
""fullscreenenter"",""1"",""58554""
","
","","","","","","923.5","<p> If you choose the best park for each piece of equipment, the kids there will usually be happy. </p>","","0","instructions","","","","","","","","","","","","","",""
"learning-instructions","17","203402","0.0-8.0-0.0-0.9","1530","1","2","""event"",""trial"",""time""
""fullscreenenter"",""1"",""58554""
","
","
","""event"",""trial"",""time""
""fullscreenenter"",""1"",""58554""
","
","","","","","","1310","<p> However, even if you choose the best park for the equipment, the kids may sometimes be sad. </p>","","0","instructions","","","","","","","","","","","","","",""
"learning-instructions","18","212041","0.0-8.0-0.0-0.10","1530","1","2","""event"",""trial"",""time""
""fullscreenenter"",""1"",""58554""
","
","
","""event"",""trial"",""time""
""fullscreenenter"",""1"",""58554""
","
","","","","","","1400.2000000029802","<p> Similarly, even if you choose the <i>wrong</i> park for the equipment, the kids may still be happy sometimes.","","0","instructions","","","","","","","","","","","","","",""
"learning-instructions","19","220052","0.0-8.0-0.0-0.11","1530","1","2","""event"",""trial"",""time""
""fullscreenenter"",""1"",""58554""
","
","
","""event"",""trial"",""time""
""fullscreenenter"",""1"",""58554""
","
","","","","","","2960.400000002235","<p> For example, the best park for this soccer ball is this one.<div style='float: center;'><img src='images/i1.png' width = '500' height = '268'></img>","","0","instructions","","","","","","","","","","","","","",""
"learning-instructions","20","227012","0.0-8.0-0.0-0.12","1530","1","2","""event"",""trial"",""time""
""fullscreenenter"",""1"",""58554""
","
","
","""event"",""trial"",""time""
""fullscreenenter"",""1"",""58554""
","
","","","","","","1660.800000000745","<p> Let's see what happens if you choose this park for the soccer ball five times.","","0","instructions","","","","","","","","","","","","","",""
"learning-instructions","21","231070","0.0-8.0-0.0-0.13","1530","1","2","""event"",""trial"",""time""
""fullscreenenter"",""1"",""58554""
","
","
","""event"",""trial"",""time""
""fullscreenenter"",""1"",""58554""
","
","","","","","","1878.199999999255","<p> The kids are happy.<div style='float: left;'><img src='images/i2.png' width = '640' height = '360'></img>","","0","instructions","","","","","","","","","","","","","",""
"learning-instructions","22","233933","0.0-8.0-0.0-0.14","1530","1","2","""event"",""trial"",""time""
""fullscreenenter"",""1"",""58554""
","
","
","""event"",""trial"",""time""
""fullscreenenter"",""1"",""58554""
","
","","","","","","701","<p> The kids are happy.<div style='float: left;'><img src='images/i3.png' width = '640' height = '360'></img>","","0","instructions","","","","","","","","","","","","","",""
"learning-instructions","23","236912","0.0-8.0-0.0-0.15","1530","1","2","""event"",""trial"",""time""
""fullscreenenter"",""1"",""58554""
","
","
","""event"",""trial"",""time""
""fullscreenenter"",""1"",""58554""
","
","","","","","","810.2000000029802","<p> The kids are happy.<div style='float: left;'><img src='images/i4.png' width = '640' height = '360'></img>","","0","instructions","","","","","","","","","","","","","",""
"learning-instructions","24","239913","0.0-8.0-0.0-0.16","1530","1","2","""event"",""trial"",""time""
""fullscreenenter"",""1"",""58554""
","
","
","""event"",""trial"",""time""
""fullscreenenter"",""1"",""58554""
","
","","","","","","801.9000000022352","<p> The kids are sad.<div style='float: left;'><img src='images/i5.png' width = '640' height = '360'></img>","","0","instructions","","","","","","","","","","","","","",""
"learning-instructions","25","243805","0.0-8.0-0.0-0.17","1530","1","2","""event"",""trial"",""time""
""fullscreenenter"",""1"",""58554""
","
","
","""event"",""trial"",""time""
""fullscreenenter"",""1"",""58554""
","
","","","","","","1733.5","<p> The kids are happy.<div style='float: left;'><img src='images/i6.png' width = '640' height = '360'></img>","","0","instructions","","","","","","","","","","","","","",""
"learning-instructions","26","252488","0.0-8.0-0.0-0.18","1530","1","2","""event"",""trial"",""time""
""fullscreenenter"",""1"",""58554""
","
","
","""event"",""trial"",""time""
""fullscreenenter"",""1"",""58554""
","
","","","","","","1417.199999999255","<p> As you can see, selecting that park for the soccer ball made the kids happy most of the time, but not all the time.","","0","instructions","","","","","","","","","","","","","",""
"learning-instructions","27","259141","0.0-8.0-0.0-0.19","1530","1","2","""event"",""trial"",""time""
""fullscreenenter"",""1"",""58554""
","
","
","""event"",""trial"",""time""
""fullscreenenter"",""1"",""58554""
","
","","","","","","649.9000000022352","<p> Now let's see what happens if you choose a DIFFERENT park for the soccer ball 5 times.","","0","instructions","","","","","","","","","","","","","",""
"learning-instructions","28","262007","0.0-8.0-0.0-0.20","1530","1","2","""event"",""trial"",""time""
""fullscreenenter"",""1"",""58554""
","
","
","""event"",""trial"",""time""
""fullscreenenter"",""1"",""58554""
","
","","","","","","646.5","<p> The kids are sad.<div style='float: left;'><img src='images/i7.png' width = '640' height = '360'></img>","","0","instructions","","","","","","","","","","","","","",""
"learning-instructions","29","264733","0.0-8.0-0.0-0.21","1530","1","2","""event"",""trial"",""time""
""fullscreenenter"",""1"",""58554""
","
","
","""event"",""trial"",""time""
""fullscreenenter"",""1"",""58554""
","
","","","","","","512","<p> The kids are sad.<div style='float: left;'><img src='images/i8.png' width = '640' height = '360'></img>","","0","instructions","","","","","","","","","","","","","",""
"learning-instructions","30","267743","0.0-8.0-0.0-0.22","1530","1","2","""event"",""trial"",""time""
""fullscreenenter"",""1"",""58554""
","
","
","""event"",""trial"",""time""
""fullscreenenter"",""1"",""58554""
","
","","","","","","831.1999999992549","<p> The kids are happy.<div style='float: left;'><img src='images/i9.png' width = '640' height = '360'></img>","","0","instructions","","","","","","","","","","","","","",""
"learning-instructions","31","271124","0.0-8.0-0.0-0.23","1530","1","2","""event"",""trial"",""time""
""fullscreenenter"",""1"",""58554""
","
","
","""event"",""trial"",""time""
""fullscreenenter"",""1"",""58554""
","
","","","","","","1173.7000000029802","<p> The kids are sad.<div style='float: left;'><img src='images/i10.png' width = '640' height = '360'></img>","","0","instructions","","","","","","","","","","","","","",""
"learning-instructions","32","274583","0.0-8.0-0.0-0.24","1530","1","2","""event"",""trial"",""time""
""fullscreenenter"",""1"",""58554""
","
","
","""event"",""trial"",""time""
""fullscreenenter"",""1"",""58554""
","
","","","","","","1262.1000000014901","<p> The kids are sad.<div style='float: left;'><img src='images/i11.png' width = '640' height = '360'></img>","","0","instructions","","","","","","","","","","","","","",""
"learning-instructions","33","283936","0.0-8.0-0.0-0.25","1530","1","2","""event"",""trial"",""time""
""fullscreenenter"",""1"",""58554""
","
","
","""event"",""trial"",""time""
""fullscreenenter"",""1"",""58554""
","
","","","","","","1224.699999999255","<p> As you can see, selecting the wrong park for the soccer ball made the kids sad most of the time, but not all the time.","","0","instructions","","","","","","","","","","","","","",""
"learning-instructions","34","294727","0.0-8.0-0.0-0.26","1530","1","2","""event"",""trial"",""time""
""fullscreenenter"",""1"",""58554""
","
","
","""event"",""trial"",""time""
""fullscreenenter"",""1"",""58554""
","
","","","","","","1675.4000000022352","<p> The different pieces of equipment belong in different parks. You need to try to learn which is the best park for each piece of equipment.","","0","instructions","","","","","","","","","","","","","",""
"learning-instructions","35","312870","0.0-8.0-0.0-0.27","1530","1","2","""event"",""trial"",""time""
""fullscreenenter"",""1"",""58554""
","
","
","""event"",""trial"",""time""
""fullscreenenter"",""1"",""58554""
","
","","","","","","1748.8999999985099","<p> Try to choose the best park for each piece of equipment, because you will <b> WIN </b> 1 point for each time you make the kids happy and <b>LOSE</b> 1 point for each time you make them sad. </p><p> Remember, if you make the best choice, you will win 1 point most of the time, but not all the time. </p>","","0","instructions","","","","","","","","","","","","","",""
"learning-instructions","36","320122","0.0-8.0-0.0-0.28","1530","1","2","""event"",""trial"",""time""
""fullscreenenter"",""1"",""58554""
","
","
","""event"",""trial"",""time""
""fullscreenenter"",""1"",""58554""
","
","","","","","","1771.300000000745","<p> This is just a practice round, but in the real game, your bonus payment will depend on your total number of points.","","0","instructions","","","","","","","","","","","","","",""
"learning-instructions","37","342608","0.0-8.0-0.0-0.29","1530","1","2","""event"",""trial"",""time""
""fullscreenenter"",""1"",""58554""
","
","
","""event"",""trial"",""time""
""fullscreenenter"",""1"",""58554""
","
","","","","","","12166.5","<p> The position where each park appears will change throughout the game. </p><p> The position where the park appears <i> does not </i> influence how likely the kids are to be happy or sad. </p>","","0","instructions","","","","","","","","","","","","","",""
"learning-instructions","38","355427","0.0-8.0-0.0-0.30","1530","1","2","""event"",""trial"",""time""
""fullscreenenter"",""1"",""58554""
","
","
","""event"",""trial"",""time""
""fullscreenenter"",""1"",""58554""
","
","","","","","","1186.5","<p> You will have 4 seconds to make each choice. Try to respond before time runs out! </p><p> You will lose 1 point each time you do not make a response. </p>","","0","instructions","","","","","","","","","","","","","",""
"learning-instructions","39","364238","0.0-8.0-0.0-0.31","1530","1","2","""event"",""trial"",""time""
""fullscreenenter"",""1"",""58554""
","
","
","""event"",""trial"",""time""
""fullscreenenter"",""1"",""58554""
","
","","","","","","2007.1000000014901","<p> Remember, you should use the 1, 2, and 3 keys to select the park for each piece of equipment. </p><br><div class=""choice-instructions-grid""> <div class=""choice-option""><img src=""images/park1.png"" class=""choice-option-img"" stage=""instructions"" position=""0"" ><div class=""choice-option-text""> Press ""1."" </div></div><div class=""choice-option""><img src=""images/park2.png"" class=""choice-option-img"" stage=""instructions"" position=""1"" ><div class=""choice-option-text""> Press ""2."" </div></div><div class=""choice-option""><img src=""images/park3.png"" class=""choice-option-img"" stage=""instructions"" position=""2"" ><div class=""choice-option-text""> Press ""3."" </div></div></div>","","0","instructions","","","","","","","","","","","","","",""
"html-button-response","40","365831","0.0-8.0-1.0","1530","1","2","""event"",""trial"",""time""
""fullscreenenter"",""1"",""58554""
","
","
","""event"",""trial"",""time""
""fullscreenenter"",""1"",""58554""
","
","","","","","","1480.5999999977648","<p> Ready to practice? </p>","0","","","","","","","","","","","","","","","",""
"html-keyboard-response","41","366460","0.0-8.0-2.0-0.0","1530","1","2","""event"",""trial"",""time""
""fullscreenenter"",""1"",""58554""
","
","
","""event"",""trial"",""time""
""fullscreenenter"",""1"",""58554""
","
","","","","","","null","<div style=""font-size:60px;"">+</div>","null","","fixation","","","","","","","","","","","","","",""
"learning-trial","42","370470","0.0-8.0-2.0-1.0","1530","1","2","""event"",""trial"",""time""
""fullscreenenter"",""1"",""58554""
","
","
","""event"",""trial"",""time""
""fullscreenenter"",""1"",""58554""
","
","","","","","","2546.5","images/ball4.png","","","practice","images/park2.png","images/park1.png","images/park3.png","[1,0,2]","2","2","2","images/park1.png","-1","practice","","","",""
"html-keyboard-response","43","370990","0.0-8.0-2.0-0.1","1530","1","2","""event"",""trial"",""time""
""fullscreenenter"",""1"",""58554""
","
","
","""event"",""trial"",""time""
""fullscreenenter"",""1"",""58554""
","
","","","","","","null","<div style=""font-size:60px;"">+</div>","null","","fixation","","","","","","","","","","","","","",""
"learning-trial","44","375000","0.0-8.0-2.0-1.1","1530","1","2","""event"",""trial"",""time""
""fullscreenenter"",""1"",""58554""
","
","
","""event"",""trial"",""time""
""fullscreenenter"",""1"",""58554""
","
","","","","","","2658.599999997765","images/racket4.png","","","practice","images/park2.png","images/park1.png","images/park3.png","[1,0,2]","0","1","3","images/park3.png","-1","practice","","","",""
"html-keyboard-response","45","375520","0.0-8.0-2.0-0.2","1530","1","2","""event"",""trial"",""time""
""fullscreenenter"",""1"",""58554""
","
","
","""event"",""trial"",""time""
""fullscreenenter"",""1"",""58554""
","
","","","","","","null","<div style=""font-size:60px;"">+</div>","null","","fixation","","","","","","","","","","","","","",""
"learning-trial","46","379540","0.0-8.0-2.0-1.2","1530","1","2","""event"",""trial"",""time""
""fullscreenenter"",""1"",""58554""
","
","
","""event"",""trial"",""time""
""fullscreenenter"",""1"",""58554""
","
","","","","","","2173.39999999851","images/racket3.png","","","practice","images/park1.png","images/park3.png","images/park2.png","[0,2,1]","0","0","2","images/park3.png","-1","practice","","","",""
"html-keyboard-response","47","380060","0.0-8.0-2.0-0.3","1530","1","2","""event"",""trial"",""time""
""fullscreenenter"",""1"",""58554""
","
","
","""event"",""trial"",""time""
""fullscreenenter"",""1"",""58554""
","
","","","","","","null","<div style=""font-size:60px;"">+</div>","null","","fixation","","","","","","","","","","","","","",""
"learning-trial","48","384070","0.0-8.0-2.0-1.3","1530","1","2","""event"",""trial"",""time""
""fullscreenenter"",""1"",""58554""
","
","
","""event"",""trial"",""time""
""fullscreenenter"",""1"",""58554""
","
","","","","","","2553.300000000745","images/ball1.png","","","practice","images/park3.png","images/park2.png","images/park1.png","[2,1,0]","1","1","1","images/park3.png","-1","practice","","","",""
"html-keyboard-response","49","384590","0.0-8.0-2.0-0.4","1530","1","2","""event"",""trial"",""time""
""fullscreenenter"",""1"",""58554""
","
","
","""event"",""trial"",""time""
""fullscreenenter"",""1"",""58554""
","
","","","","","","null","<div style=""font-size:60px;"">+</div>","null","","fixation","","","","","","","","","","","","","",""
"learning-trial","50","388600","0.0-8.0-2.0-1.4","1530","1","2","""event"",""trial"",""time""
""fullscreenenter"",""1"",""58554""
","
","
","""event"",""trial"",""time""
""fullscreenenter"",""1"",""58554""
","
","","","","","","2044.5","images/racket4.png","","","practice","images/park3.png","images/park2.png","images/park1.png","[2,1,0]","0","2","3","images/park1.png","1","practice","","","",""
"html-keyboard-response","51","389120","0.0-8.0-2.0-0.5","1530","1","2","""event"",""trial"",""time""
""fullscreenenter"",""1"",""58554""
","
","
","""event"",""trial"",""time""
""fullscreenenter"",""1"",""58554""
","
","","","","","","null","<div style=""font-size:60px;"">+</div>","null","","fixation","","","","","","","","","","","","","",""
"learning-trial","52","393127","0.0-8.0-2.0-1.5","1530","1","2","""event"",""trial"",""time""
""fullscreenenter"",""1"",""58554""
","
","
","""event"",""trial"",""time""
""fullscreenenter"",""1"",""58554""
","
","","","","","","3191.300000000745","images/racket3.png","","","practice","images/park2.png","images/park3.png","images/park1.png","[1,2,0]","0","2","2","images/park3.png","-1","practice","","","",""
"html-keyboard-response","53","393631","0.0-8.0-2.0-0.6","1530","1","2","""event"",""trial"",""time""
""fullscreenenter"",""1"",""58554""
","
","
","""event"",""trial"",""time""
""fullscreenenter"",""1"",""58554""
","
","","","","","","null","<div style=""font-size:60px;"">+</div>","null","","fixation","","","","","","","","","","","","","",""
"learning-trial","54","397635","0.0-8.0-2.0-1.6","1530","1","2","""event"",""trial"",""time""
""fullscreenenter"",""1"",""58554""
","
","
","""event"",""trial"",""time""
""fullscreenenter"",""1"",""58554""
","
","","","","","","2214","images/racket2.png","","","practice","images/park3.png","images/park2.png","images/park1.png","[2,1,0]","2","0","1","images/park3.png","1","practice","","","",""
"html-keyboard-response","55","398141","0.0-8.0-2.0-0.7","1530","1","2","""event"",""trial"",""time""
""fullscreenenter"",""1"",""58554""
","
","
","""event"",""trial"",""time""
""fullscreenenter"",""1"",""58554""
","
","","","","","","null","<div style=""font-size:60px;"">+</div>","null","","fixation","","","","","","","","","","","","","",""
"learning-trial","56","402157","0.0-8.0-2.0-1.7","1530","1","2","""event"",""trial"",""time""
""fullscreenenter"",""1"",""58554""
","
","
","""event"",""trial"",""time""
""fullscreenenter"",""1"",""58554""
","
","","","","","","2086.5","images/ball4.png","","","practice","images/park3.png","images/park2.png","images/park1.png","[2,1,0]","2","0","3","images/park1.png","-1","practice","","","",""
"html-keyboard-response","57","402658","0.0-8.0-2.0-0.8","1530","1","2","""event"",""trial"",""time""
""fullscreenenter"",""1"",""58554""
","
","
","""event"",""trial"",""time""
""fullscreenenter"",""1"",""58554""
","
","","","","","","null","<div style=""font-size:60px;"">+</div>","null","","fixation","","","","","","","","","","","","","",""
"learning-trial","58","406672","0.0-8.0-2.0-1.8","1530","1","2","""event"",""trial"",""time""
""fullscreenenter"",""1"",""58554""
","
","
","""event"",""trial"",""time""
""fullscreenenter"",""1"",""58554""
","
","","","","","","1537.1000000014901","images/ball2.png","","","practice","images/park1.png","images/park2.png","images/park3.png","[0,1,2]","1","1","1","images/park1.png","-1","practice","","","",""
"html-keyboard-response","59","407173","0.0-8.0-2.0-0.9","1530","1","2","""event"",""trial"",""time""
""fullscreenenter"",""1"",""58554""
","
","
","""event"",""trial"",""time""
""fullscreenenter"",""1"",""58554""
","
","","","","","","null","<div style=""font-size:60px;"">+</div>","null","","fixation","","","","","","","","","","","","","",""
"learning-trial","60","411175","0.0-8.0-2.0-1.9","1530","1","2","""event"",""trial"",""time""
""fullscreenenter"",""1"",""58554""
","
","
","""event"",""trial"",""time""
""fullscreenenter"",""1"",""58554""
","
","","","","","","2573.89999999851","images/ball1.png","","","practice","images/park2.png","images/park1.png","images/park3.png","[1,0,2]","1","0","1","images/park2.png","1","practice","","","",""
"html-keyboard-response","61","411680","0.0-8.0-2.0-0.10","1530","1","2","""event"",""trial"",""time""
""fullscreenenter"",""1"",""58554""
","
","
","""event"",""trial"",""time""
""fullscreenenter"",""1"",""58554""
","
","","","","","","null","<div style=""font-size:60px;"">+</div>","null","","fixation","","","","","","","","","","","","","",""
"learning-trial","62","415682","0.0-8.0-2.0-1.10","1530","1","2","""event"",""trial"",""time""
""fullscreenenter"",""1"",""58554""
","
","
","""event"",""trial"",""time""
""fullscreenenter"",""1"",""58554""
","
","","","","","","2064.900000002235","images/racket2.png","","","practice","images/park2.png","images/park3.png","images/park1.png","[1,2,0]","2","1","2","images/park3.png","1","practice","","","",""
"html-keyboard-response","63","416191","0.0-8.0-2.0-0.11","1530","1","2","""event"",""trial"",""time""
""fullscreenenter"",""1"",""58554""
","
","
","""event"",""trial"",""time""
""fullscreenenter"",""1"",""58554""
","
","","","","","","null","<div style=""font-size:60px;"">+</div>","null","","fixation","","","","","","","","","","","","","",""
"learning-trial","64","420197","0.0-8.0-2.0-1.11","1530","1","2","""event"",""trial"",""time""
""fullscreenenter"",""1"",""58554""
","
","
","""event"",""trial"",""time""
""fullscreenenter"",""1"",""58554""
","
","","","","","","3065.39999999851","images/ball2.png","","","practice","images/park2.png","images/park3.png","images/park1.png","[1,2,0]","1","0","2","images/park3.png","-1","practice","","","",""
"html-button-response","65","426782","0.0-8.0-3.0","1530","1","2","""event"",""trial"",""time""
""fullscreenenter"",""1"",""58554""
","
","
","""event"",""trial"",""time""
""fullscreenenter"",""1"",""58554""
","
","","","","","","6583.300000000745","<p> You earned -4 points in the practice round! </p>","0","","break","","","","","","","","","","","","","",""
"learning-instructions","66","440156","0.0-8.0-4.0-0.0","1530","1","2","""event"",""trial"",""time""
""fullscreenenter"",""1"",""58554""
","
","
","""event"",""trial"",""time""
""fullscreenenter"",""1"",""58554""
","
","","","","","","5489.300000000745","<p> It's almost time to start the real game. </p><p> Before you start, we're going to ask you a few questions about how the game works. </p>","","0","instructions","","","","","","","","","","","","","",""
"preload","67","444550","0.0-8.0-5.0","1530","1","2","""event"",""trial"",""time""
""fullscreenenter"",""1"",""58554""
","
","
","""event"",""trial"",""time""
""fullscreenenter"",""1"",""58554""
","
","true","false","[]","[]","[]","","","","","","","","","","","","","","","","","","",""
"comp-q","68","452032","0.0-8.0-6.0-0.0","1530","1","2","""event"",""trial"",""time""
""fullscreenenter"",""1"",""58554""
","
","
","""event"",""trial"",""time""
""fullscreenenter"",""1"",""58554""
","
","","","","","","2035.199999999255","<p> <b> True or False? </b> </p><p> If you choose the best option, you will always earn 1 point. </p>","","1","comp_question","","","","","","","","","","","true","","",""
"comp-q","69","459501","0.0-8.0-6.0-1.0","1530","1","2","""event"",""trial"",""time""
""fullscreenenter"",""1"",""58554""
","
","
","""event"",""trial"",""time""
""fullscreenenter"",""1"",""58554""
","
","","","","","","1814.199999999255","<p><b> That's right! </b> Sometimes you will lose 1 point, even if you choose the best option. </p>","","0","comp_answer","","","","","","","","","","","","","",""
"comp-q","70","464848","0.0-8.0-6.0-0.1","1530","1","2","""event"",""trial"",""time""
""fullscreenenter"",""1"",""58554""
","
","
","""event"",""trial"",""time""
""fullscreenenter"",""1"",""58554""
","
","","","","","","720.6000000014901","<p> <b> True or False? </b> </p><p> You will have as much time as you want to make each choice. </p>","","1","comp_question","","","","","","","","","","","true","","",""
"comp-q","71","470589","0.0-8.0-6.0-1.1","1530","1","2","""event"",""trial"",""time""
""fullscreenenter"",""1"",""58554""
","
","
","""event"",""trial"",""time""
""fullscreenenter"",""1"",""58554""
","
","","","","","","932.1000000014901","<p> <b> That's right! </b> You will only have 4 seconds to make each choice. </p>","","0","comp_answer","","","","","","","","","","","","","",""
"comp-q","72","477411","0.0-8.0-6.0-0.2","1530","1","2","""event"",""trial"",""time""
""fullscreenenter"",""1"",""58554""
","
","
","""event"",""trial"",""time""
""fullscreenenter"",""1"",""58554""
","
","","","","","","674.3000000007451","<p> <b> True or False? </b> </p><p> You should use the '1', '2', and '3' keys to make your choices. </p>","","0","comp_question","","","","","","","","","","","true","","",""
"comp-q","73","483223","0.0-8.0-6.0-1.2","1530","1","2","""event"",""trial"",""time""
""fullscreenenter"",""1"",""58554""
","
","
","""event"",""trial"",""time""
""fullscreenenter"",""1"",""58554""
","
","","","","","","975.8999999985099","<p> <b> That's right! </b> You should use the '1', '2', and '3' keys to make each choice. </p>","","0","comp_answer","","","","","","","","","","","","","",""
"learning-instructions","74","494231","0.0-8.0-7.0-0.0","1530","1","2","""event"",""trial"",""time""
""fullscreenenter"",""1"",""58554""
","
","
","""event"",""trial"",""time""
""fullscreenenter"",""1"",""58554""
","
","","","","","","2513.800000000745","<p> It's now time to start the real game. </p>Do your best, because the points you earn in the next rounds will influence your bonus payment. </p>","","0","instructions","","","","","","","","","","","","","",""
"preload","75","500703","0.0-9.0-0.0","1530","1","2","""event"",""trial"",""time""
""fullscreenenter"",""1"",""58554""
","
","
","""event"",""trial"",""time""
""fullscreenenter"",""1"",""58554""
","
","true","false","[]","[]","[]","","","","","","","","","","","","","","","","","","",""
"learning-instructions","76","511061","0.0-9.0-1.0-0.0","1530","1","2","""event"",""trial"",""time""
""fullscreenenter"",""1"",""58554""
","
","
","""event"",""trial"",""time""
""fullscreenenter"",""1"",""58554""
","
","","","","","","2036.5","<p> Your goal in this round is to travel the world by putting fuel into different vehicles. </p><p> To travel, you will need to put fuel into many different vehicles. </p></div>","","0","instructions","","","","","","","","","","","","","",""
"learning-instructions","77","522844","0.0-9.0-1.0-0.1","1530","1","2","""event"",""trial"",""time""
""fullscreenenter"",""1"",""58554""
","
","
","""event"",""trial"",""time""
""fullscreenenter"",""1"",""58554""
","
","","","","","","2999.800000000745","<p> On each turn, you will see a picture of one of your vehicles and three different types of fuel.  </p><p> You need to select which kind of fuel to use.  </p>","","0","instructions","","","","","","","","","","","","","",""
"learning-instructions","78","531157","0.0-9.0-1.0-0.2","1530","1","2","""event"",""trial"",""time""
""fullscreenenter"",""1"",""58554""
","
","
","""event"",""trial"",""time""
""fullscreenenter"",""1"",""58554""
","
","","","","","","1432.7000000029802","<p> You can select the fuel on the left by pressing 1, the fuel in the middle by pressing 2, and the fuel on the right by pressing 3. </p><br><div class=""choice-instructions-grid""> <div class=""choice-option""><img src=""images/vehicles_choice1.png"" class=""choice-option-img"" stage=""instructions"" position=""0"" ><div class=""choice-option-text""> Press ""1."" </div></div><div class=""choice-option""><img src=""images/vehicles_choice2.png"" class=""choice-option-img"" stage=""instructions"" position=""1"" ><div class=""choice-option-text""> Press ""2."" </div></div><div class=""choice-option""><img src=""images/vehicles_choice3.png"" class=""choice-option-img"" stage=""instructions"" position=""2"" ><div class=""choice-option-text""> Press ""3."" </div></div></div>","","0","instructions","","","","","","","","","","","","","",""
"learning-instructions","79","537728","0.0-9.0-1.0-0.3","1530","1","2","""event"",""trial"",""time""
""fullscreenenter"",""1"",""58554""
","
","
","""event"",""trial"",""time""
""fullscreenenter"",""1"",""58554""
","
","","","","","","1323","<p> If the fuel you chose works for that vehicle, it will start, and </p><p> you will get to travel. </p><div style='float: center;'><img src='images/check.png' width = '200' height = '200'></img>","","0","instructions","","","","","","","","","","","","","",""
"learning-instructions","80","543095","0.0-9.0-1.0-0.4","1530","1","2","""event"",""trial"",""time""
""fullscreenenter"",""1"",""58554""
","
","
","""event"",""trial"",""time""
""fullscreenenter"",""1"",""58554""
","
","","","","","","830.6999999992549","<p> But, if the fuel you chose does not work, your vehicle will not move. </p><div style='float: center;'><img src='images/x.png' width = '200' height = '200'></img>","","0","instructions","","","","","","","","","","","","","",""
"learning-instructions","81","554757","0.0-9.0-1.0-0.5","1530","1","2","""event"",""trial"",""time""
""fullscreenenter"",""1"",""58554""
","
","
","""event"",""trial"",""time""
""fullscreenenter"",""1"",""58554""
","
","","","","","","972.5","<p> Importantly, each vehicle has a fuel that works best for it. </p><p> If you choose the fuel that works best for the vehicle, it will be more likely to start. </p>","","0","instructions","","","","","","","","","","","","","",""
"learning-instructions","82","567221","0.0-9.0-1.0-0.6","1530","1","2","""event"",""trial"",""time""
""fullscreenenter"",""1"",""58554""
","
","
","""event"",""trial"",""time""
""fullscreenenter"",""1"",""58554""
","
","","","","","","2253.89999999851","<p> However, even if you choose the best fuel for the vehicle, it may still not move. </p><p> Similarly, even if you choose the <i>wrong</i> fuel, the vehicle may still start and let you travel.","","0","instructions","","","","","","","","","","","","","",""
"learning-instructions","83","580972","0.0-9.0-1.0-0.7","1530","1","2","""event"",""trial"",""time""
""fullscreenenter"",""1"",""58554""
","
","
","""event"",""trial"",""time""
""fullscreenenter"",""1"",""58554""
","
","","","","","","1395","<p> Try to choose the best fuel for each vehicle, because you will <b> WIN </b> 1 point each time you get to travel and <b>LOSE</b> 1 point each time a vehicle does not start. </p><p> Your bonus payment will depend on your total number of points.","","0","instructions","","","","","","","","","","","","","",""
"learning-instructions","84","590343","0.0-9.0-1.0-0.8","1530","1","2","""event"",""trial"",""time""
""fullscreenenter"",""1"",""58554""
","
","
","""event"",""trial"",""time""
""fullscreenenter"",""1"",""58554""
","
","","","","","","1116.6000000014901","<p> The position of each type of fuel will change throughout the round. </p><p> The fuel's position <i> does not </i> influence how likely it is to make each vehicle start. </p>","","0","instructions","","","","","","","","","","","","","",""
"learning-instructions","85","600217","0.0-9.0-1.0-0.9","1530","1","2","""event"",""trial"",""time""
""fullscreenenter"",""1"",""58554""
","
","
","""event"",""trial"",""time""
""fullscreenenter"",""1"",""58554""
","
","","","","","","580.4000000022352","<p> You will have 4 seconds to make each choice. Try to respond before time runs out! </p><p> You will lose 1 point each time you do not make a response. </p>","","0","instructions","","","","","","","","","","","","","",""
"html-keyboard-response","86","600845","0.0-9.0-2.0-0.0","1530","1","2","""event"",""trial"",""time""
""fullscreenenter"",""1"",""58554""
","
","
","""event"",""trial"",""time""
""fullscreenenter"",""1"",""58554""
","
","","","","","","null","<div style=""font-size:60px;"">+</div>","null","","fixation","","","","","","","","","","","","","",""
"learning-trial","87","604855","0.0-9.0-2.0-1.0","1530","1","2","""event"",""trial"",""time""
""fullscreenenter"",""1"",""58554""
","
","
","""event"",""trial"",""time""
""fullscreenenter"",""1"",""58554""
","
","","","","","","1985.5","images/truck2.png","","","learning","images/vehicles_choice3.png","images/vehicles_choice2.png","images/vehicles_choice1.png","[2,1,0]","2","0","1","images/vehicles_choice3.png","1","vehicles","","truck","1","0"
"html-keyboard-response","88","605375","0.0-9.0-2.0-0.1","1530","1","2","""event"",""trial"",""time""
""fullscreenenter"",""1"",""58554""
","
","
","""event"",""trial"",""time""
""fullscreenenter"",""1"",""58554""
","
","","","","","","null","<div style=""font-size:60px;"">+</div>","null","","fixation","","","","","","","","","","","","","",""
"learning-trial","89","609386","0.0-9.0-2.0-1.1","1530","1","2","""event"",""trial"",""time""
""fullscreenenter"",""1"",""58554""
","
","
","""event"",""trial"",""time""
""fullscreenenter"",""1"",""58554""
","
","","","","","","1170.6000000014901","images/boat4.png","","","learning","images/vehicles_choice3.png","images/vehicles_choice1.png","images/vehicles_choice2.png","[2,0,1]","1","2","2","images/vehicles_choice1.png","-1","vehicles","","boat","1","0"
"html-keyboard-response","90","609889","0.0-9.0-2.0-0.2","1530","1","2","""event"",""trial"",""time""
""fullscreenenter"",""1"",""58554""
","
","
","""event"",""trial"",""time""
""fullscreenenter"",""1"",""58554""
","
","","","","","","null","<div style=""font-size:60px;"">+</div>","null","","fixation","","","","","","","","","","","","","",""
"learning-trial","91","613896","0.0-9.0-2.0-1.2","1530","1","2","""event"",""trial"",""time""
""fullscreenenter"",""1"",""58554""
","
","
","""event"",""trial"",""time""
""fullscreenenter"",""1"",""58554""
","
","","","","","","1586.1000000014901","images/truck2.png","","","learning","images/vehicles_choice1.png","images/vehicles_choice2.png","images/vehicles_choice3.png","[0,1,2]","2","2","3","images/vehicles_choice3.png","-1","vehicles","","truck","1","0"
"html-keyboard-response","92","614415","0.0-9.0-2.0-0.3","1530","1","2","""event"",""trial"",""time""
""fullscreenenter"",""1"",""58554""
","
","
","""event"",""trial"",""time""
""fullscreenenter"",""1"",""58554""
","
","","","","","","null","<div style=""font-size:60px;"">+</div>","null","","fixation","","","","","","","","","","","","","",""
"learning-trial","93","618422","0.0-9.0-2.0-1.3","1530","1","2","""event"",""trial"",""time""
""fullscreenenter"",""1"",""58554""
","
","
","""event"",""trial"",""time""
""fullscreenenter"",""1"",""58554""
","
","","","","","","1203.300000000745","images/plane5.png","","","learning","images/vehicles_choice3.png","images/vehicles_choice2.png","images/vehicles_choice1.png","[2,1,0]","0","2","2","images/vehicles_choice2.png","-1","vehicles","","plane","1","0"
"html-keyboard-response","94","618942","0.0-9.0-2.0-0.4","1530","1","2","""event"",""trial"",""time""
""fullscreenenter"",""1"",""58554""
","
","
","""event"",""trial"",""time""
""fullscreenenter"",""1"",""58554""
","
","","","","","","null","<div style=""font-size:60px;"">+</div>","null","","fixation","","","","","","","","","","","","","",""
"learning-trial","95","622951","0.0-9.0-2.0-1.4","1530","1","2","""event"",""trial"",""time""
""fullscreenenter"",""1"",""58554""
","
","
","""event"",""trial"",""time""
""fullscreenenter"",""1"",""58554""
","
","","","","","","1320.699999999255","images/truck2.png","","","learning","images/vehicles_choice3.png","images/vehicles_choice2.png","images/vehicles_choice1.png","[2,1,0]","2","0","3","images/vehicles_choice1.png","-1","vehicles","","truck","1","0"
"html-keyboard-response","96","623472","0.0-9.0-2.0-0.5","1530","1","2","""event"",""trial"",""time""
""fullscreenenter"",""1"",""58554""
","
","
","""event"",""trial"",""time""
""fullscreenenter"",""1"",""58554""
","
","","","","","","null","<div style=""font-size:60px;"">+</div>","null","","fixation","","","","","","","","","","","","","",""
"learning-trial","97","627482","0.0-9.0-2.0-1.5","1530","1","2","""event"",""trial"",""time""
""fullscreenenter"",""1"",""58554""
","
","
","""event"",""trial"",""time""
""fullscreenenter"",""1"",""58554""
","
","","","","","","2001.699999999255","images/boat5.png","","","learning","images/vehicles_choice2.png","images/vehicles_choice1.png","images/vehicles_choice3.png","[1,0,2]","1","0","3","images/vehicles_choice3.png","-1","vehicles","","boat","1","0"
"html-keyboard-response","98","627992","0.0-9.0-2.0-0.6","1530","1","2","""event"",""trial"",""time""
""fullscreenenter"",""1"",""58554""
","
","
","""event"",""trial"",""time""
""fullscreenenter"",""1"",""58554""
","
","","","","","","null","<div style=""font-size:60px;"">+</div>","null","","fixation","","","","","","","","","","","","","",""
"learning-trial","99","631994","0.0-9.0-2.0-1.6","1530","1","2","""event"",""trial"",""time""
""fullscreenenter"",""1"",""58554""
","
","
","""event"",""trial"",""time""
""fullscreenenter"",""1"",""58554""
","
","","","","","","2028.699999999255","images/boat4.png","","","learning","images/vehicles_choice3.png","images/vehicles_choice1.png","images/vehicles_choice2.png","[2,0,1]","1","2","3","images/vehicles_choice2.png","1","vehicles","","boat","1","0"
"html-keyboard-response","100","632500","0.0-9.0-2.0-0.7","1530","1","2","""event"",""trial"",""time""
""fullscreenenter"",""1"",""58554""
","
","
","""event"",""trial"",""time""
""fullscreenenter"",""1"",""58554""
","
","","","","","","null","<div style=""font-size:60px;"">+</div>","null","","fixation","","","","","","","","","","","","","",""
"learning-trial","101","636505","0.0-9.0-2.0-1.7","1530","1","2","""event"",""trial"",""time""
""fullscreenenter"",""1"",""58554""
","
","
","""event"",""trial"",""time""
""fullscreenenter"",""1"",""58554""
","
","","","","","","1653.5","images/plane2.png","","","learning","images/vehicles_choice1.png","images/vehicles_choice3.png","images/vehicles_choice2.png","[0,2,1]","0","0","3","images/vehicles_choice2.png","-1","vehicles","","plane","1","0"
"html-keyboard-response","102","637016","0.0-9.0-2.0-0.8","1530","1","2","""event"",""trial"",""time""
""fullscreenenter"",""1"",""58554""
","
","
","""event"",""trial"",""time""
""fullscreenenter"",""1"",""58554""
","
","","","","","","null","<div style=""font-size:60px;"">+</div>","null","","fixation","","","","","","","","","","","","","",""
"learning-trial","103","641024","0.0-9.0-2.0-1.8","1530","1","2","""event"",""trial"",""time""
""fullscreenenter"",""1"",""58554""
","
","
","""event"",""trial"",""time""
""fullscreenenter"",""1"",""58554""
","
","","","","","","1758.8999999985099","images/truck4.png","","","learning","images/vehicles_choice3.png","images/vehicles_choice2.png","images/vehicles_choice1.png","[2,1,0]","2","0","1","images/vehicles_choice3.png","1","vehicles","","truck","1","0"
"html-keyboard-response","104","641533","0.0-9.0-2.0-0.9","1530","1","2","""event"",""trial"",""time""
""fullscreenenter"",""1"",""58554""
","
","
","""event"",""trial"",""time""
""fullscreenenter"",""1"",""58554""
","
","","","","","","null","<div style=""font-size:60px;"">+</div>","null","","fixation","","","","","","","","","","","","","",""
"learning-trial","105","645535","0.0-9.0-2.0-1.9","1530","1","2","""event"",""trial"",""time""
""fullscreenenter"",""1"",""58554""
","
","
","""event"",""trial"",""time""
""fullscreenenter"",""1"",""58554""
","
","","","","","","1732.800000000745","images/plane5.png","","","learning","images/vehicles_choice1.png","images/vehicles_choice2.png","images/vehicles_choice3.png","[0,1,2]","0","0","2","images/vehicles_choice2.png","-1","vehicles","","plane","1","0"
"html-keyboard-response","106","646037","0.0-9.0-2.0-0.10","1530","1","2","""event"",""trial"",""time""
""fullscreenenter"",""1"",""58554""
","
","
","""event"",""trial"",""time""
""fullscreenenter"",""1"",""58554""
","
","","","","","","null","<div style=""font-size:60px;"">+</div>","null","","fixation","","","","","","","","","","","","","",""
"learning-trial","107","650040","0.0-9.0-2.0-1.10","1530","1","2","""event"",""trial"",""time""
""fullscreenenter"",""1"",""58554""
","
","
","""event"",""trial"",""time""
""fullscreenenter"",""1"",""58554""
","
","","","","","","1658.800000000745","images/plane5.png","","","learning","images/vehicles_choice2.png","images/vehicles_choice3.png","images/vehicles_choice1.png","[1,2,0]","0","2","3","images/vehicles_choice1.png","1","vehicles","","plane","1","0"
"html-keyboard-response","108","650556","0.0-9.0-2.0-0.11","1530","1","2","""event"",""trial"",""time""
""fullscreenenter"",""1"",""58554""
","
","
","""event"",""trial"",""time""
""fullscreenenter"",""1"",""58554""
","
","","","","","","null","<div style=""font-size:60px;"">+</div>","null","","fixation","","","","","","","","","","","","","",""
"learning-trial","109","654558","0.0-9.0-2.0-1.11","1530","1","2","""event"",""trial"",""time""
""fullscreenenter"",""1"",""58554""
","
","
","""event"",""trial"",""time""
""fullscreenenter"",""1"",""58554""
","
","","","","","","2079.60000000149","images/truck2.png","","","learning","images/vehicles_choice2.png","images/vehicles_choice1.png","images/vehicles_choice3.png","[1,0,2]","2","2","3","images/vehicles_choice3.png","1","vehicles","","truck","1","0"
"html-keyboard-response","110","655061","0.0-9.0-2.0-0.12","1530","1","2","""event"",""trial"",""time""
""fullscreenenter"",""1"",""58554""
","
","
","""event"",""trial"",""time""
""fullscreenenter"",""1"",""58554""
","
","","","","","","null","<div style=""font-size:60px;"">+</div>","null","","fixation","","","","","","","","","","","","","",""
"learning-trial","111","659074","0.0-9.0-2.0-1.12","1530","1","2","""event"",""trial"",""time""
""fullscreenenter"",""1"",""58554""
","
","
","""event"",""trial"",""time""
""fullscreenenter"",""1"",""58554""
","
","","","","","","1944.6000000014901","images/truck1.png","","","learning","images/vehicles_choice3.png","images/vehicles_choice1.png","images/vehicles_choice2.png","[2,0,1]","2","0","2","images/vehicles_choice1.png","-1","vehicles","","truck","1","0"
"html-keyboard-response","112","659586","0.0-9.0-2.0-0.13","1530","1","2","""event"",""trial"",""time""
""fullscreenenter"",""1"",""58554""
","
","
","""event"",""trial"",""time""
""fullscreenenter"",""1"",""58554""
","
","","","","","","null","<div style=""font-size:60px;"">+</div>","null","","fixation","","","","","","","","","","","","","",""
"learning-trial","113","663596","0.0-9.0-2.0-1.13","1530","1","2","""event"",""trial"",""time""
""fullscreenenter"",""1"",""58554""
","
","
","""event"",""trial"",""time""
""fullscreenenter"",""1"",""58554""
","
","","","","","","1284.8999999985099","images/truck1.png","","","learning","images/vehicles_choice1.png","images/vehicles_choice2.png","images/vehicles_choice3.png","[0,1,2]","2","2","2","images/vehicles_choice2.png","-1","vehicles","","truck","1","0"
"html-keyboard-response","114","664104","0.0-9.0-2.0-0.14","1530","1","2","""event"",""trial"",""time""
""fullscreenenter"",""1"",""58554""
","
","
","""event"",""trial"",""time""
""fullscreenenter"",""1"",""58554""
","
","","","","","","null","<div style=""font-size:60px;"">+</div>","null","","fixation","","","","","","","","","","","","","",""
"learning-trial","115","668112","0.0-9.0-2.0-1.14","1530","1","2","""event"",""trial"",""time""
""fullscreenenter"",""1"",""58554""
","
","
","""event"",""trial"",""time""
""fullscreenenter"",""1"",""58554""
","
","","","","","","1907.800000000745","images/boat5.png","","","learning","images/vehicles_choice2.png","images/vehicles_choice3.png","images/vehicles_choice1.png","[1,2,0]","1","0","1","images/vehicles_choice2.png","1","vehicles","","boat","1","0"
"html-keyboard-response","116","668623","0.0-9.0-2.0-0.15","1530","1","2","""event"",""trial"",""time""
""fullscreenenter"",""1"",""58554""
","
","
","""event"",""trial"",""time""
""fullscreenenter"",""1"",""58554""
","
","","","","","","null","<div style=""font-size:60px;"">+</div>","null","","fixation","","","","","","","","","","","","","",""
"learning-trial","117","672632","0.0-9.0-2.0-1.15","1530","1","2","""event"",""trial"",""time""
""fullscreenenter"",""1"",""58554""
","
","
","""event"",""trial"",""time""
""fullscreenenter"",""1"",""58554""
","
","","","","","","1748.2000000029802","images/boat3.png","","","learning","images/vehicles_choice3.png","images/vehicles_choice1.png","images/vehicles_choice2.png","[2,0,1]","1","2","2","images/vehicles_choice1.png","-1","vehicles","","boat","1","0"
"html-keyboard-response","118","673136","0.0-9.0-2.0-0.16","1530","1","2","""event"",""trial"",""time""
""fullscreenenter"",""1"",""58554""
","
","
","""event"",""trial"",""time""
""fullscreenenter"",""1"",""58554""
","
","","","","","","null","<div style=""font-size:60px;"">+</div>","null","","fixation","","","","","","","","","","","","","",""
"learning-trial","119","677144","0.0-9.0-2.0-1.16","1530","1","2","""event"",""trial"",""time""
""fullscreenenter"",""1"",""58554""
","
","
","""event"",""trial"",""time""
""fullscreenenter"",""1"",""58554""
","
","","","","","","2178.800000000745","images/plane2.png","","","learning","images/vehicles_choice1.png","images/vehicles_choice3.png","images/vehicles_choice2.png","[0,2,1]","0","0","1","images/vehicles_choice1.png","1","vehicles","","plane","1","0"
"html-keyboard-response","120","677657","0.0-9.0-2.0-0.17","1530","1","2","""event"",""trial"",""time""
""fullscreenenter"",""1"",""58554""
","
","
","""event"",""trial"",""time""
""fullscreenenter"",""1"",""58554""
","
","","","","","","null","<div style=""font-size:60px;"">+</div>","null","","fixation","","","","","","","","","","","","","",""
"learning-trial","121","681660","0.0-9.0-2.0-1.17","1530","1","2","""event"",""trial"",""time""
""fullscreenenter"",""1"",""58554""
","
","
","""event"",""trial"",""time""
""fullscreenenter"",""1"",""58554""
","
","","","","","","2657.39999999851","images/truck4.png","","","learning","images/vehicles_choice3.png","images/vehicles_choice2.png","images/vehicles_choice1.png","[2,1,0]","2","0","3","images/vehicles_choice1.png","-1","vehicles","","truck","1","0"
"html-keyboard-response","122","682172","0.0-9.0-2.0-0.18","1530","1","2","""event"",""trial"",""time""
""fullscreenenter"",""1"",""58554""
","
","
","""event"",""trial"",""time""
""fullscreenenter"",""1"",""58554""
","
","","","","","","null","<div style=""font-size:60px;"">+</div>","null","","fixation","","","","","","","","","","","","","",""
"learning-trial","123","686181","0.0-9.0-2.0-1.18","1530","1","2","""event"",""trial"",""time""
""fullscreenenter"",""1"",""58554""
","
","
","""event"",""trial"",""time""
""fullscreenenter"",""1"",""58554""
","
","","","","","","1555.1000000014901","images/truck2.png","","","learning","images/vehicles_choice3.png","images/vehicles_choice2.png","images/vehicles_choice1.png","[2,1,0]","2","0","1","images/vehicles_choice3.png","1","vehicles","","truck","1","0"
"html-keyboard-response","124","686686","0.0-9.0-2.0-0.19","1530","1","2","""event"",""trial"",""time""
""fullscreenenter"",""1"",""58554""
","
","
","""event"",""trial"",""time""
""fullscreenenter"",""1"",""58554""
","
","","","","","","null","<div style=""font-size:60px;"">+</div>","null","","fixation","","","","","","","","","","","","","",""
"learning-trial","125","690693","0.0-9.0-2.0-1.19","1530","1","2","""event"",""trial"",""time""
""fullscreenenter"",""1"",""58554""
","
","
","""event"",""trial"",""time""
""fullscreenenter"",""1"",""58554""
","
","","","","","","2433.199999999255","images/plane5.png","","","learning","images/vehicles_choice3.png","images/vehicles_choice2.png","images/vehicles_choice1.png","[2,1,0]","0","2","3","images/vehicles_choice1.png","1","vehicles","","plane","1","0"
"html-keyboard-response","126","691196","0.0-9.0-2.0-0.20","1530","1","2","""event"",""trial"",""time""
""fullscreenenter"",""1"",""58554""
","
","
","""event"",""trial"",""time""
""fullscreenenter"",""1"",""58554""
","
","","","","","","null","<div style=""font-size:60px;"">+</div>","null","","fixation","","","","","","","","","","","","","",""
"learning-trial","127","695198","0.0-9.0-2.0-1.20","1530","1","2","""event"",""trial"",""time""
""fullscreenenter"",""1"",""58554""
","
","
","""event"",""trial"",""time""
""fullscreenenter"",""1"",""58554""
","
","","","","","","1209.199999999255","images/plane5.png","","","learning","images/vehicles_choice3.png","images/vehicles_choice2.png","images/vehicles_choice1.png","[2,1,0]","0","2","3","images/vehicles_choice1.png","1","vehicles","","plane","1","0"
"html-keyboard-response","128","695702","0.0-9.0-2.0-0.21","1530","1","2","""event"",""trial"",""time""
""fullscreenenter"",""1"",""58554""
","
","
","""event"",""trial"",""time""
""fullscreenenter"",""1"",""58554""
","
","","","","","","null","<div style=""font-size:60px;"">+</div>","null","","fixation","","","","","","","","","","","","","",""
"learning-trial","129","699707","0.0-9.0-2.0-1.21","1530","1","2","""event"",""trial"",""time""
""fullscreenenter"",""1"",""58554""
","
","
","""event"",""trial"",""time""
""fullscreenenter"",""1"",""58554""
","
","","","","","","1576.699999999255","images/plane4.png","","","learning","images/vehicles_choice1.png","images/vehicles_choice2.png","images/vehicles_choice3.png","[0,1,2]","0","0","1","images/vehicles_choice1.png","1","vehicles","","plane","1","0"
"html-keyboard-response","130","700222","0.0-9.0-2.0-0.22","1530","1","2","""event"",""trial"",""time""
""fullscreenenter"",""1"",""58554""
","
","
","""event"",""trial"",""time""
""fullscreenenter"",""1"",""58554""
","
","","","","","","null","<div style=""font-size:60px;"">+</div>","null","","fixation","","","","","","","","","","","","","",""
"learning-trial","131","704225","0.0-9.0-2.0-1.22","1530","1","2","""event"",""trial"",""time""
""fullscreenenter"",""1"",""58554""
","
","
","""event"",""trial"",""time""
""fullscreenenter"",""1"",""58554""
","
","","","","","","1804.5","images/boat5.png","","","learning","images/vehicles_choice1.png","images/vehicles_choice2.png","images/vehicles_choice3.png","[0,1,2]","1","1","2","images/vehicles_choice2.png","1","vehicles","","boat","1","0"
"html-keyboard-response","132","704734","0.0-9.0-2.0-0.23","1530","1","2","""event"",""trial"",""time""
""fullscreenenter"",""1"",""58554""
","
","
","""event"",""trial"",""time""
""fullscreenenter"",""1"",""58554""
","
","","","","","","null","<div style=""font-size:60px;"">+</div>","null","","fixation","","","","","","","","","","","","","",""
"learning-trial","133","708741","0.0-9.0-2.0-1.23","1530","1","2","""event"",""trial"",""time""
""fullscreenenter"",""1"",""58554""
","
","
","""event"",""trial"",""time""
""fullscreenenter"",""1"",""58554""
","
","","","","","","1771.800000000745","images/boat4.png","","","learning","images/vehicles_choice3.png","images/vehicles_choice2.png","images/vehicles_choice1.png","[2,1,0]","1","1","3","images/vehicles_choice1.png","-1","vehicles","","boat","1","0"
"html-keyboard-response","134","709248","0.0-9.0-2.0-0.24","1530","1","2","""event"",""trial"",""time""
""fullscreenenter"",""1"",""58554""
","
","
","""event"",""trial"",""time""
""fullscreenenter"",""1"",""58554""
","
","","","","","","null","<div style=""font-size:60px;"">+</div>","null","","fixation","","","","","","","","","","","","","",""
"learning-trial","135","713251","0.0-9.0-2.0-1.24","1530","1","2","""event"",""trial"",""time""
""fullscreenenter"",""1"",""58554""
","
","
","""event"",""trial"",""time""
""fullscreenenter"",""1"",""58554""
","
","","","","","","2463.2999999970198","images/truck4.png","","","learning","images/vehicles_choice3.png","images/vehicles_choice2.png","images/vehicles_choice1.png","[2,1,0]","2","0","1","images/vehicles_choice3.png","1","vehicles","","truck","1","0"
"html-keyboard-response","136","713761","0.0-9.0-2.0-0.25","1530","1","2","""event"",""trial"",""time""
""fullscreenenter"",""1"",""58554""
","
","
","""event"",""trial"",""time""
""fullscreenenter"",""1"",""58554""
","
","","","","","","null","<div style=""font-size:60px;"">+</div>","null","","fixation","","","","","","","","","","","","","",""
"learning-trial","137","717767","0.0-9.0-2.0-1.25","1530","1","2","""event"",""trial"",""time""
""fullscreenenter"",""1"",""58554""
","
","
","""event"",""trial"",""time""
""fullscreenenter"",""1"",""58554""
","
","","","","","","1781.5999999977648","images/plane4.png","","","learning","images/vehicles_choice1.png","images/vehicles_choice3.png","images/vehicles_choice2.png","[0,2,1]","0","0","1","images/vehicles_choice1.png","1","vehicles","","plane","1","0"
"html-keyboard-response","138","718276","0.0-9.0-2.0-0.26","1530","1","2","""event"",""trial"",""time""
""fullscreenenter"",""1"",""58554""
","
","
","""event"",""trial"",""time""
""fullscreenenter"",""1"",""58554""
","
","","","","","","null","<div style=""font-size:60px;"">+</div>","null","","fixation","","","","","","","","","","","","","",""
"learning-trial","139","722285","0.0-9.0-2.0-1.26","1530","1","2","""event"",""trial"",""time""
""fullscreenenter"",""1"",""58554""
","
","
","""event"",""trial"",""time""
""fullscreenenter"",""1"",""58554""
","
","","","","","","1450","images/boat4.png","","","learning","images/vehicles_choice2.png","images/vehicles_choice3.png","images/vehicles_choice1.png","[1,2,0]","1","0","1","images/vehicles_choice2.png","1","vehicles","","boat","1","0"
"html-keyboard-response","140","722791","0.0-9.0-2.0-0.27","1530","1","2","""event"",""trial"",""time""
""fullscreenenter"",""1"",""58554""
","
","
","""event"",""trial"",""time""
""fullscreenenter"",""1"",""58554""
","
","","","","","","null","<div style=""font-size:60px;"">+</div>","null","","fixation","","","","","","","","","","","","","",""
"learning-trial","141","726793","0.0-9.0-2.0-1.27","1530","1","2","""event"",""trial"",""time""
""fullscreenenter"",""1"",""58554""
","
","
","""event"",""trial"",""time""
""fullscreenenter"",""1"",""58554""
","
","","","","","","1429.6000000014901","images/plane2.png","","","learning","images/vehicles_choice2.png","images/vehicles_choice3.png","images/vehicles_choice1.png","[1,2,0]","0","2","3","images/vehicles_choice1.png","1","vehicles","","plane","1","0"
"html-keyboard-response","142","727299","0.0-9.0-2.0-0.28","1530","1","2","""event"",""trial"",""time""
""fullscreenenter"",""1"",""58554""
","
","
","""event"",""trial"",""time""
""fullscreenenter"",""1"",""58554""
","
","","","","","","null","<div style=""font-size:60px;"">+</div>","null","","fixation","","","","","","","","","","","","","",""
"learning-trial","143","731300","0.0-9.0-2.0-1.28","1530","1","2","""event"",""trial"",""time""
""fullscreenenter"",""1"",""58554""
","
","
","""event"",""trial"",""time""
""fullscreenenter"",""1"",""58554""
","
","","","","","","1865.199999999255","images/boat5.png","","","learning","images/vehicles_choice2.png","images/vehicles_choice1.png","images/vehicles_choice3.png","[1,0,2]","1","0","1","images/vehicles_choice2.png","-1","vehicles","","boat","1","0"
"html-keyboard-response","144","731808","0.0-9.0-2.0-0.29","1530","1","2","""event"",""trial"",""time""
""fullscreenenter"",""1"",""58554""
","
","
","""event"",""trial"",""time""
""fullscreenenter"",""1"",""58554""
","
","","","","","","null","<div style=""font-size:60px;"">+</div>","null","","fixation","","","","","","","","","","","","","",""
"learning-trial","145","735823","0.0-9.0-2.0-1.29","1530","1","2","""event"",""trial"",""time""
""fullscreenenter"",""1"",""58554""
","
","
","""event"",""trial"",""time""
""fullscreenenter"",""1"",""58554""
","
","","","","","","1680.199999999255","images/plane5.png","","","learning","images/vehicles_choice1.png","images/vehicles_choice3.png","images/vehicles_choice2.png","[0,2,1]","0","0","1","images/vehicles_choice1.png","1","vehicles","","plane","1","0"
"html-keyboard-response","146","736331","0.0-9.0-2.0-0.30","1530","1","2","""event"",""trial"",""time""
""fullscreenenter"",""1"",""58554""
","
","
","""event"",""trial"",""time""
""fullscreenenter"",""1"",""58554""
","
","","","","","","null","<div style=""font-size:60px;"">+</div>","null","","fixation","","","","","","","","","","","","","",""
"learning-trial","147","740340","0.0-9.0-2.0-1.30","1530","1","2","""event"",""trial"",""time""
""fullscreenenter"",""1"",""58554""
","
","
","""event"",""trial"",""time""
""fullscreenenter"",""1"",""58554""
","
","","","","","","2125.199999999255","images/boat5.png","","","learning","images/vehicles_choice1.png","images/vehicles_choice3.png","images/vehicles_choice2.png","[0,2,1]","1","2","3","images/vehicles_choice2.png","1","vehicles","","boat","1","0"
"html-keyboard-response","148","740844","0.0-9.0-2.0-0.31","1530","1","2","""event"",""trial"",""time""
""fullscreenenter"",""1"",""58554""
","
","
","""event"",""trial"",""time""
""fullscreenenter"",""1"",""58554""
","
","","","","","","null","<div style=""font-size:60px;"">+</div>","null","","fixation","","","","","","","","","","","","","",""
"learning-trial","149","744849","0.0-9.0-2.0-1.31","1530","1","2","""event"",""trial"",""time""
""fullscreenenter"",""1"",""58554""
","
","
","""event"",""trial"",""time""
""fullscreenenter"",""1"",""58554""
","
","","","","","","1593.8999999985099","images/truck1.png","","","learning","images/vehicles_choice2.png","images/vehicles_choice3.png","images/vehicles_choice1.png","[1,2,0]","2","1","2","images/vehicles_choice3.png","1","vehicles","","truck","1","0"
"html-keyboard-response","150","745359","0.0-9.0-2.0-0.32","1530","1","2","""event"",""trial"",""time""
""fullscreenenter"",""1"",""58554""
","
","
","""event"",""trial"",""time""
""fullscreenenter"",""1"",""58554""
","
","","","","","","null","<div style=""font-size:60px;"">+</div>","null","","fixation","","","","","","","","","","","","","",""
"learning-trial","151","749361","0.0-9.0-2.0-1.32","1530","1","2","""event"",""trial"",""time""
""fullscreenenter"",""1"",""58554""
","
","
","""event"",""trial"",""time""
""fullscreenenter"",""1"",""58554""
","
","","","","","","1504.300000000745","images/truck4.png","","","learning","images/vehicles_choice1.png","images/vehicles_choice3.png","images/vehicles_choice2.png","[0,2,1]","2","1","2","images/vehicles_choice3.png","1","vehicles","","truck","1","0"
"html-keyboard-response","152","749864","0.0-9.0-2.0-0.33","1530","1","2","""event"",""trial"",""time""
""fullscreenenter"",""1"",""58554""
","
","
","""event"",""trial"",""time""
""fullscreenenter"",""1"",""58554""
","
","","","","","","null","<div style=""font-size:60px;"">+</div>","null","","fixation","","","","","","","","","","","","","",""
"learning-trial","153","753869","0.0-9.0-2.0-1.33","1530","1","2","""event"",""trial"",""time""
""fullscreenenter"",""1"",""58554""
","
","
","""event"",""trial"",""time""
""fullscreenenter"",""1"",""58554""
","
","","","","","","1217.7000000029802","images/plane4.png","","","learning","images/vehicles_choice1.png","images/vehicles_choice3.png","images/vehicles_choice2.png","[0,2,1]","0","0","1","images/vehicles_choice1.png","1","vehicles","","plane","1","0"
"html-keyboard-response","154","754375","0.0-9.0-2.0-0.34","1530","1","2","""event"",""trial"",""time""
""fullscreenenter"",""1"",""58554""
","
","
","""event"",""trial"",""time""
""fullscreenenter"",""1"",""58554""
","
","","","","","","null","<div style=""font-size:60px;"">+</div>","null","","fixation","","","","","","","","","","","","","",""
"learning-trial","155","758383","0.0-9.0-2.0-1.34","1530","1","2","""event"",""trial"",""time""
""fullscreenenter"",""1"",""58554""
","
","
","""event"",""trial"",""time""
""fullscreenenter"",""1"",""58554""
","
","","","","","","1538.800000000745","images/truck4.png","","","learning","images/vehicles_choice3.png","images/vehicles_choice1.png","images/vehicles_choice2.png","[2,0,1]","2","0","1","images/vehicles_choice3.png","1","vehicles","","truck","1","0"
"html-keyboard-response","156","758897","0.0-9.0-2.0-0.35","1530","1","2","""event"",""trial"",""time""
""fullscreenenter"",""1"",""58554""
","
","
","""event"",""trial"",""time""
""fullscreenenter"",""1"",""58554""
","
","","","","","","null","<div style=""font-size:60px;"">+</div>","null","","fixation","","","","","","","","","","","","","",""
"learning-trial","157","762904","0.0-9.0-2.0-1.35","1530","1","2","""event"",""trial"",""time""
""fullscreenenter"",""1"",""58554""
","
","
","""event"",""trial"",""time""
""fullscreenenter"",""1"",""58554""
","
","","","","","","1104.5","images/plane4.png","","","learning","images/vehicles_choice2.png","images/vehicles_choice1.png","images/vehicles_choice3.png","[1,0,2]","0","1","2","images/vehicles_choice1.png","1","vehicles","","plane","1","0"
"html-keyboard-response","158","763412","0.0-9.0-2.0-0.36","1530","1","2","""event"",""trial"",""time""
""fullscreenenter"",""1"",""58554""
","
","
","""event"",""trial"",""time""
""fullscreenenter"",""1"",""58554""
","
","","","","","","null","<div style=""font-size:60px;"">+</div>","null","","fixation","","","","","","","","","","","","","",""
"learning-trial","159","767421","0.0-9.0-2.0-1.36","1530","1","2","""event"",""trial"",""time""
""fullscreenenter"",""1"",""58554""
","
","
","""event"",""trial"",""time""
""fullscreenenter"",""1"",""58554""
","
","","","","","","2046.3999999985099","images/boat4.png","","","learning","images/vehicles_choice1.png","images/vehicles_choice2.png","images/vehicles_choice3.png","[0,1,2]","1","1","2","images/vehicles_choice2.png","1","vehicles","","boat","1","0"
"html-keyboard-response","160","767932","0.0-9.0-2.0-0.37","1530","1","2","""event"",""trial"",""time""
""fullscreenenter"",""1"",""58554""
","
","
","""event"",""trial"",""time""
""fullscreenenter"",""1"",""58554""
","
","","","","","","null","<div style=""font-size:60px;"">+</div>","null","","fixation","","","","","","","","","","","","","",""
"learning-trial","161","771935","0.0-9.0-2.0-1.37","1530","1","2","""event"",""trial"",""time""
""fullscreenenter"",""1"",""58554""
","
","
","""event"",""trial"",""time""
""fullscreenenter"",""1"",""58554""
","
","","","","","","1190","images/truck4.png","","","learning","images/vehicles_choice1.png","images/vehicles_choice3.png","images/vehicles_choice2.png","[0,2,1]","2","1","2","images/vehicles_choice3.png","1","vehicles","","truck","1","0"
"html-keyboard-response","162","772440","0.0-9.0-2.0-0.38","1530","1","2","""event"",""trial"",""time""
""fullscreenenter"",""1"",""58554""
","
","
","""event"",""trial"",""time""
""fullscreenenter"",""1"",""58554""
","
","","","","","","null","<div style=""font-size:60px;"">+</div>","null","","fixation","","","","","","","","","","","","","",""
"learning-trial","163","776447","0.0-9.0-2.0-1.38","1530","1","2","""event"",""trial"",""time""
""fullscreenenter"",""1"",""58554""
","
","
","""event"",""trial"",""time""
""fullscreenenter"",""1"",""58554""
","
","","","","","","1333.199999999255","images/plane2.png","","","learning","images/vehicles_choice3.png","images/vehicles_choice1.png","images/vehicles_choice2.png","[2,0,1]","0","1","2","images/vehicles_choice1.png","1","vehicles","","plane","1","0"
"html-keyboard-response","164","776962","0.0-9.0-2.0-0.39","1530","1","2","""event"",""trial"",""time""
""fullscreenenter"",""1"",""58554""
","
","
","""event"",""trial"",""time""
""fullscreenenter"",""1"",""58554""
","
","","","","","","null","<div style=""font-size:60px;"">+</div>","null","","fixation","","","","","","","","","","","","","",""
"learning-trial","165","780968","0.0-9.0-2.0-1.39","1530","1","2","""event"",""trial"",""time""
""fullscreenenter"",""1"",""58554""
","
","
","""event"",""trial"",""time""
""fullscreenenter"",""1"",""58554""
","
","","","","","","2118","images/truck2.png","","","learning","images/vehicles_choice3.png","images/vehicles_choice2.png","images/vehicles_choice1.png","[2,1,0]","2","0","1","images/vehicles_choice3.png","1","vehicles","","truck","1","0"
"html-keyboard-response","166","781470","0.0-9.0-2.0-0.40","1530","1","2","""event"",""trial"",""time""
""fullscreenenter"",""1"",""58554""
","
","
","""event"",""trial"",""time""
""fullscreenenter"",""1"",""58554""
","
","","","","","","null","<div style=""font-size:60px;"">+</div>","null","","fixation","","","","","","","","","","","","","",""
"learning-trial","167","785473","0.0-9.0-2.0-1.40","1530","1","2","""event"",""trial"",""time""
""fullscreenenter"",""1"",""58554""
","
","
","""event"",""trial"",""time""
""fullscreenenter"",""1"",""58554""
","
","","","","","","1606.3999999985099","images/boat4.png","","","learning","images/vehicles_choice2.png","images/vehicles_choice3.png","images/vehicles_choice1.png","[1,2,0]","1","0","3","images/vehicles_choice1.png","-1","vehicles","","boat","1","0"
"html-keyboard-response","168","785980","0.0-9.0-2.0-0.41","1530","1","2","""event"",""trial"",""time""
""fullscreenenter"",""1"",""58554""
","
","
","""event"",""trial"",""time""
""fullscreenenter"",""1"",""58554""
","
","","","","","","null","<div style=""font-size:60px;"">+</div>","null","","fixation","","","","","","","","","","","","","",""
"learning-trial","169","789984","0.0-9.0-2.0-1.41","1530","1","2","""event"",""trial"",""time""
""fullscreenenter"",""1"",""58554""
","
","
","""event"",""trial"",""time""
""fullscreenenter"",""1"",""58554""
","
","","","","","","1173.6000000014901","images/plane5.png","","","learning","images/vehicles_choice1.png","images/vehicles_choice3.png","images/vehicles_choice2.png","[0,2,1]","0","0","1","images/vehicles_choice1.png","1","vehicles","","plane","1","0"
"html-keyboard-response","170","790488","0.0-9.0-2.0-0.42","1530","1","2","""event"",""trial"",""time""
""fullscreenenter"",""1"",""58554""
","
","
","""event"",""trial"",""time""
""fullscreenenter"",""1"",""58554""
","
","","","","","","null","<div style=""font-size:60px;"">+</div>","null","","fixation","","","","","","","","","","","","","",""
"learning-trial","171","794497","0.0-9.0-2.0-1.42","1530","1","2","""event"",""trial"",""time""
""fullscreenenter"",""1"",""58554""
","
","
","""event"",""trial"",""time""
""fullscreenenter"",""1"",""58554""
","
","","","","","","2123.800000000745","images/truck1.png","","","learning","images/vehicles_choice2.png","images/vehicles_choice1.png","images/vehicles_choice3.png","[1,0,2]","2","2","3","images/vehicles_choice3.png","1","vehicles","","truck","1","0"
"html-keyboard-response","172","795003","0.0-9.0-2.0-0.43","1530","1","2","""event"",""trial"",""time""
""fullscreenenter"",""1"",""58554""
","
","
","""event"",""trial"",""time""
""fullscreenenter"",""1"",""58554""
","
","","","","","","null","<div style=""font-size:60px;"">+</div>","null","","fixation","","","","","","","","","","","","","",""
"learning-trial","173","799010","0.0-9.0-2.0-1.43","1530","1","2","""event"",""trial"",""time""
""fullscreenenter"",""1"",""58554""
","
","
","""event"",""trial"",""time""
""fullscreenenter"",""1"",""58554""
","
","","","","","","1274","images/truck4.png","","","learning","images/vehicles_choice2.png","images/vehicles_choice1.png","images/vehicles_choice3.png","[1,0,2]","2","2","3","images/vehicles_choice3.png","1","vehicles","","truck","1","0"
"html-keyboard-response","174","799514","0.0-9.0-2.0-0.44","1530","1","2","""event"",""trial"",""time""
""fullscreenenter"",""1"",""58554""
","
","
","""event"",""trial"",""time""
""fullscreenenter"",""1"",""58554""
","
","","","","","","null","<div style=""font-size:60px;"">+</div>","null","","fixation","","","","","","","","","","","","","",""
"learning-trial","175","803519","0.0-9.0-2.0-1.44","1530","1","2","""event"",""trial"",""time""
""fullscreenenter"",""1"",""58554""
","
","
","""event"",""trial"",""time""
""fullscreenenter"",""1"",""58554""
","
","","","","","","1101","images/plane2.png","","","learning","images/vehicles_choice3.png","images/vehicles_choice2.png","images/vehicles_choice1.png","[2,1,0]","0","2","3","images/vehicles_choice1.png","1","vehicles","","plane","1","0"
"html-keyboard-response","176","804026","0.0-9.0-2.0-0.45","1530","1","2","""event"",""trial"",""time""
""fullscreenenter"",""1"",""58554""
","
","
","""event"",""trial"",""time""
""fullscreenenter"",""1"",""58554""
","
","","","","","","null","<div style=""font-size:60px;"">+</div>","null","","fixation","","","","","","","","","","","","","",""
"learning-trial","177","808040","0.0-9.0-2.0-1.45","1530","1","2","""event"",""trial"",""time""
""fullscreenenter"",""1"",""58554""
","
","
","""event"",""trial"",""time""
""fullscreenenter"",""1"",""58554""
","
","","","","","","1426.8999999985099","images/truck2.png","","","learning","images/vehicles_choice1.png","images/vehicles_choice2.png","images/vehicles_choice3.png","[0,1,2]","2","2","3","images/vehicles_choice3.png","1","vehicles","","truck","1","0"
"html-keyboard-response","178","808541","0.0-9.0-2.0-0.46","1530","1","2","""event"",""trial"",""time""
""fullscreenenter"",""1"",""58554""
","
","
","""event"",""trial"",""time""
""fullscreenenter"",""1"",""58554""
","
","","","","","","null","<div style=""font-size:60px;"">+</div>","null","","fixation","","","","","","","","","","","","","",""
"learning-trial","179","812546","0.0-9.0-2.0-1.46","1530","1","2","""event"",""trial"",""time""
""fullscreenenter"",""1"",""58554""
","
","
","""event"",""trial"",""time""
""fullscreenenter"",""1"",""58554""
","
","","","","","","1075.199999999255","images/plane2.png","","","learning","images/vehicles_choice1.png","images/vehicles_choice2.png","images/vehicles_choice3.png","[0,1,2]","0","0","1","images/vehicles_choice1.png","1","vehicles","","plane","1","0"
"html-keyboard-response","180","813048","0.0-9.0-2.0-0.47","1530","1","2","""event"",""trial"",""time""
""fullscreenenter"",""1"",""58554""
","
","
","""event"",""trial"",""time""
""fullscreenenter"",""1"",""58554""
","
","","","","","","null","<div style=""font-size:60px;"">+</div>","null","","fixation","","","","","","","","","","","","","",""
"learning-trial","181","817051","0.0-9.0-2.0-1.47","1530","1","2","""event"",""trial"",""time""
""fullscreenenter"",""1"",""58554""
","
","
","""event"",""trial"",""time""
""fullscreenenter"",""1"",""58554""
","
","","","","","","1749.2999999970198","images/plane4.png","","","learning","images/vehicles_choice3.png","images/vehicles_choice2.png","images/vehicles_choice1.png","[2,1,0]","0","2","3","images/vehicles_choice1.png","1","vehicles","","plane","1","0"
"html-keyboard-response","182","817558","0.0-9.0-2.0-0.48","1530","1","2","""event"",""trial"",""time""
""fullscreenenter"",""1"",""58554""
","
","
","""event"",""trial"",""time""
""fullscreenenter"",""1"",""58554""
","
","","","","","","null","<div style=""font-size:60px;"">+</div>","null","","fixation","","","","","","","","","","","","","",""
"learning-trial","183","821562","0.0-9.0-2.0-1.48","1530","1","2","""event"",""trial"",""time""
""fullscreenenter"",""1"",""58554""
","
","
","""event"",""trial"",""time""
""fullscreenenter"",""1"",""58554""
","
","","","","","","932.8000000007451","images/plane4.png","","","learning","images/vehicles_choice1.png","images/vehicles_choice2.png","images/vehicles_choice3.png","[0,1,2]","0","0","1","images/vehicles_choice1.png","1","vehicles","","plane","1","0"
"html-keyboard-response","184","822068","0.0-9.0-2.0-0.49","1530","1","2","""event"",""trial"",""time""
""fullscreenenter"",""1"",""58554""
","
","
","""event"",""trial"",""time""
""fullscreenenter"",""1"",""58554""
","
","","","","","","null","<div style=""font-size:60px;"">+</div>","null","","fixation","","","","","","","","","","","","","",""
"learning-trial","185","826075","0.0-9.0-2.0-1.49","1530","1","2","""event"",""trial"",""time""
""fullscreenenter"",""1"",""58554""
","
","
","""event"",""trial"",""time""
""fullscreenenter"",""1"",""58554""
","
","","","","","","1988.5","images/boat5.png","","","learning","images/vehicles_choice1.png","images/vehicles_choice3.png","images/vehicles_choice2.png","[0,2,1]","1","2","3","images/vehicles_choice2.png","1","vehicles","","boat","1","0"
"html-keyboard-response","186","826592","0.0-9.0-2.0-0.50","1530","1","2","""event"",""trial"",""time""
""fullscreenenter"",""1"",""58554""
","
","
","""event"",""trial"",""time""
""fullscreenenter"",""1"",""58554""
","
","","","","","","null","<div style=""font-size:60px;"">+</div>","null","","fixation","","","","","","","","","","","","","",""
"learning-trial","187","830596","0.0-9.0-2.0-1.50","1530","1","2","""event"",""trial"",""time""
""fullscreenenter"",""1"",""58554""
","
","
","""event"",""trial"",""time""
""fullscreenenter"",""1"",""58554""
","
","","","","","","3208.89999999851","images/boat3.png","","","learning","images/vehicles_choice1.png","images/vehicles_choice2.png","images/vehicles_choice3.png","[0,1,2]","1","1","1","images/vehicles_choice1.png","-1","vehicles","","boat","1","0"
"html-keyboard-response","188","831110","0.0-9.0-2.0-0.51","1530","1","2","""event"",""trial"",""time""
""fullscreenenter"",""1"",""58554""
","
","
","""event"",""trial"",""time""
""fullscreenenter"",""1"",""58554""
","
","","","","","","null","<div style=""font-size:60px;"">+</div>","null","","fixation","","","","","","","","","","","","","",""
"learning-trial","189","835117","0.0-9.0-2.0-1.51","1530","1","2","""event"",""trial"",""time""
""fullscreenenter"",""1"",""58554""
","
","
","""event"",""trial"",""time""
""fullscreenenter"",""1"",""58554""
","
","","","","","","1106","images/truck1.png","","","learning","images/vehicles_choice1.png","images/vehicles_choice2.png","images/vehicles_choice3.png","[0,1,2]","2","2","3","images/vehicles_choice3.png","1","vehicles","","truck","1","0"
"html-keyboard-response","190","835620","0.0-9.0-2.0-0.52","1530","1","2","""event"",""trial"",""time""
""fullscreenenter"",""1"",""58554""
","
","
","""event"",""trial"",""time""
""fullscreenenter"",""1"",""58554""
","
","","","","","","null","<div style=""font-size:60px;"">+</div>","null","","fixation","","","","","","","","","","","","","",""
"learning-trial","191","839626","0.0-9.0-2.0-1.52","1530","1","2","""event"",""trial"",""time""
""fullscreenenter"",""1"",""58554""
","
","
","""event"",""trial"",""time""
""fullscreenenter"",""1"",""58554""
","
","","","","","","1206.199999999255","images/boat3.png","","","learning","images/vehicles_choice3.png","images/vehicles_choice2.png","images/vehicles_choice1.png","[2,1,0]","1","1","2","images/vehicles_choice2.png","1","vehicles","","boat","1","0"
"html-keyboard-response","192","840128","0.0-9.0-2.0-0.53","1530","1","2","""event"",""trial"",""time""
""fullscreenenter"",""1"",""58554""
","
","
","""event"",""trial"",""time""
""fullscreenenter"",""1"",""58554""
","
","","","","","","null","<div style=""font-size:60px;"">+</div>","null","","fixation","","","","","","","","","","","","","",""
"learning-trial","193","844134","0.0-9.0-2.0-1.53","1530","1","2","""event"",""trial"",""time""
""fullscreenenter"",""1"",""58554""
","
","
","""event"",""trial"",""time""
""fullscreenenter"",""1"",""58554""
","
","","","","","","1239","images/boat4.png","","","learning","images/vehicles_choice2.png","images/vehicles_choice3.png","images/vehicles_choice1.png","[1,2,0]","1","0","1","images/vehicles_choice2.png","1","vehicles","","boat","1","0"
"html-keyboard-response","194","844635","0.0-9.0-2.0-0.54","1530","1","2","""event"",""trial"",""time""
""fullscreenenter"",""1"",""58554""
","
","
","""event"",""trial"",""time""
""fullscreenenter"",""1"",""58554""
","
","","","","","","null","<div style=""font-size:60px;"">+</div>","null","","fixation","","","","","","","","","","","","","",""
"learning-trial","195","848637","0.0-9.0-2.0-1.54","1530","1","2","""event"",""trial"",""time""
""fullscreenenter"",""1"",""58554""
","
","
","""event"",""trial"",""time""
""fullscreenenter"",""1"",""58554""
","
","","","","","","971.3000000007451","images/boat3.png","","","learning","images/vehicles_choice2.png","images/vehicles_choice1.png","images/vehicles_choice3.png","[1,0,2]","1","0","1","images/vehicles_choice2.png","1","vehicles","","boat","1","0"
"html-keyboard-response","196","849149","0.0-9.0-2.0-0.55","1530","1","2","""event"",""trial"",""time""
""fullscreenenter"",""1"",""58554""
","
","
","""event"",""trial"",""time""
""fullscreenenter"",""1"",""58554""
","
","","","","","","null","<div style=""font-size:60px;"">+</div>","null","","fixation","","","","","","","","","","","","","",""
"learning-trial","197","853151","0.0-9.0-2.0-1.55","1530","1","2","""event"",""trial"",""time""
""fullscreenenter"",""1"",""58554""
","
","
","""event"",""trial"",""time""
""fullscreenenter"",""1"",""58554""
","
","","","","","","620.0999999977648","images/boat3.png","","","learning","images/vehicles_choice2.png","images/vehicles_choice1.png","images/vehicles_choice3.png","[1,0,2]","1","0","1","images/vehicles_choice2.png","1","vehicles","","boat","1","0"
"html-keyboard-response","198","853660","0.0-9.0-2.0-0.56","1530","1","2","""event"",""trial"",""time""
""fullscreenenter"",""1"",""58554""
","
","
","""event"",""trial"",""time""
""fullscreenenter"",""1"",""58554""
","
","","","","","","null","<div style=""font-size:60px;"">+</div>","null","","fixation","","","","","","","","","","","","","",""
"learning-trial","199","857667","0.0-9.0-2.0-1.56","1530","1","2","""event"",""trial"",""time""
""fullscreenenter"",""1"",""58554""
","
","
","""event"",""trial"",""time""
""fullscreenenter"",""1"",""58554""
","
","","","","","","1653.800000000745","images/truck1.png","","","learning","images/vehicles_choice1.png","images/vehicles_choice2.png","images/vehicles_choice3.png","[0,1,2]","2","2","3","images/vehicles_choice3.png","-1","vehicles","","truck","1","0"
"html-keyboard-response","200","858168","0.0-9.0-2.0-0.57","1530","1","2","""event"",""trial"",""time""
""fullscreenenter"",""1"",""58554""
","
","
","""event"",""trial"",""time""
""fullscreenenter"",""1"",""58554""
","
","","","","","","null","<div style=""font-size:60px;"">+</div>","null","","fixation","","","","","","","","","","","","","",""
"learning-trial","201","862174","0.0-9.0-2.0-1.57","1530","1","2","""event"",""trial"",""time""
""fullscreenenter"",""1"",""58554""
","
","
","""event"",""trial"",""time""
""fullscreenenter"",""1"",""58554""
","
","","","","","","1097.5999999977648","images/plane2.png","","","learning","images/vehicles_choice2.png","images/vehicles_choice3.png","images/vehicles_choice1.png","[1,2,0]","0","2","3","images/vehicles_choice1.png","1","vehicles","","plane","1","0"
"html-keyboard-response","202","862681","0.0-9.0-2.0-0.58","1530","1","2","""event"",""trial"",""time""
""fullscreenenter"",""1"",""58554""
","
","
","""event"",""trial"",""time""
""fullscreenenter"",""1"",""58554""
","
","","","","","","null","<div style=""font-size:60px;"">+</div>","null","","fixation","","","","","","","","","","","","","",""
"learning-trial","203","866683","0.0-9.0-2.0-1.58","1530","1","2","""event"",""trial"",""time""
""fullscreenenter"",""1"",""58554""
","
","
","""event"",""trial"",""time""
""fullscreenenter"",""1"",""58554""
","
","","","","","","1075.4000000022352","images/plane4.png","","","learning","images/vehicles_choice1.png","images/vehicles_choice2.png","images/vehicles_choice3.png","[0,1,2]","0","0","1","images/vehicles_choice1.png","1","vehicles","","plane","1","0"
"html-keyboard-response","204","867190","0.0-9.0-2.0-0.59","1530","1","2","""event"",""trial"",""time""
""fullscreenenter"",""1"",""58554""
","
","
","""event"",""trial"",""time""
""fullscreenenter"",""1"",""58554""
","
","","","","","","null","<div style=""font-size:60px;"">+</div>","null","","fixation","","","","","","","","","","","","","",""
"learning-trial","205","871198","0.0-9.0-2.0-1.59","1530","1","2","""event"",""trial"",""time""
""fullscreenenter"",""1"",""58554""
","
","
","""event"",""trial"",""time""
""fullscreenenter"",""1"",""58554""
","
","","","","","","2100.60000000149","images/truck1.png","","","learning","images/vehicles_choice3.png","images/vehicles_choice1.png","images/vehicles_choice2.png","[2,0,1]","2","0","1","images/vehicles_choice3.png","1","vehicles","","truck","1","0"
"html-keyboard-response","206","871702","0.0-9.0-2.0-0.60","1530","1","2","""event"",""trial"",""time""
""fullscreenenter"",""1"",""58554""
","
","
","""event"",""trial"",""time""
""fullscreenenter"",""1"",""58554""
","
","","","","","","null","<div style=""font-size:60px;"">+</div>","null","","fixation","","","","","","","","","","","","","",""
"learning-trial","207","875713","0.0-9.0-2.0-1.60","1530","1","2","""event"",""trial"",""time""
""fullscreenenter"",""1"",""58554""
","
","
","""event"",""trial"",""time""
""fullscreenenter"",""1"",""58554""
","
","","","","","","1250.9000000022352","images/plane5.png","","","learning","images/vehicles_choice1.png","images/vehicles_choice3.png","images/vehicles_choice2.png","[0,2,1]","0","0","1","images/vehicles_choice1.png","-1","vehicles","","plane","1","0"
"html-keyboard-response","208","876219","0.0-9.0-2.0-0.61","1530","1","2","""event"",""trial"",""time""
""fullscreenenter"",""1"",""58554""
","
","
","""event"",""trial"",""time""
""fullscreenenter"",""1"",""58554""
","
","","","","","","null","<div style=""font-size:60px;"">+</div>","null","","fixation","","","","","","","","","","","","","",""
"learning-trial","209","880223","0.0-9.0-2.0-1.61","1530","1","2","""event"",""trial"",""time""
""fullscreenenter"",""1"",""58554""
","
","
","""event"",""trial"",""time""
""fullscreenenter"",""1"",""58554""
","
","","","","","","1402.8999999985099","images/plane4.png","","","learning","images/vehicles_choice2.png","images/vehicles_choice3.png","images/vehicles_choice1.png","[1,2,0]","0","2","3","images/vehicles_choice1.png","1","vehicles","","plane","1","0"
"html-keyboard-response","210","880733","0.0-9.0-2.0-0.62","1530","1","2","""event"",""trial"",""time""
""fullscreenenter"",""1"",""58554""
","
","
","""event"",""trial"",""time""
""fullscreenenter"",""1"",""58554""
","
","","","","","","null","<div style=""font-size:60px;"">+</div>","null","","fixation","","","","","","","","","","","","","",""
"learning-trial","211","884739","0.0-9.0-2.0-1.62","1530","1","2","""event"",""trial"",""time""
""fullscreenenter"",""1"",""58554""
","
","
","""event"",""trial"",""time""
""fullscreenenter"",""1"",""58554""
","
","","","","","","1077","images/boat5.png","","","learning","images/vehicles_choice3.png","images/vehicles_choice2.png","images/vehicles_choice1.png","[2,1,0]","1","1","2","images/vehicles_choice2.png","1","vehicles","","boat","1","0"
"html-keyboard-response","212","885244","0.0-9.0-2.0-0.63","1530","1","2","""event"",""trial"",""time""
""fullscreenenter"",""1"",""58554""
","
","
","""event"",""trial"",""time""
""fullscreenenter"",""1"",""58554""
","
","","","","","","null","<div style=""font-size:60px;"">+</div>","null","","fixation","","","","","","","","","","","","","",""
"learning-trial","213","889253","0.0-9.0-2.0-1.63","1530","1","2","""event"",""trial"",""time""
""fullscreenenter"",""1"",""58554""
","
","
","""event"",""trial"",""time""
""fullscreenenter"",""1"",""58554""
","
","","","","","","1200.3999999985099","images/truck1.png","","","learning","images/vehicles_choice3.png","images/vehicles_choice2.png","images/vehicles_choice1.png","[2,1,0]","2","0","1","images/vehicles_choice3.png","1","vehicles","","truck","1","0"
"html-keyboard-response","214","889759","0.0-9.0-2.0-0.64","1530","1","2","""event"",""trial"",""time""
""fullscreenenter"",""1"",""58554""
","
","
","""event"",""trial"",""time""
""fullscreenenter"",""1"",""58554""
","
","","","","","","null","<div style=""font-size:60px;"">+</div>","null","","fixation","","","","","","","","","","","","","",""
"learning-trial","215","893766","0.0-9.0-2.0-1.64","1530","1","2","""event"",""trial"",""time""
""fullscreenenter"",""1"",""58554""
","
","
","""event"",""trial"",""time""
""fullscreenenter"",""1"",""58554""
","
","","","","","","1236.5","images/boat4.png","","","learning","images/vehicles_choice3.png","images/vehicles_choice1.png","images/vehicles_choice2.png","[2,0,1]","1","2","3","images/vehicles_choice2.png","1","vehicles","","boat","1","0"
"html-keyboard-response","216","894278","0.0-9.0-2.0-0.65","1530","1","2","""event"",""trial"",""time""
""fullscreenenter"",""1"",""58554""
","
","
","""event"",""trial"",""time""
""fullscreenenter"",""1"",""58554""
","
","","","","","","null","<div style=""font-size:60px;"">+</div>","null","","fixation","","","","","","","","","","","","","",""
"learning-trial","217","898288","0.0-9.0-2.0-1.65","1530","1","2","""event"",""trial"",""time""
""fullscreenenter"",""1"",""58554""
","
","
","""event"",""trial"",""time""
""fullscreenenter"",""1"",""58554""
","
","","","","","","784.4000000022352","images/boat3.png","","","learning","images/vehicles_choice2.png","images/vehicles_choice1.png","images/vehicles_choice3.png","[1,0,2]","1","0","1","images/vehicles_choice2.png","1","vehicles","","boat","1","0"
"html-keyboard-response","218","898797","0.0-9.0-2.0-0.66","1530","1","2","""event"",""trial"",""time""
""fullscreenenter"",""1"",""58554""
","
","
","""event"",""trial"",""time""
""fullscreenenter"",""1"",""58554""
","
","","","","","","null","<div style=""font-size:60px;"">+</div>","null","","fixation","","","","","","","","","","","","","",""
"learning-trial","219","902806","0.0-9.0-2.0-1.66","1530","1","2","""event"",""trial"",""time""
""fullscreenenter"",""1"",""58554""
","
","
","""event"",""trial"",""time""
""fullscreenenter"",""1"",""58554""
","
","","","","","","737.8999999985099","images/boat3.png","","","learning","images/vehicles_choice2.png","images/vehicles_choice3.png","images/vehicles_choice1.png","[1,2,0]","1","0","1","images/vehicles_choice2.png","-1","vehicles","","boat","1","0"
"html-keyboard-response","220","903315","0.0-9.0-2.0-0.67","1530","1","2","""event"",""trial"",""time""
""fullscreenenter"",""1"",""58554""
","
","
","""event"",""trial"",""time""
""fullscreenenter"",""1"",""58554""
","
","","","","","","null","<div style=""font-size:60px;"">+</div>","null","","fixation","","","","","","","","","","","","","",""
"learning-trial","221","907323","0.0-9.0-2.0-1.67","1530","1","2","""event"",""trial"",""time""
""fullscreenenter"",""1"",""58554""
","
","
","""event"",""trial"",""time""
""fullscreenenter"",""1"",""58554""
","
","","","","","","669.5","images/boat3.png","","","learning","images/vehicles_choice2.png","images/vehicles_choice3.png","images/vehicles_choice1.png","[1,2,0]","1","0","1","images/vehicles_choice2.png","1","vehicles","","boat","1","0"
"html-keyboard-response","222","907826","0.0-9.0-2.0-0.68","1530","1","2","""event"",""trial"",""time""
""fullscreenenter"",""1"",""58554""
","
","
","""event"",""trial"",""time""
""fullscreenenter"",""1"",""58554""
","
","","","","","","null","<div style=""font-size:60px;"">+</div>","null","","fixation","","","","","","","","","","","","","",""
"learning-trial","223","911833","0.0-9.0-2.0-1.68","1530","1","2","""event"",""trial"",""time""
""fullscreenenter"",""1"",""58554""
","
","
","""event"",""trial"",""time""
""fullscreenenter"",""1"",""58554""
","
","","","","","","1264.4000000022352","images/boat5.png","","","learning","images/vehicles_choice2.png","images/vehicles_choice3.png","images/vehicles_choice1.png","[1,2,0]","1","0","1","images/vehicles_choice2.png","1","vehicles","","boat","1","0"
"html-keyboard-response","224","912341","0.0-9.0-2.0-0.69","1530","1","2","""event"",""trial"",""time""
""fullscreenenter"",""1"",""58554""
","
","
","""event"",""trial"",""time""
""fullscreenenter"",""1"",""58554""
","
","","","","","","null","<div style=""font-size:60px;"">+</div>","null","","fixation","","","","","","","","","","","","","",""
"learning-trial","225","916346","0.0-9.0-2.0-1.69","1530","1","2","""event"",""trial"",""time""
""fullscreenenter"",""1"",""58554""
","
","
","""event"",""trial"",""time""
""fullscreenenter"",""1"",""58554""
","
","","","","","","1078.8999999985099","images/plane2.png","","","learning","images/vehicles_choice3.png","images/vehicles_choice2.png","images/vehicles_choice1.png","[2,1,0]","0","2","3","images/vehicles_choice1.png","1","vehicles","","plane","1","0"
"html-keyboard-response","226","916853","0.0-9.0-2.0-0.70","1530","1","2","""event"",""trial"",""time""
""fullscreenenter"",""1"",""58554""
","
","
","""event"",""trial"",""time""
""fullscreenenter"",""1"",""58554""
","
","","","","","","null","<div style=""font-size:60px;"">+</div>","null","","fixation","","","","","","","","","","","","","",""
"learning-trial","227","920856","0.0-9.0-2.0-1.70","1530","1","2","""event"",""trial"",""time""
""fullscreenenter"",""1"",""58554""
","
","
","""event"",""trial"",""time""
""fullscreenenter"",""1"",""58554""
","
","","","","","","1406.300000000745","images/truck4.png","","","learning","images/vehicles_choice1.png","images/vehicles_choice3.png","images/vehicles_choice2.png","[0,2,1]","2","1","2","images/vehicles_choice3.png","1","vehicles","","truck","1","0"
"html-keyboard-response","228","921364","0.0-9.0-2.0-0.71","1530","1","2","""event"",""trial"",""time""
""fullscreenenter"",""1"",""58554""
","
","
","""event"",""trial"",""time""
""fullscreenenter"",""1"",""58554""
","
","","","","","","null","<div style=""font-size:60px;"">+</div>","null","","fixation","","","","","","","","","","","","","",""
"learning-trial","229","925369","0.0-9.0-2.0-1.71","1530","1","2","""event"",""trial"",""time""
""fullscreenenter"",""1"",""58554""
","
","
","""event"",""trial"",""time""
""fullscreenenter"",""1"",""58554""
","
","","","","","","1371.3999999985099","images/truck2.png","","","learning","images/vehicles_choice3.png","images/vehicles_choice2.png","images/vehicles_choice1.png","[2,1,0]","2","0","1","images/vehicles_choice3.png","-1","vehicles","","truck","1","0"
"html-button-response","230","929738","0.0-9.0-3.0","1530","1","2","""event"",""trial"",""time""
""fullscreenenter"",""1"",""58554""
","
","
","""event"",""trial"",""time""
""fullscreenenter"",""1"",""58554""
","
","","","","","","4367.699999999255","<p> You have completed the round! <p> In this round, you earned 34 points! </p>","0","","break","","","","","","","","","","","","","",""
"html-button-response","231","933777","0.0-10.0","1530","1","2","""event"",""trial"",""time""
""fullscreenenter"",""1"",""58554""
","
","
","""event"",""trial"",""time""
""fullscreenenter"",""1"",""58554""
","
","","","","","","4038.5","<p> Now it's time to play another round. </p>","0","","transition_screen","","","","","","","","","","","","","",""
"preload","232","940101","0.0-11.0-0.0","1530","1","2","""event"",""trial"",""time""
""fullscreenenter"",""1"",""58554""
","
","
","""event"",""trial"",""time""
""fullscreenenter"",""1"",""58554""
","
","true","false","[]","[]","[]","","","","","","","","","","","","","","","","","","",""
"learning-instructions","233","950860","0.0-11.0-1.0-0.0","1530","1","2","""event"",""trial"",""time""
""fullscreenenter"",""1"",""58554""
","
","
","""event"",""trial"",""time""
""fullscreenenter"",""1"",""58554""
","
","","","","","","2734.699999999255","<p> Your goal in this round is to deliver furniture to three different buildings. </p><p> You will need to deliver many pieces of furniture. </p></div>","","0","instructions","","","","","","","","","","","","","",""
"learning-instructions","234","958903","0.0-11.0-1.0-0.1","1530","1","2","""event"",""trial"",""time""
""fullscreenenter"",""1"",""58554""
","
","
","""event"",""trial"",""time""
""fullscreenenter"",""1"",""58554""
","
","","","","","","617.4000000022352","<p> On each turn, you will see a picture of a furniture item and three different buildings.  </p><p> You need to select the building that you want to deliver the furniture to.  </p>","","0","instructions","","","","","","","","","","","","","",""
"learning-instructions","235","971266","0.0-11.0-1.0-0.2","1530","1","2","""event"",""trial"",""time""
""fullscreenenter"",""1"",""58554""
","
","
","""event"",""trial"",""time""
""fullscreenenter"",""1"",""58554""
","
