"trial_type","trial_index","time_elapsed","internal_node_id","subject_id","condition","task_version","interactions","blur_events","focus_events","fullscreenenter_events","fullscreenexit_events","success","timeout","failed_images","failed_audio","failed_video","rt","stimulus","response","button_pressed","task_part","left_choice","middle_choice","right_choice","choice_positions","correct_response","correct_position","key_press","option_selected","points","task_block","correct","stim_cat","block_condition","block_number"
"pavlovia","0","4","0.0-0.0","1708","1","2","""event"",""trial"",""time""
""fullscreenenter"",""1"",""3105""
","
","
","""event"",""trial"",""time""
""fullscreenenter"",""1"",""3105""
","
","","","","","","","","","","","","","","","","","","","","","","","",""
"fullscreen","1","4092","0.0-1.0","1708","1","2","""event"",""trial"",""time""
""fullscreenenter"",""1"",""3105""
","
","
","""event"",""trial"",""time""
""fullscreenenter"",""1"",""3105""
","
","true","","","","","","","","","","","","","","","","","","","","","","",""
"preload","2","16519","0.0-2.0","1708","1","2","""event"",""trial"",""time""
""fullscreenenter"",""1"",""3105""
","
","
","""event"",""trial"",""time""
""fullscreenenter"",""1"",""3105""
","
","true","false","[]","[]","[]","","","","","","","","","","","","","","","","","","",""
"audio-keyboard-response","3","20078","0.0-3.0","1708","1","2","""event"",""trial"",""time""
""fullscreenenter"",""1"",""3105""
","
","
","""event"",""trial"",""time""
""fullscreenenter"",""1"",""3105""
","
","","","","","","3552.6530612244896","audio/beep_loop.wav"," ","","","","","","","","","","","","","","","",""
"audio-button-response","4","22802","0.0-4.0","1708","1","2","""event"",""trial"",""time""
""fullscreenenter"",""1"",""3105""
","
","
","""event"",""trial"",""time""
""fullscreenenter"",""1"",""3105""
","
","","","","","","2723","audio/shark.wav","4","","","","","","","","","","","","","","","",""
"audio-button-response","5","25168","0.0-5.0","1708","1","2","""event"",""trial"",""time""
""fullscreenenter"",""1"",""3105""
","
","
","""event"",""trial"",""time""
""fullscreenenter"",""1"",""3105""
","
","","","","","","1358","audio/turtle.wav","1","","","","","","","","","","","","","","","",""
"preload","6","38654","0.0-6.0","1708","1","2","""event"",""trial"",""time""
""fullscreenenter"",""1"",""3105""
","
","
","""event"",""trial"",""time""
""fullscreenenter"",""1"",""3105""
","
","true","false","[]","[]","[]","","","","","","","","","","","","","","","","","","",""
"html-keyboard-response","7","43355","0.0-7.0","1708","1","2","""event"",""trial"",""time""
""fullscreenenter"",""1"",""3105""
","
","
","""event"",""trial"",""time""
""fullscreenenter"",""1"",""3105""
","
","","","","","","4699.5","Welcome to the experiment. Press any key to begin and to advance the instructions.","n","","","","","","","","","","","","","","","",""
"learning-instructions","8","53391","0.0-8.0-0.0-0.0","1708","1","2","""event"",""trial"",""time""
""fullscreenenter"",""1"",""3105""
","
","
","""event"",""trial"",""time""
""fullscreenenter"",""1"",""3105""
","
","","","","","","2287.3000000715256","<p> Welcome! Today you are going to play 6 different rounds of a decision-making game. </p><p> Use the mouse to click next to continue. </p>","","0","instructions","","","","","","","","","","","","","",""
"learning-instructions","9","57545","0.0-8.0-0.0-0.1","1708","1","2","""event"",""trial"",""time""
""fullscreenenter"",""1"",""3105""
""blur"",""10"",""65462""
""focus"",""10"",""67259""
","""event"",""trial"",""time""
""blur"",""10"",""65462""
","""event"",""trial"",""time""
""focus"",""10"",""67259""
","""event"",""trial"",""time""
""fullscreenenter"",""1"",""3105""
","
","","","","","","1146.9000000953674","<p> You will start with a practice round to learn the rules. </p>","","0","instructions","","","","","","","","","","","","","",""
"learning-instructions","10","67343","0.0-8.0-0.0-0.2","1708","1","2","""event"",""trial"",""time""
""fullscreenenter"",""1"",""3105""
""blur"",""10"",""65462""
""focus"",""10"",""67259""
","""event"",""trial"",""time""
""blur"",""10"",""65462""
","""event"",""trial"",""time""
""focus"",""10"",""67259""
","""event"",""trial"",""time""
""fullscreenenter"",""1"",""3105""
","
","","","","","","2057.600000023842","<p> Your goal in this round is to deliver sports equipment to three different parks. </p><p> You will need to deliver many types of equipment. </p></div>","","0","instructions","","","","","","","","","","","","","",""
"learning-instructions","11","76980","0.0-8.0-0.0-0.3","1708","1","2","""event"",""trial"",""time""
""fullscreenenter"",""1"",""3105""
""blur"",""10"",""65462""
""focus"",""10"",""67259""
","""event"",""trial"",""time""
""blur"",""10"",""65462""
","""event"",""trial"",""time""
""focus"",""10"",""67259""
","""event"",""trial"",""time""
""fullscreenenter"",""1"",""3105""
","
","","","","","","1150.8999999761581","<p> On each turn, you will see one piece of sports equipment and three different parks.  </p><p> You need to select which park to deliver the equipment to.  </p>","","0","instructions","","","","","","","","","","","","","",""
"learning-instructions","12","96323","0.0-8.0-0.0-0.4","1708","1","2","""event"",""trial"",""time""
""fullscreenenter"",""1"",""3105""
""blur"",""10"",""65462""
""focus"",""10"",""67259""
","""event"",""trial"",""time""
""blur"",""10"",""65462""
","""event"",""trial"",""time""
""focus"",""10"",""67259""
","""event"",""trial"",""time""
""fullscreenenter"",""1"",""3105""
","
","","","","","","6062","<p> You can select the park on the left by pressing the '1' key on your keyboard. <br>You can select the park in the middle by pressing the '2' key on your keyboard. <br>You can select the park on the right by pressing the '3' key on your keyboard.  </p><br><div class=""choice-instructions-grid""> <div class=""choice-option""><img src=""images/park1.png"" class=""choice-option-img"" stage=""instructions"" position=""0"" ><div class=""choice-option-text""> Press ""1."" </div></div><div class=""choice-option""><img src=""images/park2.png"" class=""choice-option-img"" stage=""instructions"" position=""1"" ><div class=""choice-option-text""> Press ""2."" </div></div><div class=""choice-option""><img src=""images/park3.png"" class=""choice-option-img"" stage=""instructions"" position=""2"" ><div class=""choice-option-text""> Press ""3."" </div></div></div>","","0","instructions","","","","","","","","","","","","","",""
"learning-instructions","13","115904","0.0-8.0-0.0-0.5","1708","1","2","""event"",""trial"",""time""
""fullscreenenter"",""1"",""3105""
""blur"",""10"",""65462""
""focus"",""10"",""67259""
","""event"",""trial"",""time""
""blur"",""10"",""65462""
","""event"",""trial"",""time""
""focus"",""10"",""67259""
","""event"",""trial"",""time""
""fullscreenenter"",""1"",""3105""
","
","","","","","","14201.600000023842","<p> If the kids in the park you chose like the equipment, they will be very happy! </p><div style='float: center;'><img src='images/check.png' width = '200' height = '200'></img>","","0","instructions","","","","","","","","","","","","","",""
"learning-instructions","14","123081","0.0-8.0-0.0-0.6","1708","1","2","""event"",""trial"",""time""
""fullscreenenter"",""1"",""3105""
""blur"",""10"",""65462""
""focus"",""10"",""67259""
","""event"",""trial"",""time""
""blur"",""10"",""65462""
","""event"",""trial"",""time""
""focus"",""10"",""67259""
","""event"",""trial"",""time""
""fullscreenenter"",""1"",""3105""
","
","","","","","","1588.7000000476837","<p> But, if the kids in the park you chose do not like the equipment, they will be sad. </p><div style='float: center;'><img src='images/x.png' width = '200' height = '200'></img>","","0","instructions","","","","","","","","","","","","","",""
"learning-instructions","15","129718","0.0-8.0-0.0-0.7","1708","1","2","""event"",""trial"",""time""
""fullscreenenter"",""1"",""3105""
""blur"",""10"",""65462""
""focus"",""10"",""67259""
","""event"",""trial"",""time""
""blur"",""10"",""65462""
","""event"",""trial"",""time""
""focus"",""10"",""67259""
","""event"",""trial"",""time""
""fullscreenenter"",""1"",""3105""
","
","","","","","","209.39999997615814","<p> Importantly, the kids in each park like some pieces of sports equipment more than others. </p>","","0","instructions","","","","","","","","","","","","","",""
"learning-instructions","16","137576","0.0-8.0-0.0-0.8","1708","1","2","""event"",""trial"",""time""
""fullscreenenter"",""1"",""3105""
""blur"",""10"",""65462""
""focus"",""10"",""67259""
","""event"",""trial"",""time""
""blur"",""10"",""65462""
","""event"",""trial"",""time""
""focus"",""10"",""67259""
","""event"",""trial"",""time""
""fullscreenenter"",""1"",""3105""
","
","","","","","","1814.7000000476837","<p> If you choose the best park for each piece of equipment, the kids there will usually be happy. </p>","","0","instructions","","","","","","","","","","","","","",""
"learning-instructions","17","144978","0.0-8.0-0.0-0.9","1708","1","2","""event"",""trial"",""time""
""fullscreenenter"",""1"",""3105""
""blur"",""10"",""65462""
""focus"",""10"",""67259""
","""event"",""trial"",""time""
""blur"",""10"",""65462""
","""event"",""trial"",""time""
""focus"",""10"",""67259""
","""event"",""trial"",""time""
""fullscreenenter"",""1"",""3105""
","
","","","","","","757.8999999761581","<p> However, even if you choose the best park for the equipment, the kids may sometimes be sad. </p>","","0","instructions","","","","","","","","","","","","","",""
"learning-instructions","18","152935","0.0-8.0-0.0-0.10","1708","1","2","""event"",""trial"",""time""
""fullscreenenter"",""1"",""3105""
""blur"",""10"",""65462""
""focus"",""10"",""67259""
","""event"",""trial"",""time""
""blur"",""10"",""65462""
","""event"",""trial"",""time""
""focus"",""10"",""67259""
","""event"",""trial"",""time""
""fullscreenenter"",""1"",""3105""
","
","","","","","","725.1000000238419","<p> Similarly, even if you choose the <i>wrong</i> park for the equipment, the kids may still be happy sometimes.","","0","instructions","","","","","","","","","","","","","",""
"learning-instructions","19","158759","0.0-8.0-0.0-0.11","1708","1","2","""event"",""trial"",""time""
""fullscreenenter"",""1"",""3105""
""blur"",""10"",""65462""
""focus"",""10"",""67259""
","""event"",""trial"",""time""
""blur"",""10"",""65462""
","""event"",""trial"",""time""
""focus"",""10"",""67259""
","""event"",""trial"",""time""
""fullscreenenter"",""1"",""3105""
","
","","","","","","770.7000000476837","<p> For example, the best park for this soccer ball is this one.<div style='float: center;'><img src='images/i1.png' width = '500' height = '268'></img>","","0","instructions","","","","","","","","","","","","","",""
"learning-instructions","20","164499","0.0-8.0-0.0-0.12","1708","1","2","""event"",""trial"",""time""
""fullscreenenter"",""1"",""3105""
""blur"",""10"",""65462""
""focus"",""10"",""67259""
","""event"",""trial"",""time""
""blur"",""10"",""65462""
","""event"",""trial"",""time""
""focus"",""10"",""67259""
","""event"",""trial"",""time""
""fullscreenenter"",""1"",""3105""
","
","","","","","","455.7000000476837","<p> Let's see what happens if you choose this park for the soccer ball five times.","","0","instructions","","","","","","","","","","","","","",""
"learning-instructions","21","169611","0.0-8.0-0.0-0.13","1708","1","2","""event"",""trial"",""time""
""fullscreenenter"",""1"",""3105""
""blur"",""10"",""65462""
""focus"",""10"",""67259""
","""event"",""trial"",""time""
""blur"",""10"",""65462""
","""event"",""trial"",""time""
""focus"",""10"",""67259""
","""event"",""trial"",""time""
""fullscreenenter"",""1"",""3105""
","
","","","","","","2949","<p> The kids are happy.<div style='float: left;'><img src='images/i2.png' width = '640' height = '360'></img>","","0","instructions","","","","","","","","","","","","","",""
"learning-instructions","22","172369","0.0-8.0-0.0-0.14","1708","1","2","""event"",""trial"",""time""
""fullscreenenter"",""1"",""3105""
""blur"",""10"",""65462""
""focus"",""10"",""67259""
","""event"",""trial"",""time""
""blur"",""10"",""65462""
","""event"",""trial"",""time""
""focus"",""10"",""67259""
","""event"",""trial"",""time""
""fullscreenenter"",""1"",""3105""
","
","","","","","","592.0999999046326","<p> The kids are happy.<div style='float: left;'><img src='images/i3.png' width = '640' height = '360'></img>","","0","instructions","","","","","","","","","","","","","",""
"learning-instructions","23","175938","0.0-8.0-0.0-0.15","1708","1","2","""event"",""trial"",""time""
""fullscreenenter"",""1"",""3105""
""blur"",""10"",""65462""
""focus"",""10"",""67259""
","""event"",""trial"",""time""
""blur"",""10"",""65462""
","""event"",""trial"",""time""
""focus"",""10"",""67259""
","""event"",""trial"",""time""
""fullscreenenter"",""1"",""3105""
","
","","","","","","1410.1000000238419","<p> The kids are happy.<div style='float: left;'><img src='images/i4.png' width = '640' height = '360'></img>","","0","instructions","","","","","","","","","","","","","",""
"learning-instructions","24","180005","0.0-8.0-0.0-0.16","1708","1","2","""event"",""trial"",""time""
""fullscreenenter"",""1"",""3105""
""blur"",""10"",""65462""
""focus"",""10"",""67259""
","""event"",""trial"",""time""
""blur"",""10"",""65462""
","""event"",""trial"",""time""
""focus"",""10"",""67259""
","""event"",""trial"",""time""
""fullscreenenter"",""1"",""3105""
","
","","","","","","1865.6999999284744","<p> The kids are sad.<div style='float: left;'><img src='images/i5.png' width = '640' height = '360'></img>","","0","instructions","","","","","","","","","","","","","",""
"learning-instructions","25","182247","0.0-8.0-0.0-0.17","1708","1","2","""event"",""trial"",""time""
""fullscreenenter"",""1"",""3105""
""blur"",""10"",""65462""
""focus"",""10"",""67259""
","""event"",""trial"",""time""
""blur"",""10"",""65462""
","""event"",""trial"",""time""
""focus"",""10"",""67259""
","""event"",""trial"",""time""
""fullscreenenter"",""1"",""3105""
","
","","","","","","79.20000004768372","<p> The kids are happy.<div style='float: left;'><img src='images/i6.png' width = '640' height = '360'></img>","","0","instructions","","","","","","","","","","","","","",""
"learning-instructions","26","189593","0.0-8.0-0.0-0.18","1708","1","2","""event"",""trial"",""time""
""fullscreenenter"",""1"",""3105""
""blur"",""10"",""65462""
""focus"",""10"",""67259""
","""event"",""trial"",""time""
""blur"",""10"",""65462""
","""event"",""trial"",""time""
""focus"",""10"",""67259""
","""event"",""trial"",""time""
""fullscreenenter"",""1"",""3105""
","
","","","","","","81.89999997615814","<p> As you can see, selecting that park for the soccer ball made the kids happy most of the time, but not all the time.","","0","instructions","","","","","","","","","","","","","",""
"learning-instructions","27","195773","0.0-8.0-0.0-0.19","1708","1","2","""event"",""trial"",""time""
""fullscreenenter"",""1"",""3105""
""blur"",""10"",""65462""
""focus"",""10"",""67259""
","""event"",""trial"",""time""
""blur"",""10"",""65462""
","""event"",""trial"",""time""
""focus"",""10"",""67259""
","""event"",""trial"",""time""
""fullscreenenter"",""1"",""3105""
","
","","","","","","177.60000002384186","<p> Now let's see what happens if you choose a DIFFERENT park for the soccer ball 5 times.","","0","instructions","","","","","","","","","","","","","",""
"learning-instructions","28","198111","0.0-8.0-0.0-0.20","1708","1","2","""event"",""trial"",""time""
""fullscreenenter"",""1"",""3105""
""blur"",""10"",""65462""
""focus"",""10"",""67259""
","""event"",""trial"",""time""
""blur"",""10"",""65462""
","""event"",""trial"",""time""
""focus"",""10"",""67259""
","""event"",""trial"",""time""
""fullscreenenter"",""1"",""3105""
","
","","","","","","136","<p> The kids are sad.<div style='float: left;'><img src='images/i7.png' width = '640' height = '360'></img>","","0","instructions","","","","","","","","","","","","","",""
"learning-instructions","29","200418","0.0-8.0-0.0-0.21","1708","1","2","""event"",""trial"",""time""
""fullscreenenter"",""1"",""3105""
""blur"",""10"",""65462""
""focus"",""10"",""67259""
","""event"",""trial"",""time""
""blur"",""10"",""65462""
","""event"",""trial"",""time""
""focus"",""10"",""67259""
","""event"",""trial"",""time""
""fullscreenenter"",""1"",""3105""
","
","","","","","","103.80000007152557","<p> The kids are sad.<div style='float: left;'><img src='images/i8.png' width = '640' height = '360'></img>","","0","instructions","","","","","","","","","","","","","",""
"learning-instructions","30","203205","0.0-8.0-0.0-0.22","1708","1","2","""event"",""trial"",""time""
""fullscreenenter"",""1"",""3105""
""blur"",""10"",""65462""
""focus"",""10"",""67259""
","""event"",""trial"",""time""
""blur"",""10"",""65462""
","""event"",""trial"",""time""
""focus"",""10"",""67259""
","""event"",""trial"",""time""
""fullscreenenter"",""1"",""3105""
","
","","","","","","626.6000000238419","<p> The kids are happy.<div style='float: left;'><img src='images/i9.png' width = '640' height = '360'></img>","","0","instructions","","","","","","","","","","","","","",""
"learning-instructions","31","205578","0.0-8.0-0.0-0.23","1708","1","2","""event"",""trial"",""time""
""fullscreenenter"",""1"",""3105""
""blur"",""10"",""65462""
""focus"",""10"",""67259""
","""event"",""trial"",""time""
""blur"",""10"",""65462""
","""event"",""trial"",""time""
""focus"",""10"",""67259""
","""event"",""trial"",""time""
""fullscreenenter"",""1"",""3105""
","
","","","","","","172.89999997615814","<p> The kids are sad.<div style='float: left;'><img src='images/i10.png' width = '640' height = '360'></img>","","0","instructions","","","","","","","","","","","","","",""
"learning-instructions","32","207832","0.0-8.0-0.0-0.24","1708","1","2","""event"",""trial"",""time""
""fullscreenenter"",""1"",""3105""
""blur"",""10"",""65462""
""focus"",""10"",""67259""
","""event"",""trial"",""time""
""blur"",""10"",""65462""
","""event"",""trial"",""time""
""focus"",""10"",""67259""
","""event"",""trial"",""time""
""fullscreenenter"",""1"",""3105""
","
","","","","","","52.39999997615814","<p> The kids are sad.<div style='float: left;'><img src='images/i11.png' width = '640' height = '360'></img>","","0","instructions","","","","","","","","","","","","","",""
"learning-instructions","33","217906","0.0-8.0-0.0-0.25","1708","1","2","""event"",""trial"",""time""
""fullscreenenter"",""1"",""3105""
""blur"",""10"",""65462""
""focus"",""10"",""67259""
","""event"",""trial"",""time""
""blur"",""10"",""65462""
","""event"",""trial"",""time""
""focus"",""10"",""67259""
","""event"",""trial"",""time""
""fullscreenenter"",""1"",""3105""
","
","","","","","","1958","<p> As you can see, selecting the wrong park for the soccer ball made the kids sad most of the time, but not all the time.","","0","instructions","","","","","","","","","","","","","",""
"learning-instructions","34","227135","0.0-8.0-0.0-0.26","1708","1","2","""event"",""trial"",""time""
""fullscreenenter"",""1"",""3105""
""blur"",""10"",""65462""
""focus"",""10"",""67259""
","""event"",""trial"",""time""
""blur"",""10"",""65462""
","""event"",""trial"",""time""
""focus"",""10"",""67259""
","""event"",""trial"",""time""
""fullscreenenter"",""1"",""3105""
","
","","","","","","116.30000007152557","<p> The different pieces of equipment belong in different parks. You need to try to learn which is the best park for each piece of equipment.","","0","instructions","","","","","","","","","","","","","",""
"learning-instructions","35","244540","0.0-8.0-0.0-0.27","1708","1","2","""event"",""trial"",""time""
""fullscreenenter"",""1"",""3105""
""blur"",""10"",""65462""
""focus"",""10"",""67259""
","""event"",""trial"",""time""
""blur"",""10"",""65462""
","""event"",""trial"",""time""
""focus"",""10"",""67259""
","""event"",""trial"",""time""
""fullscreenenter"",""1"",""3105""
","
","","","","","","1023.9000000953674","<p> Try to choose the best park for each piece of equipment, because you will <b> WIN </b> 1 point for each time you make the kids happy and <b>LOSE</b> 1 point for each time you make them sad. </p><p> Remember, if you make the best choice, you will win 1 point most of the time, but not all the time. </p>","","0","instructions","","","","","","","","","","","","","",""
"learning-instructions","36","250204","0.0-8.0-0.0-0.28","1708","1","2","""event"",""trial"",""time""
""fullscreenenter"",""1"",""3105""
""blur"",""10"",""65462""
""focus"",""10"",""67259""
","""event"",""trial"",""time""
""blur"",""10"",""65462""
","""event"",""trial"",""time""
""focus"",""10"",""67259""
","""event"",""trial"",""time""
""fullscreenenter"",""1"",""3105""
","
","","","","","","186","<p> This is just a practice round, but in the real game, your bonus payment will depend on your total number of points.","","0","instructions","","","","","","","","","","","","","",""
"learning-instructions","37","260552","0.0-8.0-0.0-0.29","1708","1","2","""event"",""trial"",""time""
""fullscreenenter"",""1"",""3105""
""blur"",""10"",""65462""
""focus"",""10"",""67259""
","""event"",""trial"",""time""
""blur"",""10"",""65462""
","""event"",""trial"",""time""
""focus"",""10"",""67259""
","""event"",""trial"",""time""
""fullscreenenter"",""1"",""3105""
","
","","","","","","21","<p> The position where each park appears will change throughout the game. </p><p> The position where the park appears <i> does not </i> influence how likely the kids are to be happy or sad. </p>","","0","instructions","","","","","","","","","","","","","",""
"learning-instructions","38","271552","0.0-8.0-0.0-0.30","1708","1","2","""event"",""trial"",""time""
""fullscreenenter"",""1"",""3105""
""blur"",""10"",""65462""
""focus"",""10"",""67259""
","""event"",""trial"",""time""
""blur"",""10"",""65462""
","""event"",""trial"",""time""
""focus"",""10"",""67259""
","""event"",""trial"",""time""
""fullscreenenter"",""1"",""3105""
","
","","","","","","188.79999995231628","<p> You will have 4 seconds to make each choice. Try to respond before time runs out! </p><p> You will lose 1 point each time you do not make a response. </p>","","0","instructions","","","","","","","","","","","","","",""
"learning-instructions","39","281239","0.0-8.0-0.0-0.31","1708","1","2","""event"",""trial"",""time""
""fullscreenenter"",""1"",""3105""
""blur"",""10"",""65462""
""focus"",""10"",""67259""
","""event"",""trial"",""time""
""blur"",""10"",""65462""
","""event"",""trial"",""time""
""focus"",""10"",""67259""
","""event"",""trial"",""time""
""fullscreenenter"",""1"",""3105""
","
","","","","","","2902.4000000953674","<p> Remember, you should use the 1, 2, and 3 keys to select the park for each piece of equipment. </p><br><div class=""choice-instructions-grid""> <div class=""choice-option""><img src=""images/park1.png"" class=""choice-option-img"" stage=""instructions"" position=""0"" ><div class=""choice-option-text""> Press ""1."" </div></div><div class=""choice-option""><img src=""images/park2.png"" class=""choice-option-img"" stage=""instructions"" position=""1"" ><div class=""choice-option-text""> Press ""2."" </div></div><div class=""choice-option""><img src=""images/park3.png"" class=""choice-option-img"" stage=""instructions"" position=""2"" ><div class=""choice-option-text""> Press ""3."" </div></div></div>","","0","instructions","","","","","","","","","","","","","",""
"html-button-response","40","282729","0.0-8.0-1.0","1708","1","2","""event"",""trial"",""time""
""fullscreenenter"",""1"",""3105""
""blur"",""10"",""65462""
""focus"",""10"",""67259""
","""event"",""trial"",""time""
""blur"",""10"",""65462""
","""event"",""trial"",""time""
""focus"",""10"",""67259""
","""event"",""trial"",""time""
""fullscreenenter"",""1"",""3105""
","
","","","","","","1387.5","<p> Ready to practice? </p>","0","","","","","","","","","","","","","","","",""
"html-keyboard-response","41","283335","0.0-8.0-2.0-0.0","1708","1","2","""event"",""trial"",""time""
""fullscreenenter"",""1"",""3105""
""blur"",""10"",""65462""
""focus"",""10"",""67259""
","""event"",""trial"",""time""
""blur"",""10"",""65462""
","""event"",""trial"",""time""
""focus"",""10"",""67259""
","""event"",""trial"",""time""
""fullscreenenter"",""1"",""3105""
","
","","","","","","null","<div style=""font-size:60px;"">+</div>","null","","fixation","","","","","","","","","","","","","",""
"learning-trial","42","287345","0.0-8.0-2.0-1.0","1708","1","2","""event"",""trial"",""time""
""fullscreenenter"",""1"",""3105""
""blur"",""10"",""65462""
""focus"",""10"",""67259""
","""event"",""trial"",""time""
""blur"",""10"",""65462""
","""event"",""trial"",""time""
""focus"",""10"",""67259""
","""event"",""trial"",""time""
""fullscreenenter"",""1"",""3105""
","
","","","","","","null","images/racket1.png","","","practice","images/park1.png","images/park2.png","images/park3.png","[0,1,2]","2","2","null","null","-1","practice","","","",""
"html-keyboard-response","43","287847","0.0-8.0-2.0-0.1","1708","1","2","""event"",""trial"",""time""
""fullscreenenter"",""1"",""3105""
""blur"",""10"",""65462""
""focus"",""10"",""67259""
","""event"",""trial"",""time""
""blur"",""10"",""65462""
","""event"",""trial"",""time""
""focus"",""10"",""67259""
","""event"",""trial"",""time""
""fullscreenenter"",""1"",""3105""
","
","","","","","","null","<div style=""font-size:60px;"">+</div>","null","","fixation","","","","","","","","","","","","","",""
"learning-trial","44","291849","0.0-8.0-2.0-1.1","1708","1","2","""event"",""trial"",""time""
""fullscreenenter"",""1"",""3105""
""blur"",""10"",""65462""
""focus"",""10"",""67259""
","""event"",""trial"",""time""
""blur"",""10"",""65462""
","""event"",""trial"",""time""
""focus"",""10"",""67259""
","""event"",""trial"",""time""
""fullscreenenter"",""1"",""3105""
","
","","","","","","3106.6999999284744","images/racket1.png","","","practice","images/park3.png","images/park2.png","images/park1.png","[2,1,0]","2","0","2","images/park2.png","-1","practice","","","",""
"html-keyboard-response","45","292352","0.0-8.0-2.0-0.2","1708","1","2","""event"",""trial"",""time""
""fullscreenenter"",""1"",""3105""
""blur"",""10"",""65462""
""focus"",""10"",""67259""
","""event"",""trial"",""time""
""blur"",""10"",""65462""
","""event"",""trial"",""time""
""focus"",""10"",""67259""
","""event"",""trial"",""time""
""fullscreenenter"",""1"",""3105""
","
","","","","","","null","<div style=""font-size:60px;"">+</div>","null","","fixation","","","","","","","","","","","","","",""
"learning-trial","46","296354","0.0-8.0-2.0-1.2","1708","1","2","""event"",""trial"",""time""
""fullscreenenter"",""1"",""3105""
""blur"",""10"",""65462""
""focus"",""10"",""67259""
","""event"",""trial"",""time""
""blur"",""10"",""65462""
","""event"",""trial"",""time""
""focus"",""10"",""67259""
","""event"",""trial"",""time""
""fullscreenenter"",""1"",""3105""
","
","","","","","","2087.600000023842","images/ball3.png","","","practice","images/park2.png","images/park1.png","images/park3.png","[1,0,2]","1","0","2","images/park1.png","-1","practice","","","",""
"html-keyboard-response","47","296856","0.0-8.0-2.0-0.3","1708","1","2","""event"",""trial"",""time""
""fullscreenenter"",""1"",""3105""
""blur"",""10"",""65462""
""focus"",""10"",""67259""
","""event"",""trial"",""time""
""blur"",""10"",""65462""
","""event"",""trial"",""time""
""focus"",""10"",""67259""
","""event"",""trial"",""time""
""fullscreenenter"",""1"",""3105""
","
","","","","","","null","<div style=""font-size:60px;"">+</div>","null","","fixation","","","","","","","","","","","","","",""
"learning-trial","48","300859","0.0-8.0-2.0-1.3","1708","1","2","""event"",""trial"",""time""
""fullscreenenter"",""1"",""3105""
""blur"",""10"",""65462""
""focus"",""10"",""67259""
","""event"",""trial"",""time""
""blur"",""10"",""65462""
","""event"",""trial"",""time""
""focus"",""10"",""67259""
","""event"",""trial"",""time""
""fullscreenenter"",""1"",""3105""
","
","","","","","","1982.1000000238419","images/racket4.png","","","practice","images/park3.png","images/park2.png","images/park1.png","[2,1,0]","1","1","1","images/park3.png","-1","practice","","","",""
"html-keyboard-response","49","301361","0.0-8.0-2.0-0.4","1708","1","2","""event"",""trial"",""time""
""fullscreenenter"",""1"",""3105""
""blur"",""10"",""65462""
""focus"",""10"",""67259""
","""event"",""trial"",""time""
""blur"",""10"",""65462""
","""event"",""trial"",""time""
""focus"",""10"",""67259""
","""event"",""trial"",""time""
""fullscreenenter"",""1"",""3105""
","
","","","","","","null","<div style=""font-size:60px;"">+</div>","null","","fixation","","","","","","","","","","","","","",""
"learning-trial","50","305364","0.0-8.0-2.0-1.4","1708","1","2","""event"",""trial"",""time""
""fullscreenenter"",""1"",""3105""
""blur"",""10"",""65462""
""focus"",""10"",""67259""
","""event"",""trial"",""time""
""blur"",""10"",""65462""
","""event"",""trial"",""time""
""focus"",""10"",""67259""
","""event"",""trial"",""time""
""fullscreenenter"",""1"",""3105""
","
","","","","","","245","images/ball4.png","","","practice","images/park1.png","images/park3.png","images/park2.png","[0,2,1]","0","0","2","images/park3.png","-1","practice","","","",""
"html-keyboard-response","51","305868","0.0-8.0-2.0-0.5","1708","1","2","""event"",""trial"",""time""
""fullscreenenter"",""1"",""3105""
""blur"",""10"",""65462""
""focus"",""10"",""67259""
","""event"",""trial"",""time""
""blur"",""10"",""65462""
","""event"",""trial"",""time""
""focus"",""10"",""67259""
","""event"",""trial"",""time""
""fullscreenenter"",""1"",""3105""
","
","","","","","","null","<div style=""font-size:60px;"">+</div>","null","","fixation","","","","","","","","","","","","","",""
"learning-trial","52","309873","0.0-8.0-2.0-1.5","1708","1","2","""event"",""trial"",""time""
""fullscreenenter"",""1"",""3105""
""blur"",""10"",""65462""
""focus"",""10"",""67259""
","""event"",""trial"",""time""
""blur"",""10"",""65462""
","""event"",""trial"",""time""
""focus"",""10"",""67259""
","""event"",""trial"",""time""
""fullscreenenter"",""1"",""3105""
","
","","","","","","102","images/racket3.png","","","practice","images/park3.png","images/park1.png","images/park2.png","[2,0,1]","0","1","2","images/park1.png","-1","practice","","","",""
"html-keyboard-response","53","310375","0.0-8.0-2.0-0.6","1708","1","2","""event"",""trial"",""time""
""fullscreenenter"",""1"",""3105""
""blur"",""10"",""65462""
""focus"",""10"",""67259""
","""event"",""trial"",""time""
""blur"",""10"",""65462""
","""event"",""trial"",""time""
""focus"",""10"",""67259""
","""event"",""trial"",""time""
""fullscreenenter"",""1"",""3105""
","
","","","","","","null","<div style=""font-size:60px;"">+</div>","null","","fixation","","","","","","","","","","","","","",""
"learning-trial","54","314378","0.0-8.0-2.0-1.6","1708","1","2","""event"",""trial"",""time""
""fullscreenenter"",""1"",""3105""
""blur"",""10"",""65462""
""focus"",""10"",""67259""
","""event"",""trial"",""time""
""blur"",""10"",""65462""
","""event"",""trial"",""time""
""focus"",""10"",""67259""
","""event"",""trial"",""time""
""fullscreenenter"",""1"",""3105""
","
","","","","","","186.5","images/racket3.png","","","practice","images/park2.png","images/park3.png","images/park1.png","[1,2,0]","0","2","2","images/park3.png","-1","practice","","","",""
"html-keyboard-response","55","314882","0.0-8.0-2.0-0.7","1708","1","2","""event"",""trial"",""time""
""fullscreenenter"",""1"",""3105""
""blur"",""10"",""65462""
""focus"",""10"",""67259""
","""event"",""trial"",""time""
""blur"",""10"",""65462""
","""event"",""trial"",""time""
""focus"",""10"",""67259""
","""event"",""trial"",""time""
""fullscreenenter"",""1"",""3105""
","
","","","","","","null","<div style=""font-size:60px;"">+</div>","null","","fixation","","","","","","","","","","","","","",""
"learning-trial","56","318885","0.0-8.0-2.0-1.7","1708","1","2","""event"",""trial"",""time""
""fullscreenenter"",""1"",""3105""
""blur"",""10"",""65462""
""focus"",""10"",""67259""
","""event"",""trial"",""time""
""blur"",""10"",""65462""
","""event"",""trial"",""time""
""focus"",""10"",""67259""
","""event"",""trial"",""time""
""fullscreenenter"",""1"",""3105""
","
","","","","","","9.700000047683716","images/ball2.png","","","practice","images/park2.png","images/park3.png","images/park1.png","[1,2,0]","2","1","2","images/park3.png","1","practice","","","",""
"html-keyboard-response","57","319387","0.0-8.0-2.0-0.8","1708","1","2","""event"",""trial"",""time""
""fullscreenenter"",""1"",""3105""
""blur"",""10"",""65462""
""focus"",""10"",""67259""
","""event"",""trial"",""time""
""blur"",""10"",""65462""
","""event"",""trial"",""time""
""focus"",""10"",""67259""
","""event"",""trial"",""time""
""fullscreenenter"",""1"",""3105""
","
","","","","","","null","<div style=""font-size:60px;"">+</div>","null","","fixation","","","","","","","","","","","","","",""
"learning-trial","58","323390","0.0-8.0-2.0-1.8","1708","1","2","""event"",""trial"",""time""
""fullscreenenter"",""1"",""3105""
""blur"",""10"",""65462""
""focus"",""10"",""67259""
","""event"",""trial"",""time""
""blur"",""10"",""65462""
","""event"",""trial"",""time""
""focus"",""10"",""67259""
","""event"",""trial"",""time""
""fullscreenenter"",""1"",""3105""
","
","","","","","","39.799999952316284","images/ball4.png","","","practice","images/park3.png","images/park1.png","images/park2.png","[2,0,1]","0","1","3","images/park2.png","-1","practice","","","",""
"html-keyboard-response","59","323891","0.0-8.0-2.0-0.9","1708","1","2","""event"",""trial"",""time""
""fullscreenenter"",""1"",""3105""
""blur"",""10"",""65462""
""focus"",""10"",""67259""
","""event"",""trial"",""time""
""blur"",""10"",""65462""
","""event"",""trial"",""time""
""focus"",""10"",""67259""
","""event"",""trial"",""time""
""fullscreenenter"",""1"",""3105""
","
","","","","","","null","<div style=""font-size:60px;"">+</div>","null","","fixation","","","","","","","","","","","","","",""
"learning-trial","60","327895","0.0-8.0-2.0-1.9","1708","1","2","""event"",""trial"",""time""
""fullscreenenter"",""1"",""3105""
""blur"",""10"",""65462""
""focus"",""10"",""67259""
","""event"",""trial"",""time""
""blur"",""10"",""65462""
","""event"",""trial"",""time""
""focus"",""10"",""67259""
","""event"",""trial"",""time""
""fullscreenenter"",""1"",""3105""
","
","","","","","","327.2000000476837","images/ball3.png","","","practice","images/park3.png","images/park2.png","images/park1.png","[2,1,0]","1","1","1","images/park3.png","-1","practice","","","",""
"html-keyboard-response","61","328398","0.0-8.0-2.0-0.10","1708","1","2","""event"",""trial"",""time""
""fullscreenenter"",""1"",""3105""
""blur"",""10"",""65462""
""focus"",""10"",""67259""
","""event"",""trial"",""time""
""blur"",""10"",""65462""
","""event"",""trial"",""time""
""focus"",""10"",""67259""
","""event"",""trial"",""time""
""fullscreenenter"",""1"",""3105""
","
","","","","","","null","<div style=""font-size:60px;"">+</div>","null","","fixation","","","","","","","","","","","","","",""
"learning-trial","62","332401","0.0-8.0-2.0-1.10","1708","1","2","""event"",""trial"",""time""
""fullscreenenter"",""1"",""3105""
""blur"",""10"",""65462""
""focus"",""10"",""67259""
","""event"",""trial"",""time""
""blur"",""10"",""65462""
","""event"",""trial"",""time""
""focus"",""10"",""67259""
","""event"",""trial"",""time""
""fullscreenenter"",""1"",""3105""
","
","","","","","","131","images/racket4.png","","","practice","images/park2.png","images/park1.png","images/park3.png","[1,0,2]","1","0","2","images/park1.png","-1","practice","","","",""
"html-keyboard-response","63","332902","0.0-8.0-2.0-0.11","1708","1","2","""event"",""trial"",""time""
""fullscreenenter"",""1"",""3105""
""blur"",""10"",""65462""
""focus"",""10"",""67259""
","""event"",""trial"",""time""
""blur"",""10"",""65462""
","""event"",""trial"",""time""
""focus"",""10"",""67259""
","""event"",""trial"",""time""
""fullscreenenter"",""1"",""3105""
","
","","","","","","null","<div style=""font-size:60px;"">+</div>","null","","fixation","","","","","","","","","","","","","",""
"learning-trial","64","336905","0.0-8.0-2.0-1.11","1708","1","2","""event"",""trial"",""time""
""fullscreenenter"",""1"",""3105""
""blur"",""10"",""65462""
""focus"",""10"",""67259""
","""event"",""trial"",""time""
""blur"",""10"",""65462""
","""event"",""trial"",""time""
""focus"",""10"",""67259""
","""event"",""trial"",""time""
""fullscreenenter"",""1"",""3105""
","
","","","","","","46.700000047683716","images/ball2.png","","","practice","images/park2.png","images/park1.png","images/park3.png","[1,0,2]","2","2","1","images/park2.png","-1","practice","","","",""
"html-button-response","65","340100","0.0-8.0-3.0","1708","1","2","""event"",""trial"",""time""
""fullscreenenter"",""1"",""3105""
""blur"",""10"",""65462""
""focus"",""10"",""67259""
","""event"",""trial"",""time""
""blur"",""10"",""65462""
","""event"",""trial"",""time""
""focus"",""10"",""67259""
","""event"",""trial"",""time""
""fullscreenenter"",""1"",""3105""
","
","","","","","","3192.399999976158","<p> You earned -10 points in the practice round! </p>","0","","break","","","","","","","","","","","","","",""
"learning-instructions","66","349887","0.0-8.0-4.0-0.0","1708","1","2","""event"",""trial"",""time""
""fullscreenenter"",""1"",""3105""
""blur"",""10"",""65462""
""focus"",""10"",""67259""
","""event"",""trial"",""time""
""blur"",""10"",""65462""
","""event"",""trial"",""time""
""focus"",""10"",""67259""
","""event"",""trial"",""time""
""fullscreenenter"",""1"",""3105""
","
","","","","","","1960.3999999761581","<p> It's almost time to start the real game. </p><p> Before you start, we're going to ask you a few questions about how the game works. </p>","","0","instructions","","","","","","","","","","","","","",""
"preload","67","353317","0.0-8.0-5.0","1708","1","2","""event"",""trial"",""time""
""fullscreenenter"",""1"",""3105""
""blur"",""10"",""65462""
""focus"",""10"",""67259""
","""event"",""trial"",""time""
""blur"",""10"",""65462""
","""event"",""trial"",""time""
""focus"",""10"",""67259""
","""event"",""trial"",""time""
""fullscreenenter"",""1"",""3105""
","
","true","false","[]","[]","[]","","","","","","","","","","","","","","","","","","",""
"comp-q","68","362509","0.0-8.0-6.0-0.0","1708","1","2","""event"",""trial"",""time""
""fullscreenenter"",""1"",""3105""
""blur"",""10"",""65462""
""focus"",""10"",""67259""
","""event"",""trial"",""time""
""blur"",""10"",""65462""
","""event"",""trial"",""time""
""focus"",""10"",""67259""
","""event"",""trial"",""time""
""fullscreenenter"",""1"",""3105""
","
","","","","","","3738","<p> <b> True or False? </b> </p><p> If you choose the best option, you will always earn 1 point. </p>","","0","comp_question","","","","","","","","","","","false","","",""
"comp-q","69","369159","0.0-8.0-6.0-1.0","1708","1","2","""event"",""trial"",""time""
""fullscreenenter"",""1"",""3105""
""blur"",""10"",""65462""
""focus"",""10"",""67259""
","""event"",""trial"",""time""
""blur"",""10"",""65462""
","""event"",""trial"",""time""
""focus"",""10"",""67259""
","""event"",""trial"",""time""
""fullscreenenter"",""1"",""3105""
","
","","","","","","1100.4000000953674","<p><b> Incorrect. </b> Sometimes you will lose 1 point, even if you choose the best option. </p>","","0","comp_answer","","","","","","","","","","","","","",""
"comp-q","70","374520","0.0-8.0-6.0-0.1","1708","1","2","""event"",""trial"",""time""
""fullscreenenter"",""1"",""3105""
""blur"",""10"",""65462""
""focus"",""10"",""67259""
","""event"",""trial"",""time""
""blur"",""10"",""65462""
","""event"",""trial"",""time""
""focus"",""10"",""67259""
","""event"",""trial"",""time""
""fullscreenenter"",""1"",""3105""
","
","","","","","","731.6000000238419","<p> <b> True or False? </b> </p><p> You will have as much time as you want to make each choice. </p>","","1","comp_question","","","","","","","","","","","true","","",""
"comp-q","71","380332","0.0-8.0-6.0-1.1","1708","1","2","""event"",""trial"",""time""
""fullscreenenter"",""1"",""3105""
""blur"",""10"",""65462""
""focus"",""10"",""67259""
","""event"",""trial"",""time""
""blur"",""10"",""65462""
","""event"",""trial"",""time""
""focus"",""10"",""67259""
","""event"",""trial"",""time""
""fullscreenenter"",""1"",""3105""
","
","","","","","","1000.2999999523163","<p> <b> That's right! </b> You will only have 4 seconds to make each choice. </p>","","0","comp_answer","","","","","","","","","","","","","",""
"comp-q","72","389249","0.0-8.0-6.0-0.2","1708","1","2","""event"",""trial"",""time""
""fullscreenenter"",""1"",""3105""
""blur"",""10"",""65462""
""focus"",""10"",""67259""
","""event"",""trial"",""time""
""blur"",""10"",""65462""
","""event"",""trial"",""time""
""focus"",""10"",""67259""
","""event"",""trial"",""time""
""fullscreenenter"",""1"",""3105""
","
","","","","","","2764.100000023842","<p> <b> True or False? </b> </p><p> You should use the '1', '2', and '3' keys to make your choices. </p>","","0","comp_question","","","","","","","","","","","true","","",""
"comp-q","73","397891","0.0-8.0-6.0-1.2","1708","1","2","""event"",""trial"",""time""
""fullscreenenter"",""1"",""3105""
""blur"",""10"",""65462""
""focus"",""10"",""67259""
","""event"",""trial"",""time""
""blur"",""10"",""65462""
","""event"",""trial"",""time""
""focus"",""10"",""67259""
","""event"",""trial"",""time""
""fullscreenenter"",""1"",""3105""
","
","","","","","","3795.7999999523163","<p> <b> That's right! </b> You should use the '1', '2', and '3' keys to make each choice. </p>","","0","comp_answer","","","","","","","","","","","","","",""
"learning-instructions","74","407676","0.0-8.0-7.0-0.0","1708","1","2","""event"",""trial"",""time""
""fullscreenenter"",""1"",""3105""
""blur"",""10"",""65462""
""focus"",""10"",""67259""
","""event"",""trial"",""time""
""blur"",""10"",""65462""
","""event"",""trial"",""time""
""focus"",""10"",""67259""
","""event"",""trial"",""time""
""fullscreenenter"",""1"",""3105""
","
","","","","","","1302.7999999523163","<p> It's now time to start the real game. </p>Do your best, because the points you earn in the next rounds will influence your bonus payment. </p>","","0","instructions","","","","","","","","","","","","","",""
"preload","75","410799","0.0-9.0-0.0","1708","1","2","""event"",""trial"",""time""
""fullscreenenter"",""1"",""3105""
""blur"",""10"",""65462""
""focus"",""10"",""67259""
","""event"",""trial"",""time""
""blur"",""10"",""65462""
","""event"",""trial"",""time""
""focus"",""10"",""67259""
","""event"",""trial"",""time""
""fullscreenenter"",""1"",""3105""
","
","true","false","[]","[]","[]","","","","","","","","","","","","","","","","","","",""
"learning-instructions","76","420388","0.0-9.0-1.0-0.0","1708","1","2","""event"",""trial"",""time""
""fullscreenenter"",""1"",""3105""
""blur"",""10"",""65462""
""focus"",""10"",""67259""
""blur"",""77"",""425619""
""focus"",""77"",""431947""
","""event"",""trial"",""time""
""blur"",""10"",""65462""
""blur"",""77"",""425619""
","""event"",""trial"",""time""
""focus"",""10"",""67259""
""focus"",""77"",""431947""
","""event"",""trial"",""time""
""fullscreenenter"",""1"",""3105""
","
","","","","","","1261.8999999761581","<p> Your goal in this round is to travel the world by putting fuel into different vehicles. </p><p> To travel, you will need to put fuel into many different vehicles. </p></div>","","0","instructions","","","","","","","","","","","","","",""
"learning-instructions","77","431977","0.0-9.0-1.0-0.1","1708","1","2","""event"",""trial"",""time""
""fullscreenenter"",""1"",""3105""
""blur"",""10"",""65462""
""focus"",""10"",""67259""
""blur"",""77"",""425619""
""focus"",""77"",""431947""
","""event"",""trial"",""time""
""blur"",""10"",""65462""
""blur"",""77"",""425619""
","""event"",""trial"",""time""
""focus"",""10"",""67259""
""focus"",""77"",""431947""
","""event"",""trial"",""time""
""fullscreenenter"",""1"",""3105""
","
","","","","","","2806.600000023842","<p> On each turn, you will see a picture of one of your vehicles and three different types of fuel.  </p><p> You need to select which kind of fuel to use.  </p>","","0","instructions","","","","","","","","","","","","","",""
"learning-instructions","78","440115","0.0-9.0-1.0-0.2","1708","1","2","""event"",""trial"",""time""
""fullscreenenter"",""1"",""3105""
""blur"",""10"",""65462""
""focus"",""10"",""67259""
""blur"",""77"",""425619""
""focus"",""77"",""431947""
","""event"",""trial"",""time""
""blur"",""10"",""65462""
""blur"",""77"",""425619""
","""event"",""trial"",""time""
""focus"",""10"",""67259""
""focus"",""77"",""431947""
","""event"",""trial"",""time""
""fullscreenenter"",""1"",""3105""
","
","","","","","","1274","<p> You can select the fuel on the left by pressing 1, the fuel in the middle by pressing 2, and the fuel on the right by pressing 3. </p><br><div class=""choice-instructions-grid""> <div class=""choice-option""><img src=""images/vehicles_choice1.png"" class=""choice-option-img"" stage=""instructions"" position=""0"" ><div class=""choice-option-text""> Press ""1."" </div></div><div class=""choice-option""><img src=""images/vehicles_choice2.png"" class=""choice-option-img"" stage=""instructions"" position=""1"" ><div class=""choice-option-text""> Press ""2."" </div></div><div class=""choice-option""><img src=""images/vehicles_choice3.png"" class=""choice-option-img"" stage=""instructions"" position=""2"" ><div class=""choice-option-text""> Press ""3."" </div></div></div>","","0","instructions","","","","","","","","","","","","","",""
"learning-instructions","79","445875","0.0-9.0-1.0-0.3","1708","1","2","""event"",""trial"",""time""
""fullscreenenter"",""1"",""3105""
""blur"",""10"",""65462""
""focus"",""10"",""67259""
""blur"",""77"",""425619""
""focus"",""77"",""431947""
","""event"",""trial"",""time""
""blur"",""10"",""65462""
""blur"",""77"",""425619""
","""event"",""trial"",""time""
""focus"",""10"",""67259""
""focus"",""77"",""431947""
","""event"",""trial"",""time""
""fullscreenenter"",""1"",""3105""
","
","","","","","","531.8000000715256","<p> If the fuel you chose works for that vehicle, it will start, and </p><p> you will get to travel. </p><div style='float: center;'><img src='images/check.png' width = '200' height = '200'></img>","","0","instructions","","","","","","","","","","","","","",""
"learning-instructions","80","450738","0.0-9.0-1.0-0.4","1708","1","2","""event"",""trial"",""time""
""fullscreenenter"",""1"",""3105""
""blur"",""10"",""65462""
""focus"",""10"",""67259""
""blur"",""77"",""425619""
""focus"",""77"",""431947""
","""event"",""trial"",""time""
""blur"",""10"",""65462""
""blur"",""77"",""425619""
","""event"",""trial"",""time""
""focus"",""10"",""67259""
""focus"",""77"",""431947""
","""event"",""trial"",""time""
""fullscreenenter"",""1"",""3105""
","
","","","","","","326.60000002384186","<p> But, if the fuel you chose does not work, your vehicle will not move. </p><div style='float: center;'><img src='images/x.png' width = '200' height = '200'></img>","","0","instructions","","","","","","","","","","","","","",""
"learning-instructions","81","461516","0.0-9.0-1.0-0.5","1708","1","2","""event"",""trial"",""time""
""fullscreenenter"",""1"",""3105""
""blur"",""10"",""65462""
""focus"",""10"",""67259""
""blur"",""77"",""425619""
""focus"",""77"",""431947""
","""event"",""trial"",""time""
""blur"",""10"",""65462""
""blur"",""77"",""425619""
","""event"",""trial"",""time""
""focus"",""10"",""67259""
""focus"",""77"",""431947""
","""event"",""trial"",""time""
""fullscreenenter"",""1"",""3105""
","
","","","","","","98.69999992847443","<p> Importantly, each vehicle has a fuel that works best for it. </p><p> If you choose the fuel that works best for the vehicle, it will be more likely to start. </p>","","0","instructions","","","","","","","","","","","","","",""
"learning-instructions","82","472602","0.0-9.0-1.0-0.6","1708","1","2","""event"",""trial"",""time""
""fullscreenenter"",""1"",""3105""
""blur"",""10"",""65462""
""focus"",""10"",""67259""
""blur"",""77"",""425619""
""focus"",""77"",""431947""
","""event"",""trial"",""time""
""blur"",""10"",""65462""
""blur"",""77"",""425619""
","""event"",""trial"",""time""
""focus"",""10"",""67259""
""focus"",""77"",""431947""
","""event"",""trial"",""time""
""fullscreenenter"",""1"",""3105""
","
","","","","","","880.2000000476837","<p> However, even if you choose the best fuel for the vehicle, it may still not move. </p><p> Similarly, even if you choose the <i>wrong</i> fuel, the vehicle may still start and let you travel.","","0","instructions","","","","","","","","","","","","","",""
"learning-instructions","83","487329","0.0-9.0-1.0-0.7","1708","1","2","""event"",""trial"",""time""
""fullscreenenter"",""1"",""3105""
""blur"",""10"",""65462""
""focus"",""10"",""67259""
""blur"",""77"",""425619""
""focus"",""77"",""431947""
","""event"",""trial"",""time""
""blur"",""10"",""65462""
""blur"",""77"",""425619""
","""event"",""trial"",""time""
""focus"",""10"",""67259""
""focus"",""77"",""431947""
","""event"",""trial"",""time""
""fullscreenenter"",""1"",""3105""
","
","","","","","","2377.2999999523163","<p> Try to choose the best fuel for each vehicle, because you will <b> WIN </b> 1 point each time you get to travel and <b>LOSE</b> 1 point each time a vehicle does not start. </p><p> Your bonus payment will depend on your total number of points.","","0","instructions","","","","","","","","","","","","","",""
"learning-instructions","84","496616","0.0-9.0-1.0-0.8","1708","1","2","""event"",""trial"",""time""
""fullscreenenter"",""1"",""3105""
""blur"",""10"",""65462""
""focus"",""10"",""67259""
""blur"",""77"",""425619""
""focus"",""77"",""431947""
","""event"",""trial"",""time""
""blur"",""10"",""65462""
""blur"",""77"",""425619""
","""event"",""trial"",""time""
""focus"",""10"",""67259""
""focus"",""77"",""431947""
","""event"",""trial"",""time""
""fullscreenenter"",""1"",""3105""
","
","","","","","","1035.3999999761581","<p> The position of each type of fuel will change throughout the round. </p><p> The fuel's position <i> does not </i> influence how likely it is to make each vehicle start. </p>","","0","instructions","","","","","","","","","","","","","",""
"learning-instructions","85","505994","0.0-9.0-1.0-0.9","1708","1","2","""event"",""trial"",""time""
""fullscreenenter"",""1"",""3105""
""blur"",""10"",""65462""
""focus"",""10"",""67259""
""blur"",""77"",""425619""
""focus"",""77"",""431947""
","""event"",""trial"",""time""
""blur"",""10"",""65462""
""blur"",""77"",""425619""
","""event"",""trial"",""time""
""focus"",""10"",""67259""
""focus"",""77"",""431947""
","""event"",""trial"",""time""
""fullscreenenter"",""1"",""3105""
","
","","","","","","85.69999992847443","<p> You will have 4 seconds to make each choice. Try to respond before time runs out! </p><p> You will lose 1 point each time you do not make a response. </p>","","0","instructions","","","","","","","","","","","","","",""
"html-keyboard-response","86","506599","0.0-9.0-2.0-0.0","1708","1","2","""event"",""trial"",""time""
""fullscreenenter"",""1"",""3105""
""blur"",""10"",""65462""
""focus"",""10"",""67259""
""blur"",""77"",""425619""
""focus"",""77"",""431947""
","""event"",""trial"",""time""
""blur"",""10"",""65462""
""blur"",""77"",""425619""
","""event"",""trial"",""time""
""focus"",""10"",""67259""
""focus"",""77"",""431947""
","""event"",""trial"",""time""
""fullscreenenter"",""1"",""3105""
","
","","","","","","null","<div style=""font-size:60px;"">+</div>","null","","fixation","","","","","","","","","","","","","",""
"learning-trial","87","510603","0.0-9.0-2.0-1.0","1708","1","2","""event"",""trial"",""time""
""fullscreenenter"",""1"",""3105""
""blur"",""10"",""65462""
""focus"",""10"",""67259""
""blur"",""77"",""425619""
""focus"",""77"",""431947""
","""event"",""trial"",""time""
""blur"",""10"",""65462""
""blur"",""77"",""425619""
","""event"",""trial"",""time""
""focus"",""10"",""67259""
""focus"",""77"",""431947""
","""event"",""trial"",""time""
""fullscreenenter"",""1"",""3105""
","
","","","","","","2788.4000000953674","images/truck4.png","","","learning","images/vehicles_choice2.png","images/vehicles_choice3.png","images/vehicles_choice1.png","[1,2,0]","1","0","2","images/vehicles_choice3.png","-1","vehicles","","truck","1","0"
"html-keyboard-response","88","511105","0.0-9.0-2.0-0.1","1708","1","2","""event"",""trial"",""time""
""fullscreenenter"",""1"",""3105""
""blur"",""10"",""65462""
""focus"",""10"",""67259""
""blur"",""77"",""425619""
""focus"",""77"",""431947""
","""event"",""trial"",""time""
""blur"",""10"",""65462""
""blur"",""77"",""425619""
","""event"",""trial"",""time""
""focus"",""10"",""67259""
""focus"",""77"",""431947""
","""event"",""trial"",""time""
""fullscreenenter"",""1"",""3105""
","
","","","","","","null","<div style=""font-size:60px;"">+</div>","null","","fixation","","","","","","","","","","","","","",""
"learning-trial","89","515112","0.0-9.0-2.0-1.1","1708","1","2","""event"",""trial"",""time""
""fullscreenenter"",""1"",""3105""
""blur"",""10"",""65462""
""focus"",""10"",""67259""
""blur"",""77"",""425619""
""focus"",""77"",""431947""
","""event"",""trial"",""time""
""blur"",""10"",""65462""
""blur"",""77"",""425619""
","""event"",""trial"",""time""
""focus"",""10"",""67259""
""focus"",""77"",""431947""
","""event"",""trial"",""time""
""fullscreenenter"",""1"",""3105""
","
","","","","","","193.60000002384186","images/truck3.png","","","learning","images/vehicles_choice1.png","images/vehicles_choice3.png","images/vehicles_choice2.png","[0,2,1]","1","2","3","images/vehicles_choice2.png","1","vehicles","","truck","1","0"
"html-keyboard-response","90","515613","0.0-9.0-2.0-0.2","1708","1","2","""event"",""trial"",""time""
""fullscreenenter"",""1"",""3105""
""blur"",""10"",""65462""
""focus"",""10"",""67259""
""blur"",""77"",""425619""
""focus"",""77"",""431947""
","""event"",""trial"",""time""
""blur"",""10"",""65462""
""blur"",""77"",""425619""
","""event"",""trial"",""time""
""focus"",""10"",""67259""
""focus"",""77"",""431947""
","""event"",""trial"",""time""
""fullscreenenter"",""1"",""3105""
","
","","","","","","null","<div style=""font-size:60px;"">+</div>","null","","fixation","","","","","","","","","","","","","",""
"learning-trial","91","519617","0.0-9.0-2.0-1.2","1708","1","2","""event"",""trial"",""time""
""fullscreenenter"",""1"",""3105""
""blur"",""10"",""65462""
""focus"",""10"",""67259""
""blur"",""77"",""425619""
""focus"",""77"",""431947""
","""event"",""trial"",""time""
""blur"",""10"",""65462""
""blur"",""77"",""425619""
","""event"",""trial"",""time""
""focus"",""10"",""67259""
""focus"",""77"",""431947""
","""event"",""trial"",""time""
""fullscreenenter"",""1"",""3105""
","
","","","","","","178.09999990463257","images/train2.png","","","learning","images/vehicles_choice3.png","images/vehicles_choice2.png","images/vehicles_choice1.png","[2,1,0]","2","0","1","images/vehicles_choice3.png","1","vehicles","","train","1","0"
"html-keyboard-response","92","520118","0.0-9.0-2.0-0.3","1708","1","2","""event"",""trial"",""time""
""fullscreenenter"",""1"",""3105""
""blur"",""10"",""65462""
""focus"",""10"",""67259""
""blur"",""77"",""425619""
""focus"",""77"",""431947""
","""event"",""trial"",""time""
""blur"",""10"",""65462""
""blur"",""77"",""425619""
","""event"",""trial"",""time""
""focus"",""10"",""67259""
""focus"",""77"",""431947""
","""event"",""trial"",""time""
""fullscreenenter"",""1"",""3105""
","
","","","","","","null","<div style=""font-size:60px;"">+</div>","null","","fixation","","","","","","","","","","","","","",""
"learning-trial","93","524122","0.0-9.0-2.0-1.3","1708","1","2","""event"",""trial"",""time""
""fullscreenenter"",""1"",""3105""
""blur"",""10"",""65462""
""focus"",""10"",""67259""
""blur"",""77"",""425619""
""focus"",""77"",""431947""
","""event"",""trial"",""time""
""blur"",""10"",""65462""
""blur"",""77"",""425619""
","""event"",""trial"",""time""
""focus"",""10"",""67259""
""focus"",""77"",""431947""
","""event"",""trial"",""time""
""fullscreenenter"",""1"",""3105""
","
","","","","","","239.10000002384186","images/truck4.png","","","learning","images/vehicles_choice2.png","images/vehicles_choice3.png","images/vehicles_choice1.png","[1,2,0]","1","0","1","images/vehicles_choice2.png","1","vehicles","","truck","1","0"
"html-keyboard-response","94","524623","0.0-9.0-2.0-0.4","1708","1","2","""event"",""trial"",""time""
""fullscreenenter"",""1"",""3105""
""blur"",""10"",""65462""
""focus"",""10"",""67259""
""blur"",""77"",""425619""
""focus"",""77"",""431947""
","""event"",""trial"",""time""
""blur"",""10"",""65462""
""blur"",""77"",""425619""
","""event"",""trial"",""time""
""focus"",""10"",""67259""
""focus"",""77"",""431947""
","""event"",""trial"",""time""
""fullscreenenter"",""1"",""3105""
","
","","","","","","null","<div style=""font-size:60px;"">+</div>","null","","fixation","","","","","","","","","","","","","",""
"learning-trial","95","528626","0.0-9.0-2.0-1.4","1708","1","2","""event"",""trial"",""time""
""fullscreenenter"",""1"",""3105""
""blur"",""10"",""65462""
""focus"",""10"",""67259""
""blur"",""77"",""425619""
""focus"",""77"",""431947""
","""event"",""trial"",""time""
""blur"",""10"",""65462""
""blur"",""77"",""425619""
","""event"",""trial"",""time""
""focus"",""10"",""67259""
""focus"",""77"",""431947""
","""event"",""trial"",""time""
""fullscreenenter"",""1"",""3105""
","
","","","","","","11.399999976158142","images/boat4.png","","","learning","images/vehicles_choice3.png","images/vehicles_choice2.png","images/vehicles_choice1.png","[2,1,0]","0","2","1","images/vehicles_choice3.png","-1","vehicles","","boat","1","0"
"html-keyboard-response","96","529128","0.0-9.0-2.0-0.5","1708","1","2","""event"",""trial"",""time""
""fullscreenenter"",""1"",""3105""
""blur"",""10"",""65462""
""focus"",""10"",""67259""
""blur"",""77"",""425619""
""focus"",""77"",""431947""
","""event"",""trial"",""time""
""blur"",""10"",""65462""
""blur"",""77"",""425619""
","""event"",""trial"",""time""
""focus"",""10"",""67259""
""focus"",""77"",""431947""
","""event"",""trial"",""time""
""fullscreenenter"",""1"",""3105""
","
","","","","","","null","<div style=""font-size:60px;"">+</div>","null","","fixation","","","","","","","","","","","","","",""
"learning-trial","97","533133","0.0-9.0-2.0-1.5","1708","1","2","""event"",""trial"",""time""
""fullscreenenter"",""1"",""3105""
""blur"",""10"",""65462""
""focus"",""10"",""67259""
""blur"",""77"",""425619""
""focus"",""77"",""431947""
","""event"",""trial"",""time""
""blur"",""10"",""65462""
""blur"",""77"",""425619""
","""event"",""trial"",""time""
""focus"",""10"",""67259""
""focus"",""77"",""431947""
","""event"",""trial"",""time""
""fullscreenenter"",""1"",""3105""
","
","","","","","","15.900000095367432","images/train1.png","","","learning","images/vehicles_choice3.png","images/vehicles_choice1.png","images/vehicles_choice2.png","[2,0,1]","2","0","1","images/vehicles_choice3.png","1","vehicles","","train","1","0"
"html-keyboard-response","98","533636","0.0-9.0-2.0-0.6","1708","1","2","""event"",""trial"",""time""
""fullscreenenter"",""1"",""3105""
""blur"",""10"",""65462""
""focus"",""10"",""67259""
""blur"",""77"",""425619""
""focus"",""77"",""431947""
","""event"",""trial"",""time""
""blur"",""10"",""65462""
""blur"",""77"",""425619""
","""event"",""trial"",""time""
""focus"",""10"",""67259""
""focus"",""77"",""431947""
","""event"",""trial"",""time""
""fullscreenenter"",""1"",""3105""
","
","","","","","","null","<div style=""font-size:60px;"">+</div>","null","","fixation","","","","","","","","","","","","","",""
"learning-trial","99","537640","0.0-9.0-2.0-1.6","1708","1","2","""event"",""trial"",""time""
""fullscreenenter"",""1"",""3105""
""blur"",""10"",""65462""
""focus"",""10"",""67259""
""blur"",""77"",""425619""
""focus"",""77"",""431947""
","""event"",""trial"",""time""
""blur"",""10"",""65462""
""blur"",""77"",""425619""
","""event"",""trial"",""time""
""focus"",""10"",""67259""
""focus"",""77"",""431947""
","""event"",""trial"",""time""
""fullscreenenter"",""1"",""3105""
","
","","","","","","8.899999976158142","images/train2.png","","","learning","images/vehicles_choice2.png","images/vehicles_choice3.png","images/vehicles_choice1.png","[1,2,0]","2","1","3","images/vehicles_choice1.png","-1","vehicles","","train","1","0"
"html-keyboard-response","100","538141","0.0-9.0-2.0-0.7","1708","1","2","""event"",""trial"",""time""
""fullscreenenter"",""1"",""3105""
""blur"",""10"",""65462""
""focus"",""10"",""67259""
""blur"",""77"",""425619""
""focus"",""77"",""431947""
","""event"",""trial"",""time""
""blur"",""10"",""65462""
""blur"",""77"",""425619""
","""event"",""trial"",""time""
""focus"",""10"",""67259""
""focus"",""77"",""431947""
","""event"",""trial"",""time""
""fullscreenenter"",""1"",""3105""
","
","","","","","","null","<div style=""font-size:60px;"">+</div>","null","","fixation","","","","","","","","","","","","","",""
"learning-trial","101","542144","0.0-9.0-2.0-1.7","1708","1","2","""event"",""trial"",""time""
""fullscreenenter"",""1"",""3105""
""blur"",""10"",""65462""
""focus"",""10"",""67259""
""blur"",""77"",""425619""
""focus"",""77"",""431947""
","""event"",""trial"",""time""
""blur"",""10"",""65462""
""blur"",""77"",""425619""
","""event"",""trial"",""time""
""focus"",""10"",""67259""
""focus"",""77"",""431947""
","""event"",""trial"",""time""
""fullscreenenter"",""1"",""3105""
","
","","","","","","40.5","images/boat5.png","","","learning","images/vehicles_choice2.png","images/vehicles_choice1.png","images/vehicles_choice3.png","[1,0,2]","0","1","2","images/vehicles_choice1.png","1","vehicles","","boat","1","0"
"html-keyboard-response","102","542646","0.0-9.0-2.0-0.8","1708","1","2","""event"",""trial"",""time""
""fullscreenenter"",""1"",""3105""
""blur"",""10"",""65462""
""focus"",""10"",""67259""
""blur"",""77"",""425619""
""focus"",""77"",""431947""
","""event"",""trial"",""time""
""blur"",""10"",""65462""
""blur"",""77"",""425619""
","""event"",""trial"",""time""
""focus"",""10"",""67259""
""focus"",""77"",""431947""
","""event"",""trial"",""time""
""fullscreenenter"",""1"",""3105""
","
","","","","","","null","<div style=""font-size:60px;"">+</div>","null","","fixation","","","","","","","","","","","","","",""
"learning-trial","103","546649","0.0-9.0-2.0-1.8","1708","1","2","""event"",""trial"",""time""
""fullscreenenter"",""1"",""3105""
""blur"",""10"",""65462""
""focus"",""10"",""67259""
""blur"",""77"",""425619""
""focus"",""77"",""431947""
","""event"",""trial"",""time""
""blur"",""10"",""65462""
""blur"",""77"",""425619""
","""event"",""trial"",""time""
""focus"",""10"",""67259""
""focus"",""77"",""431947""
","""event"",""trial"",""time""
""fullscreenenter"",""1"",""3105""
","
","","","","","","110.60000002384186","images/train5.png","","","learning","images/vehicles_choice3.png","images/vehicles_choice2.png","images/vehicles_choice1.png","[2,1,0]","2","0","1","images/vehicles_choice3.png","-1","vehicles","","train","1","0"
"html-keyboard-response","104","547153","0.0-9.0-2.0-0.9","1708","1","2","""event"",""trial"",""time""
""fullscreenenter"",""1"",""3105""
""blur"",""10"",""65462""
""focus"",""10"",""67259""
""blur"",""77"",""425619""
""focus"",""77"",""431947""
","""event"",""trial"",""time""
""blur"",""10"",""65462""
""blur"",""77"",""425619""
","""event"",""trial"",""time""
""focus"",""10"",""67259""
""focus"",""77"",""431947""
","""event"",""trial"",""time""
""fullscreenenter"",""1"",""3105""
","
","","","","","","null","<div style=""font-size:60px;"">+</div>","null","","fixation","","","","","","","","","","","","","",""
"learning-trial","105","551157","0.0-9.0-2.0-1.9","1708","1","2","""event"",""trial"",""time""
""fullscreenenter"",""1"",""3105""
""blur"",""10"",""65462""
""focus"",""10"",""67259""
""blur"",""77"",""425619""
""focus"",""77"",""431947""
","""event"",""trial"",""time""
""blur"",""10"",""65462""
""blur"",""77"",""425619""
","""event"",""trial"",""time""
""focus"",""10"",""67259""
""focus"",""77"",""431947""
","""event"",""trial"",""time""
""fullscreenenter"",""1"",""3105""
","
","","","","","","46","images/truck4.png","","","learning","images/vehicles_choice3.png","images/vehicles_choice1.png","images/vehicles_choice2.png","[2,0,1]","1","2","3","images/vehicles_choice2.png","1","vehicles","","truck","1","0"
"html-keyboard-response","106","551658","0.0-9.0-2.0-0.10","1708","1","2","""event"",""trial"",""time""
""fullscreenenter"",""1"",""3105""
""blur"",""10"",""65462""
""focus"",""10"",""67259""
""blur"",""77"",""425619""
""focus"",""77"",""431947""
","""event"",""trial"",""time""
""blur"",""10"",""65462""
""blur"",""77"",""425619""
","""event"",""trial"",""time""
""focus"",""10"",""67259""
""focus"",""77"",""431947""
","""event"",""trial"",""time""
""fullscreenenter"",""1"",""3105""
","
","","","","","","null","<div style=""font-size:60px;"">+</div>","null","","fixation","","","","","","","","","","","","","",""
"learning-trial","107","555663","0.0-9.0-2.0-1.10","1708","1","2","""event"",""trial"",""time""
""fullscreenenter"",""1"",""3105""
""blur"",""10"",""65462""
""focus"",""10"",""67259""
""blur"",""77"",""425619""
""focus"",""77"",""431947""
","""event"",""trial"",""time""
""blur"",""10"",""65462""
""blur"",""77"",""425619""
","""event"",""trial"",""time""
""focus"",""10"",""67259""
""focus"",""77"",""431947""
","""event"",""trial"",""time""
""fullscreenenter"",""1"",""3105""
","
","","","","","","19.200000047683716","images/truck5.png","","","learning","images/vehicles_choice2.png","images/vehicles_choice1.png","images/vehicles_choice3.png","[1,0,2]","1","0","1","images/vehicles_choice2.png","1","vehicles","","truck","1","0"
"html-keyboard-response","108","556166","0.0-9.0-2.0-0.11","1708","1","2","""event"",""trial"",""time""
""fullscreenenter"",""1"",""3105""
""blur"",""10"",""65462""
""focus"",""10"",""67259""
""blur"",""77"",""425619""
""focus"",""77"",""431947""
","""event"",""trial"",""time""
""blur"",""10"",""65462""
""blur"",""77"",""425619""
","""event"",""trial"",""time""
""focus"",""10"",""67259""
""focus"",""77"",""431947""
","""event"",""trial"",""time""
""fullscreenenter"",""1"",""3105""
","
","","","","","","null","<div style=""font-size:60px;"">+</div>","null","","fixation","","","","","","","","","","","","","",""
"learning-trial","109","560170","0.0-9.0-2.0-1.11","1708","1","2","""event"",""trial"",""time""
""fullscreenenter"",""1"",""3105""
""blur"",""10"",""65462""
""focus"",""10"",""67259""
""blur"",""77"",""425619""
""focus"",""77"",""431947""
","""event"",""trial"",""time""
""blur"",""10"",""65462""
""blur"",""77"",""425619""
","""event"",""trial"",""time""
""focus"",""10"",""67259""
""focus"",""77"",""431947""
","""event"",""trial"",""time""
""fullscreenenter"",""1"",""3105""
","
","","","","","","236.89999997615814","images/truck5.png","","","learning","images/vehicles_choice1.png","images/vehicles_choice3.png","images/vehicles_choice2.png","[0,2,1]","1","2","1","images/vehicles_choice1.png","-1","vehicles","","truck","1","0"
"html-keyboard-response","110","560673","0.0-9.0-2.0-0.12","1708","1","2","""event"",""trial"",""time""
""fullscreenenter"",""1"",""3105""
""blur"",""10"",""65462""
""focus"",""10"",""67259""
""blur"",""77"",""425619""
""focus"",""77"",""431947""
","""event"",""trial"",""time""
""blur"",""10"",""65462""
""blur"",""77"",""425619""
","""event"",""trial"",""time""
""focus"",""10"",""67259""
""focus"",""77"",""431947""
","""event"",""trial"",""time""
""fullscreenenter"",""1"",""3105""
","
","","","","","","null","<div style=""font-size:60px;"">+</div>","null","","fixation","","","","","","","","","","","","","",""
"learning-trial","111","564676","0.0-9.0-2.0-1.12","1708","1","2","""event"",""trial"",""time""
""fullscreenenter"",""1"",""3105""
""blur"",""10"",""65462""
""focus"",""10"",""67259""
""blur"",""77"",""425619""
""focus"",""77"",""431947""
","""event"",""trial"",""time""
""blur"",""10"",""65462""
""blur"",""77"",""425619""
","""event"",""trial"",""time""
""focus"",""10"",""67259""
""focus"",""77"",""431947""
","""event"",""trial"",""time""
""fullscreenenter"",""1"",""3105""
","
","","","","","","54.5","images/truck5.png","","","learning","images/vehicles_choice3.png","images/vehicles_choice2.png","images/vehicles_choice1.png","[2,1,0]","1","1","2","images/vehicles_choice2.png","1","vehicles","","truck","1","0"
"html-keyboard-response","112","565178","0.0-9.0-2.0-0.13","1708","1","2","""event"",""trial"",""time""
""fullscreenenter"",""1"",""3105""
""blur"",""10"",""65462""
""focus"",""10"",""67259""
""blur"",""77"",""425619""
""focus"",""77"",""431947""
","""event"",""trial"",""time""
""blur"",""10"",""65462""
""blur"",""77"",""425619""
","""event"",""trial"",""time""
""focus"",""10"",""67259""
""focus"",""77"",""431947""
","""event"",""trial"",""time""
""fullscreenenter"",""1"",""3105""
","
","","","","","","null","<div style=""font-size:60px;"">+</div>","null","","fixation","","","","","","","","","","","","","",""
"learning-trial","113","569182","0.0-9.0-2.0-1.13","1708","1","2","""event"",""trial"",""time""
""fullscreenenter"",""1"",""3105""
""blur"",""10"",""65462""
""focus"",""10"",""67259""
""blur"",""77"",""425619""
""focus"",""77"",""431947""
","""event"",""trial"",""time""
""blur"",""10"",""65462""
""blur"",""77"",""425619""
","""event"",""trial"",""time""
""focus"",""10"",""67259""
""focus"",""77"",""431947""
","""event"",""trial"",""time""
""fullscreenenter"",""1"",""3105""
","
","","","","","","11.299999952316284","images/boat1.png","","","learning","images/vehicles_choice3.png","images/vehicles_choice2.png","images/vehicles_choice1.png","[2,1,0]","0","2","2","images/vehicles_choice2.png","-1","vehicles","","boat","1","0"
"html-keyboard-response","114","569685","0.0-9.0-2.0-0.14","1708","1","2","""event"",""trial"",""time""
""fullscreenenter"",""1"",""3105""
""blur"",""10"",""65462""
""focus"",""10"",""67259""
""blur"",""77"",""425619""
""focus"",""77"",""431947""
","""event"",""trial"",""time""
""blur"",""10"",""65462""
""blur"",""77"",""425619""
","""event"",""trial"",""time""
""focus"",""10"",""67259""
""focus"",""77"",""431947""
","""event"",""trial"",""time""
""fullscreenenter"",""1"",""3105""
","
","","","","","","null","<div style=""font-size:60px;"">+</div>","null","","fixation","","","","","","","","","","","","","",""
"learning-trial","115","573690","0.0-9.0-2.0-1.14","1708","1","2","""event"",""trial"",""time""
""fullscreenenter"",""1"",""3105""
""blur"",""10"",""65462""
""focus"",""10"",""67259""
""blur"",""77"",""425619""
""focus"",""77"",""431947""
","""event"",""trial"",""time""
""blur"",""10"",""65462""
""blur"",""77"",""425619""
","""event"",""trial"",""time""
""focus"",""10"",""67259""
""focus"",""77"",""431947""
","""event"",""trial"",""time""
""fullscreenenter"",""1"",""3105""
","
","","","","","","106.10000002384186","images/truck5.png","","","learning","images/vehicles_choice1.png","images/vehicles_choice2.png","images/vehicles_choice3.png","[0,1,2]","1","1","3","images/vehicles_choice3.png","-1","vehicles","","truck","1","0"
"html-keyboard-response","116","574191","0.0-9.0-2.0-0.15","1708","1","2","""event"",""trial"",""time""
""fullscreenenter"",""1"",""3105""
""blur"",""10"",""65462""
""focus"",""10"",""67259""
""blur"",""77"",""425619""
""focus"",""77"",""431947""
","""event"",""trial"",""time""
""blur"",""10"",""65462""
""blur"",""77"",""425619""
","""event"",""trial"",""time""
""focus"",""10"",""67259""
""focus"",""77"",""431947""
","""event"",""trial"",""time""
""fullscreenenter"",""1"",""3105""
","
","","","","","","null","<div style=""font-size:60px;"">+</div>","null","","fixation","","","","","","","","","","","","","",""
"learning-trial","117","578194","0.0-9.0-2.0-1.15","1708","1","2","""event"",""trial"",""time""
""fullscreenenter"",""1"",""3105""
""blur"",""10"",""65462""
""focus"",""10"",""67259""
""blur"",""77"",""425619""
""focus"",""77"",""431947""
","""event"",""trial"",""time""
""blur"",""10"",""65462""
""blur"",""77"",""425619""
","""event"",""trial"",""time""
""focus"",""10"",""67259""
""focus"",""77"",""431947""
","""event"",""trial"",""time""
""fullscreenenter"",""1"",""3105""
","
","","","","","","60.799999952316284","images/boat4.png","","","learning","images/vehicles_choice3.png","images/vehicles_choice1.png","images/vehicles_choice2.png","[2,0,1]","0","1","3","images/vehicles_choice2.png","-1","vehicles","","boat","1","0"
"html-keyboard-response","118","578697","0.0-9.0-2.0-0.16","1708","1","2","""event"",""trial"",""time""
""fullscreenenter"",""1"",""3105""
""blur"",""10"",""65462""
""focus"",""10"",""67259""
""blur"",""77"",""425619""
""focus"",""77"",""431947""
","""event"",""trial"",""time""
""blur"",""10"",""65462""
""blur"",""77"",""425619""
","""event"",""trial"",""time""
""focus"",""10"",""67259""
""focus"",""77"",""431947""
","""event"",""trial"",""time""
""fullscreenenter"",""1"",""3105""
","
","","","","","","null","<div style=""font-size:60px;"">+</div>","null","","fixation","","","","","","","","","","","","","",""
"learning-trial","119","582700","0.0-9.0-2.0-1.16","1708","1","2","""event"",""trial"",""time""
""fullscreenenter"",""1"",""3105""
""blur"",""10"",""65462""
""focus"",""10"",""67259""
""blur"",""77"",""425619""
""focus"",""77"",""431947""
","""event"",""trial"",""time""
""blur"",""10"",""65462""
""blur"",""77"",""425619""
","""event"",""trial"",""time""
""focus"",""10"",""67259""
""focus"",""77"",""431947""
","""event"",""trial"",""time""
""fullscreenenter"",""1"",""3105""
","
","","","","","","173","images/train5.png","","","learning","images/vehicles_choice1.png","images/vehicles_choice2.png","images/vehicles_choice3.png","[0,1,2]","2","2","2","images/vehicles_choice2.png","-1","vehicles","","train","1","0"
"html-keyboard-response","120","583204","0.0-9.0-2.0-0.17","1708","1","2","""event"",""trial"",""time""
""fullscreenenter"",""1"",""3105""
""blur"",""10"",""65462""
""focus"",""10"",""67259""
""blur"",""77"",""425619""
""focus"",""77"",""431947""
","""event"",""trial"",""time""
""blur"",""10"",""65462""
""blur"",""77"",""425619""
","""event"",""trial"",""time""
""focus"",""10"",""67259""
""focus"",""77"",""431947""
","""event"",""trial"",""time""
""fullscreenenter"",""1"",""3105""
","
","","","","","","null","<div style=""font-size:60px;"">+</div>","null","","fixation","","","","","","","","","","","","","",""
"learning-trial","121","587207","0.0-9.0-2.0-1.17","1708","1","2","""event"",""trial"",""time""
""fullscreenenter"",""1"",""3105""
""blur"",""10"",""65462""
""focus"",""10"",""67259""
""blur"",""77"",""425619""
""focus"",""77"",""431947""
","""event"",""trial"",""time""
""blur"",""10"",""65462""
""blur"",""77"",""425619""
","""event"",""trial"",""time""
""focus"",""10"",""67259""
""focus"",""77"",""431947""
","""event"",""trial"",""time""
""fullscreenenter"",""1"",""3105""
","
","","","","","","9.700000047683716","images/train1.png","","","learning","images/vehicles_choice3.png","images/vehicles_choice1.png","images/vehicles_choice2.png","[2,0,1]","2","0","2","images/vehicles_choice1.png","-1","vehicles","","train","1","0"
"html-keyboard-response","122","587708","0.0-9.0-2.0-0.18","1708","1","2","""event"",""trial"",""time""
""fullscreenenter"",""1"",""3105""
""blur"",""10"",""65462""
""focus"",""10"",""67259""
""blur"",""77"",""425619""
""focus"",""77"",""431947""
","""event"",""trial"",""time""
""blur"",""10"",""65462""
""blur"",""77"",""425619""
","""event"",""trial"",""time""
""focus"",""10"",""67259""
""focus"",""77"",""431947""
","""event"",""trial"",""time""
""fullscreenenter"",""1"",""3105""
","
","","","","","","null","<div style=""font-size:60px;"">+</div>","null","","fixation","","","","","","","","","","","","","",""
"learning-trial","123","591712","0.0-9.0-2.0-1.18","1708","1","2","""event"",""trial"",""time""
""fullscreenenter"",""1"",""3105""
""blur"",""10"",""65462""
""focus"",""10"",""67259""
""blur"",""77"",""425619""
""focus"",""77"",""431947""
","""event"",""trial"",""time""
""blur"",""10"",""65462""
""blur"",""77"",""425619""
","""event"",""trial"",""time""
""focus"",""10"",""67259""
""focus"",""77"",""431947""
","""event"",""trial"",""time""
""fullscreenenter"",""1"",""3105""
","
","","","","","","73.5","images/train5.png","","","learning","images/vehicles_choice1.png","images/vehicles_choice3.png","images/vehicles_choice2.png","[0,2,1]","2","1","1","images/vehicles_choice1.png","-1","vehicles","","train","1","0"
"html-keyboard-response","124","592213","0.0-9.0-2.0-0.19","1708","1","2","""event"",""trial"",""time""
""fullscreenenter"",""1"",""3105""
""blur"",""10"",""65462""
""focus"",""10"",""67259""
""blur"",""77"",""425619""
""focus"",""77"",""431947""
","""event"",""trial"",""time""
""blur"",""10"",""65462""
""blur"",""77"",""425619""
","""event"",""trial"",""time""
""focus"",""10"",""67259""
""focus"",""77"",""431947""
","""event"",""trial"",""time""
""fullscreenenter"",""1"",""3105""
","
","","","","","","null","<div style=""font-size:60px;"">+</div>","null","","fixation","","","","","","","","","","","","","",""
"learning-trial","125","596219","0.0-9.0-2.0-1.19","1708","1","2","""event"",""trial"",""time""
""fullscreenenter"",""1"",""3105""
""blur"",""10"",""65462""
""focus"",""10"",""67259""
""blur"",""77"",""425619""
""focus"",""77"",""431947""
","""event"",""trial"",""time""
""blur"",""10"",""65462""
""blur"",""77"",""425619""
","""event"",""trial"",""time""
""focus"",""10"",""67259""
""focus"",""77"",""431947""
","""event"",""trial"",""time""
""fullscreenenter"",""1"",""3105""
","
","","","","","","236.5","images/train1.png","","","learning","images/vehicles_choice3.png","images/vehicles_choice2.png","images/vehicles_choice1.png","[2,1,0]","2","0","3","images/vehicles_choice1.png","-1","vehicles","","train","1","0"
"html-keyboard-response","126","596722","0.0-9.0-2.0-0.20","1708","1","2","""event"",""trial"",""time""
""fullscreenenter"",""1"",""3105""
""blur"",""10"",""65462""
""focus"",""10"",""67259""
""blur"",""77"",""425619""
""focus"",""77"",""431947""
","""event"",""trial"",""time""
""blur"",""10"",""65462""
""blur"",""77"",""425619""
","""event"",""trial"",""time""
""focus"",""10"",""67259""
""focus"",""77"",""431947""
","""event"",""trial"",""time""
""fullscreenenter"",""1"",""3105""
","
","","","","","","null","<div style=""font-size:60px;"">+</div>","null","","fixation","","","","","","","","","","","","","",""
"learning-trial","127","600725","0.0-9.0-2.0-1.20","1708","1","2","""event"",""trial"",""time""
""fullscreenenter"",""1"",""3105""
""blur"",""10"",""65462""
""focus"",""10"",""67259""
""blur"",""77"",""425619""
""focus"",""77"",""431947""
","""event"",""trial"",""time""
""blur"",""10"",""65462""
""blur"",""77"",""425619""
","""event"",""trial"",""time""
""focus"",""10"",""67259""
""focus"",""77"",""431947""
","""event"",""trial"",""time""
""fullscreenenter"",""1"",""3105""
","
","","","","","","126","images/train1.png","","","learning","images/vehicles_choice2.png","images/vehicles_choice1.png","images/vehicles_choice3.png","[1,0,2]","2","2","2","images/vehicles_choice1.png","-1","vehicles","","train","1","0"
"html-keyboard-response","128","601227","0.0-9.0-2.0-0.21","1708","1","2","""event"",""trial"",""time""
""fullscreenenter"",""1"",""3105""
""blur"",""10"",""65462""
""focus"",""10"",""67259""
""blur"",""77"",""425619""
""focus"",""77"",""431947""
","""event"",""trial"",""time""
""blur"",""10"",""65462""
""blur"",""77"",""425619""
","""event"",""trial"",""time""
""focus"",""10"",""67259""
""focus"",""77"",""431947""
","""event"",""trial"",""time""
""fullscreenenter"",""1"",""3105""
","
","","","","","","null","<div style=""font-size:60px;"">+</div>","null","","fixation","","","","","","","","","","","","","",""
"learning-trial","129","605230","0.0-9.0-2.0-1.21","1708","1","2","""event"",""trial"",""time""
""fullscreenenter"",""1"",""3105""
""blur"",""10"",""65462""
""focus"",""10"",""67259""
""blur"",""77"",""425619""
""focus"",""77"",""431947""
","""event"",""trial"",""time""
""blur"",""10"",""65462""
""blur"",""77"",""425619""
","""event"",""trial"",""time""
""focus"",""10"",""67259""
""focus"",""77"",""431947""
","""event"",""trial"",""time""
""fullscreenenter"",""1"",""3105""
","
","","","","","","177.80000007152557","images/truck4.png","","","learning","images/vehicles_choice3.png","images/vehicles_choice2.png","images/vehicles_choice1.png","[2,1,0]","1","1","2","images/vehicles_choice2.png","1","vehicles","","truck","1","0"
"html-keyboard-response","130","605733","0.0-9.0-2.0-0.22","1708","1","2","""event"",""trial"",""time""
""fullscreenenter"",""1"",""3105""
""blur"",""10"",""65462""
""focus"",""10"",""67259""
""blur"",""77"",""425619""
""focus"",""77"",""431947""
","""event"",""trial"",""time""
""blur"",""10"",""65462""
""blur"",""77"",""425619""
","""event"",""trial"",""time""
""focus"",""10"",""67259""
""focus"",""77"",""431947""
","""event"",""trial"",""time""
""fullscreenenter"",""1"",""3105""
","
","","","","","","null","<div style=""font-size:60px;"">+</div>","null","","fixation","","","","","","","","","","","","","",""
"learning-trial","131","609738","0.0-9.0-2.0-1.22","1708","1","2","""event"",""trial"",""time""
""fullscreenenter"",""1"",""3105""
""blur"",""10"",""65462""
""focus"",""10"",""67259""
""blur"",""77"",""425619""
""focus"",""77"",""431947""
","""event"",""trial"",""time""
""blur"",""10"",""65462""
""blur"",""77"",""425619""
","""event"",""trial"",""time""
""focus"",""10"",""67259""
""focus"",""77"",""431947""
","""event"",""trial"",""time""
""fullscreenenter"",""1"",""3105""
","
","","","","","","193.19999992847443","images/boat1.png","","","learning","images/vehicles_choice3.png","images/vehicles_choice2.png","images/vehicles_choice1.png","[2,1,0]","0","2","2","images/vehicles_choice2.png","-1","vehicles","","boat","1","0"
"html-keyboard-response","132","610240","0.0-9.0-2.0-0.23","1708","1","2","""event"",""trial"",""time""
""fullscreenenter"",""1"",""3105""
""blur"",""10"",""65462""
""focus"",""10"",""67259""
""blur"",""77"",""425619""
""focus"",""77"",""431947""
","""event"",""trial"",""time""
""blur"",""10"",""65462""
""blur"",""77"",""425619""
","""event"",""trial"",""time""
""focus"",""10"",""67259""
""focus"",""77"",""431947""
","""event"",""trial"",""time""
""fullscreenenter"",""1"",""3105""
","
","","","","","","null","<div style=""font-size:60px;"">+</div>","null","","fixation","","","","","","","","","","","","","",""
"learning-trial","133","614243","0.0-9.0-2.0-1.23","1708","1","2","""event"",""trial"",""time""
""fullscreenenter"",""1"",""3105""
""blur"",""10"",""65462""
""focus"",""10"",""67259""
""blur"",""77"",""425619""
""focus"",""77"",""431947""
","""event"",""trial"",""time""
""blur"",""10"",""65462""
""blur"",""77"",""425619""
","""event"",""trial"",""time""
""focus"",""10"",""67259""
""focus"",""77"",""431947""
","""event"",""trial"",""time""
""fullscreenenter"",""1"",""3105""
","
","","","","","","750.1000000238419","images/train1.png","","","learning","images/vehicles_choice3.png","images/vehicles_choice1.png","images/vehicles_choice2.png","[2,0,1]","2","0","2","images/vehicles_choice1.png","-1","vehicles","","train","1","0"
"html-keyboard-response","134","614744","0.0-9.0-2.0-0.24","1708","1","2","""event"",""trial"",""time""
""fullscreenenter"",""1"",""3105""
""blur"",""10"",""65462""
""focus"",""10"",""67259""
""blur"",""77"",""425619""
""focus"",""77"",""431947""
","""event"",""trial"",""time""
""blur"",""10"",""65462""
""blur"",""77"",""425619""
","""event"",""trial"",""time""
""focus"",""10"",""67259""
""focus"",""77"",""431947""
","""event"",""trial"",""time""
""fullscreenenter"",""1"",""3105""
","
","","","","","","null","<div style=""font-size:60px;"">+</div>","null","","fixation","","","","","","","","","","","","","",""
"learning-trial","135","618746","0.0-9.0-2.0-1.24","1708","1","2","""event"",""trial"",""time""
""fullscreenenter"",""1"",""3105""
""blur"",""10"",""65462""
""focus"",""10"",""67259""
""blur"",""77"",""425619""
""focus"",""77"",""431947""
","""event"",""trial"",""time""
""blur"",""10"",""65462""
""blur"",""77"",""425619""
","""event"",""trial"",""time""
""focus"",""10"",""67259""
""focus"",""77"",""431947""
","""event"",""trial"",""time""
""fullscreenenter"",""1"",""3105""
","
","","","","","","127.29999995231628","images/train2.png","","","learning","images/vehicles_choice2.png","images/vehicles_choice1.png","images/vehicles_choice3.png","[1,0,2]","2","2","1","images/vehicles_choice2.png","-1","vehicles","","train","1","0"
"html-keyboard-response","136","619248","0.0-9.0-2.0-0.25","1708","1","2","""event"",""trial"",""time""
""fullscreenenter"",""1"",""3105""
""blur"",""10"",""65462""
""focus"",""10"",""67259""
""blur"",""77"",""425619""
""focus"",""77"",""431947""
","""event"",""trial"",""time""
""blur"",""10"",""65462""
""blur"",""77"",""425619""
","""event"",""trial"",""time""
""focus"",""10"",""67259""
""focus"",""77"",""431947""
","""event"",""trial"",""time""
""fullscreenenter"",""1"",""3105""
","
","","","","","","null","<div style=""font-size:60px;"">+</div>","null","","fixation","","","","","","","","","","","","","",""
"learning-trial","137","623251","0.0-9.0-2.0-1.25","1708","1","2","""event"",""trial"",""time""
""fullscreenenter"",""1"",""3105""
""blur"",""10"",""65462""
""focus"",""10"",""67259""
""blur"",""77"",""425619""
""focus"",""77"",""431947""
","""event"",""trial"",""time""
""blur"",""10"",""65462""
""blur"",""77"",""425619""
","""event"",""trial"",""time""
""focus"",""10"",""67259""
""focus"",""77"",""431947""
","""event"",""trial"",""time""
""fullscreenenter"",""1"",""3105""
","
","","","","","","179.29999995231628","images/truck5.png","","","learning","images/vehicles_choice1.png","images/vehicles_choice3.png","images/vehicles_choice2.png","[0,2,1]","1","2","3","images/vehicles_choice2.png","1","vehicles","","truck","1","0"
"html-keyboard-response","138","623752","0.0-9.0-2.0-0.26","1708","1","2","""event"",""trial"",""time""
""fullscreenenter"",""1"",""3105""
""blur"",""10"",""65462""
""focus"",""10"",""67259""
""blur"",""77"",""425619""
""focus"",""77"",""431947""
","""event"",""trial"",""time""
""blur"",""10"",""65462""
""blur"",""77"",""425619""
","""event"",""trial"",""time""
""focus"",""10"",""67259""
""focus"",""77"",""431947""
","""event"",""trial"",""time""
""fullscreenenter"",""1"",""3105""
","
","","","","","","null","<div style=""font-size:60px;"">+</div>","null","","fixation","","","","","","","","","","","","","",""
"learning-trial","139","627756","0.0-9.0-2.0-1.26","1708","1","2","""event"",""trial"",""time""
""fullscreenenter"",""1"",""3105""
""blur"",""10"",""65462""
""focus"",""10"",""67259""
""blur"",""77"",""425619""
""focus"",""77"",""431947""
","""event"",""trial"",""time""
""blur"",""10"",""65462""
""blur"",""77"",""425619""
","""event"",""trial"",""time""
""focus"",""10"",""67259""
""focus"",""77"",""431947""
","""event"",""trial"",""time""
""fullscreenenter"",""1"",""3105""
","
","","","","","","422.7000000476837","images/truck5.png","","","learning","images/vehicles_choice2.png","images/vehicles_choice3.png","images/vehicles_choice1.png","[1,2,0]","1","0","1","images/vehicles_choice2.png","1","vehicles","","truck","1","0"
"html-keyboard-response","140","628258","0.0-9.0-2.0-0.27","1708","1","2","""event"",""trial"",""time""
""fullscreenenter"",""1"",""3105""
""blur"",""10"",""65462""
""focus"",""10"",""67259""
""blur"",""77"",""425619""
""focus"",""77"",""431947""
","""event"",""trial"",""time""
""blur"",""10"",""65462""
""blur"",""77"",""425619""
","""event"",""trial"",""time""
""focus"",""10"",""67259""
""focus"",""77"",""431947""
","""event"",""trial"",""time""
""fullscreenenter"",""1"",""3105""
","
","","","","","","null","<div style=""font-size:60px;"">+</div>","null","","fixation","","","","","","","","","","","","","",""
"learning-trial","141","632262","0.0-9.0-2.0-1.27","1708","1","2","""event"",""trial"",""time""
""fullscreenenter"",""1"",""3105""
""blur"",""10"",""65462""
""focus"",""10"",""67259""
""blur"",""77"",""425619""
""focus"",""77"",""431947""
","""event"",""trial"",""time""
""blur"",""10"",""65462""
""blur"",""77"",""425619""
","""event"",""trial"",""time""
""focus"",""10"",""67259""
""focus"",""77"",""431947""
","""event"",""trial"",""time""
""fullscreenenter"",""1"",""3105""
","
","","","","","","147.10000002384186","images/truck5.png","","","learning","images/vehicles_choice1.png","images/vehicles_choice2.png","images/vehicles_choice3.png","[0,1,2]","1","1","2","images/vehicles_choice2.png","1","vehicles","","truck","1","0"
"html-keyboard-response","142","632764","0.0-9.0-2.0-0.28","1708","1","2","""event"",""trial"",""time""
""fullscreenenter"",""1"",""3105""
""blur"",""10"",""65462""
""focus"",""10"",""67259""
""blur"",""77"",""425619""
""focus"",""77"",""431947""
","""event"",""trial"",""time""
""blur"",""10"",""65462""
""blur"",""77"",""425619""
","""event"",""trial"",""time""
""focus"",""10"",""67259""
""focus"",""77"",""431947""
","""event"",""trial"",""time""
""fullscreenenter"",""1"",""3105""
","
","","","","","","null","<div style=""font-size:60px;"">+</div>","null","","fixation","","","","","","","","","","","","","",""
"learning-trial","143","636767","0.0-9.0-2.0-1.28","1708","1","2","""event"",""trial"",""time""
""fullscreenenter"",""1"",""3105""
""blur"",""10"",""65462""
""focus"",""10"",""67259""
""blur"",""77"",""425619""
""focus"",""77"",""431947""
","""event"",""trial"",""time""
""blur"",""10"",""65462""
""blur"",""77"",""425619""
","""event"",""trial"",""time""
""focus"",""10"",""67259""
""focus"",""77"",""431947""
","""event"",""trial"",""time""
""fullscreenenter"",""1"",""3105""
","
","","","","","","198.70000004768372","images/boat4.png","","","learning","images/vehicles_choice3.png","images/vehicles_choice2.png","images/vehicles_choice1.png","[2,1,0]","0","2","1","images/vehicles_choice3.png","-1","vehicles","","boat","1","0"
"html-keyboard-response","144","637271","0.0-9.0-2.0-0.29","1708","1","2","""event"",""trial"",""time""
""fullscreenenter"",""1"",""3105""
""blur"",""10"",""65462""
""focus"",""10"",""67259""
""blur"",""77"",""425619""
""focus"",""77"",""431947""
","""event"",""trial"",""time""
""blur"",""10"",""65462""
""blur"",""77"",""425619""
","""event"",""trial"",""time""
""focus"",""10"",""67259""
""focus"",""77"",""431947""
","""event"",""trial"",""time""
""fullscreenenter"",""1"",""3105""
","
","","","","","","null","<div style=""font-size:60px;"">+</div>","null","","fixation","","","","","","","","","","","","","",""
"learning-trial","145","641275","0.0-9.0-2.0-1.29","1708","1","2","""event"",""trial"",""time""
""fullscreenenter"",""1"",""3105""
""blur"",""10"",""65462""
""focus"",""10"",""67259""
""blur"",""77"",""425619""
""focus"",""77"",""431947""
","""event"",""trial"",""time""
""blur"",""10"",""65462""
""blur"",""77"",""425619""
","""event"",""trial"",""time""
""focus"",""10"",""67259""
""focus"",""77"",""431947""
","""event"",""trial"",""time""
""fullscreenenter"",""1"",""3105""
","
","","","","","","178.5","images/train5.png","","","learning","images/vehicles_choice3.png","images/vehicles_choice1.png","images/vehicles_choice2.png","[2,0,1]","2","0","2","images/vehicles_choice1.png","-1","vehicles","","train","1","0"
"html-keyboard-response","146","641778","0.0-9.0-2.0-0.30","1708","1","2","""event"",""trial"",""time""
""fullscreenenter"",""1"",""3105""
""blur"",""10"",""65462""
""focus"",""10"",""67259""
""blur"",""77"",""425619""
""focus"",""77"",""431947""
","""event"",""trial"",""time""
""blur"",""10"",""65462""
""blur"",""77"",""425619""
","""event"",""trial"",""time""
""focus"",""10"",""67259""
""focus"",""77"",""431947""
","""event"",""trial"",""time""
""fullscreenenter"",""1"",""3105""
","
","","","","","","null","<div style=""font-size:60px;"">+</div>","null","","fixation","","","","","","","","","","","","","",""
"learning-trial","147","645783","0.0-9.0-2.0-1.30","1708","1","2","""event"",""trial"",""time""
""fullscreenenter"",""1"",""3105""
""blur"",""10"",""65462""
""focus"",""10"",""67259""
""blur"",""77"",""425619""
""focus"",""77"",""431947""
","""event"",""trial"",""time""
""blur"",""10"",""65462""
""blur"",""77"",""425619""
","""event"",""trial"",""time""
""focus"",""10"",""67259""
""focus"",""77"",""431947""
","""event"",""trial"",""time""
""fullscreenenter"",""1"",""3105""
","
","","","","","","183.40000009536743","images/boat4.png","","","learning","images/vehicles_choice3.png","images/vehicles_choice1.png","images/vehicles_choice2.png","[2,0,1]","0","1","2","images/vehicles_choice1.png","1","vehicles","","boat","1","0"
"html-keyboard-response","148","646287","0.0-9.0-2.0-0.31","1708","1","2","""event"",""trial"",""time""
""fullscreenenter"",""1"",""3105""
""blur"",""10"",""65462""
""focus"",""10"",""67259""
""blur"",""77"",""425619""
""focus"",""77"",""431947""
","""event"",""trial"",""time""
""blur"",""10"",""65462""
""blur"",""77"",""425619""
","""event"",""trial"",""time""
""focus"",""10"",""67259""
""focus"",""77"",""431947""
","""event"",""trial"",""time""
""fullscreenenter"",""1"",""3105""
","
","","","","","","null","<div style=""font-size:60px;"">+</div>","null","","fixation","","","","","","","","","","","","","",""
"learning-trial","149","650289","0.0-9.0-2.0-1.31","1708","1","2","""event"",""trial"",""time""
""fullscreenenter"",""1"",""3105""
""blur"",""10"",""65462""
""focus"",""10"",""67259""
""blur"",""77"",""425619""
""focus"",""77"",""431947""
","""event"",""trial"",""time""
""blur"",""10"",""65462""
""blur"",""77"",""425619""
","""event"",""trial"",""time""
""focus"",""10"",""67259""
""focus"",""77"",""431947""
","""event"",""trial"",""time""
""fullscreenenter"",""1"",""3105""
","
","","","","","","73.60000002384186","images/boat5.png","","","learning","images/vehicles_choice3.png","images/vehicles_choice1.png","images/vehicles_choice2.png","[2,0,1]","0","1","2","images/vehicles_choice1.png","1","vehicles","","boat","1","0"
"html-keyboard-response","150","650791","0.0-9.0-2.0-0.32","1708","1","2","""event"",""trial"",""time""
""fullscreenenter"",""1"",""3105""
""blur"",""10"",""65462""
""focus"",""10"",""67259""
""blur"",""77"",""425619""
""focus"",""77"",""431947""
","""event"",""trial"",""time""
""blur"",""10"",""65462""
""blur"",""77"",""425619""
","""event"",""trial"",""time""
""focus"",""10"",""67259""
""focus"",""77"",""431947""
","""event"",""trial"",""time""
""fullscreenenter"",""1"",""3105""
","
","","","","","","null","<div style=""font-size:60px;"">+</div>","null","","fixation","","","","","","","","","","","","","",""
"learning-trial","151","654794","0.0-9.0-2.0-1.32","1708","1","2","""event"",""trial"",""time""
""fullscreenenter"",""1"",""3105""
""blur"",""10"",""65462""
""focus"",""10"",""67259""
""blur"",""77"",""425619""
""focus"",""77"",""431947""
","""event"",""trial"",""time""
""blur"",""10"",""65462""
""blur"",""77"",""425619""
","""event"",""trial"",""time""
""focus"",""10"",""67259""
""focus"",""77"",""431947""
","""event"",""trial"",""time""
""fullscreenenter"",""1"",""3105""
","
","","","","","","215.69999992847443","images/boat1.png","","","learning","images/vehicles_choice3.png","images/vehicles_choice1.png","images/vehicles_choice2.png","[2,0,1]","0","1","2","images/vehicles_choice1.png","1","vehicles","","boat","1","0"
"html-keyboard-response","152","655295","0.0-9.0-2.0-0.33","1708","1","2","""event"",""trial"",""time""
""fullscreenenter"",""1"",""3105""
""blur"",""10"",""65462""
""focus"",""10"",""67259""
""blur"",""77"",""425619""
""focus"",""77"",""431947""
","""event"",""trial"",""time""
""blur"",""10"",""65462""
""blur"",""77"",""425619""
","""event"",""trial"",""time""
""focus"",""10"",""67259""
""focus"",""77"",""431947""
","""event"",""trial"",""time""
""fullscreenenter"",""1"",""3105""
","
","","","","","","null","<div style=""font-size:60px;"">+</div>","null","","fixation","","","","","","","","","","","","","",""
"learning-trial","153","659298","0.0-9.0-2.0-1.33","1708","1","2","""event"",""trial"",""time""
""fullscreenenter"",""1"",""3105""
""blur"",""10"",""65462""
""focus"",""10"",""67259""
""blur"",""77"",""425619""
""focus"",""77"",""431947""
","""event"",""trial"",""time""
""blur"",""10"",""65462""
""blur"",""77"",""425619""
","""event"",""trial"",""time""
""focus"",""10"",""67259""
""focus"",""77"",""431947""
","""event"",""trial"",""time""
""fullscreenenter"",""1"",""3105""
","
","","","","","","245.29999995231628","images/truck3.png","","","learning","images/vehicles_choice2.png","images/vehicles_choice3.png","images/vehicles_choice1.png","[1,2,0]","1","0","2","images/vehicles_choice3.png","-1","vehicles","","truck","1","0"
"html-keyboard-response","154","659799","0.0-9.0-2.0-0.34","1708","1","2","""event"",""trial"",""time""
""fullscreenenter"",""1"",""3105""
""blur"",""10"",""65462""
""focus"",""10"",""67259""
""blur"",""77"",""425619""
""focus"",""77"",""431947""
","""event"",""trial"",""time""
""blur"",""10"",""65462""
""blur"",""77"",""425619""
","""event"",""trial"",""time""
""focus"",""10"",""67259""
""focus"",""77"",""431947""
","""event"",""trial"",""time""
""fullscreenenter"",""1"",""3105""
","
","","","","","","null","<div style=""font-size:60px;"">+</div>","null","","fixation","","","","","","","","","","","","","",""
"learning-trial","155","663802","0.0-9.0-2.0-1.34","1708","1","2","""event"",""trial"",""time""
""fullscreenenter"",""1"",""3105""
""blur"",""10"",""65462""
""focus"",""10"",""67259""
""blur"",""77"",""425619""
""focus"",""77"",""431947""
