"trial_type","trial_index","time_elapsed","internal_node_id","subject_id","condition","task_version","interactions","blur_events","focus_events","fullscreenenter_events","fullscreenexit_events","success","timeout","failed_images","failed_audio","failed_video","rt","stimulus","response","button_pressed","task_part","left_choice","middle_choice","right_choice","choice_positions","correct_response","correct_position","key_press","option_selected","points","task_block","correct","stim_cat","block_condition","block_number"
"pavlovia","0","4","0.0-0.0","1572","1","2","""event"",""trial"",""time""
""fullscreenenter"",""1"",""8459""
","
","
","""event"",""trial"",""time""
""fullscreenenter"",""1"",""8459""
","
","","","","","","","","","","","","","","","","","","","","","","","",""
"fullscreen","1","9423","0.0-1.0","1572","1","2","""event"",""trial"",""time""
""fullscreenenter"",""1"",""8459""
","
","
","""event"",""trial"",""time""
""fullscreenenter"",""1"",""8459""
","
","true","","","","","","","","","","","","","","","","","","","","","","",""
"preload","2","12891","0.0-2.0","1572","1","2","""event"",""trial"",""time""
""fullscreenenter"",""1"",""8459""
","
","
","""event"",""trial"",""time""
""fullscreenenter"",""1"",""8459""
","
","true","false","[]","[]","[]","","","","","","","","","","","","","","","","","","",""
"audio-keyboard-response","3","17029","0.0-3.0","1572","1","2","""event"",""trial"",""time""
""fullscreenenter"",""1"",""8459""
","
","
","""event"",""trial"",""time""
""fullscreenenter"",""1"",""8459""
","
","","","","","","4138.666666666667","audio/beep_loop.wav"," ","","","","","","","","","","","","","","","",""
"audio-button-response","4","22590","0.0-4.0","1572","1","2","""event"",""trial"",""time""
""fullscreenenter"",""1"",""8459""
","
","
","""event"",""trial"",""time""
""fullscreenenter"",""1"",""8459""
","
","","","","","","5560","audio/shark.wav","4","","","","","","","","","","","","","","","",""
"audio-button-response","5","25200","0.0-5.0","1572","1","2","""event"",""trial"",""time""
""fullscreenenter"",""1"",""8459""
","
","
","""event"",""trial"",""time""
""fullscreenenter"",""1"",""8459""
","
","","","","","","1611","audio/turtle.wav","1","","","","","","","","","","","","","","","",""
"preload","6","29439","0.0-6.0","1572","1","2","""event"",""trial"",""time""
""fullscreenenter"",""1"",""8459""
","
","
","""event"",""trial"",""time""
""fullscreenenter"",""1"",""8459""
","
","true","false","[]","[]","[]","","","","","","","","","","","","","","","","","","",""
"html-keyboard-response","7","31884","0.0-7.0","1572","1","2","""event"",""trial"",""time""
""fullscreenenter"",""1"",""8459""
","
","
","""event"",""trial"",""time""
""fullscreenenter"",""1"",""8459""
","
","","","","","","2442","Welcome to the experiment. Press any key to begin and to advance the instructions."," ","","","","","","","","","","","","","","","",""
"learning-instructions","8","44191","0.0-8.0-0.0-0.0","1572","1","2","""event"",""trial"",""time""
""fullscreenenter"",""1"",""8459""
","
","
","""event"",""trial"",""time""
""fullscreenenter"",""1"",""8459""
","
","","","","","","4554","<p> Welcome! Today you are going to play 6 different rounds of a decision-making game. </p><p> Use the mouse to click next to continue. </p>","","0","instructions","","","","","","","","","","","","","",""
"learning-instructions","9","51463","0.0-8.0-0.0-0.1","1572","1","2","""event"",""trial"",""time""
""fullscreenenter"",""1"",""8459""
","
","
","""event"",""trial"",""time""
""fullscreenenter"",""1"",""8459""
","
","","","","","","4267.299999999814","<p> You will start with a practice round to learn the rules. </p>","","0","instructions","","","","","","","","","","","","","",""
"learning-instructions","10","60394","0.0-8.0-0.0-0.2","1572","1","2","""event"",""trial"",""time""
""fullscreenenter"",""1"",""8459""
","
","
","""event"",""trial"",""time""
""fullscreenenter"",""1"",""8459""
","
","","","","","","1178.0999999996275","<p> Your goal in this round is to deliver sports equipment to three different parks. </p><p> You will need to deliver many types of equipment. </p></div>","","0","instructions","","","","","","","","","","","","","",""
"learning-instructions","11","70794","0.0-8.0-0.0-0.3","1572","1","2","""event"",""trial"",""time""
""fullscreenenter"",""1"",""8459""
","
","
","""event"",""trial"",""time""
""fullscreenenter"",""1"",""8459""
","
","","","","","","1919","<p> On each turn, you will see one piece of sports equipment and three different parks.  </p><p> You need to select which park to deliver the equipment to.  </p>","","0","instructions","","","","","","","","","","","","","",""
"learning-instructions","12","86938","0.0-8.0-0.0-0.4","1572","1","2","""event"",""trial"",""time""
""fullscreenenter"",""1"",""8459""
","
","
","""event"",""trial"",""time""
""fullscreenenter"",""1"",""8459""
","
","","","","","","2861.4000000003725","<p> You can select the park on the left by pressing the '1' key on your keyboard. <br>You can select the park in the middle by pressing the '2' key on your keyboard. <br>You can select the park on the right by pressing the '3' key on your keyboard.  </p><br><div class=""choice-instructions-grid""> <div class=""choice-option""><img src=""images/park1.png"" class=""choice-option-img"" stage=""instructions"" position=""0"" ><div class=""choice-option-text""> Press ""1."" </div></div><div class=""choice-option""><img src=""images/park2.png"" class=""choice-option-img"" stage=""instructions"" position=""1"" ><div class=""choice-option-text""> Press ""2."" </div></div><div class=""choice-option""><img src=""images/park3.png"" class=""choice-option-img"" stage=""instructions"" position=""2"" ><div class=""choice-option-text""> Press ""3."" </div></div></div>","","0","instructions","","","","","","","","","","","","","",""
"learning-instructions","13","93466","0.0-8.0-0.0-0.5","1572","1","2","""event"",""trial"",""time""
""fullscreenenter"",""1"",""8459""
","
","
","""event"",""trial"",""time""
""fullscreenenter"",""1"",""8459""
","
","","","","","","1140.4000000003725","<p> If the kids in the park you chose like the equipment, they will be very happy! </p><div style='float: center;'><img src='images/check.png' width = '200' height = '200'></img>","","0","instructions","","","","","","","","","","","","","",""
"learning-instructions","14","100149","0.0-8.0-0.0-0.6","1572","1","2","""event"",""trial"",""time""
""fullscreenenter"",""1"",""8459""
","
","
","""event"",""trial"",""time""
""fullscreenenter"",""1"",""8459""
","
","","","","","","1072.2999999998137","<p> But, if the kids in the park you chose do not like the equipment, they will be sad. </p><div style='float: center;'><img src='images/x.png' width = '200' height = '200'></img>","","0","instructions","","","","","","","","","","","","","",""
"learning-instructions","15","107888","0.0-8.0-0.0-0.7","1572","1","2","""event"",""trial"",""time""
""fullscreenenter"",""1"",""8459""
","
","
","""event"",""trial"",""time""
""fullscreenenter"",""1"",""8459""
","
","","","","","","1312.4000000003725","<p> Importantly, the kids in each park like some pieces of sports equipment more than others. </p>","","0","instructions","","","","","","","","","","","","","",""
"learning-instructions","16","114904","0.0-8.0-0.0-0.8","1572","1","2","""event"",""trial"",""time""
""fullscreenenter"",""1"",""8459""
","
","
","""event"",""trial"",""time""
""fullscreenenter"",""1"",""8459""
","
","","","","","","958.7999999998137","<p> If you choose the best park for each piece of equipment, the kids there will usually be happy. </p>","","0","instructions","","","","","","","","","","","","","",""
"learning-instructions","17","123943","0.0-8.0-0.0-0.9","1572","1","2","""event"",""trial"",""time""
""fullscreenenter"",""1"",""8459""
","
","
","""event"",""trial"",""time""
""fullscreenenter"",""1"",""8459""
","
","","","","","","2388","<p> However, even if you choose the best park for the equipment, the kids may sometimes be sad. </p>","","0","instructions","","","","","","","","","","","","","",""
"learning-instructions","18","133156","0.0-8.0-0.0-0.10","1572","1","2","""event"",""trial"",""time""
""fullscreenenter"",""1"",""8459""
","
","
","""event"",""trial"",""time""
""fullscreenenter"",""1"",""8459""
","
","","","","","","1971.4000000003725","<p> Similarly, even if you choose the <i>wrong</i> park for the equipment, the kids may still be happy sometimes.","","0","instructions","","","","","","","","","","","","","",""
"learning-instructions","19","139928","0.0-8.0-0.0-0.11","1572","1","2","""event"",""trial"",""time""
""fullscreenenter"",""1"",""8459""
","
","
","""event"",""trial"",""time""
""fullscreenenter"",""1"",""8459""
","
","","","","","","1713.4000000003725","<p> For example, the best park for this soccer ball is this one.<div style='float: center;'><img src='images/i1.png' width = '500' height = '268'></img>","","0","instructions","","","","","","","","","","","","","",""
"learning-instructions","20","146367","0.0-8.0-0.0-0.12","1572","1","2","""event"",""trial"",""time""
""fullscreenenter"",""1"",""8459""
","
","
","""event"",""trial"",""time""
""fullscreenenter"",""1"",""8459""
","
","","","","","","1132.7000000001863","<p> Let's see what happens if you choose this park for the soccer ball five times.","","0","instructions","","","","","","","","","","","","","",""
"learning-instructions","21","149795","0.0-8.0-0.0-0.13","1572","1","2","""event"",""trial"",""time""
""fullscreenenter"",""1"",""8459""
","
","
","""event"",""trial"",""time""
""fullscreenenter"",""1"",""8459""
","
","","","","","","1250.4000000003725","<p> The kids are happy.<div style='float: left;'><img src='images/i2.png' width = '640' height = '360'></img>","","0","instructions","","","","","","","","","","","","","",""
"learning-instructions","22","152459","0.0-8.0-0.0-0.14","1572","1","2","""event"",""trial"",""time""
""fullscreenenter"",""1"",""8459""
","
","
","""event"",""trial"",""time""
""fullscreenenter"",""1"",""8459""
","
","","","","","","483.8999999994412","<p> The kids are happy.<div style='float: left;'><img src='images/i3.png' width = '640' height = '360'></img>","","0","instructions","","","","","","","","","","","","","",""
"learning-instructions","23","155154","0.0-8.0-0.0-0.15","1572","1","2","""event"",""trial"",""time""
""fullscreenenter"",""1"",""8459""
","
","
","""event"",""trial"",""time""
""fullscreenenter"",""1"",""8459""
","
","","","","","","518.7999999998137","<p> The kids are happy.<div style='float: left;'><img src='images/i4.png' width = '640' height = '360'></img>","","0","instructions","","","","","","","","","","","","","",""
"learning-instructions","24","158034","0.0-8.0-0.0-0.16","1572","1","2","""event"",""trial"",""time""
""fullscreenenter"",""1"",""8459""
","
","
","""event"",""trial"",""time""
""fullscreenenter"",""1"",""8459""
","
","","","","","","658.2000000001863","<p> The kids are sad.<div style='float: left;'><img src='images/i5.png' width = '640' height = '360'></img>","","0","instructions","","","","","","","","","","","","","",""
"learning-instructions","25","160897","0.0-8.0-0.0-0.17","1572","1","2","""event"",""trial"",""time""
""fullscreenenter"",""1"",""8459""
","
","
","""event"",""trial"",""time""
""fullscreenenter"",""1"",""8459""
","
","","","","","","701.2999999998137","<p> The kids are happy.<div style='float: left;'><img src='images/i6.png' width = '640' height = '360'></img>","","0","instructions","","","","","","","","","","","","","",""
"learning-instructions","26","169327","0.0-8.0-0.0-0.18","1572","1","2","""event"",""trial"",""time""
""fullscreenenter"",""1"",""8459""
","
","
","""event"",""trial"",""time""
""fullscreenenter"",""1"",""8459""
","
","","","","","","1152.5","<p> As you can see, selecting that park for the soccer ball made the kids happy most of the time, but not all the time.","","0","instructions","","","","","","","","","","","","","",""
"learning-instructions","27","176743","0.0-8.0-0.0-0.19","1572","1","2","""event"",""trial"",""time""
""fullscreenenter"",""1"",""8459""
","
","
","""event"",""trial"",""time""
""fullscreenenter"",""1"",""8459""
","
","","","","","","1408.1000000005588","<p> Now let's see what happens if you choose a DIFFERENT park for the soccer ball 5 times.","","0","instructions","","","","","","","","","","","","","",""
"learning-instructions","28","180584","0.0-8.0-0.0-0.20","1572","1","2","""event"",""trial"",""time""
""fullscreenenter"",""1"",""8459""
","
","
","""event"",""trial"",""time""
""fullscreenenter"",""1"",""8459""
","
","","","","","","1627.699999999255","<p> The kids are sad.<div style='float: left;'><img src='images/i7.png' width = '640' height = '360'></img>","","0","instructions","","","","","","","","","","","","","",""
"learning-instructions","29","183254","0.0-8.0-0.0-0.21","1572","1","2","""event"",""trial"",""time""
""fullscreenenter"",""1"",""8459""
","
","
","""event"",""trial"",""time""
""fullscreenenter"",""1"",""8459""
","
","","","","","","467.59999999962747","<p> The kids are sad.<div style='float: left;'><img src='images/i8.png' width = '640' height = '360'></img>","","0","instructions","","","","","","","","","","","","","",""
"learning-instructions","30","185993","0.0-8.0-0.0-0.22","1572","1","2","""event"",""trial"",""time""
""fullscreenenter"",""1"",""8459""
","
","
","""event"",""trial"",""time""
""fullscreenenter"",""1"",""8459""
","
","","","","","","567.5","<p> The kids are happy.<div style='float: left;'><img src='images/i9.png' width = '640' height = '360'></img>","","0","instructions","","","","","","","","","","","","","",""
"learning-instructions","31","189606","0.0-8.0-0.0-0.23","1572","1","2","""event"",""trial"",""time""
""fullscreenenter"",""1"",""8459""
","
","
","""event"",""trial"",""time""
""fullscreenenter"",""1"",""8459""
","
","","","","","","1389.9000000003725","<p> The kids are sad.<div style='float: left;'><img src='images/i10.png' width = '640' height = '360'></img>","","0","instructions","","","","","","","","","","","","","",""
"learning-instructions","32","193030","0.0-8.0-0.0-0.24","1572","1","2","""event"",""trial"",""time""
""fullscreenenter"",""1"",""8459""
","
","
","""event"",""trial"",""time""
""fullscreenenter"",""1"",""8459""
","
","","","","","","1204","<p> The kids are sad.<div style='float: left;'><img src='images/i11.png' width = '640' height = '360'></img>","","0","instructions","","","","","","","","","","","","","",""
"learning-instructions","33","202398","0.0-8.0-0.0-0.25","1572","1","2","""event"",""trial"",""time""
""fullscreenenter"",""1"",""8459""
","
","
","""event"",""trial"",""time""
""fullscreenenter"",""1"",""8459""
","
","","","","","","1232.5","<p> As you can see, selecting the wrong park for the soccer ball made the kids sad most of the time, but not all the time.","","0","instructions","","","","","","","","","","","","","",""
"learning-instructions","34","213478","0.0-8.0-0.0-0.26","1572","1","2","""event"",""trial"",""time""
""fullscreenenter"",""1"",""8459""
","
","
","""event"",""trial"",""time""
""fullscreenenter"",""1"",""8459""
","
","","","","","","1961.6000000005588","<p> The different pieces of equipment belong in different parks. You need to try to learn which is the best park for each piece of equipment.","","0","instructions","","","","","","","","","","","","","",""
"learning-instructions","35","230882","0.0-8.0-0.0-0.27","1572","1","2","""event"",""trial"",""time""
""fullscreenenter"",""1"",""8459""
","
","
","""event"",""trial"",""time""
""fullscreenenter"",""1"",""8459""
","
","","","","","","1006.0999999996275","<p> Try to choose the best park for each piece of equipment, because you will <b> WIN </b> 1 point for each time you make the kids happy and <b>LOSE</b> 1 point for each time you make them sad. </p><p> Remember, if you make the best choice, you will win 1 point most of the time, but not all the time. </p>","","0","instructions","","","","","","","","","","","","","",""
"learning-instructions","36","238595","0.0-8.0-0.0-0.28","1572","1","2","""event"",""trial"",""time""
""fullscreenenter"",""1"",""8459""
","
","
","""event"",""trial"",""time""
""fullscreenenter"",""1"",""8459""
","
","","","","","","2220.4000000003725","<p> This is just a practice round, but in the real game, your bonus payment will depend on your total number of points.","","0","instructions","","","","","","","","","","","","","",""
"learning-instructions","37","250741","0.0-8.0-0.0-0.29","1572","1","2","""event"",""trial"",""time""
""fullscreenenter"",""1"",""8459""
","
","
","""event"",""trial"",""time""
""fullscreenenter"",""1"",""8459""
","
","","","","","","1816.5999999996275","<p> The position where each park appears will change throughout the game. </p><p> The position where the park appears <i> does not </i> influence how likely the kids are to be happy or sad. </p>","","0","instructions","","","","","","","","","","","","","",""
"learning-instructions","38","262539","0.0-8.0-0.0-0.30","1572","1","2","""event"",""trial"",""time""
""fullscreenenter"",""1"",""8459""
","
","
","""event"",""trial"",""time""
""fullscreenenter"",""1"",""8459""
","
","","","","","","1314.8999999994412","<p> You will have 4 seconds to make each choice. Try to respond before time runs out! </p><p> You will lose 1 point each time you do not make a response. </p>","","0","instructions","","","","","","","","","","","","","",""
"learning-instructions","39","270089","0.0-8.0-0.0-0.31","1572","1","2","""event"",""trial"",""time""
""fullscreenenter"",""1"",""8459""
","
","
","""event"",""trial"",""time""
""fullscreenenter"",""1"",""8459""
","
","","","","","","752.5999999996275","<p> Remember, you should use the 1, 2, and 3 keys to select the park for each piece of equipment. </p><br><div class=""choice-instructions-grid""> <div class=""choice-option""><img src=""images/park1.png"" class=""choice-option-img"" stage=""instructions"" position=""0"" ><div class=""choice-option-text""> Press ""1."" </div></div><div class=""choice-option""><img src=""images/park2.png"" class=""choice-option-img"" stage=""instructions"" position=""1"" ><div class=""choice-option-text""> Press ""2."" </div></div><div class=""choice-option""><img src=""images/park3.png"" class=""choice-option-img"" stage=""instructions"" position=""2"" ><div class=""choice-option-text""> Press ""3."" </div></div></div>","","0","instructions","","","","","","","","","","","","","",""
"html-button-response","40","273183","0.0-8.0-1.0","1572","1","2","""event"",""trial"",""time""
""fullscreenenter"",""1"",""8459""
","
","
","""event"",""trial"",""time""
""fullscreenenter"",""1"",""8459""
","
","","","","","","2982.7999999998137","<p> Ready to practice? </p>","0","","","","","","","","","","","","","","","",""
"html-keyboard-response","41","273799","0.0-8.0-2.0-0.0","1572","1","2","""event"",""trial"",""time""
""fullscreenenter"",""1"",""8459""
","
","
","""event"",""trial"",""time""
""fullscreenenter"",""1"",""8459""
","
","","","","","","null","<div style=""font-size:60px;"">+</div>","null","","fixation","","","","","","","","","","","","","",""
"learning-trial","42","277808","0.0-8.0-2.0-1.0","1572","1","2","""event"",""trial"",""time""
""fullscreenenter"",""1"",""8459""
","
","
","""event"",""trial"",""time""
""fullscreenenter"",""1"",""8459""
","
","","","","","","1981.7999999998137","images/racket4.png","","","practice","images/park1.png","images/park3.png","images/park2.png","[0,2,1]","1","2","2","images/park3.png","-1","practice","","","",""
"html-keyboard-response","43","278317","0.0-8.0-2.0-0.1","1572","1","2","""event"",""trial"",""time""
""fullscreenenter"",""1"",""8459""
","
","
","""event"",""trial"",""time""
""fullscreenenter"",""1"",""8459""
","
","","","","","","null","<div style=""font-size:60px;"">+</div>","null","","fixation","","","","","","","","","","","","","",""
"learning-trial","44","282324","0.0-8.0-2.0-1.1","1572","1","2","""event"",""trial"",""time""
""fullscreenenter"",""1"",""8459""
","
","
","""event"",""trial"",""time""
""fullscreenenter"",""1"",""8459""
","
","","","","","","1098.7999999998137","images/ball4.png","","","practice","images/park3.png","images/park2.png","images/park1.png","[2,1,0]","0","2","1","images/park3.png","-1","practice","","","",""
"html-keyboard-response","45","282826","0.0-8.0-2.0-0.2","1572","1","2","""event"",""trial"",""time""
""fullscreenenter"",""1"",""8459""
","
","
","""event"",""trial"",""time""
""fullscreenenter"",""1"",""8459""
","
","","","","","","null","<div style=""font-size:60px;"">+</div>","null","","fixation","","","","","","","","","","","","","",""
"learning-trial","46","286836","0.0-8.0-2.0-1.2","1572","1","2","""event"",""trial"",""time""
""fullscreenenter"",""1"",""8459""
","
","
","""event"",""trial"",""time""
""fullscreenenter"",""1"",""8459""
","
","","","","","","1922.1000000005588","images/ball4.png","","","practice","images/park3.png","images/park1.png","images/park2.png","[2,0,1]","0","1","2","images/park1.png","-1","practice","","","",""
"html-keyboard-response","47","287347","0.0-8.0-2.0-0.3","1572","1","2","""event"",""trial"",""time""
""fullscreenenter"",""1"",""8459""
","
","
","""event"",""trial"",""time""
""fullscreenenter"",""1"",""8459""
","
","","","","","","null","<div style=""font-size:60px;"">+</div>","null","","fixation","","","","","","","","","","","","","",""
"learning-trial","48","291364","0.0-8.0-2.0-1.3","1572","1","2","""event"",""trial"",""time""
""fullscreenenter"",""1"",""8459""
","
","
","""event"",""trial"",""time""
""fullscreenenter"",""1"",""8459""
","
","","","","","","1876.9000000003725","images/racket2.png","","","practice","images/park1.png","images/park3.png","images/park2.png","[0,2,1]","1","2","3","images/park2.png","1","practice","","","",""
"html-keyboard-response","49","291866","0.0-8.0-2.0-0.4","1572","1","2","""event"",""trial"",""time""
""fullscreenenter"",""1"",""8459""
","
","
","""event"",""trial"",""time""
""fullscreenenter"",""1"",""8459""
","
","","","","","","null","<div style=""font-size:60px;"">+</div>","null","","fixation","","","","","","","","","","","","","",""
"learning-trial","50","295879","0.0-8.0-2.0-1.4","1572","1","2","""event"",""trial"",""time""
""fullscreenenter"",""1"",""8459""
","
","
","""event"",""trial"",""time""
""fullscreenenter"",""1"",""8459""
","
","","","","","","3998.0999999996275","images/ball3.png","","","practice","images/park1.png","images/park2.png","images/park3.png","[0,1,2]","0","0","3","images/park3.png","-1","practice","","","",""
"html-keyboard-response","51","296389","0.0-8.0-2.0-0.5","1572","1","2","""event"",""trial"",""time""
""fullscreenenter"",""1"",""8459""
","
","
","""event"",""trial"",""time""
""fullscreenenter"",""1"",""8459""
","
","","","","","","null","<div style=""font-size:60px;"">+</div>","null","","fixation","","","","","","","","","","","","","",""
"learning-trial","52","300397","0.0-8.0-2.0-1.5","1572","1","2","""event"",""trial"",""time""
""fullscreenenter"",""1"",""8459""
","
","
","""event"",""trial"",""time""
""fullscreenenter"",""1"",""8459""
","
","","","","","","1652.5","images/ball3.png","","","practice","images/park1.png","images/park3.png","images/park2.png","[0,2,1]","0","0","3","images/park2.png","-1","practice","","","",""
"html-keyboard-response","53","300900","0.0-8.0-2.0-0.6","1572","1","2","""event"",""trial"",""time""
""fullscreenenter"",""1"",""8459""
","
","
","""event"",""trial"",""time""
""fullscreenenter"",""1"",""8459""
","
","","","","","","null","<div style=""font-size:60px;"">+</div>","null","","fixation","","","","","","","","","","","","","",""
"learning-trial","54","304909","0.0-8.0-2.0-1.6","1572","1","2","""event"",""trial"",""time""
""fullscreenenter"",""1"",""8459""
","
","
","""event"",""trial"",""time""
""fullscreenenter"",""1"",""8459""
","
","","","","","","3202","images/racket2.png","","","practice","images/park3.png","images/park1.png","images/park2.png","[2,0,1]","1","2","1","images/park3.png","-1","practice","","","",""
"html-keyboard-response","55","305417","0.0-8.0-2.0-0.7","1572","1","2","""event"",""trial"",""time""
""fullscreenenter"",""1"",""8459""
","
","
","""event"",""trial"",""time""
""fullscreenenter"",""1"",""8459""
","
","","","","","","null","<div style=""font-size:60px;"">+</div>","null","","fixation","","","","","","","","","","","","","",""
"learning-trial","56","309426","0.0-8.0-2.0-1.7","1572","1","2","""event"",""trial"",""time""
""fullscreenenter"",""1"",""8459""
","
","
","""event"",""trial"",""time""
""fullscreenenter"",""1"",""8459""
","
","","","","","","1165.4000000003725","images/ball1.png","","","practice","images/park3.png","images/park2.png","images/park1.png","[2,1,0]","2","0","3","images/park1.png","-1","practice","","","",""
"html-keyboard-response","57","309929","0.0-8.0-2.0-0.8","1572","1","2","""event"",""trial"",""time""
""fullscreenenter"",""1"",""8459""
","
","
","""event"",""trial"",""time""
""fullscreenenter"",""1"",""8459""
","
","","","","","","null","<div style=""font-size:60px;"">+</div>","null","","fixation","","","","","","","","","","","","","",""
"learning-trial","58","313936","0.0-8.0-2.0-1.8","1572","1","2","""event"",""trial"",""time""
""fullscreenenter"",""1"",""8459""
","
","
","""event"",""trial"",""time""
""fullscreenenter"",""1"",""8459""
","
","","","","","","1284.1000000005588","images/ball1.png","","","practice","images/park1.png","images/park2.png","images/park3.png","[0,1,2]","2","2","2","images/park2.png","-1","practice","","","",""
"html-keyboard-response","59","314439","0.0-8.0-2.0-0.9","1572","1","2","""event"",""trial"",""time""
""fullscreenenter"",""1"",""8459""
","
","
","""event"",""trial"",""time""
""fullscreenenter"",""1"",""8459""
","
","","","","","","null","<div style=""font-size:60px;"">+</div>","null","","fixation","","","","","","","","","","","","","",""
"learning-trial","60","318447","0.0-8.0-2.0-1.9","1572","1","2","""event"",""trial"",""time""
""fullscreenenter"",""1"",""8459""
","
","
","""event"",""trial"",""time""
""fullscreenenter"",""1"",""8459""
","
","","","","","","1595.4000000003725","images/ball2.png","","","practice","images/park3.png","images/park2.png","images/park1.png","[2,1,0]","2","0","3","images/park1.png","-1","practice","","","",""
"html-keyboard-response","61","318950","0.0-8.0-2.0-0.10","1572","1","2","""event"",""trial"",""time""
""fullscreenenter"",""1"",""8459""
","
","
","""event"",""trial"",""time""
""fullscreenenter"",""1"",""8459""
","
","","","","","","null","<div style=""font-size:60px;"">+</div>","null","","fixation","","","","","","","","","","","","","",""
"learning-trial","62","322958","0.0-8.0-2.0-1.10","1572","1","2","""event"",""trial"",""time""
""fullscreenenter"",""1"",""8459""
","
","
","""event"",""trial"",""time""
""fullscreenenter"",""1"",""8459""
","
","","","","","","2528.4000000003725","images/ball2.png","","","practice","images/park1.png","images/park2.png","images/park3.png","[0,1,2]","2","2","1","images/park1.png","-1","practice","","","",""
"html-keyboard-response","63","323461","0.0-8.0-2.0-0.11","1572","1","2","""event"",""trial"",""time""
""fullscreenenter"",""1"",""8459""
","
","
","""event"",""trial"",""time""
""fullscreenenter"",""1"",""8459""
","
","","","","","","null","<div style=""font-size:60px;"">+</div>","null","","fixation","","","","","","","","","","","","","",""
"learning-trial","64","327469","0.0-8.0-2.0-1.11","1572","1","2","""event"",""trial"",""time""
""fullscreenenter"",""1"",""8459""
","
","
","""event"",""trial"",""time""
""fullscreenenter"",""1"",""8459""
","
","","","","","","1611.2999999998137","images/racket4.png","","","practice","images/park1.png","images/park3.png","images/park2.png","[0,2,1]","1","2","1","images/park1.png","-1","practice","","","",""
"html-button-response","65","330946","0.0-8.0-3.0","1572","1","2","""event"",""trial"",""time""
""fullscreenenter"",""1"",""8459""
","
","
","""event"",""trial"",""time""
""fullscreenenter"",""1"",""8459""
","
","","","","","","3471.5","<p> You earned -10 points in the practice round! </p>","0","","break","","","","","","","","","","","","","",""
"learning-instructions","66","341218","0.0-8.0-4.0-0.0","1572","1","2","""event"",""trial"",""time""
""fullscreenenter"",""1"",""8459""
","
","
","""event"",""trial"",""time""
""fullscreenenter"",""1"",""8459""
","
","","","","","","2587.2999999998137","<p> It's almost time to start the real game. </p><p> Before you start, we're going to ask you a few questions about how the game works. </p>","","0","instructions","","","","","","","","","","","","","",""
"preload","67","342844","0.0-8.0-5.0","1572","1","2","""event"",""trial"",""time""
""fullscreenenter"",""1"",""8459""
","
","
","""event"",""trial"",""time""
""fullscreenenter"",""1"",""8459""
","
","true","false","[]","[]","[]","","","","","","","","","","","","","","","","","","",""
"comp-q","68","350182","0.0-8.0-6.0-0.0","1572","1","2","""event"",""trial"",""time""
""fullscreenenter"",""1"",""8459""
","
","
","""event"",""trial"",""time""
""fullscreenenter"",""1"",""8459""
","
","","","","","","1891.2000000001863","<p> <b> True or False? </b> </p><p> If you choose the best option, you will always earn 1 point. </p>","","1","comp_question","","","","","","","","","","","true","","",""
"comp-q","69","357385","0.0-8.0-6.0-1.0","1572","1","2","""event"",""trial"",""time""
""fullscreenenter"",""1"",""8459""
","
","
","""event"",""trial"",""time""
""fullscreenenter"",""1"",""8459""
","
","","","","","","1534.9000000003725","<p><b> That's right! </b> Sometimes you will lose 1 point, even if you choose the best option. </p>","","0","comp_answer","","","","","","","","","","","","","",""
"comp-q","70","362840","0.0-8.0-6.0-0.1","1572","1","2","""event"",""trial"",""time""
""fullscreenenter"",""1"",""8459""
","
","
","""event"",""trial"",""time""
""fullscreenenter"",""1"",""8459""
","
","","","","","","809.5","<p> <b> True or False? </b> </p><p> You will have as much time as you want to make each choice. </p>","","1","comp_question","","","","","","","","","","","true","","",""
"comp-q","71","369008","0.0-8.0-6.0-1.1","1572","1","2","""event"",""trial"",""time""
""fullscreenenter"",""1"",""8459""
","
","
","""event"",""trial"",""time""
""fullscreenenter"",""1"",""8459""
","
","","","","","","1337.4000000003725","<p> <b> That's right! </b> You will only have 4 seconds to make each choice. </p>","","0","comp_answer","","","","","","","","","","","","","",""
"comp-q","72","376865","0.0-8.0-6.0-0.2","1572","1","2","""event"",""trial"",""time""
""fullscreenenter"",""1"",""8459""
","
","
","""event"",""trial"",""time""
""fullscreenenter"",""1"",""8459""
","
","","","","","","1704.7999999998137","<p> <b> True or False? </b> </p><p> You should use the '1', '2', and '3' keys to make your choices. </p>","","0","comp_question","","","","","","","","","","","true","","",""
"comp-q","73","387014","0.0-8.0-6.0-1.2","1572","1","2","""event"",""trial"",""time""
""fullscreenenter"",""1"",""8459""
","
","
","""event"",""trial"",""time""
""fullscreenenter"",""1"",""8459""
","
","","","","","","5303.5","<p> <b> That's right! </b> You should use the '1', '2', and '3' keys to make each choice. </p>","","0","comp_answer","","","","","","","","","","","","","",""
"learning-instructions","74","397147","0.0-8.0-7.0-0.0","1572","1","2","""event"",""trial"",""time""
""fullscreenenter"",""1"",""8459""
","
","
","""event"",""trial"",""time""
""fullscreenenter"",""1"",""8459""
","
","","","","","","1616.2000000001863","<p> It's now time to start the real game. </p>Do your best, because the points you earn in the next rounds will influence your bonus payment. </p>","","0","instructions","","","","","","","","","","","","","",""
"preload","75","398876","0.0-9.0-0.0","1572","1","2","""event"",""trial"",""time""
""fullscreenenter"",""1"",""8459""
","
","
","""event"",""trial"",""time""
""fullscreenenter"",""1"",""8459""
","
","true","false","[]","[]","[]","","","","","","","","","","","","","","","","","","",""
"learning-instructions","76","406897","0.0-9.0-1.0-0.0","1572","1","2","""event"",""trial"",""time""
""fullscreenenter"",""1"",""8459""
","
","
","""event"",""trial"",""time""
""fullscreenenter"",""1"",""8459""
","
","","","","","","1197.4000000003725","<p> Your goal in this round is to grow a beautiful garden by watering plants. </p><p> You will need to water many different plants. </p></div>","","0","instructions","","","","","","","","","","","","","",""
"learning-instructions","77","424296","0.0-9.0-1.0-0.1","1572","1","2","""event"",""trial"",""time""
""fullscreenenter"",""1"",""8459""
","
","
","""event"",""trial"",""time""
""fullscreenenter"",""1"",""8459""
","
","","","","","","4114.700000000186","<p> On each turn, you will see a picture of one of your plants and three different watering cans.  </p><p> Each watering can has a different mixture of water and fertilizer.  </p><p> You need to select which watering can to use for each plant. </p>","","0","instructions","","","","","","","","","","","","","",""
"learning-instructions","78","434843","0.0-9.0-1.0-0.2","1572","1","2","""event"",""trial"",""time""
""fullscreenenter"",""1"",""8459""
","
","
","""event"",""trial"",""time""
""fullscreenenter"",""1"",""8459""
","
","","","","","","2801.7999999998137","<p> You can select the watering can on the left by pressing 1, the watering can in the middle by pressing 2, and the watering can on the right by pressing 3. </p><br><div class=""choice-instructions-grid""> <div class=""choice-option""><img src=""images/plants_choice1.png"" class=""choice-option-img"" stage=""instructions"" position=""0"" ><div class=""choice-option-text""> Press ""1."" </div></div><div class=""choice-option""><img src=""images/plants_choice2.png"" class=""choice-option-img"" stage=""instructions"" position=""1"" ><div class=""choice-option-text""> Press ""2."" </div></div><div class=""choice-option""><img src=""images/plants_choice3.png"" class=""choice-option-img"" stage=""instructions"" position=""2"" ><div class=""choice-option-text""> Press ""3."" </div></div></div>","","0","instructions","","","","","","","","","","","","","",""
"learning-instructions","79","439943","0.0-9.0-1.0-0.3","1572","1","2","""event"",""trial"",""time""
""fullscreenenter"",""1"",""8459""
","
","
","""event"",""trial"",""time""
""fullscreenenter"",""1"",""8459""
","
","","","","","","913.0999999996275","<p> If the watering can you chose works for the plant, it will grow! </p><div style='float: center;'><img src='images/check.png' width = '200' height = '200'></img>","","0","instructions","","","","","","","","","","","","","",""
"learning-instructions","80","445685","0.0-9.0-1.0-0.4","1572","1","2","""event"",""trial"",""time""
""fullscreenenter"",""1"",""8459""
","
","
","""event"",""trial"",""time""
""fullscreenenter"",""1"",""8459""
","
","","","","","","934.9000000003725","<p> But, if the watering can you chose does not work, your plant will droop. </p><div style='float: center;'><img src='images/x.png' width = '200' height = '200'></img>","","0","instructions","","","","","","","","","","","","","",""
"learning-instructions","81","456949","0.0-9.0-1.0-0.5","1572","1","2","""event"",""trial"",""time""
""fullscreenenter"",""1"",""8459""
","
","
","""event"",""trial"",""time""
""fullscreenenter"",""1"",""8459""
","
","","","","","","1189.7000000001863","<p> Importantly, each plant has one fertilizer mixture that works best for it. </p><p> If you choose the watering can with the right fertilizer, the plant will be more likely to grow. </p>","","0","instructions","","","","","","","","","","","","","",""
"learning-instructions","82","468613","0.0-9.0-1.0-0.6","1572","1","2","""event"",""trial"",""time""
""fullscreenenter"",""1"",""8459""
","
","
","""event"",""trial"",""time""
""fullscreenenter"",""1"",""8459""
","
","","","","","","1324","<p> However, even if you choose the best watering can for the plant, the plant may still droop. </p><p> Similarly, even if you choose the <i>wrong</i> watering can, the plant may still grow.","","0","instructions","","","","","","","","","","","","","",""
"learning-instructions","83","481593","0.0-9.0-1.0-0.7","1572","1","2","""event"",""trial"",""time""
""fullscreenenter"",""1"",""8459""
","
","
","""event"",""trial"",""time""
""fullscreenenter"",""1"",""8459""
","
","","","","","","1102.6000000005588","<p> Try to choose the best watering can for each plant, because you will <b> WIN </b> 1 point each time a plant grows and <b>LOSE</b>  1 point each time a plant droops. </p><p> Your bonus payment will depend on your total number of points.","","0","instructions","","","","","","","","","","","","","",""
"learning-instructions","84","491203","0.0-9.0-1.0-0.8","1572","1","2","""event"",""trial"",""time""
""fullscreenenter"",""1"",""8459""
","
","
","""event"",""trial"",""time""
""fullscreenenter"",""1"",""8459""
","
","","","","","","1592.699999999255","<p> The position of each watering can will change throughout the round. </p><p> The watering can's position <i> does not </i> influence how likely each plant is to droop or grow. </p>","","0","instructions","","","","","","","","","","","","","",""
"learning-instructions","85","502063","0.0-9.0-1.0-0.9","1572","1","2","""event"",""trial"",""time""
""fullscreenenter"",""1"",""8459""
","
","
","""event"",""trial"",""time""
""fullscreenenter"",""1"",""8459""
","
","","","","","","1563","<p> You will have 4 seconds to make each choice. Try to respond before time runs out! </p><p> You will lose 1 point each time you do not make a response. </p>","","0","instructions","","","","","","","","","","","","","",""
"html-keyboard-response","86","502676","0.0-9.0-2.0-0.0","1572","1","2","""event"",""trial"",""time""
""fullscreenenter"",""1"",""8459""
","
","
","""event"",""trial"",""time""
""fullscreenenter"",""1"",""8459""
","
","","","","","","null","<div style=""font-size:60px;"">+</div>","null","","fixation","","","","","","","","","","","","","",""
"learning-trial","87","506685","0.0-9.0-2.0-1.0","1572","1","2","""event"",""trial"",""time""
""fullscreenenter"",""1"",""8459""
","
","
","""event"",""trial"",""time""
""fullscreenenter"",""1"",""8459""
","
","","","","","","3963.0999999996275","images/cactus3.png","","","learning","images/plants_choice2.png","images/plants_choice1.png","images/plants_choice3.png","[1,0,2]","0","1","1","images/plants_choice2.png","-1","plants","","cactus","1","0"
"html-keyboard-response","88","507201","0.0-9.0-2.0-0.1","1572","1","2","""event"",""trial"",""time""
""fullscreenenter"",""1"",""8459""
","
","
","""event"",""trial"",""time""
""fullscreenenter"",""1"",""8459""
","
","","","","","","null","<div style=""font-size:60px;"">+</div>","null","","fixation","","","","","","","","","","","","","",""
"learning-trial","89","511216","0.0-9.0-2.0-1.1","1572","1","2","""event"",""trial"",""time""
""fullscreenenter"",""1"",""8459""
","
","
","""event"",""trial"",""time""
""fullscreenenter"",""1"",""8459""
","
","","","","","","1852.9000000003725","images/flower2.png","","","learning","images/plants_choice3.png","images/plants_choice2.png","images/plants_choice1.png","[2,1,0]","1","1","3","images/plants_choice1.png","-1","plants","","flower","1","0"
"html-keyboard-response","90","511726","0.0-9.0-2.0-0.2","1572","1","2","""event"",""trial"",""time""
""fullscreenenter"",""1"",""8459""
","
","
","""event"",""trial"",""time""
""fullscreenenter"",""1"",""8459""
","
","","","","","","null","<div style=""font-size:60px;"">+</div>","null","","fixation","","","","","","","","","","","","","",""
"learning-trial","91","515746","0.0-9.0-2.0-1.2","1572","1","2","""event"",""trial"",""time""
""fullscreenenter"",""1"",""8459""
","
","
","""event"",""trial"",""time""
""fullscreenenter"",""1"",""8459""
","
","","","","","","1760.1000000005588","images/flower1.png","","","learning","images/plants_choice3.png","images/plants_choice2.png","images/plants_choice1.png","[2,1,0]","1","1","2","images/plants_choice2.png","1","plants","","flower","1","0"
"html-keyboard-response","92","516255","0.0-9.0-2.0-0.3","1572","1","2","""event"",""trial"",""time""
""fullscreenenter"",""1"",""8459""
","
","
","""event"",""trial"",""time""
""fullscreenenter"",""1"",""8459""
","
","","","","","","null","<div style=""font-size:60px;"">+</div>","null","","fixation","","","","","","","","","","","","","",""
"learning-trial","93","520278","0.0-9.0-2.0-1.3","1572","1","2","""event"",""trial"",""time""
""fullscreenenter"",""1"",""8459""
","
","
","""event"",""trial"",""time""
""fullscreenenter"",""1"",""8459""
","
","","","","","","1911","images/cactus2.png","","","learning","images/plants_choice1.png","images/plants_choice2.png","images/plants_choice3.png","[0,1,2]","0","0","1","images/plants_choice1.png","1","plants","","cactus","1","0"
"html-keyboard-response","94","520788","0.0-9.0-2.0-0.4","1572","1","2","""event"",""trial"",""time""
""fullscreenenter"",""1"",""8459""
","
","
","""event"",""trial"",""time""
""fullscreenenter"",""1"",""8459""
","
","","","","","","null","<div style=""font-size:60px;"">+</div>","null","","fixation","","","","","","","","","","","","","",""
"learning-trial","95","524798","0.0-9.0-2.0-1.4","1572","1","2","""event"",""trial"",""time""
""fullscreenenter"",""1"",""8459""
","
","
","""event"",""trial"",""time""
""fullscreenenter"",""1"",""8459""
","
","","","","","","1812.1000000005588","images/flower2.png","","","learning","images/plants_choice3.png","images/plants_choice1.png","images/plants_choice2.png","[2,0,1]","1","2","3","images/plants_choice2.png","1","plants","","flower","1","0"
"html-keyboard-response","96","525309","0.0-9.0-2.0-0.5","1572","1","2","""event"",""trial"",""time""
""fullscreenenter"",""1"",""8459""
","
","
","""event"",""trial"",""time""
""fullscreenenter"",""1"",""8459""
","
","","","","","","null","<div style=""font-size:60px;"">+</div>","null","","fixation","","","","","","","","","","","","","",""
"learning-trial","97","529329","0.0-9.0-2.0-1.5","1572","1","2","""event"",""trial"",""time""
""fullscreenenter"",""1"",""8459""
","
","
","""event"",""trial"",""time""
""fullscreenenter"",""1"",""8459""
","
","","","","","","2234.9000000003725","images/flower4.png","","","learning","images/plants_choice1.png","images/plants_choice2.png","images/plants_choice3.png","[0,1,2]","1","1","2","images/plants_choice2.png","1","plants","","flower","1","0"
"html-keyboard-response","98","529840","0.0-9.0-2.0-0.6","1572","1","2","""event"",""trial"",""time""
""fullscreenenter"",""1"",""8459""
","
","
","""event"",""trial"",""time""
""fullscreenenter"",""1"",""8459""
","
","","","","","","null","<div style=""font-size:60px;"">+</div>","null","","fixation","","","","","","","","","","","","","",""
"learning-trial","99","533847","0.0-9.0-2.0-1.6","1572","1","2","""event"",""trial"",""time""
""fullscreenenter"",""1"",""8459""
","
","
","""event"",""trial"",""time""
""fullscreenenter"",""1"",""8459""
","
","","","","","","934.2000000001863","images/flower2.png","","","learning","images/plants_choice3.png","images/plants_choice2.png","images/plants_choice1.png","[2,1,0]","1","1","2","images/plants_choice2.png","1","plants","","flower","1","0"
"html-keyboard-response","100","534350","0.0-9.0-2.0-0.7","1572","1","2","""event"",""trial"",""time""
""fullscreenenter"",""1"",""8459""
","
","
","""event"",""trial"",""time""
""fullscreenenter"",""1"",""8459""
","
","","","","","","null","<div style=""font-size:60px;"">+</div>","null","","fixation","","","","","","","","","","","","","",""
"learning-trial","101","538356","0.0-9.0-2.0-1.7","1572","1","2","""event"",""trial"",""time""
""fullscreenenter"",""1"",""8459""
","
","
","""event"",""trial"",""time""
""fullscreenenter"",""1"",""8459""
","
","","","","","","2428.199999999255","images/tree1.png","","","learning","images/plants_choice3.png","images/plants_choice2.png","images/plants_choice1.png","[2,1,0]","2","0","1","images/plants_choice3.png","1","plants","","tree","1","0"
"html-keyboard-response","102","538859","0.0-9.0-2.0-0.8","1572","1","2","""event"",""trial"",""time""
""fullscreenenter"",""1"",""8459""
","
","
","""event"",""trial"",""time""
""fullscreenenter"",""1"",""8459""
","
","","","","","","null","<div style=""font-size:60px;"">+</div>","null","","fixation","","","","","","","","","","","","","",""
"learning-trial","103","542866","0.0-9.0-2.0-1.8","1572","1","2","""event"",""trial"",""time""
""fullscreenenter"",""1"",""8459""
","
","
","""event"",""trial"",""time""
""fullscreenenter"",""1"",""8459""
","
","","","","","","1509.3999999994412","images/cactus3.png","","","learning","images/plants_choice2.png","images/plants_choice1.png","images/plants_choice3.png","[1,0,2]","0","1","2","images/plants_choice1.png","1","plants","","cactus","1","0"
"html-keyboard-response","104","543368","0.0-9.0-2.0-0.9","1572","1","2","""event"",""trial"",""time""
""fullscreenenter"",""1"",""8459""
","
","
","""event"",""trial"",""time""
""fullscreenenter"",""1"",""8459""
","
","","","","","","null","<div style=""font-size:60px;"">+</div>","null","","fixation","","","","","","","","","","","","","",""
"learning-trial","105","547377","0.0-9.0-2.0-1.9","1572","1","2","""event"",""trial"",""time""
""fullscreenenter"",""1"",""8459""
","
","
","""event"",""trial"",""time""
""fullscreenenter"",""1"",""8459""
","
","","","","","","1474.0999999996275","images/flower2.png","","","learning","images/plants_choice2.png","images/plants_choice1.png","images/plants_choice3.png","[1,0,2]","1","0","1","images/plants_choice2.png","1","plants","","flower","1","0"
"html-keyboard-response","106","547880","0.0-9.0-2.0-0.10","1572","1","2","""event"",""trial"",""time""
""fullscreenenter"",""1"",""8459""
","
","
","""event"",""trial"",""time""
""fullscreenenter"",""1"",""8459""
","
","","","","","","null","<div style=""font-size:60px;"">+</div>","null","","fixation","","","","","","","","","","","","","",""
"learning-trial","107","551888","0.0-9.0-2.0-1.10","1572","1","2","""event"",""trial"",""time""
""fullscreenenter"",""1"",""8459""
","
","
","""event"",""trial"",""time""
""fullscreenenter"",""1"",""8459""
","
","","","","","","null","images/tree2.png","","","learning","images/plants_choice3.png","images/plants_choice2.png","images/plants_choice1.png","[2,1,0]","2","0","null","null","-1","plants","","tree","1","0"
"html-keyboard-response","108","552391","0.0-9.0-2.0-0.11","1572","1","2","""event"",""trial"",""time""
""fullscreenenter"",""1"",""8459""
","
","
","""event"",""trial"",""time""
""fullscreenenter"",""1"",""8459""
","
","","","","","","null","<div style=""font-size:60px;"">+</div>","null","","fixation","","","","","","","","","","","","","",""
"learning-trial","109","556409","0.0-9.0-2.0-1.11","1572","1","2","""event"",""trial"",""time""
""fullscreenenter"",""1"",""8459""
","
","
","""event"",""trial"",""time""
""fullscreenenter"",""1"",""8459""
","
","","","","","","1769.1000000005588","images/flower4.png","","","learning","images/plants_choice2.png","images/plants_choice3.png","images/plants_choice1.png","[1,2,0]","1","0","2","images/plants_choice3.png","-1","plants","","flower","1","0"
"html-keyboard-response","110","556911","0.0-9.0-2.0-0.12","1572","1","2","""event"",""trial"",""time""
""fullscreenenter"",""1"",""8459""
","
","
","""event"",""trial"",""time""
""fullscreenenter"",""1"",""8459""
","
","","","","","","null","<div style=""font-size:60px;"">+</div>","null","","fixation","","","","","","","","","","","","","",""
"learning-trial","111","560919","0.0-9.0-2.0-1.12","1572","1","2","""event"",""trial"",""time""
""fullscreenenter"",""1"",""8459""
","
","
","""event"",""trial"",""time""
""fullscreenenter"",""1"",""8459""
","
","","","","","","2123.699999999255","images/tree5.png","","","learning","images/plants_choice2.png","images/plants_choice3.png","images/plants_choice1.png","[1,2,0]","2","1","1","images/plants_choice2.png","-1","plants","","tree","1","0"
"html-keyboard-response","112","561421","0.0-9.0-2.0-0.13","1572","1","2","""event"",""trial"",""time""
""fullscreenenter"",""1"",""8459""
","
","
","""event"",""trial"",""time""
""fullscreenenter"",""1"",""8459""
","
","","","","","","null","<div style=""font-size:60px;"">+</div>","null","","fixation","","","","","","","","","","","","","",""
"learning-trial","113","565429","0.0-9.0-2.0-1.13","1572","1","2","""event"",""trial"",""time""
""fullscreenenter"",""1"",""8459""
","
","
","""event"",""trial"",""time""
""fullscreenenter"",""1"",""8459""
","
","","","","","","1980.5999999996275","images/flower4.png","","","learning","images/plants_choice1.png","images/plants_choice3.png","images/plants_choice2.png","[0,2,1]","1","2","3","images/plants_choice2.png","1","plants","","flower","1","0"
"html-keyboard-response","114","565931","0.0-9.0-2.0-0.14","1572","1","2","""event"",""trial"",""time""
""fullscreenenter"",""1"",""8459""
","
","
","""event"",""trial"",""time""
""fullscreenenter"",""1"",""8459""
","
","","","","","","null","<div style=""font-size:60px;"">+</div>","null","","fixation","","","","","","","","","","","","","",""
"learning-trial","115","569938","0.0-9.0-2.0-1.14","1572","1","2","""event"",""trial"",""time""
""fullscreenenter"",""1"",""8459""
","
","
","""event"",""trial"",""time""
""fullscreenenter"",""1"",""8459""
","
","","","","","","2191.4000000003725","images/tree1.png","","","learning","images/plants_choice2.png","images/plants_choice3.png","images/plants_choice1.png","[1,2,0]","2","1","3","images/plants_choice1.png","-1","plants","","tree","1","0"
"html-keyboard-response","116","570441","0.0-9.0-2.0-0.15","1572","1","2","""event"",""trial"",""time""
""fullscreenenter"",""1"",""8459""
","
","
","""event"",""trial"",""time""
""fullscreenenter"",""1"",""8459""
","
","","","","","","null","<div style=""font-size:60px;"">+</div>","null","","fixation","","","","","","","","","","","","","",""
"learning-trial","117","574462","0.0-9.0-2.0-1.15","1572","1","2","""event"",""trial"",""time""
""fullscreenenter"",""1"",""8459""
","
","
","""event"",""trial"",""time""
""fullscreenenter"",""1"",""8459""
","
","","","","","","1614.6000000005588","images/flower1.png","","","learning","images/plants_choice1.png","images/plants_choice2.png","images/plants_choice3.png","[0,1,2]","1","1","2","images/plants_choice2.png","1","plants","","flower","1","0"
"html-keyboard-response","118","574966","0.0-9.0-2.0-0.16","1572","1","2","""event"",""trial"",""time""
""fullscreenenter"",""1"",""8459""
","
","
","""event"",""trial"",""time""
""fullscreenenter"",""1"",""8459""
","
","","","","","","null","<div style=""font-size:60px;"">+</div>","null","","fixation","","","","","","","","","","","","","",""
"learning-trial","119","578974","0.0-9.0-2.0-1.16","1572","1","2","""event"",""trial"",""time""
""fullscreenenter"",""1"",""8459""
","
","
","""event"",""trial"",""time""
""fullscreenenter"",""1"",""8459""
","
","","","","","","2338.2000000001863","images/tree2.png","","","learning","images/plants_choice2.png","images/plants_choice1.png","images/plants_choice3.png","[1,0,2]","2","2","3","images/plants_choice3.png","1","plants","","tree","1","0"
"html-keyboard-response","120","579476","0.0-9.0-2.0-0.17","1572","1","2","""event"",""trial"",""time""
""fullscreenenter"",""1"",""8459""
","
","
","""event"",""trial"",""time""
""fullscreenenter"",""1"",""8459""
","
","","","","","","null","<div style=""font-size:60px;"">+</div>","null","","fixation","","","","","","","","","","","","","",""
"learning-trial","121","583495","0.0-9.0-2.0-1.17","1572","1","2","""event"",""trial"",""time""
""fullscreenenter"",""1"",""8459""
","
","
","""event"",""trial"",""time""
""fullscreenenter"",""1"",""8459""
","
","","","","","","1512.2999999998137","images/cactus2.png","","","learning","images/plants_choice3.png","images/plants_choice1.png","images/plants_choice2.png","[2,0,1]","0","1","2","images/plants_choice1.png","1","plants","","cactus","1","0"
"html-keyboard-response","122","584007","0.0-9.0-2.0-0.18","1572","1","2","""event"",""trial"",""time""
""fullscreenenter"",""1"",""8459""
","
","
","""event"",""trial"",""time""
""fullscreenenter"",""1"",""8459""
","
","","","","","","null","<div style=""font-size:60px;"">+</div>","null","","fixation","","","","","","","","","","","","","",""
"learning-trial","123","588030","0.0-9.0-2.0-1.18","1572","1","2","""event"",""trial"",""time""
""fullscreenenter"",""1"",""8459""
","
","
","""event"",""trial"",""time""
""fullscreenenter"",""1"",""8459""
","
","","","","","","1340.5999999996275","images/flower2.png","","","learning","images/plants_choice1.png","images/plants_choice3.png","images/plants_choice2.png","[0,2,1]","1","2","3","images/plants_choice2.png","1","plants","","flower","1","0"
"html-keyboard-response","124","588532","0.0-9.0-2.0-0.19","1572","1","2","""event"",""trial"",""time""
""fullscreenenter"",""1"",""8459""
","
","
","""event"",""trial"",""time""
""fullscreenenter"",""1"",""8459""
","
","","","","","","null","<div style=""font-size:60px;"">+</div>","null","","fixation","","","","","","","","","","","","","",""
"learning-trial","125","592540","0.0-9.0-2.0-1.19","1572","1","2","""event"",""trial"",""time""
""fullscreenenter"",""1"",""8459""
","
","
","""event"",""trial"",""time""
""fullscreenenter"",""1"",""8459""
","
","","","","","","3367.7000000001863","images/flower4.png","","","learning","images/plants_choice3.png","images/plants_choice1.png","images/plants_choice2.png","[2,0,1]","1","2","2","images/plants_choice1.png","-1","plants","","flower","1","0"
"html-keyboard-response","126","593042","0.0-9.0-2.0-0.20","1572","1","2","""event"",""trial"",""time""
""fullscreenenter"",""1"",""8459""
","
","
","""event"",""trial"",""time""
""fullscreenenter"",""1"",""8459""
","
","","","","","","null","<div style=""font-size:60px;"">+</div>","null","","fixation","","","","","","","","","","","","","",""
"learning-trial","127","597049","0.0-9.0-2.0-1.20","1572","1","2","""event"",""trial"",""time""
""fullscreenenter"",""1"",""8459""
","
","
","""event"",""trial"",""time""
""fullscreenenter"",""1"",""8459""
","
","","","","","","1222.0999999996275","images/cactus3.png","","","learning","images/plants_choice2.png","images/plants_choice3.png","images/plants_choice1.png","[1,2,0]","0","2","1","images/plants_choice2.png","1","plants","","cactus","1","0"
"html-keyboard-response","128","597552","0.0-9.0-2.0-0.21","1572","1","2","""event"",""trial"",""time""
""fullscreenenter"",""1"",""8459""
","
","
","""event"",""trial"",""time""
""fullscreenenter"",""1"",""8459""
","
","","","","","","null","<div style=""font-size:60px;"">+</div>","null","","fixation","","","","","","","","","","","","","",""
"learning-trial","129","601569","0.0-9.0-2.0-1.21","1572","1","2","""event"",""trial"",""time""
""fullscreenenter"",""1"",""8459""
","
","
","""event"",""trial"",""time""
""fullscreenenter"",""1"",""8459""
","
","","","","","","2503.2000000001863","images/tree1.png","","","learning","images/plants_choice3.png","images/plants_choice1.png","images/plants_choice2.png","[2,0,1]","2","0","1","images/plants_choice3.png","1","plants","","tree","1","0"
"html-keyboard-response","130","602071","0.0-9.0-2.0-0.22","1572","1","2","""event"",""trial"",""time""
""fullscreenenter"",""1"",""8459""
","
","
","""event"",""trial"",""time""
""fullscreenenter"",""1"",""8459""
","
","","","","","","null","<div style=""font-size:60px;"">+</div>","null","","fixation","","","","","","","","","","","","","",""
"learning-trial","131","606079","0.0-9.0-2.0-1.22","1572","1","2","""event"",""trial"",""time""
""fullscreenenter"",""1"",""8459""
","
","
","""event"",""trial"",""time""
""fullscreenenter"",""1"",""8459""
","
","","","","","","1283","images/tree2.png","","","learning","images/plants_choice1.png","images/plants_choice3.png","images/plants_choice2.png","[0,2,1]","2","1","2","images/plants_choice3.png","1","plants","","tree","1","0"
"html-keyboard-response","132","606582","0.0-9.0-2.0-0.23","1572","1","2","""event"",""trial"",""time""
""fullscreenenter"",""1"",""8459""
","
","
","""event"",""trial"",""time""
""fullscreenenter"",""1"",""8459""
","
","","","","","","null","<div style=""font-size:60px;"">+</div>","null","","fixation","","","","","","","","","","","","","",""
"learning-trial","133","610589","0.0-9.0-2.0-1.23","1572","1","2","""event"",""trial"",""time""
""fullscreenenter"",""1"",""8459""
","
","
","""event"",""trial"",""time""
""fullscreenenter"",""1"",""8459""
","
","","","","","","1213.2999999998137","images/flower1.png","","","learning","images/plants_choice3.png","images/plants_choice2.png","images/plants_choice1.png","[2,1,0]","1","1","2","images/plants_choice2.png","1","plants","","flower","1","0"
"html-keyboard-response","134","611091","0.0-9.0-2.0-0.24","1572","1","2","""event"",""trial"",""time""
""fullscreenenter"",""1"",""8459""
","
","
","""event"",""trial"",""time""
""fullscreenenter"",""1"",""8459""
","
","","","","","","null","<div style=""font-size:60px;"">+</div>","null","","fixation","","","","","","","","","","","","","",""
"learning-trial","135","615100","0.0-9.0-2.0-1.24","1572","1","2","""event"",""trial"",""time""
""fullscreenenter"",""1"",""8459""
","
","
","""event"",""trial"",""time""
""fullscreenenter"",""1"",""8459""
","
","","","","","","1338.5999999996275","images/tree2.png","","","learning","images/plants_choice3.png","images/plants_choice2.png","images/plants_choice1.png","[2,1,0]","2","0","1","images/plants_choice3.png","1","plants","","tree","1","0"
"html-keyboard-response","136","615603","0.0-9.0-2.0-0.25","1572","1","2","""event"",""trial"",""time""
""fullscreenenter"",""1"",""8459""
","
","
","""event"",""trial"",""time""
""fullscreenenter"",""1"",""8459""
","
","","","","","","null","<div style=""font-size:60px;"">+</div>","null","","fixation","","","","","","","","","","","","","",""
"learning-trial","137","619611","0.0-9.0-2.0-1.25","1572","1","2","""event"",""trial"",""time""
""fullscreenenter"",""1"",""8459""
","
","
","""event"",""trial"",""time""
""fullscreenenter"",""1"",""8459""
","
","","","","","","1232.5","images/flower4.png","","","learning","images/plants_choice3.png","images/plants_choice1.png","images/plants_choice2.png","[2,0,1]","1","2","3","images/plants_choice2.png","1","plants","","flower","1","0"
"html-keyboard-response","138","620115","0.0-9.0-2.0-0.26","1572","1","2","""event"",""trial"",""time""
""fullscreenenter"",""1"",""8459""
","
","
","""event"",""trial"",""time""
""fullscreenenter"",""1"",""8459""
","
","","","","","","null","<div style=""font-size:60px;"">+</div>","null","","fixation","","","","","","","","","","","","","",""
"learning-trial","139","624133","0.0-9.0-2.0-1.26","1572","1","2","""event"",""trial"",""time""
""fullscreenenter"",""1"",""8459""
","
","
","""event"",""trial"",""time""
""fullscreenenter"",""1"",""8459""
","
","","","","","","1248.3999999994412","images/flower1.png","","","learning","images/plants_choice1.png","images/plants_choice2.png","images/plants_choice3.png","[0,1,2]","1","1","2","images/plants_choice2.png","1","plants","","flower","1","0"
"html-keyboard-response","140","624637","0.0-9.0-2.0-0.27","1572","1","2","""event"",""trial"",""time""
""fullscreenenter"",""1"",""8459""
","
","
","""event"",""trial"",""time""
""fullscreenenter"",""1"",""8459""
","
","","","","","","null","<div style=""font-size:60px;"">+</div>","null","","fixation","","","","","","","","","","","","","",""
"learning-trial","141","628650","0.0-9.0-2.0-1.27","1572","1","2","""event"",""trial"",""time""
""fullscreenenter"",""1"",""8459""
","
","
","""event"",""trial"",""time""
""fullscreenenter"",""1"",""8459""
","
","","","","","","1392.4000000003725","images/tree2.png","","","learning","images/plants_choice1.png","images/plants_choice2.png","images/plants_choice3.png","[0,1,2]","2","2","3","images/plants_choice3.png","1","plants","","tree","1","0"
"html-keyboard-response","142","629160","0.0-9.0-2.0-0.28","1572","1","2","""event"",""trial"",""time""
""fullscreenenter"",""1"",""8459""
","
","
","""event"",""trial"",""time""
""fullscreenenter"",""1"",""8459""
","
","","","","","","null","<div style=""font-size:60px;"">+</div>","null","","fixation","","","","","","","","","","","","","",""
"learning-trial","143","633168","0.0-9.0-2.0-1.28","1572","1","2","""event"",""trial"",""time""
""fullscreenenter"",""1"",""8459""
","
","
","""event"",""trial"",""time""
""fullscreenenter"",""1"",""8459""
","
","","","","","","1715.2999999998137","images/tree1.png","","","learning","images/plants_choice3.png","images/plants_choice2.png","images/plants_choice1.png","[2,1,0]","2","0","1","images/plants_choice3.png","1","plants","","tree","1","0"
"html-keyboard-response","144","633671","0.0-9.0-2.0-0.29","1572","1","2","""event"",""trial"",""time""
""fullscreenenter"",""1"",""8459""
","
","
","""event"",""trial"",""time""
""fullscreenenter"",""1"",""8459""
","
","","","","","","null","<div style=""font-size:60px;"">+</div>","null","","fixation","","","","","","","","","","","","","",""
"learning-trial","145","637690","0.0-9.0-2.0-1.29","1572","1","2","""event"",""trial"",""time""
""fullscreenenter"",""1"",""8459""
","
","
","""event"",""trial"",""time""
""fullscreenenter"",""1"",""8459""
","
","","","","","","1754.7999999998137","images/cactus3.png","","","learning","images/plants_choice1.png","images/plants_choice3.png","images/plants_choice2.png","[0,2,1]","0","0","1","images/plants_choice1.png","1","plants","","cactus","1","0"
"html-keyboard-response","146","638192","0.0-9.0-2.0-0.30","1572","1","2","""event"",""trial"",""time""
""fullscreenenter"",""1"",""8459""
","
","
","""event"",""trial"",""time""
""fullscreenenter"",""1"",""8459""
","
","","","","","","null","<div style=""font-size:60px;"">+</div>","null","","fixation","","","","","","","","","","","","","",""
"learning-trial","147","642205","0.0-9.0-2.0-1.30","1572","1","2","""event"",""trial"",""time""
""fullscreenenter"",""1"",""8459""
","
","
","""event"",""trial"",""time""
""fullscreenenter"",""1"",""8459""
","
","","","","","","1815.6000000005588","images/flower1.png","","","learning","images/plants_choice2.png","images/plants_choice1.png","images/plants_choice3.png","[1,0,2]","1","0","1","images/plants_choice2.png","1","plants","","flower","1","0"
"html-keyboard-response","148","642710","0.0-9.0-2.0-0.31","1572","1","2","""event"",""trial"",""time""
""fullscreenenter"",""1"",""8459""
","
","
","""event"",""trial"",""time""
""fullscreenenter"",""1"",""8459""
","
","","","","","","null","<div style=""font-size:60px;"">+</div>","null","","fixation","","","","","","","","","","","","","",""
"learning-trial","149","646731","0.0-9.0-2.0-1.31","1572","1","2","""event"",""trial"",""time""
""fullscreenenter"",""1"",""8459""
","
","
","""event"",""trial"",""time""
""fullscreenenter"",""1"",""8459""
","
","","","","","","1386.3999999994412","images/cactus2.png","","","learning","images/plants_choice3.png","images/plants_choice2.png","images/plants_choice1.png","[2,1,0]","0","2","3","images/plants_choice1.png","1","plants","","cactus","1","0"
"html-keyboard-response","150","647243","0.0-9.0-2.0-0.32","1572","1","2","""event"",""trial"",""time""
""fullscreenenter"",""1"",""8459""
","
","
","""event"",""trial"",""time""
""fullscreenenter"",""1"",""8459""
","
","","","","","","null","<div style=""font-size:60px;"">+</div>","null","","fixation","","","","","","","","","","","","","",""
"learning-trial","151","651262","0.0-9.0-2.0-1.32","1572","1","2","""event"",""trial"",""time""
""fullscreenenter"",""1"",""8459""
","
","
","""event"",""trial"",""time""
""fullscreenenter"",""1"",""8459""
","
","","","","","","1511.7000000001863","images/cactus3.png","","","learning","images/plants_choice2.png","images/plants_choice3.png","images/plants_choice1.png","[1,2,0]","0","2","3","images/plants_choice1.png","1","plants","","cactus","1","0"
"html-keyboard-response","152","651764","0.0-9.0-2.0-0.33","1572","1","2","""event"",""trial"",""time""
""fullscreenenter"",""1"",""8459""
","
","
","""event"",""trial"",""time""
""fullscreenenter"",""1"",""8459""
","
","","","","","","null","<div style=""font-size:60px;"">+</div>","null","","fixation","","","","","","","","","","","","","",""
"learning-trial","153","655772","0.0-9.0-2.0-1.33","1572","1","2","""event"",""trial"",""time""
""fullscreenenter"",""1"",""8459""
","
","
","""event"",""trial"",""time""
""fullscreenenter"",""1"",""8459""
","
","","","","","","1301.2000000001863","images/cactus2.png","","","learning","images/plants_choice3.png","images/plants_choice1.png","images/plants_choice2.png","[2,0,1]","0","1","2","images/plants_choice1.png","1","plants","","cactus","1","0"
"html-keyboard-response","154","656274","0.0-9.0-2.0-0.34","1572","1","2","""event"",""trial"",""time""
""fullscreenenter"",""1"",""8459""
","
","
","""event"",""trial"",""time""
""fullscreenenter"",""1"",""8459""
","
","","","","","","null","<div style=""font-size:60px;"">+</div>","null","","fixation","","","","","","","","","","","","","",""
"learning-trial","155","660282","0.0-9.0-2.0-1.34","1572","1","2","""event"",""trial"",""time""
""fullscreenenter"",""1"",""8459""
","
","
","""event"",""trial"",""time""
""fullscreenenter"",""1"",""8459""
","
","","","","","","1113.2000000001863","images/flower1.png","","","learning","images/plants_choice2.png","images/plants_choice3.png","images/plants_choice1.png","[1,2,0]","1","0","1","images/plants_choice2.png","1","plants","","flower","1","0"
"html-keyboard-response","156","660785","0.0-9.0-2.0-0.35","1572","1","2","""event"",""trial"",""time""
""fullscreenenter"",""1"",""8459""
","
","
","""event"",""trial"",""time""
""fullscreenenter"",""1"",""8459""
","
","","","","","","null","<div style=""font-size:60px;"">+</div>","null","","fixation","","","","","","","","","","","","","",""
"learning-trial","157","664793","0.0-9.0-2.0-1.35","1572","1","2","""event"",""trial"",""time""
""fullscreenenter"",""1"",""8459""
","
","
","""event"",""trial"",""time""
""fullscreenenter"",""1"",""8459""
","
","","","","","","2143.7000000001863","images/tree5.png","","","learning","images/plants_choice2.png","images/plants_choice3.png","images/plants_choice1.png","[1,2,0]","2","1","2","images/plants_choice3.png","1","plants","","tree","1","0"
"html-keyboard-response","158","665295","0.0-9.0-2.0-0.36","1572","1","2","""event"",""trial"",""time""
""fullscreenenter"",""1"",""8459""
","
","
","""event"",""trial"",""time""
""fullscreenenter"",""1"",""8459""
","
","","","","","","null","<div style=""font-size:60px;"">+</div>","null","","fixation","","","","","","","","","","","","","",""
"learning-trial","159","669307","0.0-9.0-2.0-1.36","1572","1","2","""event"",""trial"",""time""
""fullscreenenter"",""1"",""8459""
","
","
","""event"",""trial"",""time""
""fullscreenenter"",""1"",""8459""
","
","","","","","","1734.2000000001863","images/cactus5.png","","","learning","images/plants_choice1.png","images/plants_choice2.png","images/plants_choice3.png","[0,1,2]","0","0","1","images/plants_choice1.png","1","plants","","cactus","1","0"
"html-keyboard-response","160","669810","0.0-9.0-2.0-0.37","1572","1","2","""event"",""trial"",""time""
""fullscreenenter"",""1"",""8459""
","
","
","""event"",""trial"",""time""
""fullscreenenter"",""1"",""8459""
","
","","","","","","null","<div style=""font-size:60px;"">+</div>","null","","fixation","","","","","","","","","","","","","",""
"learning-trial","161","673819","0.0-9.0-2.0-1.37","1572","1","2","""event"",""trial"",""time""
""fullscreenenter"",""1"",""8459""
","
","
","""event"",""trial"",""time""
""fullscreenenter"",""1"",""8459""
","
","","","","","","1438.699999999255","images/cactus5.png","","","learning","images/plants_choice3.png","images/plants_choice1.png","images/plants_choice2.png","[2,0,1]","0","1","2","images/plants_choice1.png","1","plants","","cactus","1","0"
"html-keyboard-response","162","674324","0.0-9.0-2.0-0.38","1572","1","2","""event"",""trial"",""time""
""fullscreenenter"",""1"",""8459""
","
","
","""event"",""trial"",""time""
""fullscreenenter"",""1"",""8459""
","
","","","","","","null","<div style=""font-size:60px;"">+</div>","null","","fixation","","","","","","","","","","","","","",""
"learning-trial","163","678332","0.0-9.0-2.0-1.38","1572","1","2","""event"",""trial"",""time""
""fullscreenenter"",""1"",""8459""
","
","
","""event"",""trial"",""time""
""fullscreenenter"",""1"",""8459""
","
","","","","","","1457.699999999255","images/tree5.png","","","learning","images/plants_choice2.png","images/plants_choice1.png","images/plants_choice3.png","[1,0,2]","2","2","3","images/plants_choice3.png","1","plants","","tree","1","0"
"html-keyboard-response","164","678835","0.0-9.0-2.0-0.39","1572","1","2","""event"",""trial"",""time""
""fullscreenenter"",""1"",""8459""
","
","
","""event"",""trial"",""time""
""fullscreenenter"",""1"",""8459""
","
","","","","","","null","<div style=""font-size:60px;"">+</div>","null","","fixation","","","","","","","","","","","","","",""
"learning-trial","165","682857","0.0-9.0-2.0-1.39","1572","1","2","""event"",""trial"",""time""
""fullscreenenter"",""1"",""8459""
","
","
","""event"",""trial"",""time""
""fullscreenenter"",""1"",""8459""
","
","","","","","","1300.6000000005588","images/flower4.png","","","learning","images/plants_choice1.png","images/plants_choice3.png","images/plants_choice2.png","[0,2,1]","1","2","3","images/plants_choice2.png","1","plants","","flower","1","0"
"html-keyboard-response","166","683372","0.0-9.0-2.0-0.40","1572","1","2","""event"",""trial"",""time""
""fullscreenenter"",""1"",""8459""
","
","
","""event"",""trial"",""time""
""fullscreenenter"",""1"",""8459""
","
","","","","","","null","<div style=""font-size:60px;"">+</div>","null","","fixation","","","","","","","","","","","","","",""
"learning-trial","167","687381","0.0-9.0-2.0-1.40","1572","1","2","""event"",""trial"",""time""
""fullscreenenter"",""1"",""8459""
","
","
","""event"",""trial"",""time""
""fullscreenenter"",""1"",""8459""
","
","","","","","","1243.5999999996275","images/cactus3.png","","","learning","images/plants_choice1.png","images/plants_choice3.png","images/plants_choice2.png","[0,2,1]","0","0","1","images/plants_choice1.png","1","plants","","cactus","1","0"
"html-keyboard-response","168","687884","0.0-9.0-2.0-0.41","1572","1","2","""event"",""trial"",""time""
""fullscreenenter"",""1"",""8459""
","
","
","""event"",""trial"",""time""
""fullscreenenter"",""1"",""8459""
","
","","","","","","null","<div style=""font-size:60px;"">+</div>","null","","fixation","","","","","","","","","","","","","",""
"learning-trial","169","691892","0.0-9.0-2.0-1.41","1572","1","2","""event"",""trial"",""time""
""fullscreenenter"",""1"",""8459""
","
","
","""event"",""trial"",""time""
""fullscreenenter"",""1"",""8459""
","
","","","","","","1564.0999999996275","images/cactus3.png","","","learning","images/plants_choice2.png","images/plants_choice1.png","images/plants_choice3.png","[1,0,2]","0","1","2","images/plants_choice1.png","1","plants","","cactus","1","0"
"html-keyboard-response","170","692395","0.0-9.0-2.0-0.42","1572","1","2","""event"",""trial"",""time""
""fullscreenenter"",""1"",""8459""
","
","
","""event"",""trial"",""time""
""fullscreenenter"",""1"",""8459""
","
","","","","","","null","<div style=""font-size:60px;"">+</div>","null","","fixation","","","","","","","","","","","","","",""
"learning-trial","171","696403","0.0-9.0-2.0-1.42","1572","1","2","""event"",""trial"",""time""
""fullscreenenter"",""1"",""8459""
","
","
","""event"",""trial"",""time""
""fullscreenenter"",""1"",""8459""
","
","","","","","","1184.0999999996275","images/flower2.png","","","learning","images/plants_choice3.png","images/plants_choice1.png","images/plants_choice2.png","[2,0,1]","1","2","3","images/plants_choice2.png","-1","plants","","flower","1","0"
"html-keyboard-response","172","696906","0.0-9.0-2.0-0.43","1572","1","2","""event"",""trial"",""time""
""fullscreenenter"",""1"",""8459""
","
","
","""event"",""trial"",""time""
""fullscreenenter"",""1"",""8459""
","
","","","","","","null","<div style=""font-size:60px;"">+</div>","null","","fixation","","","","","","","","","","","","","",""
"learning-trial","173","700918","0.0-9.0-2.0-1.43","1572","1","2","""event"",""trial"",""time""
""fullscreenenter"",""1"",""8459""
","
","
","""event"",""trial"",""time""
""fullscreenenter"",""1"",""8459""
","
","","","","","","1159.5","images/cactus5.png","","","learning","images/plants_choice3.png","images/plants_choice2.png","images/plants_choice1.png","[2,1,0]","0","2","3","images/plants_choice1.png","1","plants","","cactus","1","0"
"html-keyboard-response","174","701420","0.0-9.0-2.0-0.44","1572","1","2","""event"",""trial"",""time""
""fullscreenenter"",""1"",""8459""
","
","
","""event"",""trial"",""time""
""fullscreenenter"",""1"",""8459""
","
","","","","","","null","<div style=""font-size:60px;"">+</div>","null","","fixation","","","","","","","","","","","","","",""
"learning-trial","175","705429","0.0-9.0-2.0-1.44","1572","1","2","""event"",""trial"",""time""
""fullscreenenter"",""1"",""8459""
","
","
","""event"",""trial"",""time""
""fullscreenenter"",""1"",""8459""
","
","","","","","","1062","images/tree1.png","","","learning","images/plants_choice2.png","images/plants_choice1.png","images/plants_choice3.png","[1,0,2]","2","2","2","images/plants_choice1.png","1","plants","","tree","1","0"
"html-keyboard-response","176","705932","0.0-9.0-2.0-0.45","1572","1","2","""event"",""trial"",""time""
""fullscreenenter"",""1"",""8459""
","
","
","""event"",""trial"",""time""
""fullscreenenter"",""1"",""8459""
","
","","","","","","null","<div style=""font-size:60px;"">+</div>","null","","fixation","","","","","","","","","","","","","",""
"learning-trial","177","709940","0.0-9.0-2.0-1.45","1572","1","2","""event"",""trial"",""time""
""fullscreenenter"",""1"",""8459""
","
","
","""event"",""trial"",""time""
""fullscreenenter"",""1"",""8459""
","
","","","","","","1096.8999999994412","images/cactus5.png","","","learning","images/plants_choice3.png","images/plants_choice1.png","images/plants_choice2.png","[2,0,1]","0","1","2","images/plants_choice1.png","1","plants","","cactus","1","0"
"html-keyboard-response","178","710442","0.0-9.0-2.0-0.46","1572","1","2","""event"",""trial"",""time""
""fullscreenenter"",""1"",""8459""
","
","
","""event"",""trial"",""time""
""fullscreenenter"",""1"",""8459""
","
","","","","","","null","<div style=""font-size:60px;"">+</div>","null","","fixation","","","","","","","","","","","","","",""
"learning-trial","179","714451","0.0-9.0-2.0-1.46","1572","1","2","""event"",""trial"",""time""
""fullscreenenter"",""1"",""8459""
","
","
","""event"",""trial"",""time""
""fullscreenenter"",""1"",""8459""
","
","","","","","","1299.5","images/cactus2.png","","","learning","images/plants_choice3.png","images/plants_choice2.png","images/plants_choice1.png","[2,1,0]","0","2","3","images/plants_choice1.png","1","plants","","cactus","1","0"
"html-keyboard-response","180","714953","0.0-9.0-2.0-0.47","1572","1","2","""event"",""trial"",""time""
""fullscreenenter"",""1"",""8459""
","
","
","""event"",""trial"",""time""
""fullscreenenter"",""1"",""8459""
","
","","","","","","null","<div style=""font-size:60px;"">+</div>","null","","fixation","","","","","","","","","","","","","",""
"learning-trial","181","718961","0.0-9.0-2.0-1.47","1572","1","2","""event"",""trial"",""time""
""fullscreenenter"",""1"",""8459""
","
","
","""event"",""trial"",""time""
""fullscreenenter"",""1"",""8459""
","
","","","","","","null","images/cactus3.png","","","learning","images/plants_choice3.png","images/plants_choice1.png","images/plants_choice2.png","[2,0,1]","0","1","null","null","-1","plants","","cactus","1","0"
"html-keyboard-response","182","719464","0.0-9.0-2.0-0.48","1572","1","2","""event"",""trial"",""time""
""fullscreenenter"",""1"",""8459""
","
","
","""event"",""trial"",""time""
""fullscreenenter"",""1"",""8459""
","
","","","","","","null","<div style=""font-size:60px;"">+</div>","null","","fixation","","","","","","","","","","","","","",""
"learning-trial","183","723479","0.0-9.0-2.0-1.48","1572","1","2","""event"",""trial"",""time""
""fullscreenenter"",""1"",""8459""
","
","
","""event"",""trial"",""time""
""fullscreenenter"",""1"",""8459""
","
","","","","","","1534.7000000001863","images/cactus5.png","","","learning","images/plants_choice2.png","images/plants_choice3.png","images/plants_choice1.png","[1,2,0]","0","2","3","images/plants_choice1.png","1","plants","","cactus","1","0"
"html-keyboard-response","184","723983","0.0-9.0-2.0-0.49","1572","1","2","""event"",""trial"",""time""
""fullscreenenter"",""1"",""8459""
","
","
","""event"",""trial"",""time""
""fullscreenenter"",""1"",""8459""
","
","","","","","","null","<div style=""font-size:60px;"">+</div>","null","","fixation","","","","","","","","","","","","","",""
"learning-trial","185","727992","0.0-9.0-2.0-1.49","1572","1","2","""event"",""trial"",""time""
""fullscreenenter"",""1"",""8459""
","
","
","""event"",""trial"",""time""
""fullscreenenter"",""1"",""8459""
","
","","","","","","1161.7000000001863","images/flower2.png","","","learning","images/plants_choice2.png","images/plants_choice3.png","images/plants_choice1.png","[1,2,0]","1","0","1","images/plants_choice2.png","1","plants","","flower","1","0"
"html-keyboard-response","186","728494","0.0-9.0-2.0-0.50","1572","1","2","""event"",""trial"",""time""
""fullscreenenter"",""1"",""8459""
","
","
","""event"",""trial"",""time""
""fullscreenenter"",""1"",""8459""
","
","","","","","","null","<div style=""font-size:60px;"">+</div>","null","","fixation","","","","","","","","","","","","","",""
"learning-trial","187","732502","0.0-9.0-2.0-1.50","1572","1","2","""event"",""trial"",""time""
""fullscreenenter"",""1"",""8459""
","
","
","""event"",""trial"",""time""
""fullscreenenter"",""1"",""8459""
","
","","","","","","1086.4000000003725","images/flower2.png","","","learning","images/plants_choice1.png","images/plants_choice3.png","images/plants_choice2.png","[0,2,1]","1","2","3","images/plants_choice2.png","1","plants","","flower","1","0"
"html-keyboard-response","188","733004","0.0-9.0-2.0-0.51","1572","1","2","""event"",""trial"",""time""
""fullscreenenter"",""1"",""8459""
","
","
","""event"",""trial"",""time""
""fullscreenenter"",""1"",""8459""
","
","","","","","","null","<div style=""font-size:60px;"">+</div>","null","","fixation","","","","","","","","","","","","","",""
"learning-trial","189","737012","0.0-9.0-2.0-1.51","1572","1","2","""event"",""trial"",""time""
""fullscreenenter"",""1"",""8459""
","
","
","""event"",""trial"",""time""
""fullscreenenter"",""1"",""8459""
","
","","","","","","1122.2000000001863","images/cactus5.png","","","learning","images/plants_choice2.png","images/plants_choice1.png","images/plants_choice3.png","[1,0,2]","0","1","2","images/plants_choice1.png","-1","plants","","cactus","1","0"
"html-keyboard-response","190","737514","0.0-9.0-2.0-0.52","1572","1","2","""event"",""trial"",""time""
""fullscreenenter"",""1"",""8459""
","
","
","""event"",""trial"",""time""
""fullscreenenter"",""1"",""8459""
","
","","","","","","null","<div style=""font-size:60px;"">+</div>","null","","fixation","","","","","","","","","","","","","",""
"learning-trial","191","741535","0.0-9.0-2.0-1.52","1572","1","2","""event"",""trial"",""time""
""fullscreenenter"",""1"",""8459""
","
","
","""event"",""trial"",""time""
""fullscreenenter"",""1"",""8459""
","
","","","","","","1219.5","images/flower4.png","","","learning","images/plants_choice2.png","images/plants_choice1.png","images/plants_choice3.png","[1,0,2]","1","0","1","images/plants_choice2.png","1","plants","","flower","1","0"
"html-keyboard-response","192","742038","0.0-9.0-2.0-0.53","1572","1","2","""event"",""trial"",""time""
""fullscreenenter"",""1"",""8459""
","
","
","""event"",""trial"",""time""
""fullscreenenter"",""1"",""8459""
","
","","","","","","null","<div style=""font-size:60px;"">+</div>","null","","fixation","","","","","","","","","","","","","",""
"learning-trial","193","746048","0.0-9.0-2.0-1.53","1572","1","2","""event"",""trial"",""time""
""fullscreenenter"",""1"",""8459""
","
","
","""event"",""trial"",""time""
""fullscreenenter"",""1"",""8459""
","
","","","","","","2021.3999999994412","images/tree1.png","","","learning","images/plants_choice1.png","images/plants_choice3.png","images/plants_choice2.png","[0,2,1]","2","1","2","images/plants_choice3.png","1","plants","","tree","1","0"
"html-keyboard-response","194","746550","0.0-9.0-2.0-0.54","1572","1","2","""event"",""trial"",""time""
""fullscreenenter"",""1"",""8459""
","
","
","""event"",""trial"",""time""
""fullscreenenter"",""1"",""8459""
","
","","","","","","null","<div style=""font-size:60px;"">+</div>","null","","fixation","","","","","","","","","","","","","",""
"learning-trial","195","750558","0.0-9.0-2.0-1.54","1572","1","2","""event"",""trial"",""time""
""fullscreenenter"",""1"",""8459""
","
","
","""event"",""trial"",""time""
""fullscreenenter"",""1"",""8459""
","
","","","","","","2774","images/tree5.png","","","learning","images/plants_choice2.png","images/plants_choice3.png","images/plants_choice1.png","[1,2,0]","2","1","2","images/plants_choice3.png","1","plants","","tree","1","0"
"html-keyboard-response","196","751061","0.0-9.0-2.0-0.55","1572","1","2","""event"",""trial"",""time""
""fullscreenenter"",""1"",""8459""
","
","
","""event"",""trial"",""time""
""fullscreenenter"",""1"",""8459""
","
","","","","","","null","<div style=""font-size:60px;"">+</div>","null","","fixation","","","","","","","","","","","","","",""
"learning-trial","197","755069","0.0-9.0-2.0-1.55","1572","1","2","""event"",""trial"",""time""
""fullscreenenter"",""1"",""8459""
","
","
","""event"",""trial"",""time""
""fullscreenenter"",""1"",""8459""
","
","","","","","","3002.5","images/tree2.png","","","learning","images/plants_choice1.png","images/plants_choice2.png","images/plants_choice3.png","[0,1,2]","2","2","1","images/plants_choice1.png","-1","plants","","tree","1","0"
"html-keyboard-response","198","755571","0.0-9.0-2.0-0.56","1572","1","2","""event"",""trial"",""time""
""fullscreenenter"",""1"",""8459""
","
","
","""event"",""trial"",""time""
""fullscreenenter"",""1"",""8459""
","
","","","","","","null","<div style=""font-size:60px;"">+</div>","null","","fixation","","","","","","","","","","","","","",""
"learning-trial","199","759579","0.0-9.0-2.0-1.56","1572","1","2","""event"",""trial"",""time""
""fullscreenenter"",""1"",""8459""
","
","
","""event"",""trial"",""time""
""fullscreenenter"",""1"",""8459""
","
","","","","","","2841.7000000001863","images/cactus2.png","","","learning","images/plants_choice2.png","images/plants_choice3.png","images/plants_choice1.png","[1,2,0]","0","2","3","images/plants_choice1.png","1","plants","","cactus","1","0"
"html-keyboard-response","200","760083","0.0-9.0-2.0-0.57","1572","1","2","""event"",""trial"",""time""
""fullscreenenter"",""1"",""8459""
","
","
","""event"",""trial"",""time""
""fullscreenenter"",""1"",""8459""
","
","","","","","","null","<div style=""font-size:60px;"">+</div>","null","","fixation","","","","","","","","","","","","","",""
"learning-trial","201","764106","0.0-9.0-2.0-1.57","1572","1","2","""event"",""trial"",""time""
""fullscreenenter"",""1"",""8459""
","
","
","""event"",""trial"",""time""
""fullscreenenter"",""1"",""8459""
","
","","","","","","1242.7000000001863","images/cactus2.png","","","learning","images/plants_choice3.png","images/plants_choice2.png","images/plants_choice1.png","[2,1,0]","0","2","3","images/plants_choice1.png","1","plants","","cactus","1","0"
"html-keyboard-response","202","764610","0.0-9.0-2.0-0.58","1572","1","2","""event"",""trial"",""time""
""fullscreenenter"",""1"",""8459""
","
","
","""event"",""trial"",""time""
""fullscreenenter"",""1"",""8459""
","
","","","","","","null","<div style=""font-size:60px;"">+</div>","null","","fixation","","","","","","","","","","","","","",""
"learning-trial","203","768617","0.0-9.0-2.0-1.58","1572","1","2","""event"",""trial"",""time""
""fullscreenenter"",""1"",""8459""
","
","
","""event"",""trial"",""time""
""fullscreenenter"",""1"",""8459""
","
","","","","","","1830.800000000745","images/cactus5.png","","","learning","images/plants_choice2.png","images/plants_choice3.png","images/plants_choice1.png","[1,2,0]","0","2","3","images/plants_choice1.png","1","plants","","cactus","1","0"
"html-keyboard-response","204","769129","0.0-9.0-2.0-0.59","1572","1","2","""event"",""trial"",""time""
""fullscreenenter"",""1"",""8459""
","
","
","""event"",""trial"",""time""
""fullscreenenter"",""1"",""8459""
","
","","","","","","null","<div style=""font-size:60px;"">+</div>","null","","fixation","","","","","","","","","","","","","",""
"learning-trial","205","773137","0.0-9.0-2.0-1.59","1572","1","2","""event"",""trial"",""time""
""fullscreenenter"",""1"",""8459""
","
","
","""event"",""trial"",""time""
""fullscreenenter"",""1"",""8459""
","
","","","","","","1911.0999999996275","images/tree1.png","","","learning","images/plants_choice3.png","images/plants_choice1.png","images/plants_choice2.png","[2,0,1]","2","0","1","images/plants_choice3.png","1","plants","","tree","1","0"
"html-keyboard-response","206","773640","0.0-9.0-2.0-0.60","1572","1","2","""event"",""trial"",""time""
""fullscreenenter"",""1"",""8459""
","
","
","""event"",""trial"",""time""
""fullscreenenter"",""1"",""8459""
","
","","","","","","null","<div style=""font-size:60px;"">+</div>","null","","fixation","","","","","","","","","","","","","",""
"learning-trial","207","777647","0.0-9.0-2.0-1.60","1572","1","2","""event"",""trial"",""time""
""fullscreenenter"",""1"",""8459""
","
","
","""event"",""trial"",""time""
""fullscreenenter"",""1"",""8459""
","
","","","","","","2459.7999999998137","images/tree5.png","","","learning","images/plants_choice1.png","images/plants_choice2.png","images/plants_choice3.png","[0,1,2]","2","2","3","images/plants_choice3.png","1","plants","","tree","1","0"
"html-keyboard-response","208","778149","0.0-9.0-2.0-0.61","1572","1","2","""event"",""trial"",""time""
""fullscreenenter"",""1"",""8459""
","
","
","""event"",""trial"",""time""
""fullscreenenter"",""1"",""8459""
","
","","","","","","null","<div style=""font-size:60px;"">+</div>","null","","fixation","","","","","","","","","","","","","",""
"learning-trial","209","782157","0.0-9.0-2.0-1.61","1572","1","2","""event"",""trial"",""time""
""fullscreenenter"",""1"",""8459""
","
","
","""event"",""trial"",""time""
""fullscreenenter"",""1"",""8459""
","
","","","","","","1092.5","images/tree2.png","","","learning","images/plants_choice2.png","images/plants_choice3.png","images/plants_choice1.png","[1,2,0]","2","1","2","images/plants_choice3.png","1","plants","","tree","1","0"
"html-keyboard-response","210","782660","0.0-9.0-2.0-0.62","1572","1","2","""event"",""trial"",""time""
""fullscreenenter"",""1"",""8459""
","
","
","""event"",""trial"",""time""
""fullscreenenter"",""1"",""8459""
","
","","","","","","null","<div style=""font-size:60px;"">+</div>","null","","fixation","","","","","","","","","","","","","",""
"learning-trial","211","786668","0.0-9.0-2.0-1.62","1572","1","2","""event"",""trial"",""time""
""fullscreenenter"",""1"",""8459""
","
","
","""event"",""trial"",""time""
""fullscreenenter"",""1"",""8459""
","
","","","","","","1624.2000000001863","images/tree2.png","","","learning","images/plants_choice3.png","images/plants_choice2.png","images/plants_choice1.png","[2,1,0]","2","0","1","images/plants_choice3.png","-1","plants","","tree","1","0"
"html-keyboard-response","212","787179","0.0-9.0-2.0-0.63","1572","1","2","""event"",""trial"",""time""
""fullscreenenter"",""1"",""8459""
","
","
","""event"",""trial"",""time""
""fullscreenenter"",""1"",""8459""
","
","","","","","","null","<div style=""font-size:60px;"">+</div>","null","","fixation","","","","","","","","","","","","","",""
"learning-trial","213","791195","0.0-9.0-2.0-1.63","1572","1","2","""event"",""trial"",""time""
""fullscreenenter"",""1"",""8459""
","
","
","""event"",""trial"",""time""
""fullscreenenter"",""1"",""8459""
","
","","","","","","2426.9000000003725","images/flower1.png","","","learning","images/plants_choice3.png","images/plants_choice1.png","images/plants_choice2.png","[2,0,1]","1","2","3","images/plants_choice2.png","1","plants","","flower","1","0"
"html-keyboard-response","214","791706","0.0-9.0-2.0-0.64","1572","1","2","""event"",""trial"",""time""
""fullscreenenter"",""1"",""8459""
","
","
","""event"",""trial"",""time""
""fullscreenenter"",""1"",""8459""
","
","","","","","","null","<div style=""font-size:60px;"">+</div>","null","","fixation","","","","","","","","","","","","","",""
"learning-trial","215","795714","0.0-9.0-2.0-1.64","1572","1","2","""event"",""trial"",""time""
""fullscreenenter"",""1"",""8459""
","
","
","""event"",""trial"",""time""
""fullscreenenter"",""1"",""8459""
","
","","","","","","1314.2000000001863","images/tree5.png","","","learning","images/plants_choice2.png","images/plants_choice1.png","images/plants_choice3.png","[1,0,2]","2","2","2","images/plants_choice1.png","-1","plants","","tree","1","0"
"html-keyboard-response","216","796217","0.0-9.0-2.0-0.65","1572","1","2","""event"",""trial"",""time""
""fullscreenenter"",""1"",""8459""
","
","
","""event"",""trial"",""time""
""fullscreenenter"",""1"",""8459""
","
","","","","","","null","<div style=""font-size:60px;"">+</div>","null","","fixation","","","","","","","","","","","","","",""
"learning-trial","217","800225","0.0-9.0-2.0-1.65","1572","1","2","""event"",""trial"",""time""
""fullscreenenter"",""1"",""8459""
","
","
","""event"",""trial"",""time""
""fullscreenenter"",""1"",""8459""
","
","","","","","","1074.3999999994412","images/flower1.png","","","learning","images/plants_choice1.png","images/plants_choice2.png","images/plants_choice3.png","[0,1,2]","1","1","2","images/plants_choice2.png","1","plants","","flower","1","0"
"html-keyboard-response","218","800728","0.0-9.0-2.0-0.66","1572","1","2","""event"",""trial"",""time""
""fullscreenenter"",""1"",""8459""
","
","
","""event"",""trial"",""time""
""fullscreenenter"",""1"",""8459""
","
","","","","","","null","<div style=""font-size:60px;"">+</div>","null","","fixation","","","","","","","","","","","","","",""
"learning-trial","219","804747","0.0-9.0-2.0-1.66","1572","1","2","""event"",""trial"",""time""
""fullscreenenter"",""1"",""8459""
","
","
","""event"",""trial"",""time""
""fullscreenenter"",""1"",""8459""
","
","","","","","","1737.2999999998137","images/cactus5.png","","","learning","images/plants_choice3.png","images/plants_choice2.png","images/plants_choice1.png","[2,1,0]","0","2","3","images/plants_choice1.png","1","plants","","cactus","1","0"
"html-keyboard-response","220","805250","0.0-9.0-2.0-0.67","1572","1","2","""event"",""trial"",""time""
""fullscreenenter"",""1"",""8459""
","
","
","""event"",""trial"",""time""
""fullscreenenter"",""1"",""8459""
","
","","","","","","null","<div style=""font-size:60px;"">+</div>","null","","fixation","","","","","","","","","","","","","",""
"learning-trial","221","809258","0.0-9.0-2.0-1.67","1572","1","2","""event"",""trial"",""time""
""fullscreenenter"",""1"",""8459""
","
","
","""event"",""trial"",""time""
""fullscreenenter"",""1"",""8459""
","
","","","","","","1944.6000000005588","images/tree5.png","","","learning","images/plants_choice1.png","images/plants_choice2.png","images/plants_choice3.png","[0,1,2]","2","2","3","images/plants_choice3.png","1","plants","","tree","1","0"
"html-keyboard-response","222","809761","0.0-9.0-2.0-0.68","1572","1","2","""event"",""trial"",""time""
""fullscreenenter"",""1"",""8459""
","
","
","""event"",""trial"",""time""
""fullscreenenter"",""1"",""8459""
","
","","","","","","null","<div style=""font-size:60px;"">+</div>","null","","fixation","","","","","","","","","","","","","",""
"learning-trial","223","813768","0.0-9.0-2.0-1.68","1572","1","2","""event"",""trial"",""time""
""fullscreenenter"",""1"",""8459""
","
","
","""event"",""trial"",""time""
""fullscreenenter"",""1"",""8459""
","
","","","","","","3460.5","images/tree5.png","","","learning","images/plants_choice1.png","images/plants_choice3.png","images/plants_choice2.png","[0,2,1]","2","1","2","images/plants_choice3.png","1","plants","","tree","1","0"
"html-keyboard-response","224","814270","0.0-9.0-2.0-0.69","1572","1","2","""event"",""trial"",""time""
""fullscreenenter"",""1"",""8459""
","
","
","""event"",""trial"",""time""
""fullscreenenter"",""1"",""8459""
","
","","","","","","null","<div style=""font-size:60px;"">+</div>","null","","fixation","","","","","","","","","","","","","",""
"learning-trial","225","818280","0.0-9.0-2.0-1.69","1572","1","2","""event"",""trial"",""time""
""fullscreenenter"",""1"",""8459""
","
","
","""event"",""trial"",""time""
""fullscreenenter"",""1"",""8459""
","
","","","","","","3482.7999999998137","images/flower4.png","","","learning","images/plants_choice2.png","images/plants_choice1.png","images/plants_choice3.png","[1,0,2]","1","0","1","images/plants_choice2.png","1","plants","","flower","1","0"
"html-keyboard-response","226","818782","0.0-9.0-2.0-0.70","1572","1","2","""event"",""trial"",""time""
""fullscreenenter"",""1"",""8459""
","
","
","""event"",""trial"",""time""
""fullscreenenter"",""1"",""8459""
","
","","","","","","null","<div style=""font-size:60px;"">+</div>","null","","fixation","","","","","","","","","","","","","",""
"learning-trial","227","822787","0.0-9.0-2.0-1.70","1572","1","2","""event"",""trial"",""time""
""fullscreenenter"",""1"",""8459""
","
","
","""event"",""trial"",""time""
""fullscreenenter"",""1"",""8459""
","
","","","","","","3463.7999999998137","images/cactus2.png","","","learning","images/plants_choice1.png","images/plants_choice3.png","images/plants_choice2.png","[0,2,1]","0","0","2","images/plants_choice3.png","-1","plants","","cactus","1","0"
"html-keyboard-response","228","823289","0.0-9.0-2.0-0.71","1572","1","2","""event"",""trial"",""time""
""fullscreenenter"",""1"",""8459""
","
","
","""event"",""trial"",""time""
""fullscreenenter"",""1"",""8459""
","
","","","","","","null","<div style=""font-size:60px;"">+</div>","null","","fixation","","","","","","","","","","","","","",""
"learning-trial","229","827297","0.0-9.0-2.0-1.71","1572","1","2","""event"",""trial"",""time""
""fullscreenenter"",""1"",""8459""
","
","
","""event"",""trial"",""time""
""fullscreenenter"",""1"",""8459""
","
","","","","","","3574","images/tree1.png","","","learning","images/plants_choice2.png","images/plants_choice1.png","images/plants_choice3.png","[1,0,2]","2","2","3","images/plants_choice3.png","1","plants","","tree","1","0"
"html-button-response","230","831570","0.0-9.0-3.0","1572","1","2","""event"",""trial"",""time""
""fullscreenenter"",""1"",""8459""
","
","
","""event"",""trial"",""time""
""fullscreenenter"",""1"",""8459""
","
","","","","","","4267.899999999441","<p> You have completed the round! <p> In this round, you earned 44 points! </p>","0","","break","","","","","","","","","","","","","",""
"html-button-response","231","860783","0.0-10.0","1572","1","2","""event"",""trial"",""time""
""fullscreenenter"",""1"",""8459""
","
","
","""event"",""trial"",""time""
""fullscreenenter"",""1"",""8459""
","
","","","","","","29210.199999999255","<p> Now it's time to play another round. </p>","0","","transition_screen","","","","","","","","","","","","","",""
"preload","232","862959","0.0-11.0-0.0","1572","1","2","""event"",""trial"",""time""
""fullscreenenter"",""1"",""8459""
","
","
","""event"",""trial"",""time""
""fullscreenenter"",""1"",""8459""
","
","true","false","[]","[]","[]","","","","","","","","","","","","","","","","","","",""
"learning-instructions","233","872899","0.0-11.0-1.0-0.0","1572","1","2","""event"",""trial"",""time""
""fullscreenenter"",""1"",""8459""
","
","
","""event"",""trial"",""time""
""fullscreenenter"",""1"",""8459""
","
","","","","","","3427","<p> Your goal in this round is to buy different types of fruits. </p><p> You will try to purchase many fruits from different stores. </p></div>","","0","instructions","","","","","","","","","","","","","",""
"learning-instructions","234","884094","0.0-11.0-1.0-0.1","1572","1","2","""event"",""trial"",""time""
""fullscreenenter"",""1"",""8459""
","
","
","""event"",""trial"",""time""
""fullscreenenter"",""1"",""8459""
","
","","","","","","2683.5","<p> On each turn, you will see a picture of a fruit and three different stores.  </p><p> You need to select the store where you can buy that fruit.  </p>","","0","instructions","","","","","","","","","","","","","",""
"learning-instructions","235","893549","0.0-11.0-1.0-0.2","1572","1","2","""event"",""trial"",""time""
""fullscreenenter"",""1"",""8459""
","
","
","""event"",""trial"",""time""
""fullscreenenter"",""1"",""8459""
","
","","","","","","2066","<p> You can select the store on the left by pressing 1, the store in the middle by pressing 2, and the store on the right by pressing 3. </p><br><div class=""choice-instructions-grid""> <div class=""choice-option""><img src=""images/fruit_choice1.png"" class=""choice-option-img"" stage=""instructions"" position=""0"" ><div class=""choice-option-text""> Press ""1."" </div></div><div class=""choice-option""><img src=""images/fruit_choice2.png"" class=""choice-option-img"" stage=""instructions"" position=""1"" ><div class=""choice-option-text""> Press ""2."" </div></div><div class=""choice-option""><img src=""images/fruit_choice3.png"" class=""choice-option-img"" stage=""instructions"" position=""2"" ><div class=""choice-option-text""> Press ""3."" </div></div></div>","","0","instructions","","","","","","","","","","","","","",""
"learning-instructions","236","901386","0.0-11.0-1.0-0.3","1572","1","2","""event"",""trial"",""time""
""fullscreenenter"",""1"",""8459""
","
","
