"trial_type","trial_index","time_elapsed","internal_node_id","subject_id","condition","task_version","interactions","blur_events","focus_events","fullscreenenter_events","fullscreenexit_events","success","timeout","failed_images","failed_audio","failed_video","rt","stimulus","response","button_pressed","task_part","left_choice","middle_choice","right_choice","choice_positions","correct_response","correct_position","key_press","option_selected","points","task_block","correct","stim_cat","block_condition","block_number"
"pavlovia","0","6","0.0-0.0","1495","2","2","""event"",""trial"",""time""
""fullscreenenter"",""1"",""3322""
","
","
","""event"",""trial"",""time""
""fullscreenenter"",""1"",""3322""
","
","","","","","","","","","","","","","","","","","","","","","","","",""
"fullscreen","1","4266","0.0-1.0","1495","2","2","""event"",""trial"",""time""
""fullscreenenter"",""1"",""3322""
","
","
","""event"",""trial"",""time""
""fullscreenenter"",""1"",""3322""
","
","true","","","","","","","","","","","","","","","","","","","","","","",""
"preload","2","6987","0.0-2.0","1495","2","2","""event"",""trial"",""time""
""fullscreenenter"",""1"",""3322""
","
","
","""event"",""trial"",""time""
""fullscreenenter"",""1"",""3322""
","
","true","false","[]","[]","[]","","","","","","","","","","","","","","","","","","",""
"audio-keyboard-response","3","10386","0.0-3.0","1495","2","2","""event"",""trial"",""time""
""fullscreenenter"",""1"",""3322""
","
","
","""event"",""trial"",""time""
""fullscreenenter"",""1"",""3322""
","
","","","","","","3400.0000000000005","audio/beep_loop.wav"," ","","","","","","","","","","","","","","","",""
"audio-button-response","4","16049","0.0-4.0","1495","2","2","""event"",""trial"",""time""
""fullscreenenter"",""1"",""3322""
","
","
","""event"",""trial"",""time""
""fullscreenenter"",""1"",""3322""
","
","","","","","","5661","audio/shark.wav","0","","","","","","","","","","","","","","","",""
"audio-button-response","5","21702","0.0-5.0","1495","2","2","""event"",""trial"",""time""
""fullscreenenter"",""1"",""3322""
","
","
","""event"",""trial"",""time""
""fullscreenenter"",""1"",""3322""
","
","","","","","","4640","audio/turtle.wav","1","","","","","","","","","","","","","","","",""
"preload","6","24928","0.0-6.0","1495","2","2","""event"",""trial"",""time""
""fullscreenenter"",""1"",""3322""
","
","
","""event"",""trial"",""time""
""fullscreenenter"",""1"",""3322""
","
","true","false","[]","[]","[]","","","","","","","","","","","","","","","","","","",""
"html-keyboard-response","7","27524","0.0-7.0","1495","2","2","""event"",""trial"",""time""
""fullscreenenter"",""1"",""3322""
","
","
","""event"",""trial"",""time""
""fullscreenenter"",""1"",""3322""
","
","","","","","","2594.7000000476837","Welcome to the experiment. Press any key to begin and to advance the instructions."," ","","","","","","","","","","","","","","","",""
"learning-instructions","8","37771","0.0-8.0-0.0-0.0","1495","2","2","""event"",""trial"",""time""
""fullscreenenter"",""1"",""3322""
","
","
","""event"",""trial"",""time""
""fullscreenenter"",""1"",""3322""
","
","","","","","","2495.100000143051","<p> Welcome! Today you are going to play 6 different rounds of a decision-making game. </p><p> Use the mouse to click next to continue. </p>","","0","instructions","","","","","","","","","","","","","",""
"learning-instructions","9","42417","0.0-8.0-0.0-0.1","1495","2","2","""event"",""trial"",""time""
""fullscreenenter"",""1"",""3322""
","
","
","""event"",""trial"",""time""
""fullscreenenter"",""1"",""3322""
","
","","","","","","1631.2000000476837","<p> You will start with a practice round to learn the rules. </p>","","0","instructions","","","","","","","","","","","","","",""
"learning-instructions","10","51347","0.0-8.0-0.0-0.2","1495","2","2","""event"",""trial"",""time""
""fullscreenenter"",""1"",""3322""
","
","
","""event"",""trial"",""time""
""fullscreenenter"",""1"",""3322""
","
","","","","","","1192.5","<p> Your goal in this round is to deliver sports equipment to three different parks. </p><p> You will need to deliver many types of equipment. </p></div>","","0","instructions","","","","","","","","","","","","","",""
"learning-instructions","11","60404","0.0-8.0-0.0-0.3","1495","2","2","""event"",""trial"",""time""
""fullscreenenter"",""1"",""3322""
","
","
","""event"",""trial"",""time""
""fullscreenenter"",""1"",""3322""
","
","","","","","","558.7999999523163","<p> On each turn, you will see one piece of sports equipment and three different parks.  </p><p> You need to select which park to deliver the equipment to.  </p>","","0","instructions","","","","","","","","","","","","","",""
"learning-instructions","12","75359","0.0-8.0-0.0-0.4","1495","2","2","""event"",""trial"",""time""
""fullscreenenter"",""1"",""3322""
","
","
","""event"",""trial"",""time""
""fullscreenenter"",""1"",""3322""
","
","","","","","","1663.8999998569489","<p> You can select the park on the left by pressing the '1' key on your keyboard. <br>You can select the park in the middle by pressing the '2' key on your keyboard. <br>You can select the park on the right by pressing the '3' key on your keyboard.  </p><br><div class=""choice-instructions-grid""> <div class=""choice-option""><img src=""images/park1.png"" class=""choice-option-img"" stage=""instructions"" position=""0"" ><div class=""choice-option-text""> Press ""1."" </div></div><div class=""choice-option""><img src=""images/park2.png"" class=""choice-option-img"" stage=""instructions"" position=""1"" ><div class=""choice-option-text""> Press ""2."" </div></div><div class=""choice-option""><img src=""images/park3.png"" class=""choice-option-img"" stage=""instructions"" position=""2"" ><div class=""choice-option-text""> Press ""3."" </div></div></div>","","0","instructions","","","","","","","","","","","","","",""
"learning-instructions","13","82035","0.0-8.0-0.0-0.5","1495","2","2","""event"",""trial"",""time""
""fullscreenenter"",""1"",""3322""
","
","
","""event"",""trial"",""time""
""fullscreenenter"",""1"",""3322""
","
","","","","","","1290.1000001430511","<p> If the kids in the park you chose like the equipment, they will be very happy! </p><div style='float: center;'><img src='images/check.png' width = '200' height = '200'></img>","","0","instructions","","","","","","","","","","","","","",""
"learning-instructions","14","88717","0.0-8.0-0.0-0.6","1495","2","2","""event"",""trial"",""time""
""fullscreenenter"",""1"",""3322""
","
","
","""event"",""trial"",""time""
""fullscreenenter"",""1"",""3322""
","
","","","","","","1082.0999999046326","<p> But, if the kids in the park you chose do not like the equipment, they will be sad. </p><div style='float: center;'><img src='images/x.png' width = '200' height = '200'></img>","","0","instructions","","","","","","","","","","","","","",""
"learning-instructions","15","95679","0.0-8.0-0.0-0.7","1495","2","2","""event"",""trial"",""time""
""fullscreenenter"",""1"",""3322""
","
","
","""event"",""trial"",""time""
""fullscreenenter"",""1"",""3322""
","
","","","","","","524.2999999523163","<p> Importantly, the kids in each park like some pieces of sports equipment more than others. </p>","","0","instructions","","","","","","","","","","","","","",""
"learning-instructions","16","102604","0.0-8.0-0.0-0.8","1495","2","2","""event"",""trial"",""time""
""fullscreenenter"",""1"",""3322""
","
","
","""event"",""trial"",""time""
""fullscreenenter"",""1"",""3322""
","
","","","","","","868.6000001430511","<p> If you choose the best park for each piece of equipment, the kids there will usually be happy. </p>","","0","instructions","","","","","","","","","","","","","",""
"learning-instructions","17","109744","0.0-8.0-0.0-0.9","1495","2","2","""event"",""trial"",""time""
""fullscreenenter"",""1"",""3322""
","
","
","""event"",""trial"",""time""
""fullscreenenter"",""1"",""3322""
","
","","","","","","489","<p> However, even if you choose the best park for the equipment, the kids may sometimes be sad. </p>","","0","instructions","","","","","","","","","","","","","",""
"learning-instructions","18","117429","0.0-8.0-0.0-0.10","1495","2","2","""event"",""trial"",""time""
""fullscreenenter"",""1"",""3322""
","
","
","""event"",""trial"",""time""
""fullscreenenter"",""1"",""3322""
","
","","","","","","444","<p> Similarly, even if you choose the <i>wrong</i> park for the equipment, the kids may still be happy sometimes.","","0","instructions","","","","","","","","","","","","","",""
"learning-instructions","19","124194","0.0-8.0-0.0-0.11","1495","2","2","""event"",""trial"",""time""
""fullscreenenter"",""1"",""3322""
","
","
","""event"",""trial"",""time""
""fullscreenenter"",""1"",""3322""
","
","","","","","","1708.2999999523163","<p> For example, the best park for this soccer ball is this one.<div style='float: center;'><img src='images/i1.png' width = '500' height = '268'></img>","","0","instructions","","","","","","","","","","","","","",""
"learning-instructions","20","133212","0.0-8.0-0.0-0.12","1495","2","2","""event"",""trial"",""time""
""fullscreenenter"",""1"",""3322""
","
","
","""event"",""trial"",""time""
""fullscreenenter"",""1"",""3322""
","
","","","","","","3727.600000143051","<p> Let's see what happens if you choose this park for the soccer ball five times.","","0","instructions","","","","","","","","","","","","","",""
"learning-instructions","21","135954","0.0-8.0-0.0-0.13","1495","2","2","""event"",""trial"",""time""
""fullscreenenter"",""1"",""3322""
","
","
","""event"",""trial"",""time""
""fullscreenenter"",""1"",""3322""
","
","","","","","","578.6000001430511","<p> The kids are happy.<div style='float: left;'><img src='images/i2.png' width = '640' height = '360'></img>","","0","instructions","","","","","","","","","","","","","",""
"learning-instructions","22","138331","0.0-8.0-0.0-0.14","1495","2","2","""event"",""trial"",""time""
""fullscreenenter"",""1"",""3322""
","
","
","""event"",""trial"",""time""
""fullscreenenter"",""1"",""3322""
","
","","","","","","206.30000019073486","<p> The kids are happy.<div style='float: left;'><img src='images/i3.png' width = '640' height = '360'></img>","","0","instructions","","","","","","","","","","","","","",""
"learning-instructions","23","140994","0.0-8.0-0.0-0.15","1495","2","2","""event"",""trial"",""time""
""fullscreenenter"",""1"",""3322""
","
","
","""event"",""trial"",""time""
""fullscreenenter"",""1"",""3322""
","
","","","","","","478.2000000476837","<p> The kids are happy.<div style='float: left;'><img src='images/i4.png' width = '640' height = '360'></img>","","0","instructions","","","","","","","","","","","","","",""
"learning-instructions","24","143684","0.0-8.0-0.0-0.16","1495","2","2","""event"",""trial"",""time""
""fullscreenenter"",""1"",""3322""
","
","
","""event"",""trial"",""time""
""fullscreenenter"",""1"",""3322""
","
","","","","","","478.2999999523163","<p> The kids are sad.<div style='float: left;'><img src='images/i5.png' width = '640' height = '360'></img>","","0","instructions","","","","","","","","","","","","","",""
"learning-instructions","25","146775","0.0-8.0-0.0-0.17","1495","2","2","""event"",""trial"",""time""
""fullscreenenter"",""1"",""3322""
","
","
","""event"",""trial"",""time""
""fullscreenenter"",""1"",""3322""
","
","","","","","","930.4000000953674","<p> The kids are happy.<div style='float: left;'><img src='images/i6.png' width = '640' height = '360'></img>","","0","instructions","","","","","","","","","","","","","",""
"learning-instructions","26","155563","0.0-8.0-0.0-0.18","1495","2","2","""event"",""trial"",""time""
""fullscreenenter"",""1"",""3322""
","
","
","""event"",""trial"",""time""
""fullscreenenter"",""1"",""3322""
","
","","","","","","1498.2999999523163","<p> As you can see, selecting that park for the soccer ball made the kids happy most of the time, but not all the time.","","0","instructions","","","","","","","","","","","","","",""
"learning-instructions","27","162021","0.0-8.0-0.0-0.19","1495","2","2","""event"",""trial"",""time""
""fullscreenenter"",""1"",""3322""
","
","
","""event"",""trial"",""time""
""fullscreenenter"",""1"",""3322""
","
","","","","","","456.2999999523163","<p> Now let's see what happens if you choose a DIFFERENT park for the soccer ball 5 times.","","0","instructions","","","","","","","","","","","","","",""
"learning-instructions","28","164733","0.0-8.0-0.0-0.20","1495","2","2","""event"",""trial"",""time""
""fullscreenenter"",""1"",""3322""
","
","
","""event"",""trial"",""time""
""fullscreenenter"",""1"",""3322""
","
","","","","","","498.2999999523163","<p> The kids are sad.<div style='float: left;'><img src='images/i7.png' width = '640' height = '360'></img>","","0","instructions","","","","","","","","","","","","","",""
"learning-instructions","29","167399","0.0-8.0-0.0-0.21","1495","2","2","""event"",""trial"",""time""
""fullscreenenter"",""1"",""3322""
","
","
","""event"",""trial"",""time""
""fullscreenenter"",""1"",""3322""
","
","","","","","","464.10000014305115","<p> The kids are sad.<div style='float: left;'><img src='images/i8.png' width = '640' height = '360'></img>","","0","instructions","","","","","","","","","","","","","",""
"learning-instructions","30","169885","0.0-8.0-0.0-0.22","1495","2","2","""event"",""trial"",""time""
""fullscreenenter"",""1"",""3322""
","
","
","""event"",""trial"",""time""
""fullscreenenter"",""1"",""3322""
","
","","","","","","320.2000000476837","<p> The kids are happy.<div style='float: left;'><img src='images/i9.png' width = '640' height = '360'></img>","","0","instructions","","","","","","","","","","","","","",""
"learning-instructions","31","172417","0.0-8.0-0.0-0.23","1495","2","2","""event"",""trial"",""time""
""fullscreenenter"",""1"",""3322""
","
","
","""event"",""trial"",""time""
""fullscreenenter"",""1"",""3322""
","
","","","","","","321.89999985694885","<p> The kids are sad.<div style='float: left;'><img src='images/i10.png' width = '640' height = '360'></img>","","0","instructions","","","","","","","","","","","","","",""
"learning-instructions","32","175931","0.0-8.0-0.0-0.24","1495","2","2","""event"",""trial"",""time""
""fullscreenenter"",""1"",""3322""
","
","
","""event"",""trial"",""time""
""fullscreenenter"",""1"",""3322""
","
","","","","","","1295.9000000953674","<p> The kids are sad.<div style='float: left;'><img src='images/i11.png' width = '640' height = '360'></img>","","0","instructions","","","","","","","","","","","","","",""
"learning-instructions","33","185753","0.0-8.0-0.0-0.25","1495","2","2","""event"",""trial"",""time""
""fullscreenenter"",""1"",""3322""
","
","
","""event"",""trial"",""time""
""fullscreenenter"",""1"",""3322""
","
","","","","","","1688.7999999523163","<p> As you can see, selecting the wrong park for the soccer ball made the kids sad most of the time, but not all the time.","","0","instructions","","","","","","","","","","","","","",""
"learning-instructions","34","195523","0.0-8.0-0.0-0.26","1495","2","2","""event"",""trial"",""time""
""fullscreenenter"",""1"",""3322""
","
","
","""event"",""trial"",""time""
""fullscreenenter"",""1"",""3322""
","
","","","","","","648.0999999046326","<p> The different pieces of equipment belong in different parks. You need to try to learn which is the best park for each piece of equipment.","","0","instructions","","","","","","","","","","","","","",""
"learning-instructions","35","213042","0.0-8.0-0.0-0.27","1495","2","2","""event"",""trial"",""time""
""fullscreenenter"",""1"",""3322""
","
","
","""event"",""trial"",""time""
""fullscreenenter"",""1"",""3322""
","
","","","","","","1126.9000000953674","<p> Try to choose the best park for each piece of equipment, because you will <b> WIN </b> 1 point for each time you make the kids happy and <b>LOSE</b> 1 point for each time you make them sad. </p><p> Remember, if you make the best choice, you will win 1 point most of the time, but not all the time. </p>","","0","instructions","","","","","","","","","","","","","",""
"learning-instructions","36","219028","0.0-8.0-0.0-0.28","1495","2","2","""event"",""trial"",""time""
""fullscreenenter"",""1"",""3322""
","
","
","""event"",""trial"",""time""
""fullscreenenter"",""1"",""3322""
","
","","","","","","502.7999999523163","<p> This is just a practice round, but in the real game, your bonus payment will depend on your total number of points.","","0","instructions","","","","","","","","","","","","","",""
"learning-instructions","37","231900","0.0-8.0-0.0-0.29","1495","2","2","""event"",""trial"",""time""
""fullscreenenter"",""1"",""3322""
","
","
","""event"",""trial"",""time""
""fullscreenenter"",""1"",""3322""
","
","","","","","","2534.5","<p> The position where each park appears will change throughout the game. </p><p> The position where the park appears <i> does not </i> influence how likely the kids are to be happy or sad. </p>","","0","instructions","","","","","","","","","","","","","",""
"learning-instructions","38","244161","0.0-8.0-0.0-0.30","1495","2","2","""event"",""trial"",""time""
""fullscreenenter"",""1"",""3322""
","
","
","""event"",""trial"",""time""
""fullscreenenter"",""1"",""3322""
","
","","","","","","1766.7000000476837","<p> You will have 4 seconds to make each choice. Try to respond before time runs out! </p><p> You will lose 1 point each time you do not make a response. </p>","","0","instructions","","","","","","","","","","","","","",""
"learning-instructions","39","252438","0.0-8.0-0.0-0.31","1495","2","2","""event"",""trial"",""time""
""fullscreenenter"",""1"",""3322""
","
","
","""event"",""trial"",""time""
""fullscreenenter"",""1"",""3322""
","
","","","","","","1481.7999999523163","<p> Remember, you should use the 1, 2, and 3 keys to select the park for each piece of equipment. </p><br><div class=""choice-instructions-grid""> <div class=""choice-option""><img src=""images/park1.png"" class=""choice-option-img"" stage=""instructions"" position=""0"" ><div class=""choice-option-text""> Press ""1."" </div></div><div class=""choice-option""><img src=""images/park2.png"" class=""choice-option-img"" stage=""instructions"" position=""1"" ><div class=""choice-option-text""> Press ""2."" </div></div><div class=""choice-option""><img src=""images/park3.png"" class=""choice-option-img"" stage=""instructions"" position=""2"" ><div class=""choice-option-text""> Press ""3."" </div></div></div>","","0","instructions","","","","","","","","","","","","","",""
"html-button-response","40","254064","0.0-8.0-1.0","1495","2","2","""event"",""trial"",""time""
""fullscreenenter"",""1"",""3322""
","
","
","""event"",""trial"",""time""
""fullscreenenter"",""1"",""3322""
","
","","","","","","1507.7000000476837","<p> Ready to practice? </p>","0","","","","","","","","","","","","","","","",""
"html-keyboard-response","41","254694","0.0-8.0-2.0-0.0","1495","2","2","""event"",""trial"",""time""
""fullscreenenter"",""1"",""3322""
","
","
","""event"",""trial"",""time""
""fullscreenenter"",""1"",""3322""
","
","","","","","","null","<div style=""font-size:60px;"">+</div>","null","","fixation","","","","","","","","","","","","","",""
"learning-trial","42","258704","0.0-8.0-2.0-1.0","1495","2","2","""event"",""trial"",""time""
""fullscreenenter"",""1"",""3322""
","
","
","""event"",""trial"",""time""
""fullscreenenter"",""1"",""3322""
","
","","","","","","2113.2999999523163","images/ball4.png","","","practice","images/park1.png","images/park2.png","images/park3.png","[0,1,2]","1","1","1","images/park1.png","-1","practice","","","",""
"html-keyboard-response","43","259214","0.0-8.0-2.0-0.1","1495","2","2","""event"",""trial"",""time""
""fullscreenenter"",""1"",""3322""
","
","
","""event"",""trial"",""time""
""fullscreenenter"",""1"",""3322""
","
","","","","","","null","<div style=""font-size:60px;"">+</div>","null","","fixation","","","","","","","","","","","","","",""
"learning-trial","44","263217","0.0-8.0-2.0-1.1","1495","2","2","""event"",""trial"",""time""
""fullscreenenter"",""1"",""3322""
","
","
","""event"",""trial"",""time""
""fullscreenenter"",""1"",""3322""
","
","","","","","","2324.5","images/racket4.png","","","practice","images/park1.png","images/park2.png","images/park3.png","[0,1,2]","0","0","2","images/park2.png","-1","practice","","","",""
"html-keyboard-response","45","263724","0.0-8.0-2.0-0.2","1495","2","2","""event"",""trial"",""time""
""fullscreenenter"",""1"",""3322""
","
","
","""event"",""trial"",""time""
""fullscreenenter"",""1"",""3322""
","
","","","","","","null","<div style=""font-size:60px;"">+</div>","null","","fixation","","","","","","","","","","","","","",""
"learning-trial","46","267734","0.0-8.0-2.0-1.2","1495","2","2","""event"",""trial"",""time""
""fullscreenenter"",""1"",""3322""
","
","
","""event"",""trial"",""time""
""fullscreenenter"",""1"",""3322""
","
","","","","","","2984.2999999523163","images/ball4.png","","","practice","images/park3.png","images/park2.png","images/park1.png","[2,1,0]","1","1","2","images/park2.png","1","practice","","","",""
"html-keyboard-response","47","268254","0.0-8.0-2.0-0.3","1495","2","2","""event"",""trial"",""time""
""fullscreenenter"",""1"",""3322""
","
","
","""event"",""trial"",""time""
""fullscreenenter"",""1"",""3322""
","
","","","","","","null","<div style=""font-size:60px;"">+</div>","null","","fixation","","","","","","","","","","","","","",""
"learning-trial","48","272266","0.0-8.0-2.0-1.3","1495","2","2","""event"",""trial"",""time""
""fullscreenenter"",""1"",""3322""
","
","
","""event"",""trial"",""time""
""fullscreenenter"",""1"",""3322""
","
","","","","","","2694.5999999046326","images/racket1.png","","","practice","images/park3.png","images/park2.png","images/park1.png","[2,1,0]","2","0","1","images/park3.png","1","practice","","","",""
"html-keyboard-response","49","272784","0.0-8.0-2.0-0.4","1495","2","2","""event"",""trial"",""time""
""fullscreenenter"",""1"",""3322""
","
","
","""event"",""trial"",""time""
""fullscreenenter"",""1"",""3322""
","
","","","","","","null","<div style=""font-size:60px;"">+</div>","null","","fixation","","","","","","","","","","","","","",""
"learning-trial","50","276797","0.0-8.0-2.0-1.4","1495","2","2","""event"",""trial"",""time""
""fullscreenenter"",""1"",""3322""
","
","
","""event"",""trial"",""time""
""fullscreenenter"",""1"",""3322""
","
","","","","","","2194.5","images/racket4.png","","","practice","images/park2.png","images/park1.png","images/park3.png","[1,0,2]","0","1","3","images/park3.png","-1","practice","","","",""
"html-keyboard-response","51","277316","0.0-8.0-2.0-0.5","1495","2","2","""event"",""trial"",""time""
""fullscreenenter"",""1"",""3322""
","
","
","""event"",""trial"",""time""
""fullscreenenter"",""1"",""3322""
","
","","","","","","null","<div style=""font-size:60px;"">+</div>","null","","fixation","","","","","","","","","","","","","",""
"learning-trial","52","281329","0.0-8.0-2.0-1.5","1495","2","2","""event"",""trial"",""time""
""fullscreenenter"",""1"",""3322""
","
","
","""event"",""trial"",""time""
""fullscreenenter"",""1"",""3322""
","
","","","","","","null","images/racket1.png","","","practice","images/park3.png","images/park2.png","images/park1.png","[2,1,0]","2","0","null","null","-1","practice","","","",""
"html-keyboard-response","53","281831","0.0-8.0-2.0-0.6","1495","2","2","""event"",""trial"",""time""
""fullscreenenter"",""1"",""3322""
","
","
","""event"",""trial"",""time""
""fullscreenenter"",""1"",""3322""
","
","","","","","","null","<div style=""font-size:60px;"">+</div>","null","","fixation","","","","","","","","","","","","","",""
"learning-trial","54","285835","0.0-8.0-2.0-1.6","1495","2","2","""event"",""trial"",""time""
""fullscreenenter"",""1"",""3322""
","
","
","""event"",""trial"",""time""
""fullscreenenter"",""1"",""3322""
","
","","","","","","1498.9000000953674","images/racket2.png","","","practice","images/park3.png","images/park1.png","images/park2.png","[2,0,1]","1","2","1","images/park3.png","-1","practice","","","",""
"html-keyboard-response","55","286337","0.0-8.0-2.0-0.7","1495","2","2","""event"",""trial"",""time""
""fullscreenenter"",""1"",""3322""
","
","
","""event"",""trial"",""time""
""fullscreenenter"",""1"",""3322""
","
","","","","","","null","<div style=""font-size:60px;"">+</div>","null","","fixation","","","","","","","","","","","","","",""
"learning-trial","56","290340","0.0-8.0-2.0-1.7","1495","2","2","""event"",""trial"",""time""
""fullscreenenter"",""1"",""3322""
","
","
","""event"",""trial"",""time""
""fullscreenenter"",""1"",""3322""
","
","","","","","","1453.7000000476837","images/ball1.png","","","practice","images/park1.png","images/park2.png","images/park3.png","[0,1,2]","2","2","2","images/park2.png","-1","practice","","","",""
"html-keyboard-response","57","290842","0.0-8.0-2.0-0.8","1495","2","2","""event"",""trial"",""time""
""fullscreenenter"",""1"",""3322""
","
","
","""event"",""trial"",""time""
""fullscreenenter"",""1"",""3322""
","
","","","","","","null","<div style=""font-size:60px;"">+</div>","null","","fixation","","","","","","","","","","","","","",""
"learning-trial","58","294853","0.0-8.0-2.0-1.8","1495","2","2","""event"",""trial"",""time""
""fullscreenenter"",""1"",""3322""
","
","
","""event"",""trial"",""time""
""fullscreenenter"",""1"",""3322""
","
","","","","","","898.7000000476837","images/ball1.png","","","practice","images/park2.png","images/park1.png","images/park3.png","[1,0,2]","2","2","3","images/park3.png","1","practice","","","",""
"html-keyboard-response","59","295355","0.0-8.0-2.0-0.9","1495","2","2","""event"",""trial"",""time""
""fullscreenenter"",""1"",""3322""
","
","
","""event"",""trial"",""time""
""fullscreenenter"",""1"",""3322""
","
","","","","","","null","<div style=""font-size:60px;"">+</div>","null","","fixation","","","","","","","","","","","","","",""
"learning-trial","60","299358","0.0-8.0-2.0-1.9","1495","2","2","""event"",""trial"",""time""
""fullscreenenter"",""1"",""3322""
","
","
","""event"",""trial"",""time""
""fullscreenenter"",""1"",""3322""
","
","","","","","","1796","images/racket3.png","","","practice","images/park1.png","images/park3.png","images/park2.png","[0,2,1]","0","0","2","images/park3.png","1","practice","","","",""
"html-keyboard-response","61","299860","0.0-8.0-2.0-0.10","1495","2","2","""event"",""trial"",""time""
""fullscreenenter"",""1"",""3322""
","
","
","""event"",""trial"",""time""
""fullscreenenter"",""1"",""3322""
","
","","","","","","null","<div style=""font-size:60px;"">+</div>","null","","fixation","","","","","","","","","","","","","",""
"learning-trial","62","303864","0.0-8.0-2.0-1.10","1495","2","2","""event"",""trial"",""time""
""fullscreenenter"",""1"",""3322""
","
","
","""event"",""trial"",""time""
""fullscreenenter"",""1"",""3322""
","
","","","","","","1531.8000001907349","images/racket3.png","","","practice","images/park1.png","images/park2.png","images/park3.png","[0,1,2]","0","0","2","images/park2.png","1","practice","","","",""
"html-keyboard-response","63","304365","0.0-8.0-2.0-0.11","1495","2","2","""event"",""trial"",""time""
""fullscreenenter"",""1"",""3322""
","
","
","""event"",""trial"",""time""
""fullscreenenter"",""1"",""3322""
","
","","","","","","null","<div style=""font-size:60px;"">+</div>","null","","fixation","","","","","","","","","","","","","",""
"learning-trial","64","308369","0.0-8.0-2.0-1.11","1495","2","2","""event"",""trial"",""time""
""fullscreenenter"",""1"",""3322""
","
","
","""event"",""trial"",""time""
""fullscreenenter"",""1"",""3322""
","
","","","","","","2687.0999999046326","images/racket2.png","","","practice","images/park3.png","images/park1.png","images/park2.png","[2,0,1]","1","2","1","images/park3.png","-1","practice","","","",""
"html-button-response","65","311017","0.0-8.0-3.0","1495","2","2","""event"",""trial"",""time""
""fullscreenenter"",""1"",""3322""
","
","
","""event"",""trial"",""time""
""fullscreenenter"",""1"",""3322""
","
","","","","","","2645.9000000953674","<p> You earned -2 points in the practice round! </p>","0","","break","","","","","","","","","","","","","",""
"learning-instructions","66","320275","0.0-8.0-4.0-0.0","1495","2","2","""event"",""trial"",""time""
""fullscreenenter"",""1"",""3322""
","
","
","""event"",""trial"",""time""
""fullscreenenter"",""1"",""3322""
","
","","","","","","1351.8999998569489","<p> It's almost time to start the real game. </p><p> Before you start, we're going to ask you a few questions about how the game works. </p>","","0","instructions","","","","","","","","","","","","","",""
"preload","67","321634","0.0-8.0-5.0","1495","2","2","""event"",""trial"",""time""
""fullscreenenter"",""1"",""3322""
","
","
","""event"",""trial"",""time""
""fullscreenenter"",""1"",""3322""
","
","true","false","[]","[]","[]","","","","","","","","","","","","","","","","","","",""
"comp-q","68","328136","0.0-8.0-6.0-0.0","1495","2","2","""event"",""trial"",""time""
""fullscreenenter"",""1"",""3322""
","
","
","""event"",""trial"",""time""
""fullscreenenter"",""1"",""3322""
","
","","","","","","1042","<p> <b> True or False? </b> </p><p> If you choose the best option, you will always earn 1 point. </p>","","1","comp_question","","","","","","","","","","","true","","",""
"comp-q","69","336795","0.0-8.0-6.0-1.0","1495","2","2","""event"",""trial"",""time""
""fullscreenenter"",""1"",""3322""
","
","
","""event"",""trial"",""time""
""fullscreenenter"",""1"",""3322""
","
","","","","","","2984.7999999523163","<p><b> That's right! </b> Sometimes you will lose 1 point, even if you choose the best option. </p>","","0","comp_answer","","","","","","","","","","","","","",""
"comp-q","70","342183","0.0-8.0-6.0-0.1","1495","2","2","""event"",""trial"",""time""
""fullscreenenter"",""1"",""3322""
","
","
","""event"",""trial"",""time""
""fullscreenenter"",""1"",""3322""
","
","","","","","","752.2999999523163","<p> <b> True or False? </b> </p><p> You will have as much time as you want to make each choice. </p>","","1","comp_question","","","","","","","","","","","true","","",""
"comp-q","71","349249","0.0-8.0-6.0-1.1","1495","2","2","""event"",""trial"",""time""
""fullscreenenter"",""1"",""3322""
","
","
","""event"",""trial"",""time""
""fullscreenenter"",""1"",""3322""
","
","","","","","","2248.2999999523163","<p> <b> That's right! </b> You will only have 4 seconds to make each choice. </p>","","0","comp_answer","","","","","","","","","","","","","",""
"comp-q","72","355823","0.0-8.0-6.0-0.2","1495","2","2","""event"",""trial"",""time""
""fullscreenenter"",""1"",""3322""
","
","
","""event"",""trial"",""time""
""fullscreenenter"",""1"",""3322""
","
","","","","","","402.5","<p> <b> True or False? </b> </p><p> You should use the '1', '2', and '3' keys to make your choices. </p>","","0","comp_question","","","","","","","","","","","true","","",""
"comp-q","73","361963","0.0-8.0-6.0-1.2","1495","2","2","""event"",""trial"",""time""
""fullscreenenter"",""1"",""3322""
","
","
","""event"",""trial"",""time""
""fullscreenenter"",""1"",""3322""
","
","","","","","","1292.2999999523163","<p> <b> That's right! </b> You should use the '1', '2', and '3' keys to make each choice. </p>","","0","comp_answer","","","","","","","","","","","","","",""
"learning-instructions","74","371921","0.0-8.0-7.0-0.0","1495","2","2","""event"",""trial"",""time""
""fullscreenenter"",""1"",""3322""
","
","
","""event"",""trial"",""time""
""fullscreenenter"",""1"",""3322""
","
","","","","","","1460.4000000953674","<p> It's now time to start the real game. </p>Do your best, because the points you earn in the next rounds will influence your bonus payment. </p>","","0","instructions","","","","","","","","","","","","","",""
"preload","75","373336","0.0-9.0-0.0","1495","2","2","""event"",""trial"",""time""
""fullscreenenter"",""1"",""3322""
","
","
","""event"",""trial"",""time""
""fullscreenenter"",""1"",""3322""
","
","true","false","[]","[]","[]","","","","","","","","","","","","","","","","","","",""
"learning-instructions","76","381781","0.0-9.0-1.0-0.0","1495","2","2","""event"",""trial"",""time""
""fullscreenenter"",""1"",""3322""
","
","
","""event"",""trial"",""time""
""fullscreenenter"",""1"",""3322""
","
","","","","","","789.8999998569489","<p> Your goal in this round is to return farm animals to the barns where they live. </p><p>  Different animals wandered away from different barns! </p></div>","","0","instructions","","","","","","","","","","","","","",""
"learning-instructions","77","391333","0.0-9.0-1.0-0.1","1495","2","2","""event"",""trial"",""time""
""fullscreenenter"",""1"",""3322""
","
","
","""event"",""trial"",""time""
""fullscreenenter"",""1"",""3322""
","
","","","","","","912.0999999046326","<p> On each turn, you will see a picture of a farm animal and three different barns.  </p><p> You need to select the barn where each animal lives.  </p>","","0","instructions","","","","","","","","","","","","","",""
"learning-instructions","78","399984","0.0-9.0-1.0-0.2","1495","2","2","""event"",""trial"",""time""
""fullscreenenter"",""1"",""3322""
","
","
","""event"",""trial"",""time""
""fullscreenenter"",""1"",""3322""
","
","","","","","","1453.5","<p> You can select the barn on the left by pressing 1, the barn in the middle by pressing 2, and the barn on the right by pressing 3. </p><br><div class=""choice-instructions-grid""> <div class=""choice-option""><img src=""images/animals_choice1.png"" class=""choice-option-img"" stage=""instructions"" position=""0"" ><div class=""choice-option-text""> Press ""1."" </div></div><div class=""choice-option""><img src=""images/animals_choice2.png"" class=""choice-option-img"" stage=""instructions"" position=""1"" ><div class=""choice-option-text""> Press ""2."" </div></div><div class=""choice-option""><img src=""images/animals_choice3.png"" class=""choice-option-img"" stage=""instructions"" position=""2"" ><div class=""choice-option-text""> Press ""3."" </div></div></div>","","0","instructions","","","","","","","","","","","","","",""
"learning-instructions","79","405623","0.0-9.0-1.0-0.3","1495","2","2","""event"",""trial"",""time""
""fullscreenenter"",""1"",""3322""
","
","
","""event"",""trial"",""time""
""fullscreenenter"",""1"",""3322""
","
","","","","","","481.7999999523163","<p> If you return the farm animal to the correct barn, it will usually be happy! </p><div style='float: center;'><img src='images/check.png' width = '200' height = '200'></img>","","0","instructions","","","","","","","","","","","","","",""
"learning-instructions","80","411823","0.0-9.0-1.0-0.4","1495","2","2","""event"",""trial"",""time""
""fullscreenenter"",""1"",""3322""
","
","
","""event"",""trial"",""time""
""fullscreenenter"",""1"",""3322""
","
","","","","","","882.7999999523163","<p> But, if you return the farm animal to the wrong barn, it will usually be sad. </p><div style='float: center;'><img src='images/x.png' width = '200' height = '200'></img>","","0","instructions","","","","","","","","","","","","","",""
"learning-instructions","81","424210","0.0-9.0-1.0-0.5","1495","2","2","""event"",""trial"",""time""
""fullscreenenter"",""1"",""3322""
","
","
","""event"",""trial"",""time""
""fullscreenenter"",""1"",""3322""
","
","","","","","","1819.7999999523163","<p> Importantly, each farm animal belongs in one of the barns. </p><p> If you choose the correct barn, the farm animal will return home safely and will be more likely to be happy! </p>","","0","instructions","","","","","","","","","","","","","",""
"learning-instructions","82","438001","0.0-9.0-1.0-0.6","1495","2","2","""event"",""trial"",""time""
""fullscreenenter"",""1"",""3322""
","
","
","""event"",""trial"",""time""
""fullscreenenter"",""1"",""3322""
","
","","","","","","3261.600000143051","<p> However, even if you choose the correct barn for the farm animal, it might still feel sad. </p><p> Similarly, even if you choose the <i>wrong</i> barn, it might still feel happy.","","0","instructions","","","","","","","","","","","","","",""
"learning-instructions","83","452655","0.0-9.0-1.0-0.7","1495","2","2","""event"",""trial"",""time""
""fullscreenenter"",""1"",""3322""
","
","
","""event"",""trial"",""time""
""fullscreenenter"",""1"",""3322""
","
","","","","","","934.2999999523163","<p> Try to choose the correct barn for each farm animal, because you will <b> WIN </b> 1 point for each farm animal you make happy and <b>LOSE</b> 1 point for each farm animal you make sad. </p><p> Your bonus payment will depend on your total number of points.","","0","instructions","","","","","","","","","","","","","",""
"learning-instructions","84","462503","0.0-9.0-1.0-0.8","1495","2","2","""event"",""trial"",""time""
""fullscreenenter"",""1"",""3322""
","
","
","""event"",""trial"",""time""
""fullscreenenter"",""1"",""3322""
","
","","","","","","1722.4000000953674","<p> The position of each barn will change throughout the round. </p><p> The barn's position <i> does not </i> influence how likely it is to be the correct one. </p>","","0","instructions","","","","","","","","","","","","","",""
"learning-instructions","85","473679","0.0-9.0-1.0-0.9","1495","2","2","""event"",""trial"",""time""
""fullscreenenter"",""1"",""3322""
","
","
","""event"",""trial"",""time""
""fullscreenenter"",""1"",""3322""
","
","","","","","","1868.7000000476837","<p> You will have 4 seconds to make each choice. Try to respond before time runs out! </p><p> You will lose 1 point each time you do not make a response. </p>","","0","instructions","","","","","","","","","","","","","",""
"html-keyboard-response","86","474309","0.0-9.0-2.0-0.0","1495","2","2","""event"",""trial"",""time""
""fullscreenenter"",""1"",""3322""
","
","
","""event"",""trial"",""time""
""fullscreenenter"",""1"",""3322""
","
","","","","","","null","<div style=""font-size:60px;"">+</div>","null","","fixation","","","","","","","","","","","","","",""
"learning-trial","87","478329","0.0-9.0-2.0-1.0","1495","2","2","""event"",""trial"",""time""
""fullscreenenter"",""1"",""3322""
","
","
","""event"",""trial"",""time""
""fullscreenenter"",""1"",""3322""
","
","","","","","","1048","images/horse3.png","","","learning","images/animals_choice1.png","images/animals_choice3.png","images/animals_choice2.png","[0,2,1]","1","2","1","images/animals_choice1.png","-1","animals","","horse","2","0"
"html-keyboard-response","88","478849","0.0-9.0-2.0-0.1","1495","2","2","""event"",""trial"",""time""
""fullscreenenter"",""1"",""3322""
","
","
","""event"",""trial"",""time""
""fullscreenenter"",""1"",""3322""
","
","","","","","","null","<div style=""font-size:60px;"">+</div>","null","","fixation","","","","","","","","","","","","","",""
"learning-trial","89","482866","0.0-9.0-2.0-1.1","1495","2","2","""event"",""trial"",""time""
""fullscreenenter"",""1"",""3322""
","
","
","""event"",""trial"",""time""
""fullscreenenter"",""1"",""3322""
","
","","","","","","1038.4000000953674","images/goat2.png","","","learning","images/animals_choice3.png","images/animals_choice2.png","images/animals_choice1.png","[2,1,0]","1","1","1","images/animals_choice3.png","-1","animals","","goat","2","0"
"html-keyboard-response","90","483379","0.0-9.0-2.0-0.2","1495","2","2","""event"",""trial"",""time""
""fullscreenenter"",""1"",""3322""
","
","
","""event"",""trial"",""time""
""fullscreenenter"",""1"",""3322""
","
","","","","","","null","<div style=""font-size:60px;"">+</div>","null","","fixation","","","","","","","","","","","","","",""
"learning-trial","91","487399","0.0-9.0-2.0-1.2","1495","2","2","""event"",""trial"",""time""
""fullscreenenter"",""1"",""3322""
","
","
","""event"",""trial"",""time""
""fullscreenenter"",""1"",""3322""
","
","","","","","","988.2999999523163","images/horse4.png","","","learning","images/animals_choice3.png","images/animals_choice2.png","images/animals_choice1.png","[2,1,0]","0","2","3","images/animals_choice1.png","1","animals","","horse","2","0"
"html-keyboard-response","92","487919","0.0-9.0-2.0-0.3","1495","2","2","""event"",""trial"",""time""
""fullscreenenter"",""1"",""3322""
","
","
","""event"",""trial"",""time""
""fullscreenenter"",""1"",""3322""
","
","","","","","","null","<div style=""font-size:60px;"">+</div>","null","","fixation","","","","","","","","","","","","","",""
"learning-trial","93","491929","0.0-9.0-2.0-1.3","1495","2","2","""event"",""trial"",""time""
""fullscreenenter"",""1"",""3322""
","
","
","""event"",""trial"",""time""
""fullscreenenter"",""1"",""3322""
","
","","","","","","1629","images/goat2.png","","","learning","images/animals_choice2.png","images/animals_choice1.png","images/animals_choice3.png","[1,0,2]","1","0","2","images/animals_choice1.png","-1","animals","","goat","2","0"
"html-keyboard-response","94","492449","0.0-9.0-2.0-0.4","1495","2","2","""event"",""trial"",""time""
""fullscreenenter"",""1"",""3322""
","
","
","""event"",""trial"",""time""
""fullscreenenter"",""1"",""3322""
","
","","","","","","null","<div style=""font-size:60px;"">+</div>","null","","fixation","","","","","","","","","","","","","",""
"learning-trial","95","496469","0.0-9.0-2.0-1.4","1495","2","2","""event"",""trial"",""time""
""fullscreenenter"",""1"",""3322""
","
","
","""event"",""trial"",""time""
""fullscreenenter"",""1"",""3322""
","
","","","","","","1448.0999999046326","images/horse1.png","","","learning","images/animals_choice2.png","images/animals_choice1.png","images/animals_choice3.png","[1,0,2]","2","2","3","images/animals_choice3.png","1","animals","","horse","2","0"
"html-keyboard-response","96","496979","0.0-9.0-2.0-0.5","1495","2","2","""event"",""trial"",""time""
""fullscreenenter"",""1"",""3322""
","
","
","""event"",""trial"",""time""
""fullscreenenter"",""1"",""3322""
","
","","","","","","null","<div style=""font-size:60px;"">+</div>","null","","fixation","","","","","","","","","","","","","",""
"learning-trial","97","500999","0.0-9.0-2.0-1.5","1495","2","2","""event"",""trial"",""time""
""fullscreenenter"",""1"",""3322""
","
","
","""event"",""trial"",""time""
""fullscreenenter"",""1"",""3322""
","
","","","","","","1240.2999999523163","images/cow5.png","","","learning","images/animals_choice3.png","images/animals_choice2.png","images/animals_choice1.png","[2,1,0]","2","0","2","images/animals_choice2.png","-1","animals","","cow","2","0"
"html-keyboard-response","98","501519","0.0-9.0-2.0-0.6","1495","2","2","""event"",""trial"",""time""
""fullscreenenter"",""1"",""3322""
","
","
","""event"",""trial"",""time""
""fullscreenenter"",""1"",""3322""
","
","","","","","","null","<div style=""font-size:60px;"">+</div>","null","","fixation","","","","","","","","","","","","","",""
"learning-trial","99","505522","0.0-9.0-2.0-1.6","1495","2","2","""event"",""trial"",""time""
""fullscreenenter"",""1"",""3322""
","
","
","""event"",""trial"",""time""
""fullscreenenter"",""1"",""3322""
","
","","","","","","1047.6999998092651","images/goat5.png","","","learning","images/animals_choice3.png","images/animals_choice1.png","images/animals_choice2.png","[2,0,1]","2","0","1","images/animals_choice3.png","1","animals","","goat","2","0"
"html-keyboard-response","100","506024","0.0-9.0-2.0-0.7","1495","2","2","""event"",""trial"",""time""
""fullscreenenter"",""1"",""3322""
","
","
","""event"",""trial"",""time""
""fullscreenenter"",""1"",""3322""
","
","","","","","","null","<div style=""font-size:60px;"">+</div>","null","","fixation","","","","","","","","","","","","","",""
"learning-trial","101","510028","0.0-9.0-2.0-1.7","1495","2","2","""event"",""trial"",""time""
""fullscreenenter"",""1"",""3322""
","
","
","""event"",""trial"",""time""
""fullscreenenter"",""1"",""3322""
","
","","","","","","792.3999998569489","images/goat1.png","","","learning","images/animals_choice1.png","images/animals_choice2.png","images/animals_choice3.png","[0,1,2]","0","0","1","images/animals_choice1.png","1","animals","","goat","2","0"
"html-keyboard-response","102","510530","0.0-9.0-2.0-0.8","1495","2","2","""event"",""trial"",""time""
""fullscreenenter"",""1"",""3322""
","
","
","""event"",""trial"",""time""
""fullscreenenter"",""1"",""3322""
","
","","","","","","null","<div style=""font-size:60px;"">+</div>","null","","fixation","","","","","","","","","","","","","",""
"learning-trial","103","514533","0.0-9.0-2.0-1.8","1495","2","2","""event"",""trial"",""time""
""fullscreenenter"",""1"",""3322""
","
","
","""event"",""trial"",""time""
""fullscreenenter"",""1"",""3322""
","
","","","","","","1367.2000000476837","images/cow4.png","","","learning","images/animals_choice3.png","images/animals_choice1.png","images/animals_choice2.png","[2,0,1]","1","2","3","images/animals_choice2.png","1","animals","","cow","2","0"
"html-keyboard-response","104","515035","0.0-9.0-2.0-0.9","1495","2","2","""event"",""trial"",""time""
""fullscreenenter"",""1"",""3322""
","
","
","""event"",""trial"",""time""
""fullscreenenter"",""1"",""3322""
","
","","","","","","null","<div style=""font-size:60px;"">+</div>","null","","fixation","","","","","","","","","","","","","",""
"learning-trial","105","519038","0.0-9.0-2.0-1.9","1495","2","2","""event"",""trial"",""time""
""fullscreenenter"",""1"",""3322""
","
","
","""event"",""trial"",""time""
""fullscreenenter"",""1"",""3322""
","
","","","","","","752.5999999046326","images/horse3.png","","","learning","images/animals_choice2.png","images/animals_choice3.png","images/animals_choice1.png","[1,2,0]","1","0","3","images/animals_choice1.png","-1","animals","","horse","2","0"
"html-keyboard-response","106","519540","0.0-9.0-2.0-0.10","1495","2","2","""event"",""trial"",""time""
""fullscreenenter"",""1"",""3322""
","
","
","""event"",""trial"",""time""
""fullscreenenter"",""1"",""3322""
","
","","","","","","null","<div style=""font-size:60px;"">+</div>","null","","fixation","","","","","","","","","","","","","",""
"learning-trial","107","523543","0.0-9.0-2.0-1.10","1495","2","2","""event"",""trial"",""time""
""fullscreenenter"",""1"",""3322""
","
","
","""event"",""trial"",""time""
""fullscreenenter"",""1"",""3322""
","
","","","","","","688.0999999046326","images/goat1.png","","","learning","images/animals_choice3.png","images/animals_choice2.png","images/animals_choice1.png","[2,1,0]","0","2","1","images/animals_choice3.png","-1","animals","","goat","2","0"
"html-keyboard-response","108","524046","0.0-9.0-2.0-0.11","1495","2","2","""event"",""trial"",""time""
""fullscreenenter"",""1"",""3322""
","
","
","""event"",""trial"",""time""
""fullscreenenter"",""1"",""3322""
","
","","","","","","null","<div style=""font-size:60px;"">+</div>","null","","fixation","","","","","","","","","","","","","",""
"learning-trial","109","528048","0.0-9.0-2.0-1.11","1495","2","2","""event"",""trial"",""time""
""fullscreenenter"",""1"",""3322""
","
","
","""event"",""trial"",""time""
""fullscreenenter"",""1"",""3322""
","
","","","","","","1061.7000000476837","images/goat1.png","","","learning","images/animals_choice3.png","images/animals_choice1.png","images/animals_choice2.png","[2,0,1]","0","1","1","images/animals_choice3.png","-1","animals","","goat","2","0"
"html-keyboard-response","110","528550","0.0-9.0-2.0-0.12","1495","2","2","""event"",""trial"",""time""
""fullscreenenter"",""1"",""3322""
","
","
","""event"",""trial"",""time""
""fullscreenenter"",""1"",""3322""
","
","","","","","","null","<div style=""font-size:60px;"">+</div>","null","","fixation","","","","","","","","","","","","","",""
"learning-trial","111","532553","0.0-9.0-2.0-1.12","1495","2","2","""event"",""trial"",""time""
""fullscreenenter"",""1"",""3322""
","
","
","""event"",""trial"",""time""
""fullscreenenter"",""1"",""3322""
","
","","","","","","889.1999998092651","images/goat5.png","","","learning","images/animals_choice2.png","images/animals_choice1.png","images/animals_choice3.png","[1,0,2]","2","2","1","images/animals_choice2.png","-1","animals","","goat","2","0"
"html-keyboard-response","112","533055","0.0-9.0-2.0-0.13","1495","2","2","""event"",""trial"",""time""
""fullscreenenter"",""1"",""3322""
","
","
","""event"",""trial"",""time""
""fullscreenenter"",""1"",""3322""
","
","","","","","","null","<div style=""font-size:60px;"">+</div>","null","","fixation","","","","","","","","","","","","","",""
"learning-trial","113","537059","0.0-9.0-2.0-1.13","1495","2","2","""event"",""trial"",""time""
""fullscreenenter"",""1"",""3322""
","
","
","""event"",""trial"",""time""
""fullscreenenter"",""1"",""3322""
","
","","","","","","863.2000000476837","images/horse1.png","","","learning","images/animals_choice3.png","images/animals_choice2.png","images/animals_choice1.png","[2,1,0]","2","0","3","images/animals_choice1.png","-1","animals","","horse","2","0"
"html-keyboard-response","114","537560","0.0-9.0-2.0-0.14","1495","2","2","""event"",""trial"",""time""
""fullscreenenter"",""1"",""3322""
","
","
","""event"",""trial"",""time""
""fullscreenenter"",""1"",""3322""
","
","","","","","","null","<div style=""font-size:60px;"">+</div>","null","","fixation","","","","","","","","","","","","","",""
"learning-trial","115","541564","0.0-9.0-2.0-1.14","1495","2","2","""event"",""trial"",""time""
""fullscreenenter"",""1"",""3322""
","
","
","""event"",""trial"",""time""
""fullscreenenter"",""1"",""3322""
","
","","","","","","968.7000000476837","images/cow4.png","","","learning","images/animals_choice1.png","images/animals_choice3.png","images/animals_choice2.png","[0,2,1]","1","2","2","images/animals_choice3.png","1","animals","","cow","2","0"
"html-keyboard-response","116","542066","0.0-9.0-2.0-0.15","1495","2","2","""event"",""trial"",""time""
""fullscreenenter"",""1"",""3322""
","
","
","""event"",""trial"",""time""
""fullscreenenter"",""1"",""3322""
","
","","","","","","null","<div style=""font-size:60px;"">+</div>","null","","fixation","","","","","","","","","","","","","",""
"learning-trial","117","546080","0.0-9.0-2.0-1.15","1495","2","2","""event"",""trial"",""time""
""fullscreenenter"",""1"",""3322""
","
","
","""event"",""trial"",""time""
""fullscreenenter"",""1"",""3322""
","
","","","","","","1853.7000000476837","images/horse1.png","","","learning","images/animals_choice3.png","images/animals_choice1.png","images/animals_choice2.png","[2,0,1]","2","0","2","images/animals_choice1.png","-1","animals","","horse","2","0"
"html-keyboard-response","118","546583","0.0-9.0-2.0-0.16","1495","2","2","""event"",""trial"",""time""
""fullscreenenter"",""1"",""3322""
","
","
","""event"",""trial"",""time""
""fullscreenenter"",""1"",""3322""
","
","","","","","","null","<div style=""font-size:60px;"">+</div>","null","","fixation","","","","","","","","","","","","","",""
"learning-trial","119","550587","0.0-9.0-2.0-1.16","1495","2","2","""event"",""trial"",""time""
""fullscreenenter"",""1"",""3322""
","
","
","""event"",""trial"",""time""
""fullscreenenter"",""1"",""3322""
","
","","","","","","765.6000001430511","images/horse4.png","","","learning","images/animals_choice2.png","images/animals_choice3.png","images/animals_choice1.png","[1,2,0]","0","2","2","images/animals_choice3.png","-1","animals","","horse","2","0"
"html-keyboard-response","120","551088","0.0-9.0-2.0-0.17","1495","2","2","""event"",""trial"",""time""
""fullscreenenter"",""1"",""3322""
","
","
","""event"",""trial"",""time""
""fullscreenenter"",""1"",""3322""
","
","","","","","","null","<div style=""font-size:60px;"">+</div>","null","","fixation","","","","","","","","","","","","","",""
"learning-trial","121","555092","0.0-9.0-2.0-1.17","1495","2","2","""event"",""trial"",""time""
""fullscreenenter"",""1"",""3322""
","
","
","""event"",""trial"",""time""
""fullscreenenter"",""1"",""3322""
","
","","","","","","1550.0999999046326","images/horse3.png","","","learning","images/animals_choice1.png","images/animals_choice2.png","images/animals_choice3.png","[0,1,2]","1","1","3","images/animals_choice3.png","1","animals","","horse","2","0"
"html-keyboard-response","122","555594","0.0-9.0-2.0-0.18","1495","2","2","""event"",""trial"",""time""
""fullscreenenter"",""1"",""3322""
","
","
","""event"",""trial"",""time""
""fullscreenenter"",""1"",""3322""
","
","","","","","","null","<div style=""font-size:60px;"">+</div>","null","","fixation","","","","","","","","","","","","","",""
"learning-trial","123","559598","0.0-9.0-2.0-1.18","1495","2","2","""event"",""trial"",""time""
""fullscreenenter"",""1"",""3322""
","
","
","""event"",""trial"",""time""
""fullscreenenter"",""1"",""3322""
","
","","","","","","1013.9000000953674","images/cow4.png","","","learning","images/animals_choice1.png","images/animals_choice3.png","images/animals_choice2.png","[0,2,1]","1","2","2","images/animals_choice3.png","-1","animals","","cow","2","0"
"html-keyboard-response","124","560100","0.0-9.0-2.0-0.19","1495","2","2","""event"",""trial"",""time""
""fullscreenenter"",""1"",""3322""
","
","
","""event"",""trial"",""time""
""fullscreenenter"",""1"",""3322""
","
","","","","","","null","<div style=""font-size:60px;"">+</div>","null","","fixation","","","","","","","","","","","","","",""
"learning-trial","125","564104","0.0-9.0-2.0-1.19","1495","2","2","""event"",""trial"",""time""
""fullscreenenter"",""1"",""3322""
","
","
","""event"",""trial"",""time""
""fullscreenenter"",""1"",""3322""
","
","","","","","","1638.9000000953674","images/horse1.png","","","learning","images/animals_choice2.png","images/animals_choice3.png","images/animals_choice1.png","[1,2,0]","2","1","2","images/animals_choice3.png","1","animals","","horse","2","0"
"html-keyboard-response","126","564605","0.0-9.0-2.0-0.20","1495","2","2","""event"",""trial"",""time""
""fullscreenenter"",""1"",""3322""
","
","
","""event"",""trial"",""time""
""fullscreenenter"",""1"",""3322""
","
","","","","","","null","<div style=""font-size:60px;"">+</div>","null","","fixation","","","","","","","","","","","","","",""
"learning-trial","127","568610","0.0-9.0-2.0-1.20","1495","2","2","""event"",""trial"",""time""
""fullscreenenter"",""1"",""3322""
","
","
","""event"",""trial"",""time""
""fullscreenenter"",""1"",""3322""
","
","","","","","","2103.0999999046326","images/goat2.png","","","learning","images/animals_choice2.png","images/animals_choice3.png","images/animals_choice1.png","[1,2,0]","1","0","3","images/animals_choice1.png","-1","animals","","goat","2","0"
"html-keyboard-response","128","569111","0.0-9.0-2.0-0.21","1495","2","2","""event"",""trial"",""time""
""fullscreenenter"",""1"",""3322""
","
","
","""event"",""trial"",""time""
""fullscreenenter"",""1"",""3322""
","
","","","","","","null","<div style=""font-size:60px;"">+</div>","null","","fixation","","","","","","","","","","","","","",""
"learning-trial","129","573115","0.0-9.0-2.0-1.21","1495","2","2","""event"",""trial"",""time""
""fullscreenenter"",""1"",""3322""
","
","
","""event"",""trial"",""time""
""fullscreenenter"",""1"",""3322""
","
","","","","","","786.8999998569489","images/goat2.png","","","learning","images/animals_choice3.png","images/animals_choice1.png","images/animals_choice2.png","[2,0,1]","1","2","1","images/animals_choice3.png","-1","animals","","goat","2","0"
"html-keyboard-response","130","573617","0.0-9.0-2.0-0.22","1495","2","2","""event"",""trial"",""time""
""fullscreenenter"",""1"",""3322""
","
","
","""event"",""trial"",""time""
""fullscreenenter"",""1"",""3322""
","
","","","","","","null","<div style=""font-size:60px;"">+</div>","null","","fixation","","","","","","","","","","","","","",""
"learning-trial","131","577621","0.0-9.0-2.0-1.22","1495","2","2","""event"",""trial"",""time""
""fullscreenenter"",""1"",""3322""
","
","
","""event"",""trial"",""time""
""fullscreenenter"",""1"",""3322""
","
","","","","","","1080.3999998569489","images/horse1.png","","","learning","images/animals_choice1.png","images/animals_choice3.png","images/animals_choice2.png","[0,2,1]","2","1","2","images/animals_choice3.png","1","animals","","horse","2","0"
"html-keyboard-response","132","578123","0.0-9.0-2.0-0.23","1495","2","2","""event"",""trial"",""time""
""fullscreenenter"",""1"",""3322""
","
","
","""event"",""trial"",""time""
""fullscreenenter"",""1"",""3322""
","
","","","","","","null","<div style=""font-size:60px;"">+</div>","null","","fixation","","","","","","","","","","","","","",""
"learning-trial","133","582126","0.0-9.0-2.0-1.23","1495","2","2","""event"",""trial"",""time""
""fullscreenenter"",""1"",""3322""
","
","
","""event"",""trial"",""time""
""fullscreenenter"",""1"",""3322""
","
","","","","","","1065.5","images/cow3.png","","","learning","images/animals_choice2.png","images/animals_choice1.png","images/animals_choice3.png","[1,0,2]","0","1","2","images/animals_choice1.png","1","animals","","cow","2","0"
"html-keyboard-response","134","582628","0.0-9.0-2.0-0.24","1495","2","2","""event"",""trial"",""time""
""fullscreenenter"",""1"",""3322""
","
","
","""event"",""trial"",""time""
""fullscreenenter"",""1"",""3322""
","
","","","","","","null","<div style=""font-size:60px;"">+</div>","null","","fixation","","","","","","","","","","","","","",""
"learning-trial","135","586639","0.0-9.0-2.0-1.24","1495","2","2","""event"",""trial"",""time""
""fullscreenenter"",""1"",""3322""
","
","
","""event"",""trial"",""time""
""fullscreenenter"",""1"",""3322""
","
","","","","","","1369.9000000953674","images/horse4.png","","","learning","images/animals_choice3.png","images/animals_choice1.png","images/animals_choice2.png","[2,0,1]","0","1","1","images/animals_choice3.png","-1","animals","","horse","2","0"
"html-keyboard-response","136","587141","0.0-9.0-2.0-0.25","1495","2","2","""event"",""trial"",""time""
""fullscreenenter"",""1"",""3322""
","
","
","""event"",""trial"",""time""
""fullscreenenter"",""1"",""3322""
","
","","","","","","null","<div style=""font-size:60px;"">+</div>","null","","fixation","","","","","","","","","","","","","",""
"learning-trial","137","591144","0.0-9.0-2.0-1.25","1495","2","2","""event"",""trial"",""time""
""fullscreenenter"",""1"",""3322""
","
","
","""event"",""trial"",""time""
""fullscreenenter"",""1"",""3322""
","
","","","","","","2716.9000000953674","images/cow3.png","","","learning","images/animals_choice1.png","images/animals_choice2.png","images/animals_choice3.png","[0,1,2]","0","0","1","images/animals_choice1.png","1","animals","","cow","2","0"
"html-keyboard-response","138","591646","0.0-9.0-2.0-0.26","1495","2","2","""event"",""trial"",""time""
""fullscreenenter"",""1"",""3322""
","
","
","""event"",""trial"",""time""
""fullscreenenter"",""1"",""3322""
","
","","","","","","null","<div style=""font-size:60px;"">+</div>","null","","fixation","","","","","","","","","","","","","",""
"learning-trial","139","595649","0.0-9.0-2.0-1.26","1495","2","2","""event"",""trial"",""time""
""fullscreenenter"",""1"",""3322""
","
","
","""event"",""trial"",""time""
""fullscreenenter"",""1"",""3322""
","
","","","","","","1522.0999999046326","images/cow5.png","","","learning","images/animals_choice3.png","images/animals_choice2.png","images/animals_choice1.png","[2,1,0]","2","0","3","images/animals_choice1.png","-1","animals","","cow","2","0"
"html-keyboard-response","140","596151","0.0-9.0-2.0-0.27","1495","2","2","""event"",""trial"",""time""
""fullscreenenter"",""1"",""3322""
","
","
","""event"",""trial"",""time""
""fullscreenenter"",""1"",""3322""
","
","","","","","","null","<div style=""font-size:60px;"">+</div>","null","","fixation","","","","","","","","","","","","","",""
"learning-trial","141","600155","0.0-9.0-2.0-1.27","1495","2","2","""event"",""trial"",""time""
""fullscreenenter"",""1"",""3322""
","
","
","""event"",""trial"",""time""
""fullscreenenter"",""1"",""3322""
","
","","","","","","1626.6000001430511","images/horse3.png","","","learning","images/animals_choice3.png","images/animals_choice2.png","images/animals_choice1.png","[2,1,0]","1","1","1","images/animals_choice3.png","-1","animals","","horse","2","0"
"html-keyboard-response","142","600656","0.0-9.0-2.0-0.28","1495","2","2","""event"",""trial"",""time""
""fullscreenenter"",""1"",""3322""
","
","
","""event"",""trial"",""time""
""fullscreenenter"",""1"",""3322""
","
","","","","","","null","<div style=""font-size:60px;"">+</div>","null","","fixation","","","","","","","","","","","","","",""
"learning-trial","143","604660","0.0-9.0-2.0-1.28","1495","2","2","""event"",""trial"",""time""
""fullscreenenter"",""1"",""3322""
","
","
","""event"",""trial"",""time""
""fullscreenenter"",""1"",""3322""
","
","","","","","","1531.5","images/cow4.png","","","learning","images/animals_choice3.png","images/animals_choice2.png","images/animals_choice1.png","[2,1,0]","1","1","3","images/animals_choice1.png","-1","animals","","cow","2","0"
"html-keyboard-response","144","605163","0.0-9.0-2.0-0.29","1495","2","2","""event"",""trial"",""time""
""fullscreenenter"",""1"",""3322""
","
","
","""event"",""trial"",""time""
""fullscreenenter"",""1"",""3322""
","
","","","","","","null","<div style=""font-size:60px;"">+</div>","null","","fixation","","","","","","","","","","","","","",""
"learning-trial","145","609166","0.0-9.0-2.0-1.29","1495","2","2","""event"",""trial"",""time""
""fullscreenenter"",""1"",""3322""
","
","
","""event"",""trial"",""time""
""fullscreenenter"",""1"",""3322""
","
","","","","","","1065.1000001430511","images/horse1.png","","","learning","images/animals_choice3.png","images/animals_choice1.png","images/animals_choice2.png","[2,0,1]","2","0","1","images/animals_choice3.png","1","animals","","horse","2","0"
"html-keyboard-response","146","609668","0.0-9.0-2.0-0.30","1495","2","2","""event"",""trial"",""time""
""fullscreenenter"",""1"",""3322""
","
","
","""event"",""trial"",""time""
""fullscreenenter"",""1"",""3322""
","
","","","","","","null","<div style=""font-size:60px;"">+</div>","null","","fixation","","","","","","","","","","","","","",""
"learning-trial","147","613671","0.0-9.0-2.0-1.30","1495","2","2","""event"",""trial"",""time""
""fullscreenenter"",""1"",""3322""
","
","
","""event"",""trial"",""time""
""fullscreenenter"",""1"",""3322""
","
","","","","","","2019.3000001907349","images/goat5.png","","","learning","images/animals_choice1.png","images/animals_choice3.png","images/animals_choice2.png","[0,2,1]","2","1","3","images/animals_choice2.png","1","animals","","goat","2","0"
"html-keyboard-response","148","614173","0.0-9.0-2.0-0.31","1495","2","2","""event"",""trial"",""time""
""fullscreenenter"",""1"",""3322""
","
","
","""event"",""trial"",""time""
""fullscreenenter"",""1"",""3322""
","
","","","","","","null","<div style=""font-size:60px;"">+</div>","null","","fixation","","","","","","","","","","","","","",""
"learning-trial","149","618179","0.0-9.0-2.0-1.31","1495","2","2","""event"",""trial"",""time""
""fullscreenenter"",""1"",""3322""
","
","
","""event"",""trial"",""time""
""fullscreenenter"",""1"",""3322""
","
","","","","","","1844","images/goat2.png","","","learning","images/animals_choice2.png","images/animals_choice1.png","images/animals_choice3.png","[1,0,2]","1","0","2","images/animals_choice1.png","-1","animals","","goat","2","0"
"html-keyboard-response","150","618680","0.0-9.0-2.0-0.32","1495","2","2","""event"",""trial"",""time""
""fullscreenenter"",""1"",""3322""
","
","
","""event"",""trial"",""time""
""fullscreenenter"",""1"",""3322""
","
","","","","","","null","<div style=""font-size:60px;"">+</div>","null","","fixation","","","","","","","","","","","","","",""
"learning-trial","151","622684","0.0-9.0-2.0-1.32","1495","2","2","""event"",""trial"",""time""
""fullscreenenter"",""1"",""3322""
","
","
","""event"",""trial"",""time""
""fullscreenenter"",""1"",""3322""
","
","","","","","","1508.2000000476837","images/goat1.png","","","learning","images/animals_choice3.png","images/animals_choice2.png","images/animals_choice1.png","[2,1,0]","0","2","1","images/animals_choice3.png","-1","animals","","goat","2","0"
"html-keyboard-response","152","623194","0.0-9.0-2.0-0.33","1495","2","2","""event"",""trial"",""time""
""fullscreenenter"",""1"",""3322""
","
","
","""event"",""trial"",""time""
""fullscreenenter"",""1"",""3322""
","
","","","","","","null","<div style=""font-size:60px;"">+</div>","null","","fixation","","","","","","","","","","","","","",""
"learning-trial","153","627198","0.0-9.0-2.0-1.33","1495","2","2","""event"",""trial"",""time""
""fullscreenenter"",""1"",""3322""
","
","
","""event"",""trial"",""time""
""fullscreenenter"",""1"",""3322""
","
","","","","","","884.5","images/goat5.png","","","learning","images/animals_choice3.png","images/animals_choice2.png","images/animals_choice1.png","[2,1,0]","2","0","3","images/animals_choice1.png","-1","animals","","goat","2","0"
"html-keyboard-response","154","627699","0.0-9.0-2.0-0.34","1495","2","2","""event"",""trial"",""time""
""fullscreenenter"",""1"",""3322""
","
","
","""event"",""trial"",""time""
""fullscreenenter"",""1"",""3322""
","
","","","","","","null","<div style=""font-size:60px;"">+</div>","null","","fixation","","","","","","","","","","","","","",""
"learning-trial","155","631713","0.0-9.0-2.0-1.34","1495","2","2","""event"",""trial"",""time""
""fullscreenenter"",""1"",""3322""
","
","
","""event"",""trial"",""time""
""fullscreenenter"",""1"",""3322""
","
","","","","","","2869.399999856949","images/horse3.png","","","learning","images/animals_choice1.png","images/animals_choice2.png","images/animals_choice3.png","[0,1,2]","1","1","1","images/animals_choice1.png","-1","animals","","horse","2","0"
"html-keyboard-response","156","632214","0.0-9.0-2.0-0.35","1495","2","2","""event"",""trial"",""time""
""fullscreenenter"",""1"",""3322""
","
","
","""event"",""trial"",""time""
""fullscreenenter"",""1"",""3322""
","
","","","","","","null","<div style=""font-size:60px;"">+</div>","null","","fixation","","","","","","","","","","","","","",""
"learning-trial","157","636218","0.0-9.0-2.0-1.35","1495","2","2","""event"",""trial"",""time""
""fullscreenenter"",""1"",""3322""
","
","
","""event"",""trial"",""time""
""fullscreenenter"",""1"",""3322""
","
","","","","","","1275.5","images/horse3.png","","","learning","images/animals_choice2.png","images/animals_choice3.png","images/animals_choice1.png","[1,2,0]","1","0","1","images/animals_choice2.png","1","animals","","horse","2","0"
"html-keyboard-response","158","636719","0.0-9.0-2.0-0.36","1495","2","2","""event"",""trial"",""time""
""fullscreenenter"",""1"",""3322""
","
","
","""event"",""trial"",""time""
""fullscreenenter"",""1"",""3322""
","
","","","","","","null","<div style=""font-size:60px;"">+</div>","null","","fixation","","","","","","","","","","","","","",""
"learning-trial","159","640721","0.0-9.0-2.0-1.36","1495","2","2","""event"",""trial"",""time""
""fullscreenenter"",""1"",""3322""
","
","
","""event"",""trial"",""time""
""fullscreenenter"",""1"",""3322""
","
","","","","","","1870.6000001430511","images/cow3.png","","","learning","images/animals_choice3.png","images/animals_choice1.png","images/animals_choice2.png","[2,0,1]","0","1","2","images/animals_choice1.png","1","animals","","cow","2","0"
"html-keyboard-response","160","641223","0.0-9.0-2.0-0.37","1495","2","2","""event"",""trial"",""time""
""fullscreenenter"",""1"",""3322""
","
","
","""event"",""trial"",""time""
""fullscreenenter"",""1"",""3322""
","
","","","","","","null","<div style=""font-size:60px;"">+</div>","null","","fixation","","","","","","","","","","","","","",""
"learning-trial","161","645226","0.0-9.0-2.0-1.37","1495","2","2","""event"",""trial"",""time""
""fullscreenenter"",""1"",""3322""
","
","
","""event"",""trial"",""time""
""fullscreenenter"",""1"",""3322""
","
","","","","","","2075.7999999523163","images/goat1.png","","","learning","images/animals_choice2.png","images/animals_choice3.png","images/animals_choice1.png","[1,2,0]","0","2","3","images/animals_choice1.png","1","animals","","goat","2","0"
"html-keyboard-response","162","645728","0.0-9.0-2.0-0.38","1495","2","2","""event"",""trial"",""time""
""fullscreenenter"",""1"",""3322""
","
","
","""event"",""trial"",""time""
""fullscreenenter"",""1"",""3322""
","
","","","","","","null","<div style=""font-size:60px;"">+</div>","null","","fixation","","","","","","","","","","","","","",""
"learning-trial","163","649732","0.0-9.0-2.0-1.38","1495","2","2","""event"",""trial"",""time""
""fullscreenenter"",""1"",""3322""
","
","
","""event"",""trial"",""time""
""fullscreenenter"",""1"",""3322""
","
","","","","","","1240.8999998569489","images/horse4.png","","","learning","images/animals_choice3.png","images/animals_choice2.png","images/animals_choice1.png","[2,1,0]","0","2","1","images/animals_choice3.png","-1","animals","","horse","2","0"
"html-keyboard-response","164","650233","0.0-9.0-2.0-0.39","1495","2","2","""event"",""trial"",""time""
""fullscreenenter"",""1"",""3322""
","
","
","""event"",""trial"",""time""
""fullscreenenter"",""1"",""3322""
","
","","","","","","null","<div style=""font-size:60px;"">+</div>","null","","fixation","","","","","","","","","","","","","",""
"learning-trial","165","654236","0.0-9.0-2.0-1.39","1495","2","2","""event"",""trial"",""time""
""fullscreenenter"",""1"",""3322""
","
","
","""event"",""trial"",""time""
""fullscreenenter"",""1"",""3322""
","
","","","","","","1575.5999999046326","images/horse1.png","","","learning","images/animals_choice2.png","images/animals_choice3.png","images/animals_choice1.png","[1,2,0]","2","1","2","images/animals_choice3.png","1","animals","","horse","2","0"
"html-keyboard-response","166","654738","0.0-9.0-2.0-0.40","1495","2","2","""event"",""trial"",""time""
""fullscreenenter"",""1"",""3322""
","
","
","""event"",""trial"",""time""
""fullscreenenter"",""1"",""3322""
","
","","","","","","null","<div style=""font-size:60px;"">+</div>","null","","fixation","","","","","","","","","","","","","",""
"learning-trial","167","658741","0.0-9.0-2.0-1.40","1495","2","2","""event"",""trial"",""time""
""fullscreenenter"",""1"",""3322""
","
","
","""event"",""trial"",""time""
""fullscreenenter"",""1"",""3322""
","
","","","","","","1201.3999998569489","images/goat5.png","","","learning","images/animals_choice1.png","images/animals_choice3.png","images/animals_choice2.png","[0,2,1]","2","1","3","images/animals_choice2.png","-1","animals","","goat","2","0"
"html-keyboard-response","168","659243","0.0-9.0-2.0-0.41","1495","2","2","""event"",""trial"",""time""
""fullscreenenter"",""1"",""3322""
","
","
","""event"",""trial"",""time""
""fullscreenenter"",""1"",""3322""
","
","","","","","","null","<div style=""font-size:60px;"">+</div>","null","","fixation","","","","","","","","","","","","","",""
"learning-trial","169","663246","0.0-9.0-2.0-1.41","1495","2","2","""event"",""trial"",""time""
""fullscreenenter"",""1"",""3322""
","
","
","""event"",""trial"",""time""
""fullscreenenter"",""1"",""3322""
","
","","","","","","1886.3999998569489","images/horse4.png","","","learning","images/animals_choice2.png","images/animals_choice3.png","images/animals_choice1.png","[1,2,0]","0","2","3","images/animals_choice1.png","1","animals","","horse","2","0"
"html-keyboard-response","170","663748","0.0-9.0-2.0-0.42","1495","2","2","""event"",""trial"",""time""
""fullscreenenter"",""1"",""3322""
","
","
","""event"",""trial"",""time""
""fullscreenenter"",""1"",""3322""
","
","","","","","","null","<div style=""font-size:60px;"">+</div>","null","","fixation","","","","","","","","","","","","","",""
"learning-trial","171","667751","0.0-9.0-2.0-1.42","1495","2","2","""event"",""trial"",""time""
""fullscreenenter"",""1"",""3322""
","
","
","""event"",""trial"",""time""
""fullscreenenter"",""1"",""3322""
","
","","","","","","2272.600000143051","images/goat1.png","","","learning","images/animals_choice2.png","images/animals_choice3.png","images/animals_choice1.png","[1,2,0]","0","2","1","images/animals_choice2.png","1","animals","","goat","2","0"
"html-keyboard-response","172","668253","0.0-9.0-2.0-0.43","1495","2","2","""event"",""trial"",""time""
""fullscreenenter"",""1"",""3322""
","
","
","""event"",""trial"",""time""
""fullscreenenter"",""1"",""3322""
","
","","","","","","null","<div style=""font-size:60px;"">+</div>","null","","fixation","","","","","","","","","","","","","",""
"learning-trial","173","672258","0.0-9.0-2.0-1.43","1495","2","2","""event"",""trial"",""time""
""fullscreenenter"",""1"",""3322""
","
","
","""event"",""trial"",""time""
""fullscreenenter"",""1"",""3322""
","
","","","","","","1526.0999999046326","images/goat5.png","","","learning","images/animals_choice1.png","images/animals_choice2.png","images/animals_choice3.png","[0,1,2]","2","2","2","images/animals_choice2.png","-1","animals","","goat","2","0"
"html-keyboard-response","174","672765","0.0-9.0-2.0-0.44","1495","2","2","""event"",""trial"",""time""
""fullscreenenter"",""1"",""3322""
","
","
","""event"",""trial"",""time""
""fullscreenenter"",""1"",""3322""
","
","","","","","","null","<div style=""font-size:60px;"">+</div>","null","","fixation","","","","","","","","","","","","","",""
"learning-trial","175","676768","0.0-9.0-2.0-1.44","1495","2","2","""event"",""trial"",""time""
""fullscreenenter"",""1"",""3322""
","
","
","""event"",""trial"",""time""
""fullscreenenter"",""1"",""3322""
","
","","","","","","1593.7000000476837","images/goat5.png","","","learning","images/animals_choice3.png","images/animals_choice2.png","images/animals_choice1.png","[2,1,0]","2","0","3","images/animals_choice1.png","-1","animals","","goat","2","0"
"html-keyboard-response","176","677270","0.0-9.0-2.0-0.45","1495","2","2","""event"",""trial"",""time""
""fullscreenenter"",""1"",""3322""
","
","
","""event"",""trial"",""time""
""fullscreenenter"",""1"",""3322""
","
","","","","","","null","<div style=""font-size:60px;"">+</div>","null","","fixation","","","","","","","","","","","","","",""
"learning-trial","177","681273","0.0-9.0-2.0-1.45","1495","2","2","""event"",""trial"",""time""
""fullscreenenter"",""1"",""3322""
","
","
","""event"",""trial"",""time""
""fullscreenenter"",""1"",""3322""
","
","","","","","","1238.5","images/cow4.png","","","learning","images/animals_choice1.png","images/animals_choice3.png","images/animals_choice2.png","[0,2,1]","1","2","1","images/animals_choice1.png","-1","animals","","cow","2","0"
"html-keyboard-response","178","681775","0.0-9.0-2.0-0.46","1495","2","2","""event"",""trial"",""time""
""fullscreenenter"",""1"",""3322""
","
","
","""event"",""trial"",""time""
""fullscreenenter"",""1"",""3322""
","
","","","","","","null","<div style=""font-size:60px;"">+</div>","null","","fixation","","","","","","","","","","","","","",""
"learning-trial","179","685778","0.0-9.0-2.0-1.46","1495","2","2","""event"",""trial"",""time""
""fullscreenenter"",""1"",""3322""
","
","
","""event"",""trial"",""time""
""fullscreenenter"",""1"",""3322""
","
","","","","","","1523.7000000476837","images/horse1.png","","","learning","images/animals_choice1.png","images/animals_choice3.png","images/animals_choice2.png","[0,2,1]","2","1","2","images/animals_choice3.png","1","animals","","horse","2","0"
"html-keyboard-response","180","686279","0.0-9.0-2.0-0.47","1495","2","2","""event"",""trial"",""time""
""fullscreenenter"",""1"",""3322""
","
","
","""event"",""trial"",""time""
""fullscreenenter"",""1"",""3322""
","
","","","","","","null","<div style=""font-size:60px;"">+</div>","null","","fixation","","","","","","","","","","","","","",""
"learning-trial","181","690283","0.0-9.0-2.0-1.47","1495","2","2","""event"",""trial"",""time""
""fullscreenenter"",""1"",""3322""
","
","
","""event"",""trial"",""time""
""fullscreenenter"",""1"",""3322""
","
","","","","","","1560.2000000476837","images/cow4.png","","","learning","images/animals_choice1.png","images/animals_choice3.png","images/animals_choice2.png","[0,2,1]","1","2","3","images/animals_choice2.png","1","animals","","cow","2","0"
"html-keyboard-response","182","690786","0.0-9.0-2.0-0.48","1495","2","2","""event"",""trial"",""time""
""fullscreenenter"",""1"",""3322""
","
","
","""event"",""trial"",""time""
""fullscreenenter"",""1"",""3322""
","
","","","","","","null","<div style=""font-size:60px;"">+</div>","null","","fixation","","","","","","","","","","","","","",""
"learning-trial","183","694790","0.0-9.0-2.0-1.48","1495","2","2","""event"",""trial"",""time""
""fullscreenenter"",""1"",""3322""
","
","
","""event"",""trial"",""time""
""fullscreenenter"",""1"",""3322""
","
","","","","","","2503","images/cow5.png","","","learning","images/animals_choice2.png","images/animals_choice1.png","images/animals_choice3.png","[1,0,2]","2","2","1","images/animals_choice2.png","-1","animals","","cow","2","0"
"html-keyboard-response","184","695297","0.0-9.0-2.0-0.49","1495","2","2","""event"",""trial"",""time""
""fullscreenenter"",""1"",""3322""
","
","
","""event"",""trial"",""time""
""fullscreenenter"",""1"",""3322""
","
","","","","","","null","<div style=""font-size:60px;"">+</div>","null","","fixation","","","","","","","","","","","","","",""
"learning-trial","185","699301","0.0-9.0-2.0-1.49","1495","2","2","""event"",""trial"",""time""
""fullscreenenter"",""1"",""3322""
","
","
","""event"",""trial"",""time""
""fullscreenenter"",""1"",""3322""
","
","","","","","","1062","images/cow5.png","","","learning","images/animals_choice1.png","images/animals_choice2.png","images/animals_choice3.png","[0,1,2]","2","2","3","images/animals_choice3.png","1","animals","","cow","2","0"
"html-keyboard-response","186","699802","0.0-9.0-2.0-0.50","1495","2","2","""event"",""trial"",""time""
""fullscreenenter"",""1"",""3322""
","
","
","""event"",""trial"",""time""
""fullscreenenter"",""1"",""3322""
","
","","","","","","null","<div style=""font-size:60px;"">+</div>","null","","fixation","","","","","","","","","","","","","",""
"learning-trial","187","703805","0.0-9.0-2.0-1.50","1495","2","2","""event"",""trial"",""time""
""fullscreenenter"",""1"",""3322""
","
","
","""event"",""trial"",""time""
""fullscreenenter"",""1"",""3322""
","
","","","","","","2707.7000000476837","images/goat1.png","","","learning","images/animals_choice1.png","images/animals_choice3.png","images/animals_choice2.png","[0,2,1]","0","0","2","images/animals_choice3.png","-1","animals","","goat","2","0"
"html-keyboard-response","188","704307","0.0-9.0-2.0-0.51","1495","2","2","""event"",""trial"",""time""
""fullscreenenter"",""1"",""3322""
","
","
","""event"",""trial"",""time""
""fullscreenenter"",""1"",""3322""
","
","","","","","","null","<div style=""font-size:60px;"">+</div>","null","","fixation","","","","","","","","","","","","","",""
"learning-trial","189","708310","0.0-9.0-2.0-1.51","1495","2","2","""event"",""trial"",""time""
""fullscreenenter"",""1"",""3322""
","
","
","""event"",""trial"",""time""
""fullscreenenter"",""1"",""3322""
","
","","","","","","2072.100000143051","images/horse4.png","","","learning","images/animals_choice1.png","images/animals_choice3.png","images/animals_choice2.png","[0,2,1]","0","0","3","images/animals_choice2.png","-1","animals","","horse","2","0"
"html-keyboard-response","190","708813","0.0-9.0-2.0-0.52","1495","2","2","""event"",""trial"",""time""
""fullscreenenter"",""1"",""3322""
","
","
","""event"",""trial"",""time""
""fullscreenenter"",""1"",""3322""
","
","","","","","","null","<div style=""font-size:60px;"">+</div>","null","","fixation","","","","","","","","","","","","","",""
"learning-trial","191","712817","0.0-9.0-2.0-1.52","1495","2","2","""event"",""trial"",""time""
""fullscreenenter"",""1"",""3322""
","
","
","""event"",""trial"",""time""
""fullscreenenter"",""1"",""3322""
","
","","","","","","1686.5999999046326","images/cow3.png","","","learning","images/animals_choice2.png","images/animals_choice3.png","images/animals_choice1.png","[1,2,0]","0","2","1","images/animals_choice2.png","1","animals","","cow","2","0"
"html-keyboard-response","192","713318","0.0-9.0-2.0-0.53","1495","2","2","""event"",""trial"",""time""
""fullscreenenter"",""1"",""3322""
","
","
","""event"",""trial"",""time""
""fullscreenenter"",""1"",""3322""
","
","","","","","","null","<div style=""font-size:60px;"">+</div>","null","","fixation","","","","","","","","","","","","","",""
"learning-trial","193","717322","0.0-9.0-2.0-1.53","1495","2","2","""event"",""trial"",""time""
""fullscreenenter"",""1"",""3322""
","
","
","""event"",""trial"",""time""
""fullscreenenter"",""1"",""3322""
","
","","","","","","1051","images/horse4.png","","","learning","images/animals_choice1.png","images/animals_choice3.png","images/animals_choice2.png","[0,2,1]","0","0","1","images/animals_choice1.png","1","animals","","horse","2","0"
"html-keyboard-response","194","717825","0.0-9.0-2.0-0.54","1495","2","2","""event"",""trial"",""time""
""fullscreenenter"",""1"",""3322""
","
","
","""event"",""trial"",""time""
""fullscreenenter"",""1"",""3322""
","
","","","","","","null","<div style=""font-size:60px;"">+</div>","null","","fixation","","","","","","","","","","","","","",""
"learning-trial","195","721828","0.0-9.0-2.0-1.54","1495","2","2","""event"",""trial"",""time""
""fullscreenenter"",""1"",""3322""
","
","
","""event"",""trial"",""time""
""fullscreenenter"",""1"",""3322""
","
","","","","","","1005.5999999046326","images/horse3.png","","","learning","images/animals_choice1.png","images/animals_choice2.png","images/animals_choice3.png","[0,1,2]","1","1","3","images/animals_choice3.png","-1","animals","","horse","2","0"
"html-keyboard-response","196","722331","0.0-9.0-2.0-0.55","1495","2","2","""event"",""trial"",""time""
""fullscreenenter"",""1"",""3322""
","
","
","""event"",""trial"",""time""
""fullscreenenter"",""1"",""3322""
","
","","","","","","null","<div style=""font-size:60px;"">+</div>","null","","fixation","","","","","","","","","","","","","",""
"learning-trial","197","726334","0.0-9.0-2.0-1.55","1495","2","2","""event"",""trial"",""time""
""fullscreenenter"",""1"",""3322""
","
","
","""event"",""trial"",""time""
""fullscreenenter"",""1"",""3322""
","
","","","","","","889.2000000476837","images/cow5.png","","","learning","images/animals_choice3.png","images/animals_choice2.png","images/animals_choice1.png","[2,1,0]","2","0","1","images/animals_choice3.png","-1","animals","","cow","2","0"
"html-keyboard-response","198","726836","0.0-9.0-2.0-0.56","1495","2","2","""event"",""trial"",""time""
""fullscreenenter"",""1"",""3322""
","
","
","""event"",""trial"",""time""
""fullscreenenter"",""1"",""3322""
","
","","","","","","null","<div style=""font-size:60px;"">+</div>","null","","fixation","","","","","","","","","","","","","",""
"learning-trial","199","730839","0.0-9.0-2.0-1.56","1495","2","2","""event"",""trial"",""time""
""fullscreenenter"",""1"",""3322""
","
","
","""event"",""trial"",""time""
""fullscreenenter"",""1"",""3322""
","
","","","","","","1183.3999998569489","images/goat1.png","","","learning","images/animals_choice1.png","images/animals_choice2.png","images/animals_choice3.png","[0,1,2]","0","0","3","images/animals_choice3.png","-1","animals","","goat","2","0"
"html-keyboard-response","200","731340","0.0-9.0-2.0-0.57","1495","2","2","""event"",""trial"",""time""
""fullscreenenter"",""1"",""3322""
","
","
","""event"",""trial"",""time""
""fullscreenenter"",""1"",""3322""
","
","","","","","","null","<div style=""font-size:60px;"">+</div>","null","","fixation","","","","","","","","","","","","","",""
"learning-trial","201","735344","0.0-9.0-2.0-1.57","1495","2","2","""event"",""trial"",""time""
""fullscreenenter"",""1"",""3322""
","
","
","""event"",""trial"",""time""
""fullscreenenter"",""1"",""3322""
","
","","","","","","1509.2999999523163","images/horse4.png","","","learning","images/animals_choice1.png","images/animals_choice3.png","images/animals_choice2.png","[0,2,1]","0","0","1","images/animals_choice1.png","1","animals","","horse","2","0"
"html-keyboard-response","202","735846","0.0-9.0-2.0-0.58","1495","2","2","""event"",""trial"",""time""
""fullscreenenter"",""1"",""3322""
","
","
","""event"",""trial"",""time""
""fullscreenenter"",""1"",""3322""
","
","","","","","","null","<div style=""font-size:60px;"">+</div>","null","","fixation","","","","","","","","","","","","","",""
"learning-trial","203","739849","0.0-9.0-2.0-1.58","1495","2","2","""event"",""trial"",""time""
""fullscreenenter"",""1"",""3322""
","
","
","""event"",""trial"",""time""
""fullscreenenter"",""1"",""3322""
","
","","","","","","1053.2999999523163","images/cow3.png","","","learning","images/animals_choice3.png","images/animals_choice1.png","images/animals_choice2.png","[2,0,1]","0","1","2","images/animals_choice1.png","-1","animals","","cow","2","0"
"html-keyboard-response","204","740352","0.0-9.0-2.0-0.59","1495","2","2","""event"",""trial"",""time""
""fullscreenenter"",""1"",""3322""
","
","
","""event"",""trial"",""time""
""fullscreenenter"",""1"",""3322""
","
","","","","","","null","<div style=""font-size:60px;"">+</div>","null","","fixation","","","","","","","","","","","","","",""
"learning-trial","205","744355","0.0-9.0-2.0-1.59","1495","2","2","""event"",""trial"",""time""
""fullscreenenter"",""1"",""3322""
","
","
","""event"",""trial"",""time""
""fullscreenenter"",""1"",""3322""
","
","","","","","","107.79999995231628","images/cow3.png","","","learning","images/animals_choice1.png","images/animals_choice2.png","images/animals_choice3.png","[0,1,2]","0","0","2","images/animals_choice2.png","-1","animals","","cow","2","0"
"html-keyboard-response","206","744856","0.0-9.0-2.0-0.60","1495","2","2","""event"",""trial"",""time""
""fullscreenenter"",""1"",""3322""
","
","
","""event"",""trial"",""time""
""fullscreenenter"",""1"",""3322""
","
","","","","","","null","<div style=""font-size:60px;"">+</div>","null","","fixation","","","","","","","","","","","","","",""
"learning-trial","207","748859","0.0-9.0-2.0-1.60","1495","2","2","""event"",""trial"",""time""
""fullscreenenter"",""1"",""3322""
","
","
","""event"",""trial"",""time""
""fullscreenenter"",""1"",""3322""
","
","","","","","","984.0999999046326","images/cow5.png","","","learning","images/animals_choice2.png","images/animals_choice1.png","images/animals_choice3.png","[1,0,2]","2","2","3","images/animals_choice3.png","1","animals","","cow","2","0"
"html-keyboard-response","208","749369","0.0-9.0-2.0-0.61","1495","2","2","""event"",""trial"",""time""
""fullscreenenter"",""1"",""3322""
","
","
","""event"",""trial"",""time""
""fullscreenenter"",""1"",""3322""
","
","","","","","","null","<div style=""font-size:60px;"">+</div>","null","","fixation","","","","","","","","","","","","","",""
"learning-trial","209","753383","0.0-9.0-2.0-1.61","1495","2","2","""event"",""trial"",""time""
""fullscreenenter"",""1"",""3322""
","
","
","""event"",""trial"",""time""
""fullscreenenter"",""1"",""3322""
","
","","","","","","1181.0999999046326","images/cow3.png","","","learning","images/animals_choice2.png","images/animals_choice1.png","images/animals_choice3.png","[1,0,2]","0","1","3","images/animals_choice3.png","-1","animals","","cow","2","0"
"html-keyboard-response","210","753885","0.0-9.0-2.0-0.62","1495","2","2","""event"",""trial"",""time""
""fullscreenenter"",""1"",""3322""
","
","
","""event"",""trial"",""time""
""fullscreenenter"",""1"",""3322""
","
","","","","","","null","<div style=""font-size:60px;"">+</div>","null","","fixation","","","","","","","","","","","","","",""
"learning-trial","211","757888","0.0-9.0-2.0-1.62","1495","2","2","""event"",""trial"",""time""
""fullscreenenter"",""1"",""3322""
","
","
","""event"",""trial"",""time""
""fullscreenenter"",""1"",""3322""
","
","","","","","","1554.7000000476837","images/goat5.png","","","learning","images/animals_choice2.png","images/animals_choice1.png","images/animals_choice3.png","[1,0,2]","2","2","3","images/animals_choice3.png","1","animals","","goat","2","0"
"html-keyboard-response","212","758390","0.0-9.0-2.0-0.63","1495","2","2","""event"",""trial"",""time""
""fullscreenenter"",""1"",""3322""
","
","
","""event"",""trial"",""time""
""fullscreenenter"",""1"",""3322""
","
","","","","","","null","<div style=""font-size:60px;"">+</div>","null","","fixation","","","","","","","","","","","","","",""
"learning-trial","213","762394","0.0-9.0-2.0-1.63","1495","2","2","""event"",""trial"",""time""
""fullscreenenter"",""1"",""3322""
","
","
","""event"",""trial"",""time""
""fullscreenenter"",""1"",""3322""
","
","","","","","","3080.100000143051","images/cow3.png","","","learning","images/animals_choice1.png","images/animals_choice3.png","images/animals_choice2.png","[0,2,1]","0","0","2","images/animals_choice3.png","-1","animals","","cow","2","0"
"html-keyboard-response","214","762895","0.0-9.0-2.0-0.64","1495","2","2","""event"",""trial"",""time""
""fullscreenenter"",""1"",""3322""
","
","
","""event"",""trial"",""time""
""fullscreenenter"",""1"",""3322""
","
","","","","","","null","<div style=""font-size:60px;"">+</div>","null","","fixation","","","","","","","","","","","","","",""
"learning-trial","215","766900","0.0-9.0-2.0-1.64","1495","2","2","""event"",""trial"",""time""
""fullscreenenter"",""1"",""3322""
","
","
","""event"",""trial"",""time""
""fullscreenenter"",""1"",""3322""
","
","","","","","","1434.2999999523163","images/cow4.png","","","learning","images/animals_choice1.png","images/animals_choice3.png","images/animals_choice2.png","[0,2,1]","1","2","3","images/animals_choice2.png","1","animals","","cow","2","0"
"html-keyboard-response","216","767410","0.0-9.0-2.0-0.65","1495","2","2","""event"",""trial"",""time""
""fullscreenenter"",""1"",""3322""
","
","
","""event"",""trial"",""time""
""fullscreenenter"",""1"",""3322""
","
","","","","","","null","<div style=""font-size:60px;"">+</div>","null","","fixation","","","","","","","","","","","","","",""
"learning-trial","217","771415","0.0-9.0-2.0-1.65","1495","2","2","""event"",""trial"",""time""
""fullscreenenter"",""1"",""3322""
","
","
","""event"",""trial"",""time""
""fullscreenenter"",""1"",""3322""
","
","","","","","","1430.7000000476837","images/horse3.png","","","learning","images/animals_choice2.png","images/animals_choice1.png","images/animals_choice3.png","[1,0,2]","1","0","2","images/animals_choice1.png","-1","animals","","horse","2","0"
"html-keyboard-response","218","771918","0.0-9.0-2.0-0.66","1495","2","2","""event"",""trial"",""time""
""fullscreenenter"",""1"",""3322""
","
","
","""event"",""trial"",""time""
""fullscreenenter"",""1"",""3322""
","
","","","","","","null","<div style=""font-size:60px;"">+</div>","null","","fixation","","","","","","","","","","","","","",""
"learning-trial","219","775934","0.0-9.0-2.0-1.66","1495","2","2","""event"",""trial"",""time""
""fullscreenenter"",""1"",""3322""
","
","
","""event"",""trial"",""time""
""fullscreenenter"",""1"",""3322""
","
","","","","","","1452.0999999046326","images/cow5.png","","","learning","images/animals_choice2.png","images/animals_choice1.png","images/animals_choice3.png","[1,0,2]","2","2","3","images/animals_choice3.png","-1","animals","","cow","2","0"
"html-keyboard-response","220","776436","0.0-9.0-2.0-0.67","1495","2","2","""event"",""trial"",""time""
""fullscreenenter"",""1"",""3322""
","
","
","""event"",""trial"",""time""
""fullscreenenter"",""1"",""3322""
","
","","","","","","null","<div style=""font-size:60px;"">+</div>","null","","fixation","","","","","","","","","","","","","",""
"learning-trial","221","780440","0.0-9.0-2.0-1.67","1495","2","2","""event"",""trial"",""time""
""fullscreenenter"",""1"",""3322""
","
","
","""event"",""trial"",""time""
""fullscreenenter"",""1"",""3322""
","
","","","","","","1593.3999998569489","images/cow5.png","","","learning","images/animals_choice1.png","images/animals_choice3.png","images/animals_choice2.png","[0,2,1]","2","1","2","images/animals_choice3.png","-1","animals","","cow","2","0"
"html-keyboard-response","222","780942","0.0-9.0-2.0-0.68","1495","2","2","""event"",""trial"",""time""
""fullscreenenter"",""1"",""3322""
","
","
","""event"",""trial"",""time""
""fullscreenenter"",""1"",""3322""
","
","","","","","","null","<div style=""font-size:60px;"">+</div>","null","","fixation","","","","","","","","","","","","","",""
"learning-trial","223","784945","0.0-9.0-2.0-1.68","1495","2","2","""event"",""trial"",""time""
""fullscreenenter"",""1"",""3322""
","
","
","""event"",""trial"",""time""
""fullscreenenter"",""1"",""3322""
","
","","","","","","2079","images/goat2.png","","","learning","images/animals_choice3.png","images/animals_choice2.png","images/animals_choice1.png","[2,1,0]","1","1","1","images/animals_choice3.png","-1","animals","","goat","2","0"
"html-keyboard-response","224","785446","0.0-9.0-2.0-0.69","1495","2","2","""event"",""trial"",""time""
""fullscreenenter"",""1"",""3322""
","
","
","""event"",""trial"",""time""
""fullscreenenter"",""1"",""3322""
","
","","","","","","null","<div style=""font-size:60px;"">+</div>","null","","fixation","","","","","","","","","","","","","",""
"learning-trial","225","789455","0.0-9.0-2.0-1.69","1495","2","2","""event"",""trial"",""time""
""fullscreenenter"",""1"",""3322""
","
","
","""event"",""trial"",""time""
""fullscreenenter"",""1"",""3322""
","
","","","","","","1405.2999999523163","images/goat2.png","","","learning","images/animals_choice3.png","images/animals_choice1.png","images/animals_choice2.png","[2,0,1]","1","2","2","images/animals_choice1.png","-1","animals","","goat","2","0"
"html-keyboard-response","226","789957","0.0-9.0-2.0-0.70","1495","2","2","""event"",""trial"",""time""
""fullscreenenter"",""1"",""3322""
","
","
","""event"",""trial"",""time""
""fullscreenenter"",""1"",""3322""
","
","","","","","","null","<div style=""font-size:60px;"">+</div>","null","","fixation","","","","","","","","","","","","","",""
"learning-trial","227","793960","0.0-9.0-2.0-1.70","1495","2","2","""event"",""trial"",""time""
""fullscreenenter"",""1"",""3322""
","
","
","""event"",""trial"",""time""
""fullscreenenter"",""1"",""3322""
","
","","","","","","964.2999999523163","images/goat2.png","","","learning","images/animals_choice3.png","images/animals_choice1.png","images/animals_choice2.png","[2,0,1]","1","2","3","images/animals_choice2.png","1","animals","","goat","2","0"
"html-keyboard-response","228","794471","0.0-9.0-2.0-0.71","1495","2","2","""event"",""trial"",""time""
""fullscreenenter"",""1"",""3322""
","
","
","""event"",""trial"",""time""
""fullscreenenter"",""1"",""3322""
","
","","","","","","null","<div style=""font-size:60px;"">+</div>","null","","fixation","","","","","","","","","","","","","",""
"learning-trial","229","798482","0.0-9.0-2.0-1.71","1495","2","2","""event"",""trial"",""time""
""fullscreenenter"",""1"",""3322""
","
","
","""event"",""trial"",""time""
""fullscreenenter"",""1"",""3322""
","
","","","","","","2480","images/cow4.png","","","learning","images/animals_choice1.png","images/animals_choice2.png","images/animals_choice3.png","[0,1,2]","1","1","3","images/animals_choice3.png","-1","animals","","cow","2","0"
"html-button-response","230","801694","0.0-9.0-3.0","1495","2","2","""event"",""trial"",""time""
""fullscreenenter"",""1"",""3322""
","
","
","""event"",""trial"",""time""
""fullscreenenter"",""1"",""3322""
","
","","","","","","3210.5999999046326","<p> You have completed the round! <p> In this round, you earned -14 points! </p>","0","","break","","","","","","","","","","","","","",""
"html-button-response","231","803905","0.0-10.0","1495","2","2","""event"",""trial"",""time""
""fullscreenenter"",""1"",""3322""
","
","
","""event"",""trial"",""time""
""fullscreenenter"",""1"",""3322""
","
","","","","","","2209.399999856949","<p> Now it's time to play another round. </p>","0","","transition_screen","","","","","","","","","","","","","",""
"preload","232","807012","0.0-11.0-0.0","1495","2","2","""event"",""trial"",""time""
""fullscreenenter"",""1"",""3322""
","
","
","""event"",""trial"",""time""
""fullscreenenter"",""1"",""3322""
","
","true","false","[]","[]","[]","","","","","","","","","","","","","","","","","","",""
"learning-instructions","233","816949","0.0-11.0-1.0-0.0","1495","2","2","""event"",""trial"",""time""
""fullscreenenter"",""1"",""3322""
","
","
","""event"",""trial"",""time""
""fullscreenenter"",""1"",""3322""
","
","","","","","","1323.8999998569489","<p> Your goal in this round is to travel the world by putting fuel into different vehicles. </p><p> To travel, you will need to put fuel into many different vehicles. </p></div>","","0","instructions","","","","","","","","","","","","","",""
"learning-instructions","234","827351","0.0-11.0-1.0-0.1","1495","2","2","""event"",""trial"",""time""
""fullscreenenter"",""1"",""3322""
","
","
","""event"",""trial"",""time""
""fullscreenenter"",""1"",""3322""
","
","","","","","","1615.2999999523163","<p> On each turn, you will see a picture of one of your vehicles and three different types of fuel.  </p><p> You need to select which kind of fuel to use.  </p>","","0","instructions","","","","","","","","","","","","","",""
"learning-instructions","235","837771","0.0-11.0-1.0-0.2","1495","2","2","""event"",""trial"",""time""
""fullscreenenter"",""1"",""3322""
","
","
","""event"",""trial"",""time""
""fullscreenenter"",""1"",""3322""
","
