"trial_type","trial_index","time_elapsed","internal_node_id","subject_id","condition","task_version","interactions","blur_events","focus_events","fullscreenenter_events","fullscreenexit_events","success","timeout","failed_images","failed_audio","failed_video","rt","stimulus","response","button_pressed","task_part","left_choice","middle_choice","right_choice","choice_positions","correct_response","correct_position","key_press","option_selected","points","task_block","correct","stim_cat","block_condition","block_number"
"pavlovia","0","3","0.0-0.0","1616","2","2","""event"",""trial"",""time""
""fullscreenenter"",""1"",""1955""
","
","
","""event"",""trial"",""time""
""fullscreenenter"",""1"",""1955""
","
","","","","","","","","","","","","","","","","","","","","","","","",""
"fullscreen","1","2939","0.0-1.0","1616","2","2","""event"",""trial"",""time""
""fullscreenenter"",""1"",""1955""
","
","
","""event"",""trial"",""time""
""fullscreenenter"",""1"",""1955""
","
","true","","","","","","","","","","","","","","","","","","","","","","",""
"preload","2","9412","0.0-2.0","1616","2","2","""event"",""trial"",""time""
""fullscreenenter"",""1"",""1955""
","
","
","""event"",""trial"",""time""
""fullscreenenter"",""1"",""1955""
","
","true","false","[]","[]","[]","","","","","","","","","","","","","","","","","","",""
"audio-keyboard-response","3","11948","0.0-3.0","1616","2","2","""event"",""trial"",""time""
""fullscreenenter"",""1"",""1955""
","
","
","""event"",""trial"",""time""
""fullscreenenter"",""1"",""1955""
","
","","","","","","2533.333333333333","audio/beep_loop.wav"," ","","","","","","","","","","","","","","","",""
"audio-button-response","4","14375","0.0-4.0","1616","2","2","""event"",""trial"",""time""
""fullscreenenter"",""1"",""1955""
","
","
","""event"",""trial"",""time""
""fullscreenenter"",""1"",""1955""
","
","","","","","","2427","audio/shark.wav","4","","","","","","","","","","","","","","","",""
"audio-button-response","5","16898","0.0-5.0","1616","2","2","""event"",""trial"",""time""
""fullscreenenter"",""1"",""1955""
","
","
","""event"",""trial"",""time""
""fullscreenenter"",""1"",""1955""
","
","","","","","","1515","audio/turtle.wav","1","","","","","","","","","","","","","","","",""
"preload","6","22991","0.0-6.0","1616","2","2","""event"",""trial"",""time""
""fullscreenenter"",""1"",""1955""
","
","
","""event"",""trial"",""time""
""fullscreenenter"",""1"",""1955""
","
","true","false","[]","[]","[]","","","","","","","","","","","","","","","","","","",""
"html-keyboard-response","7","25163","0.0-7.0","1616","2","2","""event"",""trial"",""time""
""fullscreenenter"",""1"",""1955""
","
","
","""event"",""trial"",""time""
""fullscreenenter"",""1"",""1955""
","
","","","","","","2171.5","Welcome to the experiment. Press any key to begin and to advance the instructions."," ","","","","","","","","","","","","","","","",""
"learning-instructions","8","34375","0.0-8.0-0.0-0.0","1616","2","2","""event"",""trial"",""time""
""fullscreenenter"",""1"",""1955""
","
","
","""event"",""trial"",""time""
""fullscreenenter"",""1"",""1955""
","
","","","","","","1466.0999999977648","<p> Welcome! Today you are going to play 6 different rounds of a decision-making game. </p><p> Use the mouse to click next to continue. </p>","","0","instructions","","","","","","","","","","","","","",""
"learning-instructions","9","41507","0.0-8.0-0.0-0.1","1616","2","2","""event"",""trial"",""time""
""fullscreenenter"",""1"",""1955""
","
","
","""event"",""trial"",""time""
""fullscreenenter"",""1"",""1955""
","
","","","","","","4129","<p> You will start with a practice round to learn the rules. </p>","","0","instructions","","","","","","","","","","","","","",""
"learning-instructions","10","51370","0.0-8.0-0.0-0.2","1616","2","2","""event"",""trial"",""time""
""fullscreenenter"",""1"",""1955""
","
","
","""event"",""trial"",""time""
""fullscreenenter"",""1"",""1955""
","
","","","","","","2125.2000000029802","<p> Your goal in this round is to deliver sports equipment to three different parks. </p><p> You will need to deliver many types of equipment. </p></div>","","0","instructions","","","","","","","","","","","","","",""
"learning-instructions","11","62804","0.0-8.0-0.0-0.3","1616","2","2","""event"",""trial"",""time""
""fullscreenenter"",""1"",""1955""
","
","
","""event"",""trial"",""time""
""fullscreenenter"",""1"",""1955""
","
","","","","","","2951.89999999851","<p> On each turn, you will see one piece of sports equipment and three different parks.  </p><p> You need to select which park to deliver the equipment to.  </p>","","0","instructions","","","","","","","","","","","","","",""
"learning-instructions","12","80729","0.0-8.0-0.0-0.4","1616","2","2","""event"",""trial"",""time""
""fullscreenenter"",""1"",""1955""
","
","
","""event"",""trial"",""time""
""fullscreenenter"",""1"",""1955""
","
","","","","","","4641.900000002235","<p> You can select the park on the left by pressing the '1' key on your keyboard. <br>You can select the park in the middle by pressing the '2' key on your keyboard. <br>You can select the park on the right by pressing the '3' key on your keyboard.  </p><br><div class=""choice-instructions-grid""> <div class=""choice-option""><img src=""images/park1.png"" class=""choice-option-img"" stage=""instructions"" position=""0"" ><div class=""choice-option-text""> Press ""1."" </div></div><div class=""choice-option""><img src=""images/park2.png"" class=""choice-option-img"" stage=""instructions"" position=""1"" ><div class=""choice-option-text""> Press ""2."" </div></div><div class=""choice-option""><img src=""images/park3.png"" class=""choice-option-img"" stage=""instructions"" position=""2"" ><div class=""choice-option-text""> Press ""3."" </div></div></div>","","0","instructions","","","","","","","","","","","","","",""
"learning-instructions","13","87416","0.0-8.0-0.0-0.5","1616","2","2","""event"",""trial"",""time""
""fullscreenenter"",""1"",""1955""
","
","
","""event"",""trial"",""time""
""fullscreenenter"",""1"",""1955""
","
","","","","","","1301.7999999970198","<p> If the kids in the park you chose like the equipment, they will be very happy! </p><div style='float: center;'><img src='images/check.png' width = '200' height = '200'></img>","","0","instructions","","","","","","","","","","","","","",""
"learning-instructions","14","95292","0.0-8.0-0.0-0.6","1616","2","2","""event"",""trial"",""time""
""fullscreenenter"",""1"",""1955""
","
","
","""event"",""trial"",""time""
""fullscreenenter"",""1"",""1955""
","
","","","","","","2292.39999999851","<p> But, if the kids in the park you chose do not like the equipment, they will be sad. </p><div style='float: center;'><img src='images/x.png' width = '200' height = '200'></img>","","0","instructions","","","","","","","","","","","","","",""
"learning-instructions","15","103331","0.0-8.0-0.0-0.7","1616","2","2","""event"",""trial"",""time""
""fullscreenenter"",""1"",""1955""
","
","
","""event"",""trial"",""time""
""fullscreenenter"",""1"",""1955""
","
","","","","","","1612.5","<p> Importantly, the kids in each park like some pieces of sports equipment more than others. </p>","","0","instructions","","","","","","","","","","","","","",""
"learning-instructions","16","110663","0.0-8.0-0.0-0.8","1616","2","2","""event"",""trial"",""time""
""fullscreenenter"",""1"",""1955""
","
","
","""event"",""trial"",""time""
""fullscreenenter"",""1"",""1955""
","
","","","","","","1286.1000000014901","<p> If you choose the best park for each piece of equipment, the kids there will usually be happy. </p>","","0","instructions","","","","","","","","","","","","","",""
"learning-instructions","17","118364","0.0-8.0-0.0-0.9","1616","2","2","""event"",""trial"",""time""
""fullscreenenter"",""1"",""1955""
","
","
","""event"",""trial"",""time""
""fullscreenenter"",""1"",""1955""
","
","","","","","","1062.199999999255","<p> However, even if you choose the best park for the equipment, the kids may sometimes be sad. </p>","","0","instructions","","","","","","","","","","","","","",""
"learning-instructions","18","127419","0.0-8.0-0.0-0.10","1616","2","2","""event"",""trial"",""time""
""fullscreenenter"",""1"",""1955""
","
","
","""event"",""trial"",""time""
""fullscreenenter"",""1"",""1955""
","
","","","","","","1823.3999999985099","<p> Similarly, even if you choose the <i>wrong</i> park for the equipment, the kids may still be happy sometimes.","","0","instructions","","","","","","","","","","","","","",""
"learning-instructions","19","133098","0.0-8.0-0.0-0.11","1616","2","2","""event"",""trial"",""time""
""fullscreenenter"",""1"",""1955""
","
","
","""event"",""trial"",""time""
""fullscreenenter"",""1"",""1955""
","
","","","","","","627.8999999985099","<p> For example, the best park for this soccer ball is this one.<div style='float: center;'><img src='images/i1.png' width = '500' height = '268'></img>","","0","instructions","","","","","","","","","","","","","",""
"learning-instructions","20","139077","0.0-8.0-0.0-0.12","1616","2","2","""event"",""trial"",""time""
""fullscreenenter"",""1"",""1955""
","
","
","""event"",""trial"",""time""
""fullscreenenter"",""1"",""1955""
","
","","","","","","692.1999999992549","<p> Let's see what happens if you choose this park for the soccer ball five times.","","0","instructions","","","","","","","","","","","","","",""
"learning-instructions","21","143067","0.0-8.0-0.0-0.13","1616","2","2","""event"",""trial"",""time""
""fullscreenenter"",""1"",""1955""
","
","
","""event"",""trial"",""time""
""fullscreenenter"",""1"",""1955""
","
","","","","","","1823.2999999970198","<p> The kids are happy.<div style='float: left;'><img src='images/i2.png' width = '640' height = '360'></img>","","0","instructions","","","","","","","","","","","","","",""
"learning-instructions","22","145625","0.0-8.0-0.0-0.14","1616","2","2","""event"",""trial"",""time""
""fullscreenenter"",""1"",""1955""
","
","
","""event"",""trial"",""time""
""fullscreenenter"",""1"",""1955""
","
","","","","","","391.80000000074506","<p> The kids are happy.<div style='float: left;'><img src='images/i3.png' width = '640' height = '360'></img>","","0","instructions","","","","","","","","","","","","","",""
"learning-instructions","23","148626","0.0-8.0-0.0-0.15","1616","2","2","""event"",""trial"",""time""
""fullscreenenter"",""1"",""1955""
","
","
","""event"",""trial"",""time""
""fullscreenenter"",""1"",""1955""
","
","","","","","","838.5","<p> The kids are happy.<div style='float: left;'><img src='images/i4.png' width = '640' height = '360'></img>","","0","instructions","","","","","","","","","","","","","",""
"learning-instructions","24","151776","0.0-8.0-0.0-0.16","1616","2","2","""event"",""trial"",""time""
""fullscreenenter"",""1"",""1955""
","
","
","""event"",""trial"",""time""
""fullscreenenter"",""1"",""1955""
","
","","","","","","948.0999999977648","<p> The kids are sad.<div style='float: left;'><img src='images/i5.png' width = '640' height = '360'></img>","","0","instructions","","","","","","","","","","","","","",""
"learning-instructions","25","155100","0.0-8.0-0.0-0.17","1616","2","2","""event"",""trial"",""time""
""fullscreenenter"",""1"",""1955""
","
","
","""event"",""trial"",""time""
""fullscreenenter"",""1"",""1955""
","
","","","","","","1157.699999999255","<p> The kids are happy.<div style='float: left;'><img src='images/i6.png' width = '640' height = '360'></img>","","0","instructions","","","","","","","","","","","","","",""
"learning-instructions","26","163162","0.0-8.0-0.0-0.18","1616","2","2","""event"",""trial"",""time""
""fullscreenenter"",""1"",""1955""
","
","
","""event"",""trial"",""time""
""fullscreenenter"",""1"",""1955""
","
","","","","","","793.6999999992549","<p> As you can see, selecting that park for the soccer ball made the kids happy most of the time, but not all the time.","","0","instructions","","","","","","","","","","","","","",""
"learning-instructions","27","170464","0.0-8.0-0.0-0.19","1616","2","2","""event"",""trial"",""time""
""fullscreenenter"",""1"",""1955""
","
","
","""event"",""trial"",""time""
""fullscreenenter"",""1"",""1955""
","
","","","","","","1306.699999999255","<p> Now let's see what happens if you choose a DIFFERENT park for the soccer ball 5 times.","","0","instructions","","","","","","","","","","","","","",""
"learning-instructions","28","175332","0.0-8.0-0.0-0.20","1616","2","2","""event"",""trial"",""time""
""fullscreenenter"",""1"",""1955""
","
","
","""event"",""trial"",""time""
""fullscreenenter"",""1"",""1955""
","
","","","","","","2660.099999997765","<p> The kids are sad.<div style='float: left;'><img src='images/i7.png' width = '640' height = '360'></img>","","0","instructions","","","","","","","","","","","","","",""
"learning-instructions","29","178546","0.0-8.0-0.0-0.21","1616","2","2","""event"",""trial"",""time""
""fullscreenenter"",""1"",""1955""
","
","
","""event"",""trial"",""time""
""fullscreenenter"",""1"",""1955""
","
","","","","","","1009.6999999992549","<p> The kids are sad.<div style='float: left;'><img src='images/i8.png' width = '640' height = '360'></img>","","0","instructions","","","","","","","","","","","","","",""
"learning-instructions","30","181221","0.0-8.0-0.0-0.22","1616","2","2","""event"",""trial"",""time""
""fullscreenenter"",""1"",""1955""
","
","
","""event"",""trial"",""time""
""fullscreenenter"",""1"",""1955""
","
","","","","","","505.5","<p> The kids are happy.<div style='float: left;'><img src='images/i9.png' width = '640' height = '360'></img>","","0","instructions","","","","","","","","","","","","","",""
"learning-instructions","31","184132","0.0-8.0-0.0-0.23","1616","2","2","""event"",""trial"",""time""
""fullscreenenter"",""1"",""1955""
","
","
","""event"",""trial"",""time""
""fullscreenenter"",""1"",""1955""
","
","","","","","","707.8000000007451","<p> The kids are sad.<div style='float: left;'><img src='images/i10.png' width = '640' height = '360'></img>","","0","instructions","","","","","","","","","","","","","",""
"learning-instructions","32","186922","0.0-8.0-0.0-0.24","1616","2","2","""event"",""trial"",""time""
""fullscreenenter"",""1"",""1955""
","
","
","""event"",""trial"",""time""
""fullscreenenter"",""1"",""1955""
","
","","","","","","585.6000000014901","<p> The kids are sad.<div style='float: left;'><img src='images/i11.png' width = '640' height = '360'></img>","","0","instructions","","","","","","","","","","","","","",""
"learning-instructions","33","196151","0.0-8.0-0.0-0.25","1616","2","2","""event"",""trial"",""time""
""fullscreenenter"",""1"",""1955""
","
","
","""event"",""trial"",""time""
""fullscreenenter"",""1"",""1955""
","
","","","","","","1111.5999999977648","<p> As you can see, selecting the wrong park for the soccer ball made the kids sad most of the time, but not all the time.","","0","instructions","","","","","","","","","","","","","",""
"learning-instructions","34","206104","0.0-8.0-0.0-0.26","1616","2","2","""event"",""trial"",""time""
""fullscreenenter"",""1"",""1955""
","
","
","""event"",""trial"",""time""
""fullscreenenter"",""1"",""1955""
","
","","","","","","845.5","<p> The different pieces of equipment belong in different parks. You need to try to learn which is the best park for each piece of equipment.","","0","instructions","","","","","","","","","","","","","",""
"learning-instructions","35","223380","0.0-8.0-0.0-0.27","1616","2","2","""event"",""trial"",""time""
""fullscreenenter"",""1"",""1955""
","
","
","""event"",""trial"",""time""
""fullscreenenter"",""1"",""1955""
","
","","","","","","890.4000000022352","<p> Try to choose the best park for each piece of equipment, because you will <b> WIN </b> 1 point for each time you make the kids happy and <b>LOSE</b> 1 point for each time you make them sad. </p><p> Remember, if you make the best choice, you will win 1 point most of the time, but not all the time. </p>","","0","instructions","","","","","","","","","","","","","",""
"learning-instructions","36","230192","0.0-8.0-0.0-0.28","1616","2","2","""event"",""trial"",""time""
""fullscreenenter"",""1"",""1955""
","
","
","""event"",""trial"",""time""
""fullscreenenter"",""1"",""1955""
","
","","","","","","1333.4000000022352","<p> This is just a practice round, but in the real game, your bonus payment will depend on your total number of points.","","0","instructions","","","","","","","","","","","","","",""
"learning-instructions","37","242341","0.0-8.0-0.0-0.29","1616","2","2","""event"",""trial"",""time""
""fullscreenenter"",""1"",""1955""
","
","
","""event"",""trial"",""time""
""fullscreenenter"",""1"",""1955""
","
","","","","","","1824.2999999970198","<p> The position where each park appears will change throughout the game. </p><p> The position where the park appears <i> does not </i> influence how likely the kids are to be happy or sad. </p>","","0","instructions","","","","","","","","","","","","","",""
"learning-instructions","38","254215","0.0-8.0-0.0-0.30","1616","2","2","""event"",""trial"",""time""
""fullscreenenter"",""1"",""1955""
","
","
","""event"",""trial"",""time""
""fullscreenenter"",""1"",""1955""
","
","","","","","","1501.6000000014901","<p> You will have 4 seconds to make each choice. Try to respond before time runs out! </p><p> You will lose 1 point each time you do not make a response. </p>","","0","instructions","","","","","","","","","","","","","",""
"learning-instructions","39","261662","0.0-8.0-0.0-0.31","1616","2","2","""event"",""trial"",""time""
""fullscreenenter"",""1"",""1955""
","
","
","""event"",""trial"",""time""
""fullscreenenter"",""1"",""1955""
","
","","","","","","659.8000000007451","<p> Remember, you should use the 1, 2, and 3 keys to select the park for each piece of equipment. </p><br><div class=""choice-instructions-grid""> <div class=""choice-option""><img src=""images/park1.png"" class=""choice-option-img"" stage=""instructions"" position=""0"" ><div class=""choice-option-text""> Press ""1."" </div></div><div class=""choice-option""><img src=""images/park2.png"" class=""choice-option-img"" stage=""instructions"" position=""1"" ><div class=""choice-option-text""> Press ""2."" </div></div><div class=""choice-option""><img src=""images/park3.png"" class=""choice-option-img"" stage=""instructions"" position=""2"" ><div class=""choice-option-text""> Press ""3."" </div></div></div>","","0","instructions","","","","","","","","","","","","","",""
"html-button-response","40","262936","0.0-8.0-1.0","1616","2","2","""event"",""trial"",""time""
""fullscreenenter"",""1"",""1955""
","
","
","""event"",""trial"",""time""
""fullscreenenter"",""1"",""1955""
","
","","","","","","1170.6000000014901","<p> Ready to practice? </p>","0","","","","","","","","","","","","","","","",""
"html-keyboard-response","41","263544","0.0-8.0-2.0-0.0","1616","2","2","""event"",""trial"",""time""
""fullscreenenter"",""1"",""1955""
","
","
","""event"",""trial"",""time""
""fullscreenenter"",""1"",""1955""
","
","","","","","","null","<div style=""font-size:60px;"">+</div>","null","","fixation","","","","","","","","","","","","","",""
"learning-trial","42","267552","0.0-8.0-2.0-1.0","1616","2","2","""event"",""trial"",""time""
""fullscreenenter"",""1"",""1955""
","
","
","""event"",""trial"",""time""
""fullscreenenter"",""1"",""1955""
","
","","","","","","117","images/ball4.png","","","practice","images/park1.png","images/park3.png","images/park2.png","[0,2,1]","2","1","1","images/park1.png","-1","practice","","","",""
"html-keyboard-response","43","268056","0.0-8.0-2.0-0.1","1616","2","2","""event"",""trial"",""time""
""fullscreenenter"",""1"",""1955""
","
","
","""event"",""trial"",""time""
""fullscreenenter"",""1"",""1955""
","
","","","","","","null","<div style=""font-size:60px;"">+</div>","null","","fixation","","","","","","","","","","","","","",""
"learning-trial","44","272062","0.0-8.0-2.0-1.1","1616","2","2","""event"",""trial"",""time""
""fullscreenenter"",""1"",""1955""
","
","
","""event"",""trial"",""time""
""fullscreenenter"",""1"",""1955""
","
","","","","","","840.6999999992549","images/ball2.png","","","practice","images/park2.png","images/park1.png","images/park3.png","[1,0,2]","1","0","2","images/park1.png","-1","practice","","","",""
"html-keyboard-response","45","272567","0.0-8.0-2.0-0.2","1616","2","2","""event"",""trial"",""time""
""fullscreenenter"",""1"",""1955""
","
","
","""event"",""trial"",""time""
""fullscreenenter"",""1"",""1955""
","
","","","","","","null","<div style=""font-size:60px;"">+</div>","null","","fixation","","","","","","","","","","","","","",""
"learning-trial","46","276572","0.0-8.0-2.0-1.2","1616","2","2","""event"",""trial"",""time""
""fullscreenenter"",""1"",""1955""
","
","
","""event"",""trial"",""time""
""fullscreenenter"",""1"",""1955""
","
","","","","","","1030.800000000745","images/racket4.png","","","practice","images/park2.png","images/park1.png","images/park3.png","[1,0,2]","2","2","3","images/park3.png","1","practice","","","",""
"html-keyboard-response","47","277075","0.0-8.0-2.0-0.3","1616","2","2","""event"",""trial"",""time""
""fullscreenenter"",""1"",""1955""
","
","
","""event"",""trial"",""time""
""fullscreenenter"",""1"",""1955""
","
","","","","","","null","<div style=""font-size:60px;"">+</div>","null","","fixation","","","","","","","","","","","","","",""
"learning-trial","48","281078","0.0-8.0-2.0-1.3","1616","2","2","""event"",""trial"",""time""
""fullscreenenter"",""1"",""1955""
","
","
","""event"",""trial"",""time""
""fullscreenenter"",""1"",""1955""
","
","","","","","","1078.800000000745","images/racket3.png","","","practice","images/park1.png","images/park2.png","images/park3.png","[0,1,2]","0","0","3","images/park3.png","-1","practice","","","",""
"html-keyboard-response","49","281582","0.0-8.0-2.0-0.4","1616","2","2","""event"",""trial"",""time""
""fullscreenenter"",""1"",""1955""
","
","
","""event"",""trial"",""time""
""fullscreenenter"",""1"",""1955""
","
","","","","","","null","<div style=""font-size:60px;"">+</div>","null","","fixation","","","","","","","","","","","","","",""
"learning-trial","50","285587","0.0-8.0-2.0-1.4","1616","2","2","""event"",""trial"",""time""
""fullscreenenter"",""1"",""1955""
","
","
","""event"",""trial"",""time""
""fullscreenenter"",""1"",""1955""
","
","","","","","","1159.6000000014901","images/ball1.png","","","practice","images/park3.png","images/park2.png","images/park1.png","[2,1,0]","1","1","1","images/park3.png","-1","practice","","","",""
"html-keyboard-response","51","286093","0.0-8.0-2.0-0.5","1616","2","2","""event"",""trial"",""time""
""fullscreenenter"",""1"",""1955""
","
","
","""event"",""trial"",""time""
""fullscreenenter"",""1"",""1955""
","
","","","","","","null","<div style=""font-size:60px;"">+</div>","null","","fixation","","","","","","","","","","","","","",""
"learning-trial","52","290095","0.0-8.0-2.0-1.5","1616","2","2","""event"",""trial"",""time""
""fullscreenenter"",""1"",""1955""
","
","
","""event"",""trial"",""time""
""fullscreenenter"",""1"",""1955""
","
","","","","","","1249","images/racket3.png","","","practice","images/park2.png","images/park1.png","images/park3.png","[1,0,2]","0","1","3","images/park3.png","1","practice","","","",""
"html-keyboard-response","53","290599","0.0-8.0-2.0-0.6","1616","2","2","""event"",""trial"",""time""
""fullscreenenter"",""1"",""1955""
","
","
","""event"",""trial"",""time""
""fullscreenenter"",""1"",""1955""
","
","","","","","","null","<div style=""font-size:60px;"">+</div>","null","","fixation","","","","","","","","","","","","","",""
"learning-trial","54","294602","0.0-8.0-2.0-1.6","1616","2","2","""event"",""trial"",""time""
""fullscreenenter"",""1"",""1955""
","
","
","""event"",""trial"",""time""
""fullscreenenter"",""1"",""1955""
","
","","","","","","1307.0999999977648","images/ball3.png","","","practice","images/park3.png","images/park1.png","images/park2.png","[2,0,1]","0","1","2","images/park1.png","1","practice","","","",""
"html-keyboard-response","55","295103","0.0-8.0-2.0-0.7","1616","2","2","""event"",""trial"",""time""
""fullscreenenter"",""1"",""1955""
","
","
","""event"",""trial"",""time""
""fullscreenenter"",""1"",""1955""
","
","","","","","","null","<div style=""font-size:60px;"">+</div>","null","","fixation","","","","","","","","","","","","","",""
"learning-trial","56","299108","0.0-8.0-2.0-1.7","1616","2","2","""event"",""trial"",""time""
""fullscreenenter"",""1"",""1955""
","
","
","""event"",""trial"",""time""
""fullscreenenter"",""1"",""1955""
","
","","","","","","1270.8999999985099","images/ball1.png","","","practice","images/park1.png","images/park3.png","images/park2.png","[0,2,1]","1","2","1","images/park1.png","-1","practice","","","",""
"html-keyboard-response","57","299610","0.0-8.0-2.0-0.8","1616","2","2","""event"",""trial"",""time""
""fullscreenenter"",""1"",""1955""
","
","
","""event"",""trial"",""time""
""fullscreenenter"",""1"",""1955""
","
","","","","","","null","<div style=""font-size:60px;"">+</div>","null","","fixation","","","","","","","","","","","","","",""
"learning-trial","58","303615","0.0-8.0-2.0-1.8","1616","2","2","""event"",""trial"",""time""
""fullscreenenter"",""1"",""1955""
","
","
","""event"",""trial"",""time""
""fullscreenenter"",""1"",""1955""
","
","","","","","","1214.699999999255","images/ball4.png","","","practice","images/park3.png","images/park1.png","images/park2.png","[2,0,1]","2","0","2","images/park1.png","-1","practice","","","",""
"html-keyboard-response","59","304116","0.0-8.0-2.0-0.9","1616","2","2","""event"",""trial"",""time""
""fullscreenenter"",""1"",""1955""
","
","
","""event"",""trial"",""time""
""fullscreenenter"",""1"",""1955""
","
","","","","","","null","<div style=""font-size:60px;"">+</div>","null","","fixation","","","","","","","","","","","","","",""
"learning-trial","60","308122","0.0-8.0-2.0-1.9","1616","2","2","""event"",""trial"",""time""
""fullscreenenter"",""1"",""1955""
","
","
","""event"",""trial"",""time""
""fullscreenenter"",""1"",""1955""
","
","","","","","","1498.7000000029802","images/ball3.png","","","practice","images/park1.png","images/park2.png","images/park3.png","[0,1,2]","0","0","3","images/park3.png","-1","practice","","","",""
"html-keyboard-response","61","308623","0.0-8.0-2.0-0.10","1616","2","2","""event"",""trial"",""time""
""fullscreenenter"",""1"",""1955""
","
","
","""event"",""trial"",""time""
""fullscreenenter"",""1"",""1955""
","
","","","","","","null","<div style=""font-size:60px;"">+</div>","null","","fixation","","","","","","","","","","","","","",""
"learning-trial","62","312628","0.0-8.0-2.0-1.10","1616","2","2","""event"",""trial"",""time""
""fullscreenenter"",""1"",""1955""
","
","
","""event"",""trial"",""time""
""fullscreenenter"",""1"",""1955""
","
","","","","","","1237.800000000745","images/racket4.png","","","practice","images/park1.png","images/park3.png","images/park2.png","[0,2,1]","2","1","2","images/park3.png","1","practice","","","",""
"html-keyboard-response","63","313130","0.0-8.0-2.0-0.11","1616","2","2","""event"",""trial"",""time""
""fullscreenenter"",""1"",""1955""
","
","
","""event"",""trial"",""time""
""fullscreenenter"",""1"",""1955""
","
","","","","","","null","<div style=""font-size:60px;"">+</div>","null","","fixation","","","","","","","","","","","","","",""
"learning-trial","64","317135","0.0-8.0-2.0-1.11","1616","2","2","""event"",""trial"",""time""
""fullscreenenter"",""1"",""1955""
","
","
","""event"",""trial"",""time""
""fullscreenenter"",""1"",""1955""
","
","","","","","","1353.699999999255","images/ball2.png","","","practice","images/park3.png","images/park2.png","images/park1.png","[2,1,0]","1","1","2","images/park2.png","1","practice","","","",""
"html-button-response","65","385881","0.0-8.0-3.0","1616","2","2","""event"",""trial"",""time""
""fullscreenenter"",""1"",""1955""
","
","
","""event"",""trial"",""time""
""fullscreenenter"",""1"",""1955""
","
","","","","","","68744.30000000075","<p> You earned -2 points in the practice round! </p>","0","","break","","","","","","","","","","","","","",""
"learning-instructions","66","395167","0.0-8.0-4.0-0.0","1616","2","2","""event"",""trial"",""time""
""fullscreenenter"",""1"",""1955""
","
","
","""event"",""trial"",""time""
""fullscreenenter"",""1"",""1955""
","
","","","","","","1558.0999999977648","<p> It's almost time to start the real game. </p><p> Before you start, we're going to ask you a few questions about how the game works. </p>","","0","instructions","","","","","","","","","","","","","",""
"preload","67","397046","0.0-8.0-5.0","1616","2","2","""event"",""trial"",""time""
""fullscreenenter"",""1"",""1955""
","
","
","""event"",""trial"",""time""
""fullscreenenter"",""1"",""1955""
","
","true","false","[]","[]","[]","","","","","","","","","","","","","","","","","","",""
"comp-q","68","403659","0.0-8.0-6.0-0.0","1616","2","2","""event"",""trial"",""time""
""fullscreenenter"",""1"",""1955""
","
","
","""event"",""trial"",""time""
""fullscreenenter"",""1"",""1955""
","
","","","","","","1164","<p> <b> True or False? </b> </p><p> If you choose the best option, you will always earn 1 point. </p>","","0","comp_question","","","","","","","","","","","false","","",""
"comp-q","69","410328","0.0-8.0-6.0-1.0","1616","2","2","""event"",""trial"",""time""
""fullscreenenter"",""1"",""1955""
","
","
","""event"",""trial"",""time""
""fullscreenenter"",""1"",""1955""
","
","","","","","","1118.5","<p><b> Incorrect. </b> Sometimes you will lose 1 point, even if you choose the best option. </p>","","0","comp_answer","","","","","","","","","","","","","",""
"comp-q","70","415870","0.0-8.0-6.0-0.1","1616","2","2","""event"",""trial"",""time""
""fullscreenenter"",""1"",""1955""
","
","
","""event"",""trial"",""time""
""fullscreenenter"",""1"",""1955""
","
","","","","","","916.3000000007451","<p> <b> True or False? </b> </p><p> You will have as much time as you want to make each choice. </p>","","1","comp_question","","","","","","","","","","","true","","",""
"comp-q","71","421806","0.0-8.0-6.0-1.1","1616","2","2","""event"",""trial"",""time""
""fullscreenenter"",""1"",""1955""
","
","
","""event"",""trial"",""time""
""fullscreenenter"",""1"",""1955""
","
","","","","","","1120.199999999255","<p> <b> That's right! </b> You will only have 4 seconds to make each choice. </p>","","0","comp_answer","","","","","","","","","","","","","",""
"comp-q","72","428905","0.0-8.0-6.0-0.2","1616","2","2","""event"",""trial"",""time""
""fullscreenenter"",""1"",""1955""
","
","
","""event"",""trial"",""time""
""fullscreenenter"",""1"",""1955""
","
","","","","","","943.6000000014901","<p> <b> True or False? </b> </p><p> You should use the '1', '2', and '3' keys to make your choices. </p>","","0","comp_question","","","","","","","","","","","true","","",""
"comp-q","73","434976","0.0-8.0-6.0-1.2","1616","2","2","""event"",""trial"",""time""
""fullscreenenter"",""1"",""1955""
","
","
","""event"",""trial"",""time""
""fullscreenenter"",""1"",""1955""
","
","","","","","","1228.4000000022352","<p> <b> That's right! </b> You should use the '1', '2', and '3' keys to make each choice. </p>","","0","comp_answer","","","","","","","","","","","","","",""
"learning-instructions","74","444834","0.0-8.0-7.0-0.0","1616","2","2","""event"",""trial"",""time""
""fullscreenenter"",""1"",""1955""
","
","
","""event"",""trial"",""time""
""fullscreenenter"",""1"",""1955""
","
","","","","","","1374.699999999255","<p> It's now time to start the real game. </p>Do your best, because the points you earn in the next rounds will influence your bonus payment. </p>","","0","instructions","","","","","","","","","","","","","",""
"preload","75","447598","0.0-9.0-0.0","1616","2","2","""event"",""trial"",""time""
""fullscreenenter"",""1"",""1955""
","
","
","""event"",""trial"",""time""
""fullscreenenter"",""1"",""1955""
","
","true","false","[]","[]","[]","","","","","","","","","","","","","","","","","","",""
"learning-instructions","76","456611","0.0-9.0-1.0-0.0","1616","2","2","""event"",""trial"",""time""
""fullscreenenter"",""1"",""1955""
","
","
","""event"",""trial"",""time""
""fullscreenenter"",""1"",""1955""
","
","","","","","","1353.9000000022352","<p> Your goal in this round is to return farm animals to the barns where they live. </p><p>  Different animals wandered away from different barns! </p></div>","","0","instructions","","","","","","","","","","","","","",""
"learning-instructions","77","466031","0.0-9.0-1.0-0.1","1616","2","2","""event"",""trial"",""time""
""fullscreenenter"",""1"",""1955""
","
","
","""event"",""trial"",""time""
""fullscreenenter"",""1"",""1955""
","
","","","","","","796","<p> On each turn, you will see a picture of a farm animal and three different barns.  </p><p> You need to select the barn where each animal lives.  </p>","","0","instructions","","","","","","","","","","","","","",""
"learning-instructions","78","474433","0.0-9.0-1.0-0.2","1616","2","2","""event"",""trial"",""time""
""fullscreenenter"",""1"",""1955""
","
","
","""event"",""trial"",""time""
""fullscreenenter"",""1"",""1955""
","
","","","","","","1224.199999999255","<p> You can select the barn on the left by pressing 1, the barn in the middle by pressing 2, and the barn on the right by pressing 3. </p><br><div class=""choice-instructions-grid""> <div class=""choice-option""><img src=""images/animals_choice1.png"" class=""choice-option-img"" stage=""instructions"" position=""0"" ><div class=""choice-option-text""> Press ""1."" </div></div><div class=""choice-option""><img src=""images/animals_choice2.png"" class=""choice-option-img"" stage=""instructions"" position=""1"" ><div class=""choice-option-text""> Press ""2."" </div></div><div class=""choice-option""><img src=""images/animals_choice3.png"" class=""choice-option-img"" stage=""instructions"" position=""2"" ><div class=""choice-option-text""> Press ""3."" </div></div></div>","","0","instructions","","","","","","","","","","","","","",""
"learning-instructions","79","480385","0.0-9.0-1.0-0.3","1616","2","2","""event"",""trial"",""time""
""fullscreenenter"",""1"",""1955""
","
","
","""event"",""trial"",""time""
""fullscreenenter"",""1"",""1955""
","
","","","","","","819.8999999985099","<p> If you return the farm animal to the correct barn, it will usually be happy! </p><div style='float: center;'><img src='images/check.png' width = '200' height = '200'></img>","","0","instructions","","","","","","","","","","","","","",""
"learning-instructions","80","487367","0.0-9.0-1.0-0.4","1616","2","2","""event"",""trial"",""time""
""fullscreenenter"",""1"",""1955""
","
","
","""event"",""trial"",""time""
""fullscreenenter"",""1"",""1955""
","
","","","","","","1684.1000000014901","<p> But, if you return the farm animal to the wrong barn, it will usually be sad. </p><div style='float: center;'><img src='images/x.png' width = '200' height = '200'></img>","","0","instructions","","","","","","","","","","","","","",""
"learning-instructions","81","499001","0.0-9.0-1.0-0.5","1616","2","2","""event"",""trial"",""time""
""fullscreenenter"",""1"",""1955""
","
","
","""event"",""trial"",""time""
""fullscreenenter"",""1"",""1955""
","
","","","","","","1078.4000000022352","<p> Importantly, each farm animal belongs in one of the barns. </p><p> If you choose the correct barn, the farm animal will return home safely and will be more likely to be happy! </p>","","0","instructions","","","","","","","","","","","","","",""
"learning-instructions","82","511327","0.0-9.0-1.0-0.6","1616","2","2","""event"",""trial"",""time""
""fullscreenenter"",""1"",""1955""
","
","
","""event"",""trial"",""time""
""fullscreenenter"",""1"",""1955""
","
","","","","","","1810.5","<p> However, even if you choose the correct barn for the farm animal, it might still feel sad. </p><p> Similarly, even if you choose the <i>wrong</i> barn, it might still feel happy.","","0","instructions","","","","","","","","","","","","","",""
"learning-instructions","83","525610","0.0-9.0-1.0-0.7","1616","2","2","""event"",""trial"",""time""
""fullscreenenter"",""1"",""1955""
","
","
","""event"",""trial"",""time""
""fullscreenenter"",""1"",""1955""
","
","","","","","","588.9000000022352","<p> Try to choose the correct barn for each farm animal, because you will <b> WIN </b> 1 point for each farm animal you make happy and <b>LOSE</b> 1 point for each farm animal you make sad. </p><p> Your bonus payment will depend on your total number of points.","","0","instructions","","","","","","","","","","","","","",""
"learning-instructions","84","534224","0.0-9.0-1.0-0.8","1616","2","2","""event"",""trial"",""time""
""fullscreenenter"",""1"",""1955""
","
","
","""event"",""trial"",""time""
""fullscreenenter"",""1"",""1955""
","
","","","","","","504.80000000074506","<p> The position of each barn will change throughout the round. </p><p> The barn's position <i> does not </i> influence how likely it is to be the correct one. </p>","","0","instructions","","","","","","","","","","","","","",""
"learning-instructions","85","544385","0.0-9.0-1.0-0.9","1616","2","2","""event"",""trial"",""time""
""fullscreenenter"",""1"",""1955""
","
","
","""event"",""trial"",""time""
""fullscreenenter"",""1"",""1955""
","
","","","","","","868.1999999992549","<p> You will have 4 seconds to make each choice. Try to respond before time runs out! </p><p> You will lose 1 point each time you do not make a response. </p>","","0","instructions","","","","","","","","","","","","","",""
"html-keyboard-response","86","544991","0.0-9.0-2.0-0.0","1616","2","2","""event"",""trial"",""time""
""fullscreenenter"",""1"",""1955""
","
","
","""event"",""trial"",""time""
""fullscreenenter"",""1"",""1955""
","
","","","","","","null","<div style=""font-size:60px;"">+</div>","null","","fixation","","","","","","","","","","","","","",""
"learning-trial","87","548996","0.0-9.0-2.0-1.0","1616","2","2","""event"",""trial"",""time""
""fullscreenenter"",""1"",""1955""
","
","
","""event"",""trial"",""time""
""fullscreenenter"",""1"",""1955""
","
","","","","","","1014.8000000007451","images/goat2.png","","","learning","images/animals_choice3.png","images/animals_choice1.png","images/animals_choice2.png","[2,0,1]","0","1","2","images/animals_choice1.png","1","animals","","goat","2","0"
"html-keyboard-response","88","549498","0.0-9.0-2.0-0.1","1616","2","2","""event"",""trial"",""time""
""fullscreenenter"",""1"",""1955""
","
","
","""event"",""trial"",""time""
""fullscreenenter"",""1"",""1955""
","
","","","","","","null","<div style=""font-size:60px;"">+</div>","null","","fixation","","","","","","","","","","","","","",""
"learning-trial","89","553502","0.0-9.0-2.0-1.1","1616","2","2","""event"",""trial"",""time""
""fullscreenenter"",""1"",""1955""
","
","
","""event"",""trial"",""time""
""fullscreenenter"",""1"",""1955""
","
","","","","","","1558.7000000029802","images/cow1.png","","","learning","images/animals_choice3.png","images/animals_choice2.png","images/animals_choice1.png","[2,1,0]","1","1","2","images/animals_choice2.png","1","animals","","cow","2","0"
"html-keyboard-response","90","554006","0.0-9.0-2.0-0.2","1616","2","2","""event"",""trial"",""time""
""fullscreenenter"",""1"",""1955""
","
","
","""event"",""trial"",""time""
""fullscreenenter"",""1"",""1955""
","
","","","","","","null","<div style=""font-size:60px;"">+</div>","null","","fixation","","","","","","","","","","","","","",""
"learning-trial","91","558014","0.0-9.0-2.0-1.2","1616","2","2","""event"",""trial"",""time""
""fullscreenenter"",""1"",""1955""
","
","
","""event"",""trial"",""time""
""fullscreenenter"",""1"",""1955""
","
","","","","","","716.3000000007451","images/goat4.png","","","learning","images/animals_choice2.png","images/animals_choice3.png","images/animals_choice1.png","[1,2,0]","2","1","1","images/animals_choice2.png","-1","animals","","goat","2","0"
"html-keyboard-response","92","558515","0.0-9.0-2.0-0.3","1616","2","2","""event"",""trial"",""time""
""fullscreenenter"",""1"",""1955""
","
","
","""event"",""trial"",""time""
""fullscreenenter"",""1"",""1955""
","
","","","","","","null","<div style=""font-size:60px;"">+</div>","null","","fixation","","","","","","","","","","","","","",""
"learning-trial","93","562519","0.0-9.0-2.0-1.3","1616","2","2","""event"",""trial"",""time""
""fullscreenenter"",""1"",""1955""
","
","
","""event"",""trial"",""time""
""fullscreenenter"",""1"",""1955""
","
","","","","","","1965","images/cow5.png","","","learning","images/animals_choice3.png","images/animals_choice2.png","images/animals_choice1.png","[2,1,0]","0","2","2","images/animals_choice2.png","-1","animals","","cow","2","0"
"html-keyboard-response","94","563023","0.0-9.0-2.0-0.4","1616","2","2","""event"",""trial"",""time""
""fullscreenenter"",""1"",""1955""
","
","
","""event"",""trial"",""time""
""fullscreenenter"",""1"",""1955""
","
","","","","","","null","<div style=""font-size:60px;"">+</div>","null","","fixation","","","","","","","","","","","","","",""
"learning-trial","95","567029","0.0-9.0-2.0-1.4","1616","2","2","""event"",""trial"",""time""
""fullscreenenter"",""1"",""1955""
","
","
","""event"",""trial"",""time""
""fullscreenenter"",""1"",""1955""
","
","","","","","","1830.9000000022352","images/goat5.png","","","learning","images/animals_choice3.png","images/animals_choice1.png","images/animals_choice2.png","[2,0,1]","1","2","2","images/animals_choice1.png","-1","animals","","goat","2","0"
"html-keyboard-response","96","567535","0.0-9.0-2.0-0.5","1616","2","2","""event"",""trial"",""time""
""fullscreenenter"",""1"",""1955""
","
","
","""event"",""trial"",""time""
""fullscreenenter"",""1"",""1955""
","
","","","","","","null","<div style=""font-size:60px;"">+</div>","null","","fixation","","","","","","","","","","","","","",""
"learning-trial","97","571542","0.0-9.0-2.0-1.5","1616","2","2","""event"",""trial"",""time""
""fullscreenenter"",""1"",""1955""
","
","
","""event"",""trial"",""time""
""fullscreenenter"",""1"",""1955""
","
","","","","","","1328","images/cow1.png","","","learning","images/animals_choice2.png","images/animals_choice3.png","images/animals_choice1.png","[1,2,0]","1","0","3","images/animals_choice1.png","-1","animals","","cow","2","0"
"html-keyboard-response","98","572045","0.0-9.0-2.0-0.6","1616","2","2","""event"",""trial"",""time""
""fullscreenenter"",""1"",""1955""
","
","
","""event"",""trial"",""time""
""fullscreenenter"",""1"",""1955""
","
","","","","","","null","<div style=""font-size:60px;"">+</div>","null","","fixation","","","","","","","","","","","","","",""
"learning-trial","99","576050","0.0-9.0-2.0-1.6","1616","2","2","""event"",""trial"",""time""
""fullscreenenter"",""1"",""1955""
","
","
","""event"",""trial"",""time""
""fullscreenenter"",""1"",""1955""
","
","","","","","","1280.9000000022352","images/sheep5.png","","","learning","images/animals_choice3.png","images/animals_choice2.png","images/animals_choice1.png","[2,1,0]","2","0","3","images/animals_choice1.png","-1","animals","","sheep","2","0"
"html-keyboard-response","100","576551","0.0-9.0-2.0-0.7","1616","2","2","""event"",""trial"",""time""
""fullscreenenter"",""1"",""1955""
","
","
","""event"",""trial"",""time""
""fullscreenenter"",""1"",""1955""
","
","","","","","","null","<div style=""font-size:60px;"">+</div>","null","","fixation","","","","","","","","","","","","","",""
"learning-trial","101","580557","0.0-9.0-2.0-1.7","1616","2","2","""event"",""trial"",""time""
""fullscreenenter"",""1"",""1955""
","
","
","""event"",""trial"",""time""
""fullscreenenter"",""1"",""1955""
","
","","","","","","1552.6000000014901","images/sheep5.png","","","learning","images/animals_choice2.png","images/animals_choice3.png","images/animals_choice1.png","[1,2,0]","2","1","2","images/animals_choice3.png","1","animals","","sheep","2","0"
"html-keyboard-response","102","581058","0.0-9.0-2.0-0.8","1616","2","2","""event"",""trial"",""time""
""fullscreenenter"",""1"",""1955""
","
","
","""event"",""trial"",""time""
""fullscreenenter"",""1"",""1955""
","
","","","","","","null","<div style=""font-size:60px;"">+</div>","null","","fixation","","","","","","","","","","","","","",""
"learning-trial","103","585060","0.0-9.0-2.0-1.8","1616","2","2","""event"",""trial"",""time""
""fullscreenenter"",""1"",""1955""
","
","
","""event"",""trial"",""time""
""fullscreenenter"",""1"",""1955""
","
","","","","","","1913.699999999255","images/goat2.png","","","learning","images/animals_choice2.png","images/animals_choice1.png","images/animals_choice3.png","[1,0,2]","0","1","2","images/animals_choice1.png","1","animals","","goat","2","0"
"html-keyboard-response","104","585564","0.0-9.0-2.0-0.9","1616","2","2","""event"",""trial"",""time""
""fullscreenenter"",""1"",""1955""
","
","
","""event"",""trial"",""time""
""fullscreenenter"",""1"",""1955""
","
","","","","","","null","<div style=""font-size:60px;"">+</div>","null","","fixation","","","","","","","","","","","","","",""
"learning-trial","105","589570","0.0-9.0-2.0-1.9","1616","2","2","""event"",""trial"",""time""
""fullscreenenter"",""1"",""1955""
","
","
","""event"",""trial"",""time""
""fullscreenenter"",""1"",""1955""
","
","","","","","","1046.5","images/sheep4.png","","","learning","images/animals_choice1.png","images/animals_choice3.png","images/animals_choice2.png","[0,2,1]","0","0","1","images/animals_choice1.png","1","animals","","sheep","2","0"
"html-keyboard-response","106","590071","0.0-9.0-2.0-0.10","1616","2","2","""event"",""trial"",""time""
""fullscreenenter"",""1"",""1955""
","
","
","""event"",""trial"",""time""
""fullscreenenter"",""1"",""1955""
","
","","","","","","null","<div style=""font-size:60px;"">+</div>","null","","fixation","","","","","","","","","","","","","",""
"learning-trial","107","594076","0.0-9.0-2.0-1.10","1616","2","2","""event"",""trial"",""time""
""fullscreenenter"",""1"",""1955""
","
","
","""event"",""trial"",""time""
""fullscreenenter"",""1"",""1955""
","
","","","","","","1200.2999999970198","images/goat4.png","","","learning","images/animals_choice1.png","images/animals_choice2.png","images/animals_choice3.png","[0,1,2]","2","2","2","images/animals_choice2.png","-1","animals","","goat","2","0"
"html-keyboard-response","108","594578","0.0-9.0-2.0-0.11","1616","2","2","""event"",""trial"",""time""
""fullscreenenter"",""1"",""1955""
","
","
","""event"",""trial"",""time""
""fullscreenenter"",""1"",""1955""
","
","","","","","","null","<div style=""font-size:60px;"">+</div>","null","","fixation","","","","","","","","","","","","","",""
"learning-trial","109","598583","0.0-9.0-2.0-1.11","1616","2","2","""event"",""trial"",""time""
""fullscreenenter"",""1"",""1955""
","
","
","""event"",""trial"",""time""
""fullscreenenter"",""1"",""1955""
","
","","","","","","1719.199999999255","images/sheep5.png","","","learning","images/animals_choice3.png","images/animals_choice2.png","images/animals_choice1.png","[2,1,0]","2","0","2","images/animals_choice2.png","1","animals","","sheep","2","0"
"html-keyboard-response","110","599084","0.0-9.0-2.0-0.12","1616","2","2","""event"",""trial"",""time""
""fullscreenenter"",""1"",""1955""
","
","
","""event"",""trial"",""time""
""fullscreenenter"",""1"",""1955""
","
","","","","","","null","<div style=""font-size:60px;"">+</div>","null","","fixation","","","","","","","","","","","","","",""
"learning-trial","111","603090","0.0-9.0-2.0-1.12","1616","2","2","""event"",""trial"",""time""
""fullscreenenter"",""1"",""1955""
","
","
","""event"",""trial"",""time""
""fullscreenenter"",""1"",""1955""
","
","","","","","","1569.4000000022352","images/sheep4.png","","","learning","images/animals_choice1.png","images/animals_choice3.png","images/animals_choice2.png","[0,2,1]","0","0","1","images/animals_choice1.png","-1","animals","","sheep","2","0"
"html-keyboard-response","112","603591","0.0-9.0-2.0-0.13","1616","2","2","""event"",""trial"",""time""
""fullscreenenter"",""1"",""1955""
","
","
","""event"",""trial"",""time""
""fullscreenenter"",""1"",""1955""
","
","","","","","","null","<div style=""font-size:60px;"">+</div>","null","","fixation","","","","","","","","","","","","","",""
"learning-trial","113","607596","0.0-9.0-2.0-1.13","1616","2","2","""event"",""trial"",""time""
""fullscreenenter"",""1"",""1955""
","
","
","""event"",""trial"",""time""
""fullscreenenter"",""1"",""1955""
","
","","","","","","1409.3999999985099","images/goat5.png","","","learning","images/animals_choice3.png","images/animals_choice2.png","images/animals_choice1.png","[2,1,0]","1","1","1","images/animals_choice3.png","-1","animals","","goat","2","0"
"html-keyboard-response","114","608098","0.0-9.0-2.0-0.14","1616","2","2","""event"",""trial"",""time""
""fullscreenenter"",""1"",""1955""
","
","
","""event"",""trial"",""time""
""fullscreenenter"",""1"",""1955""
","
","","","","","","null","<div style=""font-size:60px;"">+</div>","null","","fixation","","","","","","","","","","","","","",""
"learning-trial","115","612103","0.0-9.0-2.0-1.14","1616","2","2","""event"",""trial"",""time""
""fullscreenenter"",""1"",""1955""
","
","
","""event"",""trial"",""time""
""fullscreenenter"",""1"",""1955""
","
","","","","","","1797.9000000022352","images/cow5.png","","","learning","images/animals_choice2.png","images/animals_choice1.png","images/animals_choice3.png","[1,0,2]","0","1","2","images/animals_choice1.png","1","animals","","cow","2","0"
"html-keyboard-response","116","612607","0.0-9.0-2.0-0.15","1616","2","2","""event"",""trial"",""time""
""fullscreenenter"",""1"",""1955""
","
","
","""event"",""trial"",""time""
""fullscreenenter"",""1"",""1955""
","
","","","","","","null","<div style=""font-size:60px;"">+</div>","null","","fixation","","","","","","","","","","","","","",""
"learning-trial","117","616609","0.0-9.0-2.0-1.15","1616","2","2","""event"",""trial"",""time""
""fullscreenenter"",""1"",""1955""
","
","
","""event"",""trial"",""time""
""fullscreenenter"",""1"",""1955""
","
","","","","","","1479.3999999985099","images/sheep3.png","","","learning","images/animals_choice2.png","images/animals_choice3.png","images/animals_choice1.png","[1,2,0]","1","0","1","images/animals_choice2.png","1","animals","","sheep","2","0"
"html-keyboard-response","118","617111","0.0-9.0-2.0-0.16","1616","2","2","""event"",""trial"",""time""
""fullscreenenter"",""1"",""1955""
","
","
","""event"",""trial"",""time""
""fullscreenenter"",""1"",""1955""
","
","","","","","","null","<div style=""font-size:60px;"">+</div>","null","","fixation","","","","","","","","","","","","","",""
"learning-trial","119","621116","0.0-9.0-2.0-1.16","1616","2","2","""event"",""trial"",""time""
""fullscreenenter"",""1"",""1955""
","
","
","""event"",""trial"",""time""
""fullscreenenter"",""1"",""1955""
","
","","","","","","1889.5999999977648","images/sheep5.png","","","learning","images/animals_choice2.png","images/animals_choice3.png","images/animals_choice1.png","[1,2,0]","2","1","2","images/animals_choice3.png","1","animals","","sheep","2","0"
"html-keyboard-response","120","621620","0.0-9.0-2.0-0.17","1616","2","2","""event"",""trial"",""time""
""fullscreenenter"",""1"",""1955""
","
","
","""event"",""trial"",""time""
""fullscreenenter"",""1"",""1955""
","
","","","","","","null","<div style=""font-size:60px;"">+</div>","null","","fixation","","","","","","","","","","","","","",""
"learning-trial","121","625626","0.0-9.0-2.0-1.17","1616","2","2","""event"",""trial"",""time""
""fullscreenenter"",""1"",""1955""
","
","
","""event"",""trial"",""time""
""fullscreenenter"",""1"",""1955""
","
","","","","","","2244.900000002235","images/goat4.png","","","learning","images/animals_choice1.png","images/animals_choice2.png","images/animals_choice3.png","[0,1,2]","2","2","3","images/animals_choice3.png","1","animals","","goat","2","0"
"html-keyboard-response","122","626131","0.0-9.0-2.0-0.18","1616","2","2","""event"",""trial"",""time""
""fullscreenenter"",""1"",""1955""
","
","
","""event"",""trial"",""time""
""fullscreenenter"",""1"",""1955""
","
","","","","","","null","<div style=""font-size:60px;"">+</div>","null","","fixation","","","","","","","","","","","","","",""
"learning-trial","123","630135","0.0-9.0-2.0-1.18","1616","2","2","""event"",""trial"",""time""
""fullscreenenter"",""1"",""1955""
","
","
","""event"",""trial"",""time""
""fullscreenenter"",""1"",""1955""
","
","","","","","","1735","images/goat2.png","","","learning","images/animals_choice3.png","images/animals_choice2.png","images/animals_choice1.png","[2,1,0]","0","2","3","images/animals_choice1.png","1","animals","","goat","2","0"
"html-keyboard-response","124","630636","0.0-9.0-2.0-0.19","1616","2","2","""event"",""trial"",""time""
""fullscreenenter"",""1"",""1955""
","
","
","""event"",""trial"",""time""
""fullscreenenter"",""1"",""1955""
","
","","","","","","null","<div style=""font-size:60px;"">+</div>","null","","fixation","","","","","","","","","","","","","",""
"learning-trial","125","634641","0.0-9.0-2.0-1.19","1616","2","2","""event"",""trial"",""time""
""fullscreenenter"",""1"",""1955""
","
","
","""event"",""trial"",""time""
""fullscreenenter"",""1"",""1955""
","
","","","","","","2174.60000000149","images/sheep3.png","","","learning","images/animals_choice1.png","images/animals_choice3.png","images/animals_choice2.png","[0,2,1]","1","2","3","images/animals_choice2.png","1","animals","","sheep","2","0"
"html-keyboard-response","126","635143","0.0-9.0-2.0-0.20","1616","2","2","""event"",""trial"",""time""
""fullscreenenter"",""1"",""1955""
","
","
","""event"",""trial"",""time""
""fullscreenenter"",""1"",""1955""
","
","","","","","","null","<div style=""font-size:60px;"">+</div>","null","","fixation","","","","","","","","","","","","","",""
"learning-trial","127","639148","0.0-9.0-2.0-1.20","1616","2","2","""event"",""trial"",""time""
""fullscreenenter"",""1"",""1955""
","
","
","""event"",""trial"",""time""
""fullscreenenter"",""1"",""1955""
","
","","","","","","1726.5","images/sheep5.png","","","learning","images/animals_choice3.png","images/animals_choice1.png","images/animals_choice2.png","[2,0,1]","2","0","1","images/animals_choice3.png","1","animals","","sheep","2","0"
"html-keyboard-response","128","639651","0.0-9.0-2.0-0.21","1616","2","2","""event"",""trial"",""time""
""fullscreenenter"",""1"",""1955""
","
","
","""event"",""trial"",""time""
""fullscreenenter"",""1"",""1955""
","
","","","","","","null","<div style=""font-size:60px;"">+</div>","null","","fixation","","","","","","","","","","","","","",""
"learning-trial","129","643654","0.0-9.0-2.0-1.21","1616","2","2","""event"",""trial"",""time""
""fullscreenenter"",""1"",""1955""
","
","
","""event"",""trial"",""time""
""fullscreenenter"",""1"",""1955""
","
","","","","","","1582.5","images/cow2.png","","","learning","images/animals_choice2.png","images/animals_choice3.png","images/animals_choice1.png","[1,2,0]","2","1","2","images/animals_choice3.png","1","animals","","cow","2","0"
"html-keyboard-response","130","644156","0.0-9.0-2.0-0.22","1616","2","2","""event"",""trial"",""time""
""fullscreenenter"",""1"",""1955""
","
","
","""event"",""trial"",""time""
""fullscreenenter"",""1"",""1955""
","
","","","","","","null","<div style=""font-size:60px;"">+</div>","null","","fixation","","","","","","","","","","","","","",""
"learning-trial","131","648159","0.0-9.0-2.0-1.22","1616","2","2","""event"",""trial"",""time""
""fullscreenenter"",""1"",""1955""
","
","
","""event"",""trial"",""time""
""fullscreenenter"",""1"",""1955""
","
","","","","","","2800.10000000149","images/goat5.png","","","learning","images/animals_choice2.png","images/animals_choice3.png","images/animals_choice1.png","[1,2,0]","1","0","2","images/animals_choice3.png","-1","animals","","goat","2","0"
"html-keyboard-response","132","648662","0.0-9.0-2.0-0.23","1616","2","2","""event"",""trial"",""time""
""fullscreenenter"",""1"",""1955""
","
","
","""event"",""trial"",""time""
""fullscreenenter"",""1"",""1955""
","
","","","","","","null","<div style=""font-size:60px;"">+</div>","null","","fixation","","","","","","","","","","","","","",""
"learning-trial","133","652667","0.0-9.0-2.0-1.23","1616","2","2","""event"",""trial"",""time""
""fullscreenenter"",""1"",""1955""
","
","
","""event"",""trial"",""time""
""fullscreenenter"",""1"",""1955""
","
","","","","","","2835.900000002235","images/cow2.png","","","learning","images/animals_choice3.png","images/animals_choice1.png","images/animals_choice2.png","[2,0,1]","2","0","2","images/animals_choice1.png","-1","animals","","cow","2","0"
"html-keyboard-response","134","653169","0.0-9.0-2.0-0.24","1616","2","2","""event"",""trial"",""time""
""fullscreenenter"",""1"",""1955""
","
","
","""event"",""trial"",""time""
""fullscreenenter"",""1"",""1955""
","
","","","","","","null","<div style=""font-size:60px;"">+</div>","null","","fixation","","","","","","","","","","","","","",""
"learning-trial","135","657175","0.0-9.0-2.0-1.24","1616","2","2","""event"",""trial"",""time""
""fullscreenenter"",""1"",""1955""
","
","
","""event"",""trial"",""time""
""fullscreenenter"",""1"",""1955""
","
","","","","","","1309.699999999255","images/sheep4.png","","","learning","images/animals_choice3.png","images/animals_choice1.png","images/animals_choice2.png","[2,0,1]","0","1","3","images/animals_choice2.png","-1","animals","","sheep","2","0"
"html-keyboard-response","136","657681","0.0-9.0-2.0-0.25","1616","2","2","""event"",""trial"",""time""
""fullscreenenter"",""1"",""1955""
","
","
","""event"",""trial"",""time""
""fullscreenenter"",""1"",""1955""
","
","","","","","","null","<div style=""font-size:60px;"">+</div>","null","","fixation","","","","","","","","","","","","","",""
"learning-trial","137","661687","0.0-9.0-2.0-1.25","1616","2","2","""event"",""trial"",""time""
""fullscreenenter"",""1"",""1955""
","
","
","""event"",""trial"",""time""
""fullscreenenter"",""1"",""1955""
","
","","","","","","1503.4000000022352","images/cow5.png","","","learning","images/animals_choice2.png","images/animals_choice1.png","images/animals_choice3.png","[1,0,2]","0","1","2","images/animals_choice1.png","1","animals","","cow","2","0"
"html-keyboard-response","138","662188","0.0-9.0-2.0-0.26","1616","2","2","""event"",""trial"",""time""
""fullscreenenter"",""1"",""1955""
","
","
","""event"",""trial"",""time""
""fullscreenenter"",""1"",""1955""
","
","","","","","","null","<div style=""font-size:60px;"">+</div>","null","","fixation","","","","","","","","","","","","","",""
"learning-trial","139","666193","0.0-9.0-2.0-1.26","1616","2","2","""event"",""trial"",""time""
""fullscreenenter"",""1"",""1955""
","
","
","""event"",""trial"",""time""
""fullscreenenter"",""1"",""1955""
","
","","","","","","924.8999999985099","images/cow5.png","","","learning","images/animals_choice2.png","images/animals_choice1.png","images/animals_choice3.png","[1,0,2]","0","1","2","images/animals_choice1.png","1","animals","","cow","2","0"
"html-keyboard-response","140","666698","0.0-9.0-2.0-0.27","1616","2","2","""event"",""trial"",""time""
""fullscreenenter"",""1"",""1955""
","
","
","""event"",""trial"",""time""
""fullscreenenter"",""1"",""1955""
","
","","","","","","null","<div style=""font-size:60px;"">+</div>","null","","fixation","","","","","","","","","","","","","",""
"learning-trial","141","670705","0.0-9.0-2.0-1.27","1616","2","2","""event"",""trial"",""time""
""fullscreenenter"",""1"",""1955""
","
","
","""event"",""trial"",""time""
""fullscreenenter"",""1"",""1955""
","
","","","","","","1863.800000000745","images/goat5.png","","","learning","images/animals_choice1.png","images/animals_choice2.png","images/animals_choice3.png","[0,1,2]","1","1","1","images/animals_choice1.png","-1","animals","","goat","2","0"
"html-keyboard-response","142","671206","0.0-9.0-2.0-0.28","1616","2","2","""event"",""trial"",""time""
""fullscreenenter"",""1"",""1955""
","
","
","""event"",""trial"",""time""
""fullscreenenter"",""1"",""1955""
","
","","","","","","null","<div style=""font-size:60px;"">+</div>","null","","fixation","","","","","","","","","","","","","",""
"learning-trial","143","675212","0.0-9.0-2.0-1.28","1616","2","2","""event"",""trial"",""time""
""fullscreenenter"",""1"",""1955""
","
","
","""event"",""trial"",""time""
""fullscreenenter"",""1"",""1955""
","
","","","","","","2542.199999999255","images/goat4.png","","","learning","images/animals_choice2.png","images/animals_choice3.png","images/animals_choice1.png","[1,2,0]","2","1","2","images/animals_choice3.png","1","animals","","goat","2","0"
"html-keyboard-response","144","675713","0.0-9.0-2.0-0.29","1616","2","2","""event"",""trial"",""time""
""fullscreenenter"",""1"",""1955""
","
","
","""event"",""trial"",""time""
""fullscreenenter"",""1"",""1955""
","
","","","","","","null","<div style=""font-size:60px;"">+</div>","null","","fixation","","","","","","","","","","","","","",""
"learning-trial","145","679718","0.0-9.0-2.0-1.29","1616","2","2","""event"",""trial"",""time""
""fullscreenenter"",""1"",""1955""
","
","
","""event"",""trial"",""time""
""fullscreenenter"",""1"",""1955""
","
","","","","","","1122.6000000014901","images/sheep4.png","","","learning","images/animals_choice2.png","images/animals_choice3.png","images/animals_choice1.png","[1,2,0]","0","2","1","images/animals_choice2.png","-1","animals","","sheep","2","0"
"html-keyboard-response","146","680219","0.0-9.0-2.0-0.30","1616","2","2","""event"",""trial"",""time""
""fullscreenenter"",""1"",""1955""
","
","
","""event"",""trial"",""time""
""fullscreenenter"",""1"",""1955""
","
","","","","","","null","<div style=""font-size:60px;"">+</div>","null","","fixation","","","","","","","","","","","","","",""
"learning-trial","147","684225","0.0-9.0-2.0-1.30","1616","2","2","""event"",""trial"",""time""
""fullscreenenter"",""1"",""1955""
","
","
","""event"",""trial"",""time""
""fullscreenenter"",""1"",""1955""
","
","","","","","","1281.800000000745","images/goat2.png","","","learning","images/animals_choice1.png","images/animals_choice3.png","images/animals_choice2.png","[0,2,1]","0","0","2","images/animals_choice3.png","1","animals","","goat","2","0"
"html-keyboard-response","148","684726","0.0-9.0-2.0-0.31","1616","2","2","""event"",""trial"",""time""
""fullscreenenter"",""1"",""1955""
","
","
","""event"",""trial"",""time""
""fullscreenenter"",""1"",""1955""
","
","","","","","","null","<div style=""font-size:60px;"">+</div>","null","","fixation","","","","","","","","","","","","","",""
"learning-trial","149","688732","0.0-9.0-2.0-1.31","1616","2","2","""event"",""trial"",""time""
""fullscreenenter"",""1"",""1955""
","
","
","""event"",""trial"",""time""
""fullscreenenter"",""1"",""1955""
","
","","","","","","1806.2999999970198","images/cow1.png","","","learning","images/animals_choice1.png","images/animals_choice3.png","images/animals_choice2.png","[0,2,1]","1","2","1","images/animals_choice1.png","-1","animals","","cow","2","0"
"html-keyboard-response","150","689233","0.0-9.0-2.0-0.32","1616","2","2","""event"",""trial"",""time""
""fullscreenenter"",""1"",""1955""
","
","
","""event"",""trial"",""time""
""fullscreenenter"",""1"",""1955""
","
","","","","","","null","<div style=""font-size:60px;"">+</div>","null","","fixation","","","","","","","","","","","","","",""
"learning-trial","151","693238","0.0-9.0-2.0-1.32","1616","2","2","""event"",""trial"",""time""
""fullscreenenter"",""1"",""1955""
","
","
","""event"",""trial"",""time""
""fullscreenenter"",""1"",""1955""
","
","","","","","","1136.9000000022352","images/cow1.png","","","learning","images/animals_choice3.png","images/animals_choice1.png","images/animals_choice2.png","[2,0,1]","1","2","3","images/animals_choice2.png","-1","animals","","cow","2","0"
"html-keyboard-response","152","693739","0.0-9.0-2.0-0.33","1616","2","2","""event"",""trial"",""time""
""fullscreenenter"",""1"",""1955""
","
","
","""event"",""trial"",""time""
""fullscreenenter"",""1"",""1955""
","
","","","","","","null","<div style=""font-size:60px;"">+</div>","null","","fixation","","","","","","","","","","","","","",""
"learning-trial","153","697745","0.0-9.0-2.0-1.33","1616","2","2","""event"",""trial"",""time""
""fullscreenenter"",""1"",""1955""
","
","
","""event"",""trial"",""time""
""fullscreenenter"",""1"",""1955""
","
","","","","","","1300","images/sheep3.png","","","learning","images/animals_choice1.png","images/animals_choice3.png","images/animals_choice2.png","[0,2,1]","1","2","3","images/animals_choice2.png","1","animals","","sheep","2","0"
"html-keyboard-response","154","698246","0.0-9.0-2.0-0.34","1616","2","2","""event"",""trial"",""time""
""fullscreenenter"",""1"",""1955""
","
","
","""event"",""trial"",""time""
""fullscreenenter"",""1"",""1955""
","
","","","","","","null","<div style=""font-size:60px;"">+</div>","null","","fixation","","","","","","","","","","","","","",""
"learning-trial","155","702251","0.0-9.0-2.0-1.34","1616","2","2","""event"",""trial"",""time""
""fullscreenenter"",""1"",""1955""
","
","
","""event"",""trial"",""time""
""fullscreenenter"",""1"",""1955""
","
","","","","","","1863.5","images/sheep4.png","","","learning","images/animals_choice1.png","images/animals_choice2.png","images/animals_choice3.png","[0,1,2]","0","0","3","images/animals_choice3.png","-1","animals","","sheep","2","0"
"html-keyboard-response","156","702753","0.0-9.0-2.0-0.35","1616","2","2","""event"",""trial"",""time""
""fullscreenenter"",""1"",""1955""
","
","
","""event"",""trial"",""time""
""fullscreenenter"",""1"",""1955""
","
","","","","","","null","<div style=""font-size:60px;"">+</div>","null","","fixation","","","","","","","","","","","","","",""
"learning-trial","157","706758","0.0-9.0-2.0-1.35","1616","2","2","""event"",""trial"",""time""
""fullscreenenter"",""1"",""1955""
","
","
","""event"",""trial"",""time""
""fullscreenenter"",""1"",""1955""
","
","","","","","","1103.9000000022352","images/cow5.png","","","learning","images/animals_choice1.png","images/animals_choice2.png","images/animals_choice3.png","[0,1,2]","0","0","1","images/animals_choice1.png","1","animals","","cow","2","0"
"html-keyboard-response","158","707259","0.0-9.0-2.0-0.36","1616","2","2","""event"",""trial"",""time""
""fullscreenenter"",""1"",""1955""
","
","
","""event"",""trial"",""time""
""fullscreenenter"",""1"",""1955""
","
","","","","","","null","<div style=""font-size:60px;"">+</div>","null","","fixation","","","","","","","","","","","","","",""
"learning-trial","159","711265","0.0-9.0-2.0-1.36","1616","2","2","""event"",""trial"",""time""
""fullscreenenter"",""1"",""1955""
","
","
","""event"",""trial"",""time""
""fullscreenenter"",""1"",""1955""
","
","","","","","","2171","images/goat5.png","","","learning","images/animals_choice1.png","images/animals_choice3.png","images/animals_choice2.png","[0,2,1]","1","2","3","images/animals_choice2.png","-1","animals","","goat","2","0"
"html-keyboard-response","160","711766","0.0-9.0-2.0-0.37","1616","2","2","""event"",""trial"",""time""
""fullscreenenter"",""1"",""1955""
","
","
","""event"",""trial"",""time""
""fullscreenenter"",""1"",""1955""
","
","","","","","","null","<div style=""font-size:60px;"">+</div>","null","","fixation","","","","","","","","","","","","","",""
"learning-trial","161","715771","0.0-9.0-2.0-1.37","1616","2","2","""event"",""trial"",""time""
""fullscreenenter"",""1"",""1955""
","
","
","""event"",""trial"",""time""
""fullscreenenter"",""1"",""1955""
","
","","","","","","1667.199999999255","images/cow2.png","","","learning","images/animals_choice1.png","images/animals_choice2.png","images/animals_choice3.png","[0,1,2]","2","2","1","images/animals_choice1.png","-1","animals","","cow","2","0"
"html-keyboard-response","162","716272","0.0-9.0-2.0-0.38","1616","2","2","""event"",""trial"",""time""
""fullscreenenter"",""1"",""1955""
","
","
","""event"",""trial"",""time""
""fullscreenenter"",""1"",""1955""
","
","","","","","","null","<div style=""font-size:60px;"">+</div>","null","","fixation","","","","","","","","","","","","","",""
"learning-trial","163","720278","0.0-9.0-2.0-1.38","1616","2","2","""event"",""trial"",""time""
""fullscreenenter"",""1"",""1955""
","
","
","""event"",""trial"",""time""
""fullscreenenter"",""1"",""1955""
","
","","","","","","2026.199999999255","images/goat2.png","","","learning","images/animals_choice1.png","images/animals_choice3.png","images/animals_choice2.png","[0,2,1]","0","0","1","images/animals_choice1.png","1","animals","","goat","2","0"
"html-keyboard-response","164","720779","0.0-9.0-2.0-0.39","1616","2","2","""event"",""trial"",""time""
""fullscreenenter"",""1"",""1955""
","
","
","""event"",""trial"",""time""
""fullscreenenter"",""1"",""1955""
","
","","","","","","null","<div style=""font-size:60px;"">+</div>","null","","fixation","","","","","","","","","","","","","",""
"learning-trial","165","724784","0.0-9.0-2.0-1.39","1616","2","2","""event"",""trial"",""time""
""fullscreenenter"",""1"",""1955""
","
","
","""event"",""trial"",""time""
""fullscreenenter"",""1"",""1955""
","
","","","","","","2218.800000000745","images/goat5.png","","","learning","images/animals_choice1.png","images/animals_choice2.png","images/animals_choice3.png","[0,1,2]","1","1","2","images/animals_choice2.png","1","animals","","goat","2","0"
"html-keyboard-response","166","725286","0.0-9.0-2.0-0.40","1616","2","2","""event"",""trial"",""time""
""fullscreenenter"",""1"",""1955""
","
","
","""event"",""trial"",""time""
""fullscreenenter"",""1"",""1955""
","
","","","","","","null","<div style=""font-size:60px;"">+</div>","null","","fixation","","","","","","","","","","","","","",""
"learning-trial","167","729291","0.0-9.0-2.0-1.40","1616","2","2","""event"",""trial"",""time""
""fullscreenenter"",""1"",""1955""
","
","
","""event"",""trial"",""time""
""fullscreenenter"",""1"",""1955""
","
","","","","","","1118.3999999985099","images/cow2.png","","","learning","images/animals_choice1.png","images/animals_choice3.png","images/animals_choice2.png","[0,2,1]","2","1","1","images/animals_choice1.png","-1","animals","","cow","2","0"
"html-keyboard-response","168","729792","0.0-9.0-2.0-0.41","1616","2","2","""event"",""trial"",""time""
""fullscreenenter"",""1"",""1955""
","
","
","""event"",""trial"",""time""
""fullscreenenter"",""1"",""1955""
","
","","","","","","null","<div style=""font-size:60px;"">+</div>","null","","fixation","","","","","","","","","","","","","",""
"learning-trial","169","733798","0.0-9.0-2.0-1.41","1616","2","2","""event"",""trial"",""time""
""fullscreenenter"",""1"",""1955""
","
","
","""event"",""trial"",""time""
""fullscreenenter"",""1"",""1955""
","
","","","","","","1267.1000000014901","images/sheep3.png","","","learning","images/animals_choice3.png","images/animals_choice2.png","images/animals_choice1.png","[2,1,0]","1","1","2","images/animals_choice2.png","1","animals","","sheep","2","0"
"html-keyboard-response","170","734299","0.0-9.0-2.0-0.42","1616","2","2","""event"",""trial"",""time""
""fullscreenenter"",""1"",""1955""
","
","
","""event"",""trial"",""time""
""fullscreenenter"",""1"",""1955""
","
","","","","","","null","<div style=""font-size:60px;"">+</div>","null","","fixation","","","","","","","","","","","","","",""
"learning-trial","171","738304","0.0-9.0-2.0-1.42","1616","2","2","""event"",""trial"",""time""
""fullscreenenter"",""1"",""1955""
","
","
","""event"",""trial"",""time""
""fullscreenenter"",""1"",""1955""
","
","","","","","","1506.6000000014901","images/goat2.png","","","learning","images/animals_choice3.png","images/animals_choice2.png","images/animals_choice1.png","[2,1,0]","0","2","3","images/animals_choice1.png","1","animals","","goat","2","0"
"html-keyboard-response","172","738808","0.0-9.0-2.0-0.43","1616","2","2","""event"",""trial"",""time""
""fullscreenenter"",""1"",""1955""
","
","
","""event"",""trial"",""time""
""fullscreenenter"",""1"",""1955""
","
","","","","","","null","<div style=""font-size:60px;"">+</div>","null","","fixation","","","","","","","","","","","","","",""
"learning-trial","173","742811","0.0-9.0-2.0-1.43","1616","2","2","""event"",""trial"",""time""
""fullscreenenter"",""1"",""1955""
","
","
","""event"",""trial"",""time""
""fullscreenenter"",""1"",""1955""
","
","","","","","","1545.5","images/goat5.png","","","learning","images/animals_choice2.png","images/animals_choice1.png","images/animals_choice3.png","[1,0,2]","1","0","3","images/animals_choice3.png","-1","animals","","goat","2","0"
"html-keyboard-response","174","743312","0.0-9.0-2.0-0.44","1616","2","2","""event"",""trial"",""time""
""fullscreenenter"",""1"",""1955""
","
","
","""event"",""trial"",""time""
""fullscreenenter"",""1"",""1955""
","
","","","","","","null","<div style=""font-size:60px;"">+</div>","null","","fixation","","","","","","","","","","","","","",""
"learning-trial","175","747318","0.0-9.0-2.0-1.44","1616","2","2","""event"",""trial"",""time""
""fullscreenenter"",""1"",""1955""
","
","
","""event"",""trial"",""time""
""fullscreenenter"",""1"",""1955""
","
","","","","","","1295.300000000745","images/sheep4.png","","","learning","images/animals_choice2.png","images/animals_choice3.png","images/animals_choice1.png","[1,2,0]","0","2","2","images/animals_choice3.png","-1","animals","","sheep","2","0"
"html-keyboard-response","176","747819","0.0-9.0-2.0-0.45","1616","2","2","""event"",""trial"",""time""
""fullscreenenter"",""1"",""1955""
","
","
","""event"",""trial"",""time""
""fullscreenenter"",""1"",""1955""
","
","","","","","","null","<div style=""font-size:60px;"">+</div>","null","","fixation","","","","","","","","","","","","","",""
"learning-trial","177","751824","0.0-9.0-2.0-1.45","1616","2","2","""event"",""trial"",""time""
""fullscreenenter"",""1"",""1955""
","
","
","""event"",""trial"",""time""
""fullscreenenter"",""1"",""1955""
","
","","","","","","1445.4000000022352","images/goat4.png","","","learning","images/animals_choice2.png","images/animals_choice3.png","images/animals_choice1.png","[1,2,0]","2","1","1","images/animals_choice2.png","-1","animals","","goat","2","0"
"html-keyboard-response","178","752325","0.0-9.0-2.0-0.46","1616","2","2","""event"",""trial"",""time""
""fullscreenenter"",""1"",""1955""
","
","
","""event"",""trial"",""time""
""fullscreenenter"",""1"",""1955""
","
","","","","","","null","<div style=""font-size:60px;"">+</div>","null","","fixation","","","","","","","","","","","","","",""
"learning-trial","179","756331","0.0-9.0-2.0-1.46","1616","2","2","""event"",""trial"",""time""
""fullscreenenter"",""1"",""1955""
","
","
","""event"",""trial"",""time""
""fullscreenenter"",""1"",""1955""
","
","","","","","","1247.9000000022352","images/cow1.png","","","learning","images/animals_choice3.png","images/animals_choice2.png","images/animals_choice1.png","[2,1,0]","1","1","2","images/animals_choice2.png","-1","animals","","cow","2","0"
"html-keyboard-response","180","756832","0.0-9.0-2.0-0.47","1616","2","2","""event"",""trial"",""time""
""fullscreenenter"",""1"",""1955""
","
","
","""event"",""trial"",""time""
""fullscreenenter"",""1"",""1955""
","
","","","","","","null","<div style=""font-size:60px;"">+</div>","null","","fixation","","","","","","","","","","","","","",""
"learning-trial","181","760837","0.0-9.0-2.0-1.47","1616","2","2","""event"",""trial"",""time""
""fullscreenenter"",""1"",""1955""
","
","
","""event"",""trial"",""time""
""fullscreenenter"",""1"",""1955""
","
","","","","","","1311.199999999255","images/goat4.png","","","learning","images/animals_choice3.png","images/animals_choice2.png","images/animals_choice1.png","[2,1,0]","2","0","3","images/animals_choice1.png","-1","animals","","goat","2","0"
"html-keyboard-response","182","761339","0.0-9.0-2.0-0.48","1616","2","2","""event"",""trial"",""time""
""fullscreenenter"",""1"",""1955""
","
","
","""event"",""trial"",""time""
""fullscreenenter"",""1"",""1955""
","
","","","","","","null","<div style=""font-size:60px;"">+</div>","null","","fixation","","","","","","","","","","","","","",""
"learning-trial","183","765344","0.0-9.0-2.0-1.48","1616","2","2","""event"",""trial"",""time""
""fullscreenenter"",""1"",""1955""
","
","
","""event"",""trial"",""time""
""fullscreenenter"",""1"",""1955""
","
","","","","","","1521.1000000014901","images/sheep4.png","","","learning","images/animals_choice2.png","images/animals_choice3.png","images/animals_choice1.png","[1,2,0]","0","2","1","images/animals_choice2.png","-1","animals","","sheep","2","0"
"html-keyboard-response","184","765849","0.0-9.0-2.0-0.49","1616","2","2","""event"",""trial"",""time""
""fullscreenenter"",""1"",""1955""
","
","
","""event"",""trial"",""time""
""fullscreenenter"",""1"",""1955""
","
","","","","","","null","<div style=""font-size:60px;"">+</div>","null","","fixation","","","","","","","","","","","","","",""
"learning-trial","185","769856","0.0-9.0-2.0-1.49","1616","2","2","""event"",""trial"",""time""
""fullscreenenter"",""1"",""1955""
","
","
","""event"",""trial"",""time""
""fullscreenenter"",""1"",""1955""
","
","","","","","","1343.1000000014901","images/cow5.png","","","learning","images/animals_choice1.png","images/animals_choice3.png","images/animals_choice2.png","[0,2,1]","0","0","1","images/animals_choice1.png","1","animals","","cow","2","0"
"html-keyboard-response","186","770357","0.0-9.0-2.0-0.50","1616","2","2","""event"",""trial"",""time""
""fullscreenenter"",""1"",""1955""
","
","
","""event"",""trial"",""time""
""fullscreenenter"",""1"",""1955""
","
","","","","","","null","<div style=""font-size:60px;"">+</div>","null","","fixation","","","","","","","","","","","","","",""
"learning-trial","187","774363","0.0-9.0-2.0-1.50","1616","2","2","""event"",""trial"",""time""
""fullscreenenter"",""1"",""1955""
","
","
","""event"",""trial"",""time""
""fullscreenenter"",""1"",""1955""
","
","","","","","","1119.4000000022352","images/sheep3.png","","","learning","images/animals_choice2.png","images/animals_choice1.png","images/animals_choice3.png","[1,0,2]","1","0","1","images/animals_choice2.png","1","animals","","sheep","2","0"
"html-keyboard-response","188","774864","0.0-9.0-2.0-0.51","1616","2","2","""event"",""trial"",""time""
""fullscreenenter"",""1"",""1955""
","
","
","""event"",""trial"",""time""
""fullscreenenter"",""1"",""1955""
","
","","","","","","null","<div style=""font-size:60px;"">+</div>","null","","fixation","","","","","","","","","","","","","",""
"learning-trial","189","778869","0.0-9.0-2.0-1.51","1616","2","2","""event"",""trial"",""time""
""fullscreenenter"",""1"",""1955""
","
","
","""event"",""trial"",""time""
""fullscreenenter"",""1"",""1955""
","
","","","","","","956.6999999992549","images/goat4.png","","","learning","images/animals_choice3.png","images/animals_choice2.png","images/animals_choice1.png","[2,1,0]","2","0","3","images/animals_choice1.png","-1","animals","","goat","2","0"
"html-keyboard-response","190","779371","0.0-9.0-2.0-0.52","1616","2","2","""event"",""trial"",""time""
""fullscreenenter"",""1"",""1955""
","
","
","""event"",""trial"",""time""
""fullscreenenter"",""1"",""1955""
","
","","","","","","null","<div style=""font-size:60px;"">+</div>","null","","fixation","","","","","","","","","","","","","",""
"learning-trial","191","783376","0.0-9.0-2.0-1.52","1616","2","2","""event"",""trial"",""time""
""fullscreenenter"",""1"",""1955""
","
","
","""event"",""trial"",""time""
""fullscreenenter"",""1"",""1955""
","
","","","","","","977.4000000022352","images/sheep3.png","","","learning","images/animals_choice2.png","images/animals_choice1.png","images/animals_choice3.png","[1,0,2]","1","0","1","images/animals_choice2.png","-1","animals","","sheep","2","0"
"html-keyboard-response","192","783879","0.0-9.0-2.0-0.53","1616","2","2","""event"",""trial"",""time""
""fullscreenenter"",""1"",""1955""
","
","
","""event"",""trial"",""time""
""fullscreenenter"",""1"",""1955""
","
","","","","","","null","<div style=""font-size:60px;"">+</div>","null","","fixation","","","","","","","","","","","","","",""
"learning-trial","193","787883","0.0-9.0-2.0-1.53","1616","2","2","""event"",""trial"",""time""
""fullscreenenter"",""1"",""1955""
","
","
","""event"",""trial"",""time""
""fullscreenenter"",""1"",""1955""
","
","","","","","","1072.4000000022352","images/sheep3.png","","","learning","images/animals_choice1.png","images/animals_choice2.png","images/animals_choice3.png","[0,1,2]","1","1","2","images/animals_choice2.png","1","animals","","sheep","2","0"
"html-keyboard-response","194","788384","0.0-9.0-2.0-0.54","1616","2","2","""event"",""trial"",""time""
""fullscreenenter"",""1"",""1955""
","
","
","""event"",""trial"",""time""
""fullscreenenter"",""1"",""1955""
","
","","","","","","null","<div style=""font-size:60px;"">+</div>","null","","fixation","","","","","","","","","","","","","",""
"learning-trial","195","792389","0.0-9.0-2.0-1.54","1616","2","2","""event"",""trial"",""time""
""fullscreenenter"",""1"",""1955""
","
","
","""event"",""trial"",""time""
""fullscreenenter"",""1"",""1955""
","
","","","","","","1224.300000000745","images/cow5.png","","","learning","images/animals_choice3.png","images/animals_choice2.png","images/animals_choice1.png","[2,1,0]","0","2","3","images/animals_choice1.png","1","animals","","cow","2","0"
"html-keyboard-response","196","792890","0.0-9.0-2.0-0.55","1616","2","2","""event"",""trial"",""time""
""fullscreenenter"",""1"",""1955""
","
","
","""event"",""trial"",""time""
""fullscreenenter"",""1"",""1955""
","
","","","","","","null","<div style=""font-size:60px;"">+</div>","null","","fixation","","","","","","","","","","","","","",""
"learning-trial","197","796896","0.0-9.0-2.0-1.55","1616","2","2","""event"",""trial"",""time""
""fullscreenenter"",""1"",""1955""
","
","
","""event"",""trial"",""time""
""fullscreenenter"",""1"",""1955""
","
","","","","","","1244.1000000014901","images/goat5.png","","","learning","images/animals_choice1.png","images/animals_choice3.png","images/animals_choice2.png","[0,2,1]","1","2","2","images/animals_choice3.png","-1","animals","","goat","2","0"
"html-keyboard-response","198","797397","0.0-9.0-2.0-0.56","1616","2","2","""event"",""trial"",""time""
""fullscreenenter"",""1"",""1955""
","
","
","""event"",""trial"",""time""
""fullscreenenter"",""1"",""1955""
","
","","","","","","null","<div style=""font-size:60px;"">+</div>","null","","fixation","","","","","","","","","","","","","",""
"learning-trial","199","801403","0.0-9.0-2.0-1.56","1616","2","2","""event"",""trial"",""time""
""fullscreenenter"",""1"",""1955""
","
","
","""event"",""trial"",""time""
""fullscreenenter"",""1"",""1955""
","
","","","","","","1833.3999999985099","images/cow1.png","","","learning","images/animals_choice2.png","images/animals_choice1.png","images/animals_choice3.png","[1,0,2]","1","0","1","images/animals_choice2.png","1","animals","","cow","2","0"
"html-keyboard-response","200","801904","0.0-9.0-2.0-0.57","1616","2","2","""event"",""trial"",""time""
""fullscreenenter"",""1"",""1955""
","
","
","""event"",""trial"",""time""
""fullscreenenter"",""1"",""1955""
","
","","","","","","null","<div style=""font-size:60px;"">+</div>","null","","fixation","","","","","","","","","","","","","",""
"learning-trial","201","805909","0.0-9.0-2.0-1.57","1616","2","2","""event"",""trial"",""time""
""fullscreenenter"",""1"",""1955""
","
","
","""event"",""trial"",""time""
""fullscreenenter"",""1"",""1955""
","
","","","","","","1697.4000000022352","images/cow2.png","","","learning","images/animals_choice1.png","images/animals_choice2.png","images/animals_choice3.png","[0,1,2]","2","2","1","images/animals_choice1.png","-1","animals","","cow","2","0"
"html-keyboard-response","202","806410","0.0-9.0-2.0-0.58","1616","2","2","""event"",""trial"",""time""
""fullscreenenter"",""1"",""1955""
","
","
","""event"",""trial"",""time""
""fullscreenenter"",""1"",""1955""
","
","","","","","","null","<div style=""font-size:60px;"">+</div>","null","","fixation","","","","","","","","","","","","","",""
"learning-trial","203","810416","0.0-9.0-2.0-1.58","1616","2","2","""event"",""trial"",""time""
""fullscreenenter"",""1"",""1955""
","
","
","""event"",""trial"",""time""
""fullscreenenter"",""1"",""1955""
","
","","","","","","1635.3999999985099","images/sheep4.png","","","learning","images/animals_choice3.png","images/animals_choice2.png","images/animals_choice1.png","[2,1,0]","0","2","1","images/animals_choice3.png","-1","animals","","sheep","2","0"
"html-keyboard-response","204","810917","0.0-9.0-2.0-0.59","1616","2","2","""event"",""trial"",""time""
""fullscreenenter"",""1"",""1955""
","
","
","""event"",""trial"",""time""
""fullscreenenter"",""1"",""1955""
","
","","","","","","null","<div style=""font-size:60px;"">+</div>","null","","fixation","","","","","","","","","","","","","",""
"learning-trial","205","814922","0.0-9.0-2.0-1.59","1616","2","2","""event"",""trial"",""time""
""fullscreenenter"",""1"",""1955""
","
","
","""event"",""trial"",""time""
""fullscreenenter"",""1"",""1955""
","
","","","","","","1355.2999999970198","images/goat4.png","","","learning","images/animals_choice1.png","images/animals_choice3.png","images/animals_choice2.png","[0,2,1]","2","1","2","images/animals_choice3.png","1","animals","","goat","2","0"
"html-keyboard-response","206","815424","0.0-9.0-2.0-0.60","1616","2","2","""event"",""trial"",""time""
""fullscreenenter"",""1"",""1955""
","
","
","""event"",""trial"",""time""
""fullscreenenter"",""1"",""1955""
","
","","","","","","null","<div style=""font-size:60px;"">+</div>","null","","fixation","","","","","","","","","","","","","",""
"learning-trial","207","819429","0.0-9.0-2.0-1.60","1616","2","2","""event"",""trial"",""time""
""fullscreenenter"",""1"",""1955""
","
","
","""event"",""trial"",""time""
""fullscreenenter"",""1"",""1955""
","
","","","","","","1469.5","images/sheep5.png","","","learning","images/animals_choice1.png","images/animals_choice2.png","images/animals_choice3.png","[0,1,2]","2","2","1","images/animals_choice1.png","-1","animals","","sheep","2","0"
"html-keyboard-response","208","819930","0.0-9.0-2.0-0.61","1616","2","2","""event"",""trial"",""time""
""fullscreenenter"",""1"",""1955""
","
","
","""event"",""trial"",""time""
""fullscreenenter"",""1"",""1955""
","
","","","","","","null","<div style=""font-size:60px;"">+</div>","null","","fixation","","","","","","","","","","","","","",""
"learning-trial","209","823936","0.0-9.0-2.0-1.61","1616","2","2","""event"",""trial"",""time""
""fullscreenenter"",""1"",""1955""
","
","
","""event"",""trial"",""time""
""fullscreenenter"",""1"",""1955""
","
","","","","","","1147.699999999255","images/cow1.png","","","learning","images/animals_choice2.png","images/animals_choice1.png","images/animals_choice3.png","[1,0,2]","1","0","2","images/animals_choice1.png","-1","animals","","cow","2","0"
"html-keyboard-response","210","824437","0.0-9.0-2.0-0.62","1616","2","2","""event"",""trial"",""time""
""fullscreenenter"",""1"",""1955""
","
","
","""event"",""trial"",""time""
""fullscreenenter"",""1"",""1955""
","
","","","","","","null","<div style=""font-size:60px;"">+</div>","null","","fixation","","","","","","","","","","","","","",""
"learning-trial","211","828442","0.0-9.0-2.0-1.62","1616","2","2","""event"",""trial"",""time""
""fullscreenenter"",""1"",""1955""
","
","
","""event"",""trial"",""time""
""fullscreenenter"",""1"",""1955""
","
","","","","","","1063","images/sheep3.png","","","learning","images/animals_choice2.png","images/animals_choice3.png","images/animals_choice1.png","[1,2,0]","1","0","1","images/animals_choice2.png","1","animals","","sheep","2","0"
"html-keyboard-response","212","828943","0.0-9.0-2.0-0.63","1616","2","2","""event"",""trial"",""time""
""fullscreenenter"",""1"",""1955""
","
","
","""event"",""trial"",""time""
""fullscreenenter"",""1"",""1955""
","
","","","","","","null","<div style=""font-size:60px;"">+</div>","null","","fixation","","","","","","","","","","","","","",""
"learning-trial","213","832949","0.0-9.0-2.0-1.63","1616","2","2","""event"",""trial"",""time""
""fullscreenenter"",""1"",""1955""
","
","
","""event"",""trial"",""time""
""fullscreenenter"",""1"",""1955""
","
","","","","","","1237.3999999985099","images/goat2.png","","","learning","images/animals_choice3.png","images/animals_choice1.png","images/animals_choice2.png","[2,0,1]","0","1","2","images/animals_choice1.png","1","animals","","goat","2","0"
"html-keyboard-response","214","833452","0.0-9.0-2.0-0.64","1616","2","2","""event"",""trial"",""time""
""fullscreenenter"",""1"",""1955""
","
","
","""event"",""trial"",""time""
""fullscreenenter"",""1"",""1955""
","
","","","","","","null","<div style=""font-size:60px;"">+</div>","null","","fixation","","","","","","","","","","","","","",""
"learning-trial","215","837456","0.0-9.0-2.0-1.64","1616","2","2","""event"",""trial"",""time""
""fullscreenenter"",""1"",""1955""
","
","
","""event"",""trial"",""time""
""fullscreenenter"",""1"",""1955""
","
","","","","","","1683.300000000745","images/cow2.png","","","learning","images/animals_choice3.png","images/animals_choice2.png","images/animals_choice1.png","[2,1,0]","2","0","2","images/animals_choice2.png","-1","animals","","cow","2","0"
"html-keyboard-response","216","837957","0.0-9.0-2.0-0.65","1616","2","2","""event"",""trial"",""time""
""fullscreenenter"",""1"",""1955""
","
","
","""event"",""trial"",""time""
""fullscreenenter"",""1"",""1955""
","
","","","","","","null","<div style=""font-size:60px;"">+</div>","null","","fixation","","","","","","","","","","","","","",""
"learning-trial","217","841962","0.0-9.0-2.0-1.65","1616","2","2","""event"",""trial"",""time""
""fullscreenenter"",""1"",""1955""
","
","
","""event"",""trial"",""time""
""fullscreenenter"",""1"",""1955""
","
","","","","","","1544.3999999985099","images/sheep5.png","","","learning","images/animals_choice3.png","images/animals_choice2.png","images/animals_choice1.png","[2,1,0]","2","0","1","images/animals_choice3.png","1","animals","","sheep","2","0"
"html-keyboard-response","218","842463","0.0-9.0-2.0-0.66","1616","2","2","""event"",""trial"",""time""
""fullscreenenter"",""1"",""1955""
","
","
","""event"",""trial"",""time""
""fullscreenenter"",""1"",""1955""
","
","","","","","","null","<div style=""font-size:60px;"">+</div>","null","","fixation","","","","","","","","","","","","","",""
"learning-trial","219","846469","0.0-9.0-2.0-1.66","1616","2","2","""event"",""trial"",""time""
""fullscreenenter"",""1"",""1955""
","
","
","""event"",""trial"",""time""
""fullscreenenter"",""1"",""1955""
","
","","","","","","1356.300000000745","images/sheep5.png","","","learning","images/animals_choice1.png","images/animals_choice2.png","images/animals_choice3.png","[0,1,2]","2","2","3","images/animals_choice3.png","1","animals","","sheep","2","0"
"html-keyboard-response","220","846970","0.0-9.0-2.0-0.67","1616","2","2","""event"",""trial"",""time""
""fullscreenenter"",""1"",""1955""
","
","
","""event"",""trial"",""time""
""fullscreenenter"",""1"",""1955""
","
","","","","","","null","<div style=""font-size:60px;"">+</div>","null","","fixation","","","","","","","","","","","","","",""
"learning-trial","221","850975","0.0-9.0-2.0-1.67","1616","2","2","""event"",""trial"",""time""
""fullscreenenter"",""1"",""1955""
","
","
","""event"",""trial"",""time""
""fullscreenenter"",""1"",""1955""
","
","","","","","","1257.3999999985099","images/goat2.png","","","learning","images/animals_choice2.png","images/animals_choice1.png","images/animals_choice3.png","[1,0,2]","0","1","2","images/animals_choice1.png","1","animals","","goat","2","0"
"html-keyboard-response","222","851477","0.0-9.0-2.0-0.68","1616","2","2","""event"",""trial"",""time""
""fullscreenenter"",""1"",""1955""
","
","
","""event"",""trial"",""time""
""fullscreenenter"",""1"",""1955""
","
","","","","","","null","<div style=""font-size:60px;"">+</div>","null","","fixation","","","","","","","","","","","","","",""
"learning-trial","223","855482","0.0-9.0-2.0-1.68","1616","2","2","""event"",""trial"",""time""
""fullscreenenter"",""1"",""1955""
","
","
","""event"",""trial"",""time""
""fullscreenenter"",""1"",""1955""
","
","","","","","","1480.800000000745","images/cow2.png","","","learning","images/animals_choice2.png","images/animals_choice3.png","images/animals_choice1.png","[1,2,0]","2","1","2","images/animals_choice3.png","1","animals","","cow","2","0"
"html-keyboard-response","224","855983","0.0-9.0-2.0-0.69","1616","2","2","""event"",""trial"",""time""
""fullscreenenter"",""1"",""1955""
","
","
","""event"",""trial"",""time""
""fullscreenenter"",""1"",""1955""
","
","","","","","","null","<div style=""font-size:60px;"">+</div>","null","","fixation","","","","","","","","","","","","","",""
"learning-trial","225","859989","0.0-9.0-2.0-1.69","1616","2","2","""event"",""trial"",""time""
""fullscreenenter"",""1"",""1955""
","
","
","""event"",""trial"",""time""
""fullscreenenter"",""1"",""1955""
","
","","","","","","746.5","images/cow2.png","","","learning","images/animals_choice2.png","images/animals_choice3.png","images/animals_choice1.png","[1,2,0]","2","1","2","images/animals_choice3.png","1","animals","","cow","2","0"
"html-keyboard-response","226","860490","0.0-9.0-2.0-0.70","1616","2","2","""event"",""trial"",""time""
""fullscreenenter"",""1"",""1955""
","
","
","""event"",""trial"",""time""
""fullscreenenter"",""1"",""1955""
","
","","","","","","null","<div style=""font-size:60px;"">+</div>","null","","fixation","","","","","","","","","","","","","",""
"learning-trial","227","864495","0.0-9.0-2.0-1.70","1616","2","2","""event"",""trial"",""time""
""fullscreenenter"",""1"",""1955""
","
","
","""event"",""trial"",""time""
""fullscreenenter"",""1"",""1955""
","
","","","","","","1990.1000000014901","images/cow1.png","","","learning","images/animals_choice3.png","images/animals_choice2.png","images/animals_choice1.png","[2,1,0]","1","1","3","images/animals_choice1.png","-1","animals","","cow","2","0"
"html-keyboard-response","228","864996","0.0-9.0-2.0-0.71","1616","2","2","""event"",""trial"",""time""
""fullscreenenter"",""1"",""1955""
","
","
","""event"",""trial"",""time""
""fullscreenenter"",""1"",""1955""
","
","","","","","","null","<div style=""font-size:60px;"">+</div>","null","","fixation","","","","","","","","","","","","","",""
"learning-trial","229","869002","0.0-9.0-2.0-1.71","1616","2","2","""event"",""trial"",""time""
""fullscreenenter"",""1"",""1955""
","
","
","""event"",""trial"",""time""
""fullscreenenter"",""1"",""1955""
","
","","","","","","1511.4000000022352","images/cow5.png","","","learning","images/animals_choice3.png","images/animals_choice1.png","images/animals_choice2.png","[2,0,1]","0","1","2","images/animals_choice1.png","1","animals","","cow","2","0"
"html-button-response","230","885977","0.0-9.0-3.0","1616","2","2","""event"",""trial"",""time""
""fullscreenenter"",""1"",""1955""
","
","
","""event"",""trial"",""time""
""fullscreenenter"",""1"",""1955""
","
","","","","","","16973.699999999255","<p> You have completed the round! <p> In this round, you earned 4 points! </p>","0","","break","","","","","","","","","","","","","",""
"html-button-response","231","887685","0.0-10.0","1616","2","2","""event"",""trial"",""time""
""fullscreenenter"",""1"",""1955""
","
","
","""event"",""trial"",""time""
""fullscreenenter"",""1"",""1955""
","
","","","","","","1707.7000000029802","<p> Now it's time to play another round. </p>","0","","transition_screen","","","","","","","","","","","","","",""
"preload","232","891443","0.0-11.0-0.0","1616","2","2","""event"",""trial"",""time""
""fullscreenenter"",""1"",""1955""
","
","
","""event"",""trial"",""time""
""fullscreenenter"",""1"",""1955""
","
","true","false","[]","[]","[]","","","","","","","","","","","","","","","","","","",""
"learning-instructions","233","900877","0.0-11.0-1.0-0.0","1616","2","2","""event"",""trial"",""time""
""fullscreenenter"",""1"",""1955""
","
","
","""event"",""trial"",""time""
""fullscreenenter"",""1"",""1955""
","
","","","","","","1042.7000000029802","<p> Your goal in this round is to travel the world by putting fuel into different vehicles. </p><p> To travel, you will need to put fuel into many different vehicles. </p></div>","","0","instructions","","","","","","","","","","","","","",""
"learning-instructions","234","910546","0.0-11.0-1.0-0.1","1616","2","2","""event"",""trial"",""time""
""fullscreenenter"",""1"",""1955""
","
","
","""event"",""trial"",""time""
""fullscreenenter"",""1"",""1955""
","
","","","","","","888.3000000007451","<p> On each turn, you will see a picture of one of your vehicles and three different types of fuel.  </p><p> You need to select which kind of fuel to use.  </p>","","0","instructions","","","","","","","","","","","","","",""
"learning-instructions","235","919861","0.0-11.0-1.0-0.2","1616","2","2","""event"",""trial"",""time""
""fullscreenenter"",""1"",""1955""
","
","
","""event"",""trial"",""time""
""fullscreenenter"",""1"",""1955""
","
