"trial_type","trial_index","time_elapsed","internal_node_id","subject_id","condition","task_version","interactions","blur_events","focus_events","fullscreenenter_events","fullscreenexit_events","success","timeout","failed_images","failed_audio","failed_video","rt","stimulus","response","button_pressed","task_part","left_choice","middle_choice","right_choice","choice_positions","correct_response","correct_position","key_press","option_selected","points","task_block","correct","stim_cat","block_condition","block_number"
"pavlovia","0","4","0.0-0.0","1417","2","2","""event"",""trial"",""time""
""fullscreenenter"",""1"",""75066""
","
","
","""event"",""trial"",""time""
""fullscreenenter"",""1"",""75066""
","
","","","","","","","","","","","","","","","","","","","","","","","",""
"fullscreen","1","76043","0.0-1.0","1417","2","2","""event"",""trial"",""time""
""fullscreenenter"",""1"",""75066""
","
","
","""event"",""trial"",""time""
""fullscreenenter"",""1"",""75066""
","
","true","","","","","","","","","","","","","","","","","","","","","","",""
"preload","2","76955","0.0-2.0","1417","2","2","""event"",""trial"",""time""
""fullscreenenter"",""1"",""75066""
","
","
","""event"",""trial"",""time""
""fullscreenenter"",""1"",""75066""
","
","true","false","[]","[]","[]","","","","","","","","","","","","","","","","","","",""
"audio-keyboard-response","3","80386","0.0-3.0","1417","2","2","""event"",""trial"",""time""
""fullscreenenter"",""1"",""75066""
","
","
","""event"",""trial"",""time""
""fullscreenenter"",""1"",""75066""
","
","","","","","","3429.3333333333335","audio/beep_loop.wav"," ","","","","","","","","","","","","","","","",""
"audio-button-response","4","85711","0.0-4.0","1417","2","2","""event"",""trial"",""time""
""fullscreenenter"",""1"",""75066""
","
","
","""event"",""trial"",""time""
""fullscreenenter"",""1"",""75066""
","
","","","","","","5320","audio/shark.wav","4","","","","","","","","","","","","","","","",""
"audio-button-response","5","88667","0.0-5.0","1417","2","2","""event"",""trial"",""time""
""fullscreenenter"",""1"",""75066""
","
","
","""event"",""trial"",""time""
""fullscreenenter"",""1"",""75066""
","
","","","","","","1939","audio/turtle.wav","1","","","","","","","","","","","","","","","",""
"preload","6","90498","0.0-6.0","1417","2","2","""event"",""trial"",""time""
""fullscreenenter"",""1"",""75066""
","
","
","""event"",""trial"",""time""
""fullscreenenter"",""1"",""75066""
","
","true","false","[]","[]","[]","","","","","","","","","","","","","","","","","","",""
"html-keyboard-response","7","95661","0.0-7.0","1417","2","2","""event"",""trial"",""time""
""fullscreenenter"",""1"",""75066""
","
","
","""event"",""trial"",""time""
""fullscreenenter"",""1"",""75066""
","
","","","","","","5159.600000023842","Welcome to the experiment. Press any key to begin and to advance the instructions."," ","","","","","","","","","","","","","","","",""
"learning-instructions","8","108866","0.0-8.0-0.0-0.0","1417","2","2","""event"",""trial"",""time""
""fullscreenenter"",""1"",""75066""
","
","
","""event"",""trial"",""time""
""fullscreenenter"",""1"",""75066""
","
","","","","","","5455","<p> Welcome! Today you are going to play 6 different rounds of a decision-making game. </p><p> Use the mouse to click next to continue. </p>","","0","instructions","","","","","","","","","","","","","",""
"learning-instructions","9","113743","0.0-8.0-0.0-0.1","1417","2","2","""event"",""trial"",""time""
""fullscreenenter"",""1"",""75066""
","
","
","""event"",""trial"",""time""
""fullscreenenter"",""1"",""75066""
","
","","","","","","1873","<p> You will start with a practice round to learn the rules. </p>","","0","instructions","","","","","","","","","","","","","",""
"learning-instructions","10","125217","0.0-8.0-0.0-0.2","1417","2","2","""event"",""trial"",""time""
""fullscreenenter"",""1"",""75066""
","
","
","""event"",""trial"",""time""
""fullscreenenter"",""1"",""75066""
","
","","","","","","3738.0999999940395","<p> Your goal in this round is to deliver sports equipment to three different parks. </p><p> You will need to deliver many types of equipment. </p></div>","","0","instructions","","","","","","","","","","","","","",""
"learning-instructions","11","135379","0.0-8.0-0.0-0.3","1417","2","2","""event"",""trial"",""time""
""fullscreenenter"",""1"",""75066""
","
","
","""event"",""trial"",""time""
""fullscreenenter"",""1"",""75066""
","
","","","","","","1679.1000000238419","<p> On each turn, you will see one piece of sports equipment and three different parks.  </p><p> You need to select which park to deliver the equipment to.  </p>","","0","instructions","","","","","","","","","","","","","",""
"learning-instructions","12","156138","0.0-8.0-0.0-0.4","1417","2","2","""event"",""trial"",""time""
""fullscreenenter"",""1"",""75066""
","
","
","""event"",""trial"",""time""
""fullscreenenter"",""1"",""75066""
","
","","","","","","7467.5999999940395","<p> You can select the park on the left by pressing the '1' key on your keyboard. <br>You can select the park in the middle by pressing the '2' key on your keyboard. <br>You can select the park on the right by pressing the '3' key on your keyboard.  </p><br><div class=""choice-instructions-grid""> <div class=""choice-option""><img src=""images/park1.png"" class=""choice-option-img"" stage=""instructions"" position=""0"" ><div class=""choice-option-text""> Press ""1."" </div></div><div class=""choice-option""><img src=""images/park2.png"" class=""choice-option-img"" stage=""instructions"" position=""1"" ><div class=""choice-option-text""> Press ""2."" </div></div><div class=""choice-option""><img src=""images/park3.png"" class=""choice-option-img"" stage=""instructions"" position=""2"" ><div class=""choice-option-text""> Press ""3."" </div></div></div>","","0","instructions","","","","","","","","","","","","","",""
"learning-instructions","13","164402","0.0-8.0-0.0-0.5","1417","2","2","""event"",""trial"",""time""
""fullscreenenter"",""1"",""75066""
","
","
","""event"",""trial"",""time""
""fullscreenenter"",""1"",""75066""
","
","","","","","","2871.199999988079","<p> If the kids in the park you chose like the equipment, they will be very happy! </p><div style='float: center;'><img src='images/check.png' width = '200' height = '200'></img>","","0","instructions","","","","","","","","","","","","","",""
"learning-instructions","14","171369","0.0-8.0-0.0-0.6","1417","2","2","""event"",""trial"",""time""
""fullscreenenter"",""1"",""75066""
","
","
","""event"",""trial"",""time""
""fullscreenenter"",""1"",""75066""
","
","","","","","","1380.7999999821186","<p> But, if the kids in the park you chose do not like the equipment, they will be sad. </p><div style='float: center;'><img src='images/x.png' width = '200' height = '200'></img>","","0","instructions","","","","","","","","","","","","","",""
"learning-instructions","15","179589","0.0-8.0-0.0-0.7","1417","2","2","""event"",""trial"",""time""
""fullscreenenter"",""1"",""75066""
","
","
","""event"",""trial"",""time""
""fullscreenenter"",""1"",""75066""
","
","","","","","","1788.800000011921","<p> Importantly, the kids in each park like some pieces of sports equipment more than others. </p>","","0","instructions","","","","","","","","","","","","","",""
"learning-instructions","16","187509","0.0-8.0-0.0-0.8","1417","2","2","""event"",""trial"",""time""
""fullscreenenter"",""1"",""75066""
","
","
","""event"",""trial"",""time""
""fullscreenenter"",""1"",""75066""
","
","","","","","","1859.5999999940395","<p> If you choose the best park for each piece of equipment, the kids there will usually be happy. </p>","","0","instructions","","","","","","","","","","","","","",""
"learning-instructions","17","195529","0.0-8.0-0.0-0.9","1417","2","2","""event"",""trial"",""time""
""fullscreenenter"",""1"",""75066""
","
","
","""event"",""trial"",""time""
""fullscreenenter"",""1"",""75066""
","
","","","","","","1369.699999988079","<p> However, even if you choose the best park for the equipment, the kids may sometimes be sad. </p>","","0","instructions","","","","","","","","","","","","","",""
"learning-instructions","18","203391","0.0-8.0-0.0-0.10","1417","2","2","""event"",""trial"",""time""
""fullscreenenter"",""1"",""75066""
","
","
","""event"",""trial"",""time""
""fullscreenenter"",""1"",""75066""
","
","","","","","","621.2999999821186","<p> Similarly, even if you choose the <i>wrong</i> park for the equipment, the kids may still be happy sometimes.","","0","instructions","","","","","","","","","","","","","",""
"learning-instructions","19","210861","0.0-8.0-0.0-0.11","1417","2","2","""event"",""trial"",""time""
""fullscreenenter"",""1"",""75066""
","
","
","""event"",""trial"",""time""
""fullscreenenter"",""1"",""75066""
","
","","","","","","2400.0999999940395","<p> For example, the best park for this soccer ball is this one.<div style='float: center;'><img src='images/i1.png' width = '500' height = '268'></img>","","0","instructions","","","","","","","","","","","","","",""
"learning-instructions","20","217395","0.0-8.0-0.0-0.12","1417","2","2","""event"",""trial"",""time""
""fullscreenenter"",""1"",""75066""
","
","
","""event"",""trial"",""time""
""fullscreenenter"",""1"",""75066""
","
","","","","","","1225.0999999940395","<p> Let's see what happens if you choose this park for the soccer ball five times.","","0","instructions","","","","","","","","","","","","","",""
"learning-instructions","21","220861","0.0-8.0-0.0-0.13","1417","2","2","""event"",""trial"",""time""
""fullscreenenter"",""1"",""75066""
","
","
","""event"",""trial"",""time""
""fullscreenenter"",""1"",""75066""
","
","","","","","","1289.9000000059605","<p> The kids are happy.<div style='float: left;'><img src='images/i2.png' width = '640' height = '360'></img>","","0","instructions","","","","","","","","","","","","","",""
"learning-instructions","22","223629","0.0-8.0-0.0-0.14","1417","2","2","""event"",""trial"",""time""
""fullscreenenter"",""1"",""75066""
","
","
","""event"",""trial"",""time""
""fullscreenenter"",""1"",""75066""
","
","","","","","","598.9000000059605","<p> The kids are happy.<div style='float: left;'><img src='images/i3.png' width = '640' height = '360'></img>","","0","instructions","","","","","","","","","","","","","",""
"learning-instructions","23","226427","0.0-8.0-0.0-0.15","1417","2","2","""event"",""trial"",""time""
""fullscreenenter"",""1"",""75066""
","
","
","""event"",""trial"",""time""
""fullscreenenter"",""1"",""75066""
","
","","","","","","627.4000000059605","<p> The kids are happy.<div style='float: left;'><img src='images/i4.png' width = '640' height = '360'></img>","","0","instructions","","","","","","","","","","","","","",""
"learning-instructions","24","229247","0.0-8.0-0.0-0.16","1417","2","2","""event"",""trial"",""time""
""fullscreenenter"",""1"",""75066""
","
","
","""event"",""trial"",""time""
""fullscreenenter"",""1"",""75066""
","
","","","","","","598.9000000059605","<p> The kids are sad.<div style='float: left;'><img src='images/i5.png' width = '640' height = '360'></img>","","0","instructions","","","","","","","","","","","","","",""
"learning-instructions","25","232718","0.0-8.0-0.0-0.17","1417","2","2","""event"",""trial"",""time""
""fullscreenenter"",""1"",""75066""
","
","
","""event"",""trial"",""time""
""fullscreenenter"",""1"",""75066""
","
","","","","","","1278.3999999761581","<p> The kids are happy.<div style='float: left;'><img src='images/i6.png' width = '640' height = '360'></img>","","0","instructions","","","","","","","","","","","","","",""
"learning-instructions","26","242899","0.0-8.0-0.0-0.18","1417","2","2","""event"",""trial"",""time""
""fullscreenenter"",""1"",""75066""
","
","
","""event"",""trial"",""time""
""fullscreenenter"",""1"",""75066""
","
","","","","","","2909.4000000059605","<p> As you can see, selecting that park for the soccer ball made the kids happy most of the time, but not all the time.","","0","instructions","","","","","","","","","","","","","",""
"learning-instructions","27","249706","0.0-8.0-0.0-0.19","1417","2","2","""event"",""trial"",""time""
""fullscreenenter"",""1"",""75066""
","
","
","""event"",""trial"",""time""
""fullscreenenter"",""1"",""75066""
","
","","","","","","805.5999999940395","<p> Now let's see what happens if you choose a DIFFERENT park for the soccer ball 5 times.","","0","instructions","","","","","","","","","","","","","",""
"learning-instructions","28","252421","0.0-8.0-0.0-0.20","1417","2","2","""event"",""trial"",""time""
""fullscreenenter"",""1"",""75066""
","
","
","""event"",""trial"",""time""
""fullscreenenter"",""1"",""75066""
","
","","","","","","500.40000000596046","<p> The kids are sad.<div style='float: left;'><img src='images/i7.png' width = '640' height = '360'></img>","","0","instructions","","","","","","","","","","","","","",""
"learning-instructions","29","255099","0.0-8.0-0.0-0.21","1417","2","2","""event"",""trial"",""time""
""fullscreenenter"",""1"",""75066""
","
","
","""event"",""trial"",""time""
""fullscreenenter"",""1"",""75066""
","
","","","","","","469.5","<p> The kids are sad.<div style='float: left;'><img src='images/i8.png' width = '640' height = '360'></img>","","0","instructions","","","","","","","","","","","","","",""
"learning-instructions","30","257857","0.0-8.0-0.0-0.22","1417","2","2","""event"",""trial"",""time""
""fullscreenenter"",""1"",""75066""
","
","
","""event"",""trial"",""time""
""fullscreenenter"",""1"",""75066""
","
","","","","","","576.8999999761581","<p> The kids are happy.<div style='float: left;'><img src='images/i9.png' width = '640' height = '360'></img>","","0","instructions","","","","","","","","","","","","","",""
"learning-instructions","31","260589","0.0-8.0-0.0-0.23","1417","2","2","""event"",""trial"",""time""
""fullscreenenter"",""1"",""75066""
","
","
","""event"",""trial"",""time""
""fullscreenenter"",""1"",""75066""
","
","","","","","","508.09999999403954","<p> The kids are sad.<div style='float: left;'><img src='images/i10.png' width = '640' height = '360'></img>","","0","instructions","","","","","","","","","","","","","",""
"learning-instructions","32","264814","0.0-8.0-0.0-0.24","1417","2","2","""event"",""trial"",""time""
""fullscreenenter"",""1"",""75066""
","
","
","""event"",""trial"",""time""
""fullscreenenter"",""1"",""75066""
","
","","","","","","2012.5","<p> The kids are sad.<div style='float: left;'><img src='images/i11.png' width = '640' height = '360'></img>","","0","instructions","","","","","","","","","","","","","",""
"learning-instructions","33","274406","0.0-8.0-0.0-0.25","1417","2","2","""event"",""trial"",""time""
""fullscreenenter"",""1"",""75066""
","
","
","""event"",""trial"",""time""
""fullscreenenter"",""1"",""75066""
","
","","","","","","1476.7999999821186","<p> As you can see, selecting the wrong park for the soccer ball made the kids sad most of the time, but not all the time.","","0","instructions","","","","","","","","","","","","","",""
"learning-instructions","34","284407","0.0-8.0-0.0-0.26","1417","2","2","""event"",""trial"",""time""
""fullscreenenter"",""1"",""75066""
","
","
","""event"",""trial"",""time""
""fullscreenenter"",""1"",""75066""
","
","","","","","","886.8999999761581","<p> The different pieces of equipment belong in different parks. You need to try to learn which is the best park for each piece of equipment.","","0","instructions","","","","","","","","","","","","","",""
"learning-instructions","35","301945","0.0-8.0-0.0-0.27","1417","2","2","""event"",""trial"",""time""
""fullscreenenter"",""1"",""75066""
","
","
","""event"",""trial"",""time""
""fullscreenenter"",""1"",""75066""
","
","","","","","","1146.7000000178814","<p> Try to choose the best park for each piece of equipment, because you will <b> WIN </b> 1 point for each time you make the kids happy and <b>LOSE</b> 1 point for each time you make them sad. </p><p> Remember, if you make the best choice, you will win 1 point most of the time, but not all the time. </p>","","0","instructions","","","","","","","","","","","","","",""
"learning-instructions","36","308727","0.0-8.0-0.0-0.28","1417","2","2","""event"",""trial"",""time""
""fullscreenenter"",""1"",""75066""
","
","
","""event"",""trial"",""time""
""fullscreenenter"",""1"",""75066""
","
","","","","","","1298.7999999821186","<p> This is just a practice round, but in the real game, your bonus payment will depend on your total number of points.","","0","instructions","","","","","","","","","","","","","",""
"learning-instructions","37","320013","0.0-8.0-0.0-0.29","1417","2","2","""event"",""trial"",""time""
""fullscreenenter"",""1"",""75066""
","
","
","""event"",""trial"",""time""
""fullscreenenter"",""1"",""75066""
","
","","","","","","954.1999999880791","<p> The position where each park appears will change throughout the game. </p><p> The position where the park appears <i> does not </i> influence how likely the kids are to be happy or sad. </p>","","0","instructions","","","","","","","","","","","","","",""
"learning-instructions","38","330027","0.0-8.0-0.0-0.30","1417","2","2","""event"",""trial"",""time""
""fullscreenenter"",""1"",""75066""
","
","
","""event"",""trial"",""time""
""fullscreenenter"",""1"",""75066""
","
","","","","","","628.7999999821186","<p> You will have 4 seconds to make each choice. Try to respond before time runs out! </p><p> You will lose 1 point each time you do not make a response. </p>","","0","instructions","","","","","","","","","","","","","",""
"learning-instructions","39","337759","0.0-8.0-0.0-0.31","1417","2","2","""event"",""trial"",""time""
""fullscreenenter"",""1"",""75066""
","
","
","""event"",""trial"",""time""
""fullscreenenter"",""1"",""75066""
","
","","","","","","939.6000000238419","<p> Remember, you should use the 1, 2, and 3 keys to select the park for each piece of equipment. </p><br><div class=""choice-instructions-grid""> <div class=""choice-option""><img src=""images/park1.png"" class=""choice-option-img"" stage=""instructions"" position=""0"" ><div class=""choice-option-text""> Press ""1."" </div></div><div class=""choice-option""><img src=""images/park2.png"" class=""choice-option-img"" stage=""instructions"" position=""1"" ><div class=""choice-option-text""> Press ""2."" </div></div><div class=""choice-option""><img src=""images/park3.png"" class=""choice-option-img"" stage=""instructions"" position=""2"" ><div class=""choice-option-text""> Press ""3."" </div></div></div>","","0","instructions","","","","","","","","","","","","","",""
"html-button-response","40","339313","0.0-8.0-1.0","1417","2","2","""event"",""trial"",""time""
""fullscreenenter"",""1"",""75066""
","
","
","""event"",""trial"",""time""
""fullscreenenter"",""1"",""75066""
","
","","","","","","1445","<p> Ready to practice? </p>","0","","","","","","","","","","","","","","","",""
"html-keyboard-response","41","339923","0.0-8.0-2.0-0.0","1417","2","2","""event"",""trial"",""time""
""fullscreenenter"",""1"",""75066""
","
","
","""event"",""trial"",""time""
""fullscreenenter"",""1"",""75066""
","
","","","","","","null","<div style=""font-size:60px;"">+</div>","null","","fixation","","","","","","","","","","","","","",""
"learning-trial","42","343948","0.0-8.0-2.0-1.0","1417","2","2","""event"",""trial"",""time""
""fullscreenenter"",""1"",""75066""
","
","
","""event"",""trial"",""time""
""fullscreenenter"",""1"",""75066""
","
","","","","","","1105.199999988079","images/ball4.png","","","practice","images/park1.png","images/park3.png","images/park2.png","[0,2,1]","1","2","1","images/park1.png","-1","practice","","","",""
"html-keyboard-response","43","344457","0.0-8.0-2.0-0.1","1417","2","2","""event"",""trial"",""time""
""fullscreenenter"",""1"",""75066""
","
","
","""event"",""trial"",""time""
""fullscreenenter"",""1"",""75066""
","
","","","","","","null","<div style=""font-size:60px;"">+</div>","null","","fixation","","","","","","","","","","","","","",""
"learning-trial","44","348468","0.0-8.0-2.0-1.1","1417","2","2","""event"",""trial"",""time""
""fullscreenenter"",""1"",""75066""
","
","
","""event"",""trial"",""time""
""fullscreenenter"",""1"",""75066""
","
","","","","","","1226.9000000059605","images/ball1.png","","","practice","images/park1.png","images/park3.png","images/park2.png","[0,2,1]","1","2","2","images/park3.png","-1","practice","","","",""
"html-keyboard-response","45","348976","0.0-8.0-2.0-0.2","1417","2","2","""event"",""trial"",""time""
""fullscreenenter"",""1"",""75066""
","
","
","""event"",""trial"",""time""
""fullscreenenter"",""1"",""75066""
","
","","","","","","null","<div style=""font-size:60px;"">+</div>","null","","fixation","","","","","","","","","","","","","",""
"learning-trial","46","352988","0.0-8.0-2.0-1.2","1417","2","2","""event"",""trial"",""time""
""fullscreenenter"",""1"",""75066""
","
","
","""event"",""trial"",""time""
""fullscreenenter"",""1"",""75066""
","
","","","","","","1447.4000000059605","images/racket1.png","","","practice","images/park2.png","images/park1.png","images/park3.png","[1,0,2]","0","1","3","images/park3.png","-1","practice","","","",""
"html-keyboard-response","47","353490","0.0-8.0-2.0-0.3","1417","2","2","""event"",""trial"",""time""
""fullscreenenter"",""1"",""75066""
","
","
","""event"",""trial"",""time""
""fullscreenenter"",""1"",""75066""
","
","","","","","","null","<div style=""font-size:60px;"">+</div>","null","","fixation","","","","","","","","","","","","","",""
"learning-trial","48","357497","0.0-8.0-2.0-1.3","1417","2","2","""event"",""trial"",""time""
""fullscreenenter"",""1"",""75066""
","
","
","""event"",""trial"",""time""
""fullscreenenter"",""1"",""75066""
","
","","","","","","1704.300000011921","images/ball4.png","","","practice","images/park1.png","images/park3.png","images/park2.png","[0,2,1]","1","2","2","images/park3.png","-1","practice","","","",""
"html-keyboard-response","49","358012","0.0-8.0-2.0-0.4","1417","2","2","""event"",""trial"",""time""
""fullscreenenter"",""1"",""75066""
","
","
","""event"",""trial"",""time""
""fullscreenenter"",""1"",""75066""
","
","","","","","","null","<div style=""font-size:60px;"">+</div>","null","","fixation","","","","","","","","","","","","","",""
"learning-trial","50","362017","0.0-8.0-2.0-1.4","1417","2","2","""event"",""trial"",""time""
""fullscreenenter"",""1"",""75066""
","
","
","""event"",""trial"",""time""
""fullscreenenter"",""1"",""75066""
","
","","","","","","2908.5","images/ball2.png","","","practice","images/park2.png","images/park1.png","images/park3.png","[1,0,2]","2","2","1","images/park2.png","-1","practice","","","",""
"html-keyboard-response","51","362519","0.0-8.0-2.0-0.5","1417","2","2","""event"",""trial"",""time""
""fullscreenenter"",""1"",""75066""
","
","
","""event"",""trial"",""time""
""fullscreenenter"",""1"",""75066""
","
","","","","","","null","<div style=""font-size:60px;"">+</div>","null","","fixation","","","","","","","","","","","","","",""
"learning-trial","52","366537","0.0-8.0-2.0-1.5","1417","2","2","""event"",""trial"",""time""
""fullscreenenter"",""1"",""75066""
","
","
","""event"",""trial"",""time""
""fullscreenenter"",""1"",""75066""
","
","","","","","","1864.0999999940395","images/ball1.png","","","practice","images/park3.png","images/park1.png","images/park2.png","[2,0,1]","1","2","2","images/park1.png","-1","practice","","","",""
"html-keyboard-response","53","367051","0.0-8.0-2.0-0.6","1417","2","2","""event"",""trial"",""time""
""fullscreenenter"",""1"",""75066""
","
","
","""event"",""trial"",""time""
""fullscreenenter"",""1"",""75066""
","
","","","","","","null","<div style=""font-size:60px;"">+</div>","null","","fixation","","","","","","","","","","","","","",""
"learning-trial","54","371057","0.0-8.0-2.0-1.6","1417","2","2","""event"",""trial"",""time""
""fullscreenenter"",""1"",""75066""
","
","
","""event"",""trial"",""time""
""fullscreenenter"",""1"",""75066""
","
","","","","","","2047.1000000238419","images/racket3.png","","","practice","images/park1.png","images/park2.png","images/park3.png","[0,1,2]","0","0","3","images/park3.png","-1","practice","","","",""
"html-keyboard-response","55","371558","0.0-8.0-2.0-0.7","1417","2","2","""event"",""trial"",""time""
""fullscreenenter"",""1"",""75066""
","
","
","""event"",""trial"",""time""
""fullscreenenter"",""1"",""75066""
","
","","","","","","null","<div style=""font-size:60px;"">+</div>","null","","fixation","","","","","","","","","","","","","",""
"learning-trial","56","375566","0.0-8.0-2.0-1.7","1417","2","2","""event"",""trial"",""time""
""fullscreenenter"",""1"",""75066""
","
","
","""event"",""trial"",""time""
""fullscreenenter"",""1"",""75066""
","
","","","","","","1282.7000000178814","images/ball2.png","","","practice","images/park2.png","images/park1.png","images/park3.png","[1,0,2]","2","2","2","images/park1.png","1","practice","","","",""
"html-keyboard-response","57","376069","0.0-8.0-2.0-0.8","1417","2","2","""event"",""trial"",""time""
""fullscreenenter"",""1"",""75066""
","
","
","""event"",""trial"",""time""
""fullscreenenter"",""1"",""75066""
","
","","","","","","null","<div style=""font-size:60px;"">+</div>","null","","fixation","","","","","","","","","","","","","",""
"learning-trial","58","380075","0.0-8.0-2.0-1.8","1417","2","2","""event"",""trial"",""time""
""fullscreenenter"",""1"",""75066""
","
","
","""event"",""trial"",""time""
""fullscreenenter"",""1"",""75066""
","
","","","","","","1469.800000011921","images/racket3.png","","","practice","images/park1.png","images/park2.png","images/park3.png","[0,1,2]","0","0","1","images/park1.png","1","practice","","","",""
"html-keyboard-response","59","380577","0.0-8.0-2.0-0.9","1417","2","2","""event"",""trial"",""time""
""fullscreenenter"",""1"",""75066""
","
","
","""event"",""trial"",""time""
""fullscreenenter"",""1"",""75066""
","
","","","","","","null","<div style=""font-size:60px;"">+</div>","null","","fixation","","","","","","","","","","","","","",""
"learning-trial","60","384586","0.0-8.0-2.0-1.9","1417","2","2","""event"",""trial"",""time""
""fullscreenenter"",""1"",""75066""
","
","
","""event"",""trial"",""time""
""fullscreenenter"",""1"",""75066""
","
","","","","","","2477.5","images/racket2.png","","","practice","images/park2.png","images/park1.png","images/park3.png","[1,0,2]","2","2","1","images/park2.png","-1","practice","","","",""
"html-keyboard-response","61","385089","0.0-8.0-2.0-0.10","1417","2","2","""event"",""trial"",""time""
""fullscreenenter"",""1"",""75066""
","
","
","""event"",""trial"",""time""
""fullscreenenter"",""1"",""75066""
","
","","","","","","null","<div style=""font-size:60px;"">+</div>","null","","fixation","","","","","","","","","","","","","",""
"learning-trial","62","389103","0.0-8.0-2.0-1.10","1417","2","2","""event"",""trial"",""time""
""fullscreenenter"",""1"",""75066""
","
","
","""event"",""trial"",""time""
""fullscreenenter"",""1"",""75066""
","
","","","","","","1515.9000000059605","images/racket2.png","","","practice","images/park2.png","images/park1.png","images/park3.png","[1,0,2]","2","2","3","images/park3.png","1","practice","","","",""
"html-keyboard-response","63","389605","0.0-8.0-2.0-0.11","1417","2","2","""event"",""trial"",""time""
""fullscreenenter"",""1"",""75066""
","
","
","""event"",""trial"",""time""
""fullscreenenter"",""1"",""75066""
","
","","","","","","null","<div style=""font-size:60px;"">+</div>","null","","fixation","","","","","","","","","","","","","",""
"learning-trial","64","393609","0.0-8.0-2.0-1.11","1417","2","2","""event"",""trial"",""time""
""fullscreenenter"",""1"",""75066""
","
","
","""event"",""trial"",""time""
""fullscreenenter"",""1"",""75066""
","
","","","","","","3277.9000000059605","images/racket1.png","","","practice","images/park2.png","images/park3.png","images/park1.png","[1,2,0]","0","2","2","images/park3.png","-1","practice","","","",""
"html-button-response","65","399180","0.0-8.0-3.0","1417","2","2","""event"",""trial"",""time""
""fullscreenenter"",""1"",""75066""
","
","
","""event"",""trial"",""time""
""fullscreenenter"",""1"",""75066""
","
","","","","","","5569.0999999940395","<p> You earned -6 points in the practice round! </p>","0","","break","","","","","","","","","","","","","",""
"learning-instructions","66","408342","0.0-8.0-4.0-0.0","1417","2","2","""event"",""trial"",""time""
""fullscreenenter"",""1"",""75066""
","
","
","""event"",""trial"",""time""
""fullscreenenter"",""1"",""75066""
","
","","","","","","1417.2999999821186","<p> It's almost time to start the real game. </p><p> Before you start, we're going to ask you a few questions about how the game works. </p>","","0","instructions","","","","","","","","","","","","","",""
"preload","67","408678","0.0-8.0-5.0","1417","2","2","""event"",""trial"",""time""
""fullscreenenter"",""1"",""75066""
","
","
","""event"",""trial"",""time""
""fullscreenenter"",""1"",""75066""
","
","true","false","[]","[]","[]","","","","","","","","","","","","","","","","","","",""
"comp-q","68","415432","0.0-8.0-6.0-0.0","1417","2","2","""event"",""trial"",""time""
""fullscreenenter"",""1"",""75066""
","
","
","""event"",""trial"",""time""
""fullscreenenter"",""1"",""75066""
","
","","","","","","1305.2999999821186","<p> <b> True or False? </b> </p><p> If you choose the best option, you will always earn 1 point. </p>","","0","comp_question","","","","","","","","","","","false","","",""
"comp-q","69","423676","0.0-8.0-6.0-1.0","1417","2","2","""event"",""trial"",""time""
""fullscreenenter"",""1"",""75066""
","
","
","""event"",""trial"",""time""
""fullscreenenter"",""1"",""75066""
","
","","","","","","2679.300000011921","<p><b> Incorrect. </b> Sometimes you will lose 1 point, even if you choose the best option. </p>","","0","comp_answer","","","","","","","","","","","","","",""
"comp-q","70","429360","0.0-8.0-6.0-0.1","1417","2","2","""event"",""trial"",""time""
""fullscreenenter"",""1"",""75066""
","
","
","""event"",""trial"",""time""
""fullscreenenter"",""1"",""75066""
","
","","","","","","1045.5","<p> <b> True or False? </b> </p><p> You will have as much time as you want to make each choice. </p>","","1","comp_question","","","","","","","","","","","true","","",""
"comp-q","71","435476","0.0-8.0-6.0-1.1","1417","2","2","""event"",""trial"",""time""
""fullscreenenter"",""1"",""75066""
","
","
","""event"",""trial"",""time""
""fullscreenenter"",""1"",""75066""
","
","","","","","","1287.9000000059605","<p> <b> That's right! </b> You will only have 4 seconds to make each choice. </p>","","0","comp_answer","","","","","","","","","","","","","",""
"comp-q","72","442655","0.0-8.0-6.0-0.2","1417","2","2","""event"",""trial"",""time""
""fullscreenenter"",""1"",""75066""
","
","
","""event"",""trial"",""time""
""fullscreenenter"",""1"",""75066""
","
","","","","","","1030.0999999940395","<p> <b> True or False? </b> </p><p> You should use the '1', '2', and '3' keys to make your choices. </p>","","0","comp_question","","","","","","","","","","","true","","",""
"comp-q","73","448383","0.0-8.0-6.0-1.2","1417","2","2","""event"",""trial"",""time""
""fullscreenenter"",""1"",""75066""
","
","
","""event"",""trial"",""time""
""fullscreenenter"",""1"",""75066""
","
","","","","","","876.0999999940395","<p> <b> That's right! </b> You should use the '1', '2', and '3' keys to make each choice. </p>","","0","comp_answer","","","","","","","","","","","","","",""
"learning-instructions","74","458247","0.0-8.0-7.0-0.0","1417","2","2","""event"",""trial"",""time""
""fullscreenenter"",""1"",""75066""
","
","
","""event"",""trial"",""time""
""fullscreenenter"",""1"",""75066""
","
","","","","","","1362.1000000238419","<p> It's now time to start the real game. </p>Do your best, because the points you earn in the next rounds will influence your bonus payment. </p>","","0","instructions","","","","","","","","","","","","","",""
"preload","75","458643","0.0-9.0-0.0","1417","2","2","""event"",""trial"",""time""
""fullscreenenter"",""1"",""75066""
","
","
","""event"",""trial"",""time""
""fullscreenenter"",""1"",""75066""
","
","true","false","[]","[]","[]","","","","","","","","","","","","","","","","","","",""
"learning-instructions","76","466657","0.0-9.0-1.0-0.0","1417","2","2","""event"",""trial"",""time""
""fullscreenenter"",""1"",""75066""
","
","
","""event"",""trial"",""time""
""fullscreenenter"",""1"",""75066""
","
","","","","","","1551.2000000178814","<p> Your goal in this round is to feed all of your pets with the foods they like. </p><p> You will need to feed many pets. </p></div>","","0","instructions","","","","","","","","","","","","","",""
"learning-instructions","77","475905","0.0-9.0-1.0-0.1","1417","2","2","""event"",""trial"",""time""
""fullscreenenter"",""1"",""75066""
","
","
","""event"",""trial"",""time""
""fullscreenenter"",""1"",""75066""
","
","","","","","","1259","<p> On each turn, you will see a picture of one of your pets and three different types of foods.  </p><p> You need to select the food that you want to give to your pet.  </p>","","0","instructions","","","","","","","","","","","","","",""
"learning-instructions","78","483313","0.0-9.0-1.0-0.2","1417","2","2","""event"",""trial"",""time""
""fullscreenenter"",""1"",""75066""
","
","
","""event"",""trial"",""time""
""fullscreenenter"",""1"",""75066""
","
","","","","","","695.5999999940395","<p> You can select the food on the left by pressing 1, the food in the middle by pressing 2, and the food on the right by pressing 3. </p><br><div class=""choice-instructions-grid""> <div class=""choice-option""><img src=""images/pets_choice1.png"" class=""choice-option-img"" stage=""instructions"" position=""0"" ><div class=""choice-option-text""> Press ""1."" </div></div><div class=""choice-option""><img src=""images/pets_choice2.png"" class=""choice-option-img"" stage=""instructions"" position=""1"" ><div class=""choice-option-text""> Press ""2."" </div></div><div class=""choice-option""><img src=""images/pets_choice3.png"" class=""choice-option-img"" stage=""instructions"" position=""2"" ><div class=""choice-option-text""> Press ""3."" </div></div></div>","","0","instructions","","","","","","","","","","","","","",""
"learning-instructions","79","488593","0.0-9.0-1.0-0.3","1417","2","2","""event"",""trial"",""time""
""fullscreenenter"",""1"",""75066""
","
","
","""event"",""trial"",""time""
""fullscreenenter"",""1"",""75066""
","
","","","","","","1246.7000000178814","<p> If your pet likes the food you chose, it will be very happy! </p><div style='float: center;'><img src='images/check.png' width = '200' height = '200'></img>","","0","instructions","","","","","","","","","","","","","",""
"learning-instructions","80","493788","0.0-9.0-1.0-0.4","1417","2","2","""event"",""trial"",""time""
""fullscreenenter"",""1"",""75066""
","
","
","""event"",""trial"",""time""
""fullscreenenter"",""1"",""75066""
","
","","","","","","770.5","<p> But, if your pet does not like the food you chose, it will feel sick. </p><div style='float: center;'><img src='images/x.png' width = '200' height = '200'></img>","","0","instructions","","","","","","","","","","","","","",""
"learning-instructions","81","502303","0.0-9.0-1.0-0.5","1417","2","2","""event"",""trial"",""time""
""fullscreenenter"",""1"",""75066""
","
","
","""event"",""trial"",""time""
""fullscreenenter"",""1"",""75066""
","
","","","","","","869.3000000119209","<p> Importantly, each pet has a food that it prefers. </p><p> If you choose the food that the pet prefers, it will be more likely to be happy! </p>","","0","instructions","","","","","","","","","","","","","",""
"learning-instructions","82","512785","0.0-9.0-1.0-0.6","1417","2","2","""event"",""trial"",""time""
""fullscreenenter"",""1"",""75066""
","
","
","""event"",""trial"",""time""
""fullscreenenter"",""1"",""75066""
","
","","","","","","859.5","<p> However, even if you choose the food the pet prefers, it may still feel sick sometimes. </p><p> Similarly, even if you choose the <i>wrong</i> food, it may still feel happy.","","0","instructions","","","","","","","","","","","","","",""
"learning-instructions","83","528961","0.0-9.0-1.0-0.7","1417","2","2","""event"",""trial"",""time""
""fullscreenenter"",""1"",""75066""
","
","
","""event"",""trial"",""time""
""fullscreenenter"",""1"",""75066""
","
","","","","","","3365.5","<p> Try to choose the food each pet prefers, because you will <b> WIN </b> 1 point each time the pet is happy and <b>LOSE</b>  1 point each time the pet feels sick. </p><p> Your bonus payment will depend on your total number of points.","","0","instructions","","","","","","","","","","","","","",""
"learning-instructions","84","538475","0.0-9.0-1.0-0.8","1417","2","2","""event"",""trial"",""time""
""fullscreenenter"",""1"",""75066""
","
","
","""event"",""trial"",""time""
""fullscreenenter"",""1"",""75066""
","
","","","","","","899.7000000178814","<p> The position of each food will change throughout the round. </p><p> The food's position <i> does not </i> influence how likely the pet is to feel happy or sick. </p>","","0","instructions","","","","","","","","","","","","","",""
"learning-instructions","85","548646","0.0-9.0-1.0-0.9","1417","2","2","""event"",""trial"",""time""
""fullscreenenter"",""1"",""75066""
","
","
","""event"",""trial"",""time""
""fullscreenenter"",""1"",""75066""
","
","","","","","","879.4000000059605","<p> You will have 4 seconds to make each choice. Try to respond before time runs out! </p><p> You will lose 1 point each time you do not make a response. </p>","","0","instructions","","","","","","","","","","","","","",""
"html-keyboard-response","86","549257","0.0-9.0-2.0-0.0","1417","2","2","""event"",""trial"",""time""
""fullscreenenter"",""1"",""75066""
","
","
","""event"",""trial"",""time""
""fullscreenenter"",""1"",""75066""
","
","","","","","","null","<div style=""font-size:60px;"">+</div>","null","","fixation","","","","","","","","","","","","","",""
"learning-trial","87","553283","0.0-9.0-2.0-1.0","1417","2","2","""event"",""trial"",""time""
""fullscreenenter"",""1"",""75066""
","
","
","""event"",""trial"",""time""
""fullscreenenter"",""1"",""75066""
","
","","","","","","1227.2999999821186","images/rabbit2.png","","","learning","images/pets_choice3.png","images/pets_choice1.png","images/pets_choice2.png","[2,0,1]","1","2","2","images/pets_choice1.png","-1","pets","","rabbit","2","0"
"html-keyboard-response","88","553803","0.0-9.0-2.0-0.1","1417","2","2","""event"",""trial"",""time""
""fullscreenenter"",""1"",""75066""
","
","
","""event"",""trial"",""time""
""fullscreenenter"",""1"",""75066""
","
","","","","","","null","<div style=""font-size:60px;"">+</div>","null","","fixation","","","","","","","","","","","","","",""
"learning-trial","89","557813","0.0-9.0-2.0-1.1","1417","2","2","""event"",""trial"",""time""
""fullscreenenter"",""1"",""75066""
","
","
","""event"",""trial"",""time""
""fullscreenenter"",""1"",""75066""
","
","","","","","","1876.4000000059605","images/dog4.png","","","learning","images/pets_choice2.png","images/pets_choice3.png","images/pets_choice1.png","[1,2,0]","2","1","3","images/pets_choice1.png","-1","pets","","dog","2","0"
"html-keyboard-response","90","558323","0.0-9.0-2.0-0.2","1417","2","2","""event"",""trial"",""time""
""fullscreenenter"",""1"",""75066""
","
","
","""event"",""trial"",""time""
""fullscreenenter"",""1"",""75066""
","
","","","","","","null","<div style=""font-size:60px;"">+</div>","null","","fixation","","","","","","","","","","","","","",""
"learning-trial","91","562334","0.0-9.0-2.0-1.2","1417","2","2","""event"",""trial"",""time""
""fullscreenenter"",""1"",""75066""
","
","
","""event"",""trial"",""time""
""fullscreenenter"",""1"",""75066""
","
","","","","","","3300.7000000178814","images/dog4.png","","","learning","images/pets_choice3.png","images/pets_choice1.png","images/pets_choice2.png","[2,0,1]","2","0","3","images/pets_choice2.png","-1","pets","","dog","2","0"
"html-keyboard-response","92","562843","0.0-9.0-2.0-0.3","1417","2","2","""event"",""trial"",""time""
""fullscreenenter"",""1"",""75066""
","
","
","""event"",""trial"",""time""
""fullscreenenter"",""1"",""75066""
","
","","","","","","null","<div style=""font-size:60px;"">+</div>","null","","fixation","","","","","","","","","","","","","",""
"learning-trial","93","566853","0.0-9.0-2.0-1.3","1417","2","2","""event"",""trial"",""time""
""fullscreenenter"",""1"",""75066""
","
","
","""event"",""trial"",""time""
""fullscreenenter"",""1"",""75066""
","
","","","","","","1588.4000000059605","images/rodent2.png","","","learning","images/pets_choice1.png","images/pets_choice3.png","images/pets_choice2.png","[0,2,1]","1","2","2","images/pets_choice3.png","-1","pets","","rodent","2","0"
"html-keyboard-response","94","567372","0.0-9.0-2.0-0.4","1417","2","2","""event"",""trial"",""time""
""fullscreenenter"",""1"",""75066""
","
","
","""event"",""trial"",""time""
""fullscreenenter"",""1"",""75066""
","
","","","","","","null","<div style=""font-size:60px;"">+</div>","null","","fixation","","","","","","","","","","","","","",""
"learning-trial","95","571375","0.0-9.0-2.0-1.4","1417","2","2","""event"",""trial"",""time""
""fullscreenenter"",""1"",""75066""
","
","
","""event"",""trial"",""time""
""fullscreenenter"",""1"",""75066""
","
","","","","","","870.3000000119209","images/rodent3.png","","","learning","images/pets_choice2.png","images/pets_choice3.png","images/pets_choice1.png","[1,2,0]","0","2","1","images/pets_choice2.png","-1","pets","","rodent","2","0"
"html-keyboard-response","96","571882","0.0-9.0-2.0-0.5","1417","2","2","""event"",""trial"",""time""
""fullscreenenter"",""1"",""75066""
","
","
","""event"",""trial"",""time""
""fullscreenenter"",""1"",""75066""
","
","","","","","","null","<div style=""font-size:60px;"">+</div>","null","","fixation","","","","","","","","","","","","","",""
"learning-trial","97","575893","0.0-9.0-2.0-1.5","1417","2","2","""event"",""trial"",""time""
""fullscreenenter"",""1"",""75066""
","
","
","""event"",""trial"",""time""
""fullscreenenter"",""1"",""75066""
","
","","","","","","2144.800000011921","images/rodent4.png","","","learning","images/pets_choice2.png","images/pets_choice1.png","images/pets_choice3.png","[1,0,2]","2","2","2","images/pets_choice1.png","-1","pets","","rodent","2","0"
"html-keyboard-response","98","576412","0.0-9.0-2.0-0.6","1417","2","2","""event"",""trial"",""time""
""fullscreenenter"",""1"",""75066""
","
","
","""event"",""trial"",""time""
""fullscreenenter"",""1"",""75066""
","
","","","","","","null","<div style=""font-size:60px;"">+</div>","null","","fixation","","","","","","","","","","","","","",""
"learning-trial","99","580420","0.0-9.0-2.0-1.6","1417","2","2","""event"",""trial"",""time""
""fullscreenenter"",""1"",""75066""
","
","
","""event"",""trial"",""time""
""fullscreenenter"",""1"",""75066""
","
","","","","","","3000.600000023842","images/rabbit2.png","","","learning","images/pets_choice2.png","images/pets_choice3.png","images/pets_choice1.png","[1,2,0]","1","0","2","images/pets_choice3.png","-1","pets","","rabbit","2","0"
"html-keyboard-response","100","580922","0.0-9.0-2.0-0.7","1417","2","2","""event"",""trial"",""time""
""fullscreenenter"",""1"",""75066""
","
","
","""event"",""trial"",""time""
""fullscreenenter"",""1"",""75066""
","
","","","","","","null","<div style=""font-size:60px;"">+</div>","null","","fixation","","","","","","","","","","","","","",""
"learning-trial","101","584930","0.0-9.0-2.0-1.7","1417","2","2","""event"",""trial"",""time""
""fullscreenenter"",""1"",""75066""
","
","
","""event"",""trial"",""time""
""fullscreenenter"",""1"",""75066""
","
","","","","","","785.9000000059605","images/dog5.png","","","learning","images/pets_choice3.png","images/pets_choice1.png","images/pets_choice2.png","[2,0,1]","0","1","1","images/pets_choice3.png","-1","pets","","dog","2","0"
"html-keyboard-response","102","585432","0.0-9.0-2.0-0.8","1417","2","2","""event"",""trial"",""time""
""fullscreenenter"",""1"",""75066""
","
","
","""event"",""trial"",""time""
""fullscreenenter"",""1"",""75066""
","
","","","","","","null","<div style=""font-size:60px;"">+</div>","null","","fixation","","","","","","","","","","","","","",""
"learning-trial","103","589440","0.0-9.0-2.0-1.8","1417","2","2","""event"",""trial"",""time""
""fullscreenenter"",""1"",""75066""
","
","
","""event"",""trial"",""time""
""fullscreenenter"",""1"",""75066""
","
","","","","","","675.6999999880791","images/dog4.png","","","learning","images/pets_choice3.png","images/pets_choice2.png","images/pets_choice1.png","[2,1,0]","2","0","2","images/pets_choice2.png","-1","pets","","dog","2","0"
"html-keyboard-response","104","589941","0.0-9.0-2.0-0.9","1417","2","2","""event"",""trial"",""time""
""fullscreenenter"",""1"",""75066""
","
","
","""event"",""trial"",""time""
""fullscreenenter"",""1"",""75066""
","
","","","","","","null","<div style=""font-size:60px;"">+</div>","null","","fixation","","","","","","","","","","","","","",""
"learning-trial","105","593947","0.0-9.0-2.0-1.9","1417","2","2","""event"",""trial"",""time""
""fullscreenenter"",""1"",""75066""
","
","
","""event"",""trial"",""time""
""fullscreenenter"",""1"",""75066""
","
","","","","","","2018.8999999761581","images/rabbit2.png","","","learning","images/pets_choice3.png","images/pets_choice1.png","images/pets_choice2.png","[2,0,1]","1","2","3","images/pets_choice2.png","1","pets","","rabbit","2","0"
"html-keyboard-response","106","594449","0.0-9.0-2.0-0.10","1417","2","2","""event"",""trial"",""time""
""fullscreenenter"",""1"",""75066""
","
","
","""event"",""trial"",""time""
""fullscreenenter"",""1"",""75066""
","
","","","","","","null","<div style=""font-size:60px;"">+</div>","null","","fixation","","","","","","","","","","","","","",""
"learning-trial","107","598453","0.0-9.0-2.0-1.10","1417","2","2","""event"",""trial"",""time""
""fullscreenenter"",""1"",""75066""
","
","
","""event"",""trial"",""time""
""fullscreenenter"",""1"",""75066""
","
","","","","","","670.1999999880791","images/dog4.png","","","learning","images/pets_choice1.png","images/pets_choice3.png","images/pets_choice2.png","[0,2,1]","2","1","3","images/pets_choice2.png","1","pets","","dog","2","0"
"html-keyboard-response","108","598956","0.0-9.0-2.0-0.11","1417","2","2","""event"",""trial"",""time""
""fullscreenenter"",""1"",""75066""
","
","
","""event"",""trial"",""time""
""fullscreenenter"",""1"",""75066""
","
","","","","","","null","<div style=""font-size:60px;"">+</div>","null","","fixation","","","","","","","","","","","","","",""
"learning-trial","109","602960","0.0-9.0-2.0-1.11","1417","2","2","""event"",""trial"",""time""
""fullscreenenter"",""1"",""75066""
","
","
","""event"",""trial"",""time""
""fullscreenenter"",""1"",""75066""
","
","","","","","","842.5","images/rodent2.png","","","learning","images/pets_choice1.png","images/pets_choice2.png","images/pets_choice3.png","[0,1,2]","1","1","2","images/pets_choice2.png","1","pets","","rodent","2","0"
"html-keyboard-response","110","603463","0.0-9.0-2.0-0.12","1417","2","2","""event"",""trial"",""time""
""fullscreenenter"",""1"",""75066""
","
","
","""event"",""trial"",""time""
""fullscreenenter"",""1"",""75066""
","
","","","","","","null","<div style=""font-size:60px;"">+</div>","null","","fixation","","","","","","","","","","","","","",""
"learning-trial","111","607472","0.0-9.0-2.0-1.12","1417","2","2","""event"",""trial"",""time""
""fullscreenenter"",""1"",""75066""
","
","
","""event"",""trial"",""time""
""fullscreenenter"",""1"",""75066""
","
","","","","","","844.6999999880791","images/dog3.png","","","learning","images/pets_choice2.png","images/pets_choice3.png","images/pets_choice1.png","[1,2,0]","1","0","1","images/pets_choice2.png","1","pets","","dog","2","0"
"html-keyboard-response","112","607974","0.0-9.0-2.0-0.13","1417","2","2","""event"",""trial"",""time""
""fullscreenenter"",""1"",""75066""
","
","
","""event"",""trial"",""time""
""fullscreenenter"",""1"",""75066""
","
","","","","","","null","<div style=""font-size:60px;"">+</div>","null","","fixation","","","","","","","","","","","","","",""
"learning-trial","113","611977","0.0-9.0-2.0-1.13","1417","2","2","""event"",""trial"",""time""
""fullscreenenter"",""1"",""75066""
","
","
","""event"",""trial"",""time""
""fullscreenenter"",""1"",""75066""
","
","","","","","","627.1999999880791","images/rabbit2.png","","","learning","images/pets_choice1.png","images/pets_choice3.png","images/pets_choice2.png","[0,2,1]","1","2","3","images/pets_choice2.png","1","pets","","rabbit","2","0"
"html-keyboard-response","114","612479","0.0-9.0-2.0-0.14","1417","2","2","""event"",""trial"",""time""
""fullscreenenter"",""1"",""75066""
","
","
","""event"",""trial"",""time""
""fullscreenenter"",""1"",""75066""
","
","","","","","","null","<div style=""font-size:60px;"">+</div>","null","","fixation","","","","","","","","","","","","","",""
"learning-trial","115","616487","0.0-9.0-2.0-1.14","1417","2","2","""event"",""trial"",""time""
""fullscreenenter"",""1"",""75066""
","
","
","""event"",""trial"",""time""
""fullscreenenter"",""1"",""75066""
","
","","","","","","886.4000000059605","images/rabbit4.png","","","learning","images/pets_choice3.png","images/pets_choice2.png","images/pets_choice1.png","[2,1,0]","2","0","2","images/pets_choice2.png","-1","pets","","rabbit","2","0"
"html-keyboard-response","116","616989","0.0-9.0-2.0-0.15","1417","2","2","""event"",""trial"",""time""
""fullscreenenter"",""1"",""75066""
","
","
","""event"",""trial"",""time""
""fullscreenenter"",""1"",""75066""
","
","","","","","","null","<div style=""font-size:60px;"">+</div>","null","","fixation","","","","","","","","","","","","","",""
"learning-trial","117","620997","0.0-9.0-2.0-1.15","1417","2","2","""event"",""trial"",""time""
""fullscreenenter"",""1"",""75066""
","
","
","""event"",""trial"",""time""
""fullscreenenter"",""1"",""75066""
","
","","","","","","997.5","images/rodent2.png","","","learning","images/pets_choice3.png","images/pets_choice1.png","images/pets_choice2.png","[2,0,1]","1","2","3","images/pets_choice2.png","1","pets","","rodent","2","0"
"html-keyboard-response","118","621499","0.0-9.0-2.0-0.16","1417","2","2","""event"",""trial"",""time""
""fullscreenenter"",""1"",""75066""
","
","
","""event"",""trial"",""time""
""fullscreenenter"",""1"",""75066""
","
","","","","","","null","<div style=""font-size:60px;"">+</div>","null","","fixation","","","","","","","","","","","","","",""
"learning-trial","119","625505","0.0-9.0-2.0-1.16","1417","2","2","""event"",""trial"",""time""
""fullscreenenter"",""1"",""75066""
","
","
","""event"",""trial"",""time""
""fullscreenenter"",""1"",""75066""
","
","","","","","","1728.6000000238419","images/rabbit1.png","","","learning","images/pets_choice1.png","images/pets_choice2.png","images/pets_choice3.png","[0,1,2]","0","0","2","images/pets_choice2.png","-1","pets","","rabbit","2","0"
"html-keyboard-response","120","626007","0.0-9.0-2.0-0.17","1417","2","2","""event"",""trial"",""time""
""fullscreenenter"",""1"",""75066""
","
","
","""event"",""trial"",""time""
""fullscreenenter"",""1"",""75066""
","
","","","","","","null","<div style=""font-size:60px;"">+</div>","null","","fixation","","","","","","","","","","","","","",""
"learning-trial","121","630013","0.0-9.0-2.0-1.17","1417","2","2","""event"",""trial"",""time""
""fullscreenenter"",""1"",""75066""
","
","
","""event"",""trial"",""time""
""fullscreenenter"",""1"",""75066""
","
","","","","","","665.9000000059605","images/rabbit2.png","","","learning","images/pets_choice1.png","images/pets_choice3.png","images/pets_choice2.png","[0,2,1]","1","2","3","images/pets_choice2.png","1","pets","","rabbit","2","0"
"html-keyboard-response","122","630515","0.0-9.0-2.0-0.18","1417","2","2","""event"",""trial"",""time""
""fullscreenenter"",""1"",""75066""
","
","
","""event"",""trial"",""time""
""fullscreenenter"",""1"",""75066""
","
","","","","","","null","<div style=""font-size:60px;"">+</div>","null","","fixation","","","","","","","","","","","","","",""
"learning-trial","123","634522","0.0-9.0-2.0-1.18","1417","2","2","""event"",""trial"",""time""
""fullscreenenter"",""1"",""75066""
","
","
","""event"",""trial"",""time""
""fullscreenenter"",""1"",""75066""
","
","","","","","","1114.699999988079","images/rodent2.png","","","learning","images/pets_choice3.png","images/pets_choice2.png","images/pets_choice1.png","[2,1,0]","1","1","2","images/pets_choice2.png","1","pets","","rodent","2","0"
"html-keyboard-response","124","635023","0.0-9.0-2.0-0.19","1417","2","2","""event"",""trial"",""time""
""fullscreenenter"",""1"",""75066""
","
","
","""event"",""trial"",""time""
""fullscreenenter"",""1"",""75066""
","
","","","","","","null","<div style=""font-size:60px;"">+</div>","null","","fixation","","","","","","","","","","","","","",""
"learning-trial","125","639027","0.0-9.0-2.0-1.19","1417","2","2","""event"",""trial"",""time""
""fullscreenenter"",""1"",""75066""
","
","
","""event"",""trial"",""time""
""fullscreenenter"",""1"",""75066""
","
","","","","","","1096.800000011921","images/dog5.png","","","learning","images/pets_choice1.png","images/pets_choice2.png","images/pets_choice3.png","[0,1,2]","0","0","2","images/pets_choice2.png","-1","pets","","dog","2","0"
"html-keyboard-response","126","639530","0.0-9.0-2.0-0.20","1417","2","2","""event"",""trial"",""time""
""fullscreenenter"",""1"",""75066""
","
","
","""event"",""trial"",""time""
""fullscreenenter"",""1"",""75066""
","
","","","","","","null","<div style=""font-size:60px;"">+</div>","null","","fixation","","","","","","","","","","","","","",""
"learning-trial","127","643540","0.0-9.0-2.0-1.20","1417","2","2","""event"",""trial"",""time""
""fullscreenenter"",""1"",""75066""
","
","
","""event"",""trial"",""time""
""fullscreenenter"",""1"",""75066""
","
","","","","","","713.8000000119209","images/rodent4.png","","","learning","images/pets_choice3.png","images/pets_choice2.png","images/pets_choice1.png","[2,1,0]","2","0","2","images/pets_choice2.png","-1","pets","","rodent","2","0"
"html-keyboard-response","128","644043","0.0-9.0-2.0-0.21","1417","2","2","""event"",""trial"",""time""
""fullscreenenter"",""1"",""75066""
","
","
","""event"",""trial"",""time""
""fullscreenenter"",""1"",""75066""
","
","","","","","","null","<div style=""font-size:60px;"">+</div>","null","","fixation","","","","","","","","","","","","","",""
"learning-trial","129","648046","0.0-9.0-2.0-1.21","1417","2","2","""event"",""trial"",""time""
""fullscreenenter"",""1"",""75066""
","
","
","""event"",""trial"",""time""
""fullscreenenter"",""1"",""75066""
","
","","","","","","698.5999999940395","images/dog5.png","","","learning","images/pets_choice1.png","images/pets_choice3.png","images/pets_choice2.png","[0,2,1]","0","0","3","images/pets_choice2.png","-1","pets","","dog","2","0"
"html-keyboard-response","130","648549","0.0-9.0-2.0-0.22","1417","2","2","""event"",""trial"",""time""
""fullscreenenter"",""1"",""75066""
","
","
","""event"",""trial"",""time""
""fullscreenenter"",""1"",""75066""
","
","","","","","","null","<div style=""font-size:60px;"">+</div>","null","","fixation","","","","","","","","","","","","","",""
"learning-trial","131","652556","0.0-9.0-2.0-1.22","1417","2","2","""event"",""trial"",""time""
""fullscreenenter"",""1"",""75066""
","
","
","""event"",""trial"",""time""
""fullscreenenter"",""1"",""75066""
","
","","","","","","889.3000000119209","images/rodent3.png","","","learning","images/pets_choice2.png","images/pets_choice3.png","images/pets_choice1.png","[1,2,0]","0","2","1","images/pets_choice2.png","-1","pets","","rodent","2","0"
"html-keyboard-response","132","653060","0.0-9.0-2.0-0.23","1417","2","2","""event"",""trial"",""time""
""fullscreenenter"",""1"",""75066""
","
","
","""event"",""trial"",""time""
""fullscreenenter"",""1"",""75066""
","
","","","","","","null","<div style=""font-size:60px;"">+</div>","null","","fixation","","","","","","","","","","","","","",""
"learning-trial","133","657069","0.0-9.0-2.0-1.23","1417","2","2","""event"",""trial"",""time""
""fullscreenenter"",""1"",""75066""
","
","
","""event"",""trial"",""time""
""fullscreenenter"",""1"",""75066""
","
","","","","","","1543","images/rodent4.png","","","learning","images/pets_choice1.png","images/pets_choice3.png","images/pets_choice2.png","[0,2,1]","2","1","2","images/pets_choice3.png","1","pets","","rodent","2","0"
"html-keyboard-response","134","657571","0.0-9.0-2.0-0.24","1417","2","2","""event"",""trial"",""time""
""fullscreenenter"",""1"",""75066""
","
","
","""event"",""trial"",""time""
""fullscreenenter"",""1"",""75066""
","
","","","","","","null","<div style=""font-size:60px;"">+</div>","null","","fixation","","","","","","","","","","","","","",""
"learning-trial","135","661577","0.0-9.0-2.0-1.24","1417","2","2","""event"",""trial"",""time""
""fullscreenenter"",""1"",""75066""
","
","
","""event"",""trial"",""time""
""fullscreenenter"",""1"",""75066""
","
","","","","","","865.5999999940395","images/rabbit2.png","","","learning","images/pets_choice2.png","images/pets_choice1.png","images/pets_choice3.png","[1,0,2]","1","0","3","images/pets_choice3.png","-1","pets","","rabbit","2","0"
"html-keyboard-response","136","662080","0.0-9.0-2.0-0.25","1417","2","2","""event"",""trial"",""time""
""fullscreenenter"",""1"",""75066""
","
","
","""event"",""trial"",""time""
""fullscreenenter"",""1"",""75066""
","
","","","","","","null","<div style=""font-size:60px;"">+</div>","null","","fixation","","","","","","","","","","","","","",""
"learning-trial","137","666087","0.0-9.0-2.0-1.25","1417","2","2","""event"",""trial"",""time""
""fullscreenenter"",""1"",""75066""
","
","
","""event"",""trial"",""time""
""fullscreenenter"",""1"",""75066""
","
","","","","","","926.1000000238419","images/rodent3.png","","","learning","images/pets_choice3.png","images/pets_choice2.png","images/pets_choice1.png","[2,1,0]","0","2","2","images/pets_choice2.png","-1","pets","","rodent","2","0"
"html-keyboard-response","138","666590","0.0-9.0-2.0-0.26","1417","2","2","""event"",""trial"",""time""
""fullscreenenter"",""1"",""75066""
","
","
","""event"",""trial"",""time""
""fullscreenenter"",""1"",""75066""
","
","","","","","","null","<div style=""font-size:60px;"">+</div>","null","","fixation","","","","","","","","","","","","","",""
"learning-trial","139","670598","0.0-9.0-2.0-1.26","1417","2","2","""event"",""trial"",""time""
""fullscreenenter"",""1"",""75066""
","
","
","""event"",""trial"",""time""
""fullscreenenter"",""1"",""75066""
","
","","","","","","1473.300000011921","images/rodent2.png","","","learning","images/pets_choice1.png","images/pets_choice2.png","images/pets_choice3.png","[0,1,2]","1","1","2","images/pets_choice2.png","1","pets","","rodent","2","0"
"html-keyboard-response","140","671100","0.0-9.0-2.0-0.27","1417","2","2","""event"",""trial"",""time""
""fullscreenenter"",""1"",""75066""
","
","
","""event"",""trial"",""time""
""fullscreenenter"",""1"",""75066""
","
","","","","","","null","<div style=""font-size:60px;"">+</div>","null","","fixation","","","","","","","","","","","","","",""
"learning-trial","141","675106","0.0-9.0-2.0-1.27","1417","2","2","""event"",""trial"",""time""
""fullscreenenter"",""1"",""75066""
","
","
","""event"",""trial"",""time""
""fullscreenenter"",""1"",""75066""
","
","","","","","","2380.9000000059605","images/rabbit1.png","","","learning","images/pets_choice2.png","images/pets_choice1.png","images/pets_choice3.png","[1,0,2]","0","1","2","images/pets_choice1.png","1","pets","","rabbit","2","0"
"html-keyboard-response","142","675608","0.0-9.0-2.0-0.28","1417","2","2","""event"",""trial"",""time""
""fullscreenenter"",""1"",""75066""
","
","
","""event"",""trial"",""time""
""fullscreenenter"",""1"",""75066""
","
","","","","","","null","<div style=""font-size:60px;"">+</div>","null","","fixation","","","","","","","","","","","","","",""
"learning-trial","143","679611","0.0-9.0-2.0-1.28","1417","2","2","""event"",""trial"",""time""
""fullscreenenter"",""1"",""75066""
","
","
","""event"",""trial"",""time""
""fullscreenenter"",""1"",""75066""
","
","","","","","","2947.699999988079","images/rabbit4.png","","","learning","images/pets_choice1.png","images/pets_choice2.png","images/pets_choice3.png","[0,1,2]","2","2","1","images/pets_choice1.png","-1","pets","","rabbit","2","0"
"html-keyboard-response","144","680114","0.0-9.0-2.0-0.29","1417","2","2","""event"",""trial"",""time""
""fullscreenenter"",""1"",""75066""
","
","
","""event"",""trial"",""time""
""fullscreenenter"",""1"",""75066""
","
","","","","","","null","<div style=""font-size:60px;"">+</div>","null","","fixation","","","","","","","","","","","","","",""
"learning-trial","145","684121","0.0-9.0-2.0-1.29","1417","2","2","""event"",""trial"",""time""
""fullscreenenter"",""1"",""75066""
","
","
","""event"",""trial"",""time""
""fullscreenenter"",""1"",""75066""
","
","","","","","","2388.199999988079","images/dog3.png","","","learning","images/pets_choice2.png","images/pets_choice1.png","images/pets_choice3.png","[1,0,2]","1","0","2","images/pets_choice1.png","-1","pets","","dog","2","0"
"html-keyboard-response","146","684623","0.0-9.0-2.0-0.30","1417","2","2","""event"",""trial"",""time""
""fullscreenenter"",""1"",""75066""
","
","
","""event"",""trial"",""time""
""fullscreenenter"",""1"",""75066""
","
","","","","","","null","<div style=""font-size:60px;"">+</div>","null","","fixation","","","","","","","","","","","","","",""
"learning-trial","147","688627","0.0-9.0-2.0-1.30","1417","2","2","""event"",""trial"",""time""
""fullscreenenter"",""1"",""75066""
","
","
","""event"",""trial"",""time""
""fullscreenenter"",""1"",""75066""
","
","","","","","","1653.800000011921","images/rodent4.png","","","learning","images/pets_choice1.png","images/pets_choice2.png","images/pets_choice3.png","[0,1,2]","2","2","2","images/pets_choice2.png","-1","pets","","rodent","2","0"
"html-keyboard-response","148","689129","0.0-9.0-2.0-0.31","1417","2","2","""event"",""trial"",""time""
""fullscreenenter"",""1"",""75066""
","
","
","""event"",""trial"",""time""
""fullscreenenter"",""1"",""75066""
","
","","","","","","null","<div style=""font-size:60px;"">+</div>","null","","fixation","","","","","","","","","","","","","",""
"learning-trial","149","693136","0.0-9.0-2.0-1.31","1417","2","2","""event"",""trial"",""time""
""fullscreenenter"",""1"",""75066""
","
","
","""event"",""trial"",""time""
""fullscreenenter"",""1"",""75066""
","
","","","","","","2235.4000000059605","images/rabbit4.png","","","learning","images/pets_choice3.png","images/pets_choice1.png","images/pets_choice2.png","[2,0,1]","2","0","1","images/pets_choice3.png","1","pets","","rabbit","2","0"
"html-keyboard-response","150","693638","0.0-9.0-2.0-0.32","1417","2","2","""event"",""trial"",""time""
""fullscreenenter"",""1"",""75066""
","
","
","""event"",""trial"",""time""
""fullscreenenter"",""1"",""75066""
","
","","","","","","null","<div style=""font-size:60px;"">+</div>","null","","fixation","","","","","","","","","","","","","",""
"learning-trial","151","697645","0.0-9.0-2.0-1.32","1417","2","2","""event"",""trial"",""time""
""fullscreenenter"",""1"",""75066""
","
","
","""event"",""trial"",""time""
""fullscreenenter"",""1"",""75066""
","
","","","","","","1393.699999988079","images/rabbit4.png","","","learning","images/pets_choice3.png","images/pets_choice1.png","images/pets_choice2.png","[2,0,1]","2","0","1","images/pets_choice3.png","1","pets","","rabbit","2","0"
"html-keyboard-response","152","698148","0.0-9.0-2.0-0.33","1417","2","2","""event"",""trial"",""time""
""fullscreenenter"",""1"",""75066""
","
","
","""event"",""trial"",""time""
""fullscreenenter"",""1"",""75066""
","
","","","","","","null","<div style=""font-size:60px;"">+</div>","null","","fixation","","","","","","","","","","","","","",""
"learning-trial","153","702154","0.0-9.0-2.0-1.33","1417","2","2","""event"",""trial"",""time""
""fullscreenenter"",""1"",""75066""
","
","
","""event"",""trial"",""time""
""fullscreenenter"",""1"",""75066""
","
","","","","","","1271.9000000059605","images/dog4.png","","","learning","images/pets_choice3.png","images/pets_choice2.png","images/pets_choice1.png","[2,1,0]","2","0","2","images/pets_choice2.png","-1","pets","","dog","2","0"
"html-keyboard-response","154","702656","0.0-9.0-2.0-0.34","1417","2","2","""event"",""trial"",""time""
""fullscreenenter"",""1"",""75066""
","
","
","""event"",""trial"",""time""
""fullscreenenter"",""1"",""75066""
","
","","","","","","null","<div style=""font-size:60px;"">+</div>","null","","fixation","","","","","","","","","","","","","",""
"learning-trial","155","706663","0.0-9.0-2.0-1.34","1417","2","2","""event"",""trial"",""time""
""fullscreenenter"",""1"",""75066""
","
","
","""event"",""trial"",""time""
""fullscreenenter"",""1"",""75066""
","
","","","","","","1232.8999999761581","images/rodent4.png","","","learning","images/pets_choice2.png","images/pets_choice1.png","images/pets_choice3.png","[1,0,2]","2","2","1","images/pets_choice2.png","1","pets","","rodent","2","0"
"html-keyboard-response","156","707165","0.0-9.0-2.0-0.35","1417","2","2","""event"",""trial"",""time""
""fullscreenenter"",""1"",""75066""
","
","
","""event"",""trial"",""time""
""fullscreenenter"",""1"",""75066""
","
","","","","","","null","<div style=""font-size:60px;"">+</div>","null","","fixation","","","","","","","","","","","","","",""
"learning-trial","157","711169","0.0-9.0-2.0-1.35","1417","2","2","""event"",""trial"",""time""
""fullscreenenter"",""1"",""75066""
","
","
","""event"",""trial"",""time""
""fullscreenenter"",""1"",""75066""
","
","","","","","","1868.9000000059605","images/rabbit4.png","","","learning","images/pets_choice1.png","images/pets_choice2.png","images/pets_choice3.png","[0,1,2]","2","2","3","images/pets_choice3.png","1","pets","","rabbit","2","0"
"html-keyboard-response","158","711671","0.0-9.0-2.0-0.36","1417","2","2","""event"",""trial"",""time""
""fullscreenenter"",""1"",""75066""
","
","
","""event"",""trial"",""time""
""fullscreenenter"",""1"",""75066""
","
","","","","","","null","<div style=""font-size:60px;"">+</div>","null","","fixation","","","","","","","","","","","","","",""
"learning-trial","159","715678","0.0-9.0-2.0-1.36","1417","2","2","""event"",""trial"",""time""
""fullscreenenter"",""1"",""75066""
","
","
","""event"",""trial"",""time""
""fullscreenenter"",""1"",""75066""
","
","","","","","","1686.0999999940395","images/rabbit1.png","","","learning","images/pets_choice1.png","images/pets_choice2.png","images/pets_choice3.png","[0,1,2]","0","0","1","images/pets_choice1.png","1","pets","","rabbit","2","0"
"html-keyboard-response","160","716181","0.0-9.0-2.0-0.37","1417","2","2","""event"",""trial"",""time""
""fullscreenenter"",""1"",""75066""
","
","
","""event"",""trial"",""time""
""fullscreenenter"",""1"",""75066""
","
","","","","","","null","<div style=""font-size:60px;"">+</div>","null","","fixation","","","","","","","","","","","","","",""
"learning-trial","161","720185","0.0-9.0-2.0-1.37","1417","2","2","""event"",""trial"",""time""
""fullscreenenter"",""1"",""75066""
","
","
","""event"",""trial"",""time""
""fullscreenenter"",""1"",""75066""
","
","","","","","","1279.2000000178814","images/dog4.png","","","learning","images/pets_choice3.png","images/pets_choice1.png","images/pets_choice2.png","[2,0,1]","2","0","3","images/pets_choice2.png","-1","pets","","dog","2","0"
"html-keyboard-response","162","720688","0.0-9.0-2.0-0.38","1417","2","2","""event"",""trial"",""time""
""fullscreenenter"",""1"",""75066""
","
","
","""event"",""trial"",""time""
""fullscreenenter"",""1"",""75066""
","
","","","","","","null","<div style=""font-size:60px;"">+</div>","null","","fixation","","","","","","","","","","","","","",""
"learning-trial","163","724695","0.0-9.0-2.0-1.38","1417","2","2","""event"",""trial"",""time""
""fullscreenenter"",""1"",""75066""
","
","
","""event"",""trial"",""time""
""fullscreenenter"",""1"",""75066""
","
","","","","","","1374.5","images/dog4.png","","","learning","images/pets_choice1.png","images/pets_choice2.png","images/pets_choice3.png","[0,1,2]","2","2","2","images/pets_choice2.png","-1","pets","","dog","2","0"
"html-keyboard-response","164","725198","0.0-9.0-2.0-0.39","1417","2","2","""event"",""trial"",""time""
""fullscreenenter"",""1"",""75066""
","
","
","""event"",""trial"",""time""
""fullscreenenter"",""1"",""75066""
","
","","","","","","null","<div style=""font-size:60px;"">+</div>","null","","fixation","","","","","","","","","","","","","",""
"learning-trial","165","729205","0.0-9.0-2.0-1.39","1417","2","2","""event"",""trial"",""time""
""fullscreenenter"",""1"",""75066""
","
","
","""event"",""trial"",""time""
""fullscreenenter"",""1"",""75066""
","
","","","","","","1978.3999999761581","images/rodent3.png","","","learning","images/pets_choice1.png","images/pets_choice2.png","images/pets_choice3.png","[0,1,2]","0","0","1","images/pets_choice1.png","1","pets","","rodent","2","0"
"html-keyboard-response","166","729709","0.0-9.0-2.0-0.40","1417","2","2","""event"",""trial"",""time""
""fullscreenenter"",""1"",""75066""
","
","
","""event"",""trial"",""time""
""fullscreenenter"",""1"",""75066""
","
","","","","","","null","<div style=""font-size:60px;"">+</div>","null","","fixation","","","","","","","","","","","","","",""
"learning-trial","167","733716","0.0-9.0-2.0-1.40","1417","2","2","""event"",""trial"",""time""
""fullscreenenter"",""1"",""75066""
","
","
","""event"",""trial"",""time""
""fullscreenenter"",""1"",""75066""
","
","","","","","","1820.699999988079","images/dog4.png","","","learning","images/pets_choice3.png","images/pets_choice1.png","images/pets_choice2.png","[2,0,1]","2","0","2","images/pets_choice1.png","1","pets","","dog","2","0"
"html-keyboard-response","168","734218","0.0-9.0-2.0-0.41","1417","2","2","""event"",""trial"",""time""
""fullscreenenter"",""1"",""75066""
","
","
","""event"",""trial"",""time""
""fullscreenenter"",""1"",""75066""
","
","","","","","","null","<div style=""font-size:60px;"">+</div>","null","","fixation","","","","","","","","","","","","","",""
"learning-trial","169","738227","0.0-9.0-2.0-1.41","1417","2","2","""event"",""trial"",""time""
""fullscreenenter"",""1"",""75066""
","
","
","""event"",""trial"",""time""
""fullscreenenter"",""1"",""75066""
","
","","","","","","946.3000000119209","images/rabbit2.png","","","learning","images/pets_choice3.png","images/pets_choice1.png","images/pets_choice2.png","[2,0,1]","1","2","2","images/pets_choice1.png","-1","pets","","rabbit","2","0"
"html-keyboard-response","170","738729","0.0-9.0-2.0-0.42","1417","2","2","""event"",""trial"",""time""
""fullscreenenter"",""1"",""75066""
","
","
","""event"",""trial"",""time""
""fullscreenenter"",""1"",""75066""
","
","","","","","","null","<div style=""font-size:60px;"">+</div>","null","","fixation","","","","","","","","","","","","","",""
"learning-trial","171","742732","0.0-9.0-2.0-1.42","1417","2","2","""event"",""trial"",""time""
""fullscreenenter"",""1"",""75066""
","
","
","""event"",""trial"",""time""
""fullscreenenter"",""1"",""75066""
","
","","","","","","1956.7000000178814","images/rabbit1.png","","","learning","images/pets_choice2.png","images/pets_choice1.png","images/pets_choice3.png","[1,0,2]","0","1","1","images/pets_choice2.png","-1","pets","","rabbit","2","0"
"html-keyboard-response","172","743235","0.0-9.0-2.0-0.43","1417","2","2","""event"",""trial"",""time""
""fullscreenenter"",""1"",""75066""
","
","
","""event"",""trial"",""time""
""fullscreenenter"",""1"",""75066""
","
","","","","","","null","<div style=""font-size:60px;"">+</div>","null","","fixation","","","","","","","","","","","","","",""
"learning-trial","173","747242","0.0-9.0-2.0-1.43","1417","2","2","""event"",""trial"",""time""
""fullscreenenter"",""1"",""75066""
","
","
","""event"",""trial"",""time""
""fullscreenenter"",""1"",""75066""
","
","","","","","","1433.4000000059605","images/rabbit1.png","","","learning","images/pets_choice3.png","images/pets_choice1.png","images/pets_choice2.png","[2,0,1]","0","1","1","images/pets_choice3.png","-1","pets","","rabbit","2","0"
"html-keyboard-response","174","747744","0.0-9.0-2.0-0.44","1417","2","2","""event"",""trial"",""time""
""fullscreenenter"",""1"",""75066""
","
","
","""event"",""trial"",""time""
""fullscreenenter"",""1"",""75066""
","
","","","","","","null","<div style=""font-size:60px;"">+</div>","null","","fixation","","","","","","","","","","","","","",""
"learning-trial","175","751747","0.0-9.0-2.0-1.44","1417","2","2","""event"",""trial"",""time""
""fullscreenenter"",""1"",""75066""
","
","
","""event"",""trial"",""time""
""fullscreenenter"",""1"",""75066""
","
","","","","","","1691.0999999940395","images/rodent4.png","","","learning","images/pets_choice1.png","images/pets_choice2.png","images/pets_choice3.png","[0,1,2]","2","2","3","images/pets_choice3.png","1","pets","","rodent","2","0"
"html-keyboard-response","176","752249","0.0-9.0-2.0-0.45","1417","2","2","""event"",""trial"",""time""
""fullscreenenter"",""1"",""75066""
","
","
","""event"",""trial"",""time""
""fullscreenenter"",""1"",""75066""
","
","","","","","","null","<div style=""font-size:60px;"">+</div>","null","","fixation","","","","","","","","","","","","","",""
"learning-trial","177","756257","0.0-9.0-2.0-1.45","1417","2","2","""event"",""trial"",""time""
""fullscreenenter"",""1"",""75066""
","
","
","""event"",""trial"",""time""
""fullscreenenter"",""1"",""75066""
","
","","","","","","2288.2999999821186","images/dog3.png","","","learning","images/pets_choice1.png","images/pets_choice2.png","images/pets_choice3.png","[0,1,2]","1","1","1","images/pets_choice1.png","-1","pets","","dog","2","0"
"html-keyboard-response","178","756759","0.0-9.0-2.0-0.46","1417","2","2","""event"",""trial"",""time""
""fullscreenenter"",""1"",""75066""
","
","
","""event"",""trial"",""time""
""fullscreenenter"",""1"",""75066""
","
","","","","","","null","<div style=""font-size:60px;"">+</div>","null","","fixation","","","","","","","","","","","","","",""
"learning-trial","179","760762","0.0-9.0-2.0-1.46","1417","2","2","""event"",""trial"",""time""
""fullscreenenter"",""1"",""75066""
","
","
","""event"",""trial"",""time""
""fullscreenenter"",""1"",""75066""
","
","","","","","","1714.7000000178814","images/dog5.png","","","learning","images/pets_choice2.png","images/pets_choice3.png","images/pets_choice1.png","[1,2,0]","0","2","2","images/pets_choice3.png","-1","pets","","dog","2","0"
"html-keyboard-response","180","761263","0.0-9.0-2.0-0.47","1417","2","2","""event"",""trial"",""time""
""fullscreenenter"",""1"",""75066""
","
","
","""event"",""trial"",""time""
""fullscreenenter"",""1"",""75066""
","
","","","","","","null","<div style=""font-size:60px;"">+</div>","null","","fixation","","","","","","","","","","","","","",""
"learning-trial","181","765270","0.0-9.0-2.0-1.47","1417","2","2","""event"",""trial"",""time""
""fullscreenenter"",""1"",""75066""
","
","
","""event"",""trial"",""time""
""fullscreenenter"",""1"",""75066""
","
","","","","","","1449.5","images/rodent2.png","","","learning","images/pets_choice1.png","images/pets_choice2.png","images/pets_choice3.png","[0,1,2]","1","1","2","images/pets_choice2.png","1","pets","","rodent","2","0"
"html-keyboard-response","182","765772","0.0-9.0-2.0-0.48","1417","2","2","""event"",""trial"",""time""
""fullscreenenter"",""1"",""75066""
","
","
","""event"",""trial"",""time""
""fullscreenenter"",""1"",""75066""
","
","","","","","","null","<div style=""font-size:60px;"">+</div>","null","","fixation","","","","","","","","","","","","","",""
"learning-trial","183","769776","0.0-9.0-2.0-1.48","1417","2","2","""event"",""trial"",""time""
""fullscreenenter"",""1"",""75066""
","
","
","""event"",""trial"",""time""
""fullscreenenter"",""1"",""75066""
","
","","","","","","2059.7999999821186","images/dog5.png","","","learning","images/pets_choice1.png","images/pets_choice3.png","images/pets_choice2.png","[0,2,1]","0","0","2","images/pets_choice3.png","-1","pets","","dog","2","0"
"html-keyboard-response","184","770278","0.0-9.0-2.0-0.49","1417","2","2","""event"",""trial"",""time""
""fullscreenenter"",""1"",""75066""
","
","
","""event"",""trial"",""time""
""fullscreenenter"",""1"",""75066""
","
","","","","","","null","<div style=""font-size:60px;"">+</div>","null","","fixation","","","","","","","","","","","","","",""
"learning-trial","185","774285","0.0-9.0-2.0-1.49","1417","2","2","""event"",""trial"",""time""
""fullscreenenter"",""1"",""75066""
","
","
","""event"",""trial"",""time""
""fullscreenenter"",""1"",""75066""
","
","","","","","","1405.300000011921","images/rabbit4.png","","","learning","images/pets_choice2.png","images/pets_choice1.png","images/pets_choice3.png","[1,0,2]","2","2","1","images/pets_choice2.png","-1","pets","","rabbit","2","0"
"html-keyboard-response","186","774787","0.0-9.0-2.0-0.50","1417","2","2","""event"",""trial"",""time""
""fullscreenenter"",""1"",""75066""
","
","
","""event"",""trial"",""time""
""fullscreenenter"",""1"",""75066""
","
","","","","","","null","<div style=""font-size:60px;"">+</div>","null","","fixation","","","","","","","","","","","","","",""
"learning-trial","187","778792","0.0-9.0-2.0-1.50","1417","2","2","""event"",""trial"",""time""
""fullscreenenter"",""1"",""75066""
","
","
","""event"",""trial"",""time""
""fullscreenenter"",""1"",""75066""
","
","","","","","","1372.2999999821186","images/rodent2.png","","","learning","images/pets_choice2.png","images/pets_choice1.png","images/pets_choice3.png","[1,0,2]","1","0","2","images/pets_choice1.png","-1","pets","","rodent","2","0"
"html-keyboard-response","188","779294","0.0-9.0-2.0-0.51","1417","2","2","""event"",""trial"",""time""
""fullscreenenter"",""1"",""75066""
","
","
","""event"",""trial"",""time""
""fullscreenenter"",""1"",""75066""
","
","","","","","","null","<div style=""font-size:60px;"">+</div>","null","","fixation","","","","","","","","","","","","","",""
"learning-trial","189","783302","0.0-9.0-2.0-1.51","1417","2","2","""event"",""trial"",""time""
""fullscreenenter"",""1"",""75066""
","
","
","""event"",""trial"",""time""
""fullscreenenter"",""1"",""75066""
","
","","","","","","1587.4000000059605","images/rabbit4.png","","","learning","images/pets_choice3.png","images/pets_choice2.png","images/pets_choice1.png","[2,1,0]","2","0","1","images/pets_choice3.png","1","pets","","rabbit","2","0"
"html-keyboard-response","190","783803","0.0-9.0-2.0-0.52","1417","2","2","""event"",""trial"",""time""
""fullscreenenter"",""1"",""75066""
","
","
","""event"",""trial"",""time""
""fullscreenenter"",""1"",""75066""
","
","","","","","","null","<div style=""font-size:60px;"">+</div>","null","","fixation","","","","","","","","","","","","","",""
"learning-trial","191","787809","0.0-9.0-2.0-1.52","1417","2","2","""event"",""trial"",""time""
""fullscreenenter"",""1"",""75066""
","
","
","""event"",""trial"",""time""
""fullscreenenter"",""1"",""75066""
","
","","","","","","1949.5","images/rabbit1.png","","","learning","images/pets_choice1.png","images/pets_choice2.png","images/pets_choice3.png","[0,1,2]","0","0","2","images/pets_choice2.png","-1","pets","","rabbit","2","0"
"html-keyboard-response","192","788312","0.0-9.0-2.0-0.53","1417","2","2","""event"",""trial"",""time""
""fullscreenenter"",""1"",""75066""
","
","
","""event"",""trial"",""time""
""fullscreenenter"",""1"",""75066""
","
","","","","","","null","<div style=""font-size:60px;"">+</div>","null","","fixation","","","","","","","","","","","","","",""
"learning-trial","193","792318","0.0-9.0-2.0-1.53","1417","2","2","""event"",""trial"",""time""
""fullscreenenter"",""1"",""75066""
","
","
","""event"",""trial"",""time""
""fullscreenenter"",""1"",""75066""
","
","","","","","","2748.399999976158","images/dog3.png","","","learning","images/pets_choice1.png","images/pets_choice2.png","images/pets_choice3.png","[0,1,2]","1","1","3","images/pets_choice3.png","-1","pets","","dog","2","0"
"html-keyboard-response","194","792821","0.0-9.0-2.0-0.54","1417","2","2","""event"",""trial"",""time""
""fullscreenenter"",""1"",""75066""
","
","
","""event"",""trial"",""time""
""fullscreenenter"",""1"",""75066""
","
","","","","","","null","<div style=""font-size:60px;"">+</div>","null","","fixation","","","","","","","","","","","","","",""
"learning-trial","195","796828","0.0-9.0-2.0-1.54","1417","2","2","""event"",""trial"",""time""
""fullscreenenter"",""1"",""75066""
","
","
","""event"",""trial"",""time""
""fullscreenenter"",""1"",""75066""
","
","","","","","","1787.7999999821186","images/dog5.png","","","learning","images/pets_choice2.png","images/pets_choice1.png","images/pets_choice3.png","[1,0,2]","0","1","2","images/pets_choice1.png","1","pets","","dog","2","0"
"html-keyboard-response","196","797332","0.0-9.0-2.0-0.55","1417","2","2","""event"",""trial"",""time""
""fullscreenenter"",""1"",""75066""
","
","
","""event"",""trial"",""time""
""fullscreenenter"",""1"",""75066""
","
","","","","","","null","<div style=""font-size:60px;"">+</div>","null","","fixation","","","","","","","","","","","","","",""
"learning-trial","197","801333","0.0-9.0-2.0-1.55","1417","2","2","""event"",""trial"",""time""
""fullscreenenter"",""1"",""75066""
","
","
","""event"",""trial"",""time""
""fullscreenenter"",""1"",""75066""
","
","","","","","","2418.5999999940395","images/rodent4.png","","","learning","images/pets_choice2.png","images/pets_choice1.png","images/pets_choice3.png","[1,0,2]","2","2","3","images/pets_choice3.png","1","pets","","rodent","2","0"
"html-keyboard-response","198","801835","0.0-9.0-2.0-0.56","1417","2","2","""event"",""trial"",""time""
""fullscreenenter"",""1"",""75066""
","
","
","""event"",""trial"",""time""
""fullscreenenter"",""1"",""75066""
","
","","","","","","null","<div style=""font-size:60px;"">+</div>","null","","fixation","","","","","","","","","","","","","",""
"learning-trial","199","805841","0.0-9.0-2.0-1.56","1417","2","2","""event"",""trial"",""time""
""fullscreenenter"",""1"",""75066""
","
","
","""event"",""trial"",""time""
""fullscreenenter"",""1"",""75066""
","
","","","","","","1818.6000000238419","images/dog5.png","","","learning","images/pets_choice3.png","images/pets_choice1.png","images/pets_choice2.png","[2,0,1]","0","1","3","images/pets_choice2.png","-1","pets","","dog","2","0"
"html-keyboard-response","200","806344","0.0-9.0-2.0-0.57","1417","2","2","""event"",""trial"",""time""
""fullscreenenter"",""1"",""75066""
","
","
","""event"",""trial"",""time""
""fullscreenenter"",""1"",""75066""
","
","","","","","","null","<div style=""font-size:60px;"">+</div>","null","","fixation","","","","","","","","","","","","","",""
"learning-trial","201","810348","0.0-9.0-2.0-1.57","1417","2","2","""event"",""trial"",""time""
""fullscreenenter"",""1"",""75066""
","
","
","""event"",""trial"",""time""
""fullscreenenter"",""1"",""75066""
","
","","","","","","1316.7000000178814","images/rabbit1.png","","","learning","images/pets_choice1.png","images/pets_choice2.png","images/pets_choice3.png","[0,1,2]","0","0","2","images/pets_choice2.png","-1","pets","","rabbit","2","0"
"html-keyboard-response","202","810849","0.0-9.0-2.0-0.58","1417","2","2","""event"",""trial"",""time""
""fullscreenenter"",""1"",""75066""
","
","
","""event"",""trial"",""time""
""fullscreenenter"",""1"",""75066""
","
","","","","","","null","<div style=""font-size:60px;"">+</div>","null","","fixation","","","","","","","","","","","","","",""
"learning-trial","203","814855","0.0-9.0-2.0-1.58","1417","2","2","""event"",""trial"",""time""
""fullscreenenter"",""1"",""75066""
","
","
","""event"",""trial"",""time""
""fullscreenenter"",""1"",""75066""
","
","","","","","","2101.199999988079","images/dog5.png","","","learning","images/pets_choice2.png","images/pets_choice3.png","images/pets_choice1.png","[1,2,0]","0","2","3","images/pets_choice1.png","1","pets","","dog","2","0"
"html-keyboard-response","204","815358","0.0-9.0-2.0-0.59","1417","2","2","""event"",""trial"",""time""
""fullscreenenter"",""1"",""75066""
","
","
","""event"",""trial"",""time""
""fullscreenenter"",""1"",""75066""
","
","","","","","","null","<div style=""font-size:60px;"">+</div>","null","","fixation","","","","","","","","","","","","","",""
"learning-trial","205","819365","0.0-9.0-2.0-1.59","1417","2","2","""event"",""trial"",""time""
""fullscreenenter"",""1"",""75066""
","
","
","""event"",""trial"",""time""
""fullscreenenter"",""1"",""75066""
","
","","","","","","2428.4000000059605","images/rodent3.png","","","learning","images/pets_choice2.png","images/pets_choice1.png","images/pets_choice3.png","[1,0,2]","0","1","1","images/pets_choice2.png","-1","pets","","rodent","2","0"
"html-keyboard-response","206","819868","0.0-9.0-2.0-0.60","1417","2","2","""event"",""trial"",""time""
""fullscreenenter"",""1"",""75066""
","
","
","""event"",""trial"",""time""
""fullscreenenter"",""1"",""75066""
","
","","","","","","null","<div style=""font-size:60px;"">+</div>","null","","fixation","","","","","","","","","","","","","",""
"learning-trial","207","823875","0.0-9.0-2.0-1.60","1417","2","2","""event"",""trial"",""time""
""fullscreenenter"",""1"",""75066""
","
","
","""event"",""trial"",""time""
""fullscreenenter"",""1"",""75066""
","
","","","","","","1469.199999988079","images/rodent4.png","","","learning","images/pets_choice1.png","images/pets_choice3.png","images/pets_choice2.png","[0,2,1]","2","1","2","images/pets_choice3.png","1","pets","","rodent","2","0"
"html-keyboard-response","208","824378","0.0-9.0-2.0-0.61","1417","2","2","""event"",""trial"",""time""
""fullscreenenter"",""1"",""75066""
","
","
","""event"",""trial"",""time""
""fullscreenenter"",""1"",""75066""
","
","","","","","","null","<div style=""font-size:60px;"">+</div>","null","","fixation","","","","","","","","","","","","","",""
"learning-trial","209","828385","0.0-9.0-2.0-1.61","1417","2","2","""event"",""trial"",""time""
""fullscreenenter"",""1"",""75066""
","
","
","""event"",""trial"",""time""
""fullscreenenter"",""1"",""75066""
","
","","","","","","1997.4000000059605","images/rodent3.png","","","learning","images/pets_choice1.png","images/pets_choice2.png","images/pets_choice3.png","[0,1,2]","0","0","3","images/pets_choice3.png","-1","pets","","rodent","2","0"
"html-keyboard-response","210","828886","0.0-9.0-2.0-0.62","1417","2","2","""event"",""trial"",""time""
""fullscreenenter"",""1"",""75066""
","
","
","""event"",""trial"",""time""
""fullscreenenter"",""1"",""75066""
","
","","","","","","null","<div style=""font-size:60px;"">+</div>","null","","fixation","","","","","","","","","","","","","",""
"learning-trial","211","832893","0.0-9.0-2.0-1.62","1417","2","2","""event"",""trial"",""time""
""fullscreenenter"",""1"",""75066""
","
","
","""event"",""trial"",""time""
""fullscreenenter"",""1"",""75066""
","
","","","","","","2403.800000011921","images/dog3.png","","","learning","images/pets_choice3.png","images/pets_choice1.png","images/pets_choice2.png","[2,0,1]","1","2","1","images/pets_choice3.png","1","pets","","dog","2","0"
"html-keyboard-response","212","833397","0.0-9.0-2.0-0.63","1417","2","2","""event"",""trial"",""time""
""fullscreenenter"",""1"",""75066""
","
","
","""event"",""trial"",""time""
""fullscreenenter"",""1"",""75066""
","
","","","","","","null","<div style=""font-size:60px;"">+</div>","null","","fixation","","","","","","","","","","","","","",""
"learning-trial","213","837410","0.0-9.0-2.0-1.63","1417","2","2","""event"",""trial"",""time""
""fullscreenenter"",""1"",""75066""
","
","
","""event"",""trial"",""time""
""fullscreenenter"",""1"",""75066""
","
","","","","","","1397.2999999821186","images/dog3.png","","","learning","images/pets_choice2.png","images/pets_choice3.png","images/pets_choice1.png","[1,2,0]","1","0","2","images/pets_choice3.png","-1","pets","","dog","2","0"
"html-keyboard-response","214","837913","0.0-9.0-2.0-0.64","1417","2","2","""event"",""trial"",""time""
""fullscreenenter"",""1"",""75066""
","
","
","""event"",""trial"",""time""
""fullscreenenter"",""1"",""75066""
","
","","","","","","null","<div style=""font-size:60px;"">+</div>","null","","fixation","","","","","","","","","","","","","",""
"learning-trial","215","841916","0.0-9.0-2.0-1.64","1417","2","2","""event"",""trial"",""time""
""fullscreenenter"",""1"",""75066""
","
","
","""event"",""trial"",""time""
""fullscreenenter"",""1"",""75066""
","
","","","","","","2404.699999988079","images/rodent3.png","","","learning","images/pets_choice3.png","images/pets_choice1.png","images/pets_choice2.png","[2,0,1]","0","1","3","images/pets_choice2.png","1","pets","","rodent","2","0"
"html-keyboard-response","216","842418","0.0-9.0-2.0-0.65","1417","2","2","""event"",""trial"",""time""
""fullscreenenter"",""1"",""75066""
","
","
","""event"",""trial"",""time""
""fullscreenenter"",""1"",""75066""
","
","","","","","","null","<div style=""font-size:60px;"">+</div>","null","","fixation","","","","","","","","","","","","","",""
"learning-trial","217","846424","0.0-9.0-2.0-1.65","1417","2","2","""event"",""trial"",""time""
""fullscreenenter"",""1"",""75066""
","
","
","""event"",""trial"",""time""
""fullscreenenter"",""1"",""75066""
","
","","","","","","1204.6000000238419","images/rodent3.png","","","learning","images/pets_choice2.png","images/pets_choice1.png","images/pets_choice3.png","[1,0,2]","0","1","1","images/pets_choice2.png","-1","pets","","rodent","2","0"
"html-keyboard-response","218","846925","0.0-9.0-2.0-0.66","1417","2","2","""event"",""trial"",""time""
""fullscreenenter"",""1"",""75066""
","
","
","""event"",""trial"",""time""
""fullscreenenter"",""1"",""75066""
","
","","","","","","null","<div style=""font-size:60px;"">+</div>","null","","fixation","","","","","","","","","","","","","",""
"learning-trial","219","850928","0.0-9.0-2.0-1.66","1417","2","2","""event"",""trial"",""time""
""fullscreenenter"",""1"",""75066""
","
","
","""event"",""trial"",""time""
""fullscreenenter"",""1"",""75066""
","
","","","","","","2054.300000011921","images/rabbit2.png","","","learning","images/pets_choice2.png","images/pets_choice1.png","images/pets_choice3.png","[1,0,2]","1","0","3","images/pets_choice3.png","-1","pets","","rabbit","2","0"
"html-keyboard-response","220","851429","0.0-9.0-2.0-0.67","1417","2","2","""event"",""trial"",""time""
""fullscreenenter"",""1"",""75066""
","
","
","""event"",""trial"",""time""
""fullscreenenter"",""1"",""75066""
","
","","","","","","null","<div style=""font-size:60px;"">+</div>","null","","fixation","","","","","","","","","","","","","",""
"learning-trial","221","855436","0.0-9.0-2.0-1.67","1417","2","2","""event"",""trial"",""time""
""fullscreenenter"",""1"",""75066""
","
","
","""event"",""trial"",""time""
""fullscreenenter"",""1"",""75066""
","
","","","","","","1034","images/rodent2.png","","","learning","images/pets_choice2.png","images/pets_choice1.png","images/pets_choice3.png","[1,0,2]","1","0","1","images/pets_choice2.png","1","pets","","rodent","2","0"
"html-keyboard-response","222","855939","0.0-9.0-2.0-0.68","1417","2","2","""event"",""trial"",""time""
""fullscreenenter"",""1"",""75066""
","
","
","""event"",""trial"",""time""
""fullscreenenter"",""1"",""75066""
","
","","","","","","null","<div style=""font-size:60px;"">+</div>","null","","fixation","","","","","","","","","","","","","",""
"learning-trial","223","859945","0.0-9.0-2.0-1.68","1417","2","2","""event"",""trial"",""time""
""fullscreenenter"",""1"",""75066""
","
","
","""event"",""trial"",""time""
""fullscreenenter"",""1"",""75066""
","
","","","","","","1446.4000000059605","images/rabbit4.png","","","learning","images/pets_choice1.png","images/pets_choice2.png","images/pets_choice3.png","[0,1,2]","2","2","3","images/pets_choice3.png","1","pets","","rabbit","2","0"
"html-keyboard-response","224","860447","0.0-9.0-2.0-0.69","1417","2","2","""event"",""trial"",""time""
""fullscreenenter"",""1"",""75066""
","
","
","""event"",""trial"",""time""
""fullscreenenter"",""1"",""75066""
","
","","","","","","null","<div style=""font-size:60px;"">+</div>","null","","fixation","","","","","","","","","","","","","",""
"learning-trial","225","864450","0.0-9.0-2.0-1.69","1417","2","2","""event"",""trial"",""time""
""fullscreenenter"",""1"",""75066""
","
","
","""event"",""trial"",""time""
""fullscreenenter"",""1"",""75066""
","
","","","","","","2497.800000011921","images/dog3.png","","","learning","images/pets_choice1.png","images/pets_choice3.png","images/pets_choice2.png","[0,2,1]","1","2","1","images/pets_choice1.png","-1","pets","","dog","2","0"
"html-keyboard-response","226","864953","0.0-9.0-2.0-0.70","1417","2","2","""event"",""trial"",""time""
""fullscreenenter"",""1"",""75066""
","
","
","""event"",""trial"",""time""
""fullscreenenter"",""1"",""75066""
","
","","","","","","null","<div style=""font-size:60px;"">+</div>","null","","fixation","","","","","","","","","","","","","",""
"learning-trial","227","868962","0.0-9.0-2.0-1.70","1417","2","2","""event"",""trial"",""time""
""fullscreenenter"",""1"",""75066""
","
","
","""event"",""trial"",""time""
""fullscreenenter"",""1"",""75066""
","
","","","","","","1611.699999988079","images/dog3.png","","","learning","images/pets_choice3.png","images/pets_choice2.png","images/pets_choice1.png","[2,1,0]","1","1","1","images/pets_choice3.png","-1","pets","","dog","2","0"
"html-keyboard-response","228","869464","0.0-9.0-2.0-0.71","1417","2","2","""event"",""trial"",""time""
""fullscreenenter"",""1"",""75066""
","
","
","""event"",""trial"",""time""
""fullscreenenter"",""1"",""75066""
","
","","","","","","null","<div style=""font-size:60px;"">+</div>","null","","fixation","","","","","","","","","","","","","",""
"learning-trial","229","873466","0.0-9.0-2.0-1.71","1417","2","2","""event"",""trial"",""time""
""fullscreenenter"",""1"",""75066""
","
","
","""event"",""trial"",""time""
""fullscreenenter"",""1"",""75066""
","
","","","","","","1563.5999999940395","images/rabbit1.png","","","learning","images/pets_choice2.png","images/pets_choice1.png","images/pets_choice3.png","[1,0,2]","0","1","2","images/pets_choice1.png","-1","pets","","rabbit","2","0"
"html-button-response","230","882211","0.0-9.0-3.0","1417","2","2","""event"",""trial"",""time""
""fullscreenenter"",""1"",""75066""
","
","
","""event"",""trial"",""time""
""fullscreenenter"",""1"",""75066""
","
","","","","","","8742.90000000596","<p> You have completed the round! <p> In this round, you earned -14 points! </p>","0","","break","","","","","","","","","","","","","",""
"html-button-response","231","883500","0.0-10.0","1417","2","2","""event"",""trial"",""time""
""fullscreenenter"",""1"",""75066""
","
","
","""event"",""trial"",""time""
""fullscreenenter"",""1"",""75066""
","
","","","","","","1288.2999999821186","<p> Now it's time to play another round. </p>","0","","transition_screen","","","","","","","","","","","","","",""
"preload","232","883955","0.0-11.0-0.0","1417","2","2","""event"",""trial"",""time""
""fullscreenenter"",""1"",""75066""
","
","
","""event"",""trial"",""time""
""fullscreenenter"",""1"",""75066""
","
","true","false","[]","[]","[]","","","","","","","","","","","","","","","","","","",""
"learning-instructions","233","895223","0.0-11.0-1.0-0.0","1417","2","2","""event"",""trial"",""time""
""fullscreenenter"",""1"",""75066""
","
","
","""event"",""trial"",""time""
""fullscreenenter"",""1"",""75066""
","
","","","","","","2729.7000000178814","<p> Your goal in this round is to travel the world by putting fuel into different vehicles. </p><p> To travel, you will need to put fuel into many different vehicles. </p></div>","","0","instructions","","","","","","","","","","","","","",""
"learning-instructions","234","905069","0.0-11.0-1.0-0.1","1417","2","2","""event"",""trial"",""time""
""fullscreenenter"",""1"",""75066""
","
","
","""event"",""trial"",""time""
""fullscreenenter"",""1"",""75066""
","
","","","","","","1055.300000011921","<p> On each turn, you will see a picture of one of your vehicles and three different types of fuel.  </p><p> You need to select which kind of fuel to use.  </p>","","0","instructions","","","","","","","","","","","","","",""
"learning-instructions","235","912985","0.0-11.0-1.0-0.2","1417","2","2","""event"",""trial"",""time""
""fullscreenenter"",""1"",""75066""
","
","
","""event"",""trial"",""time""
""fullscreenenter"",""1"",""75066""
","
","","","","","","1031.5","<p> You can select the fuel on the left by pressing 1, the fuel in the middle by pressing 2, and the fuel on the right by pressing 3. </p><br><div class=""choice-instructions-grid""> <div class=""choice-option""><img src=""images/vehicles_choice1.png"" class=""choice-option-img"" stage=""instructions"" position=""0"" ><div class=""choice-option-text""> Press ""1."" </div></div><div class=""choice-option""><img src=""images/vehicles_choice2.png"" class=""choice-option-img"" stage=""instructions"" position=""1"" ><div class=""choice-option-text""> Press ""2."" </div></div><div class=""choice-option""><img src=""images/vehicles_choice3.png"" class=""choice-option-img"" stage=""instructions"" position=""2"" ><div class=""choice-option-text""> Press ""3."" </div></div></div>","","0","instructions","","","","","","","","","","","","","",""
"learning-instructions","236","919329","0.0-11.0-1.0-0.3","1417","2","2","""event"",""trial"",""time""
""fullscreenenter"",""1"",""75066""
","
","
","""event"",""trial"",""time""
""fullscreenenter"",""1"",""75066""
","
