"trial_type","trial_index","time_elapsed","internal_node_id","subject_id","condition","task_version","interactions","blur_events","focus_events","fullscreenenter_events","fullscreenexit_events","success","timeout","failed_images","failed_audio","failed_video","rt","stimulus","response","button_pressed","task_part","left_choice","middle_choice","right_choice","choice_positions","correct_response","correct_position","key_press","option_selected","points","task_block","correct","stim_cat","block_condition","block_number"
"pavlovia","0","2","0.0-0.0","1846","2","2","""event"",""trial"",""time""
""fullscreenenter"",""1"",""2263""
","
","
","""event"",""trial"",""time""
""fullscreenenter"",""1"",""2263""
","
","","","","","","","","","","","","","","","","","","","","","","","",""
"fullscreen","1","3236","0.0-1.0","1846","2","2","""event"",""trial"",""time""
""fullscreenenter"",""1"",""2263""
","
","
","""event"",""trial"",""time""
""fullscreenenter"",""1"",""2263""
","
","true","","","","","","","","","","","","","","","","","","","","","","",""
"preload","2","16161","0.0-2.0","1846","2","2","""event"",""trial"",""time""
""fullscreenenter"",""1"",""2263""
","
","
","""event"",""trial"",""time""
""fullscreenenter"",""1"",""2263""
","
","true","false","[]","[]","[]","","","","","","","","","","","","","","","","","","",""
"audio-keyboard-response","3","32148","0.0-3.0","1846","2","2","""event"",""trial"",""time""
""fullscreenenter"",""1"",""2263""
","
","
","""event"",""trial"",""time""
""fullscreenenter"",""1"",""2263""
","
","","","","","","15978.666666666668","audio/beep_loop.wav"," ","","","","","","","","","","","","","","","",""
"audio-button-response","4","39608","0.0-4.0","1846","2","2","""event"",""trial"",""time""
""fullscreenenter"",""1"",""2263""
","
","
","""event"",""trial"",""time""
""fullscreenenter"",""1"",""2263""
","
","","","","","","7461","audio/shark.wav","0","","","","","","","","","","","","","","","",""
"audio-button-response","5","41799","0.0-5.0","1846","2","2","""event"",""trial"",""time""
""fullscreenenter"",""1"",""2263""
","
","
","""event"",""trial"",""time""
""fullscreenenter"",""1"",""2263""
","
","","","","","","1179","audio/turtle.wav","1","","","","","","","","","","","","","","","",""
"preload","6","54831","0.0-6.0","1846","2","2","""event"",""trial"",""time""
""fullscreenenter"",""1"",""2263""
","
","
","""event"",""trial"",""time""
""fullscreenenter"",""1"",""2263""
","
","true","false","[]","[]","[]","","","","","","","","","","","","","","","","","","",""
"html-keyboard-response","7","119330","0.0-7.0","1846","2","2","""event"",""trial"",""time""
""fullscreenenter"",""1"",""2263""
","
","
","""event"",""trial"",""time""
""fullscreenenter"",""1"",""2263""
","
","","","","","","64496.89999999851","Welcome to the experiment. Press any key to begin and to advance the instructions."," ","","","","","","","","","","","","","","","",""
"learning-instructions","8","129592","0.0-8.0-0.0-0.0","1846","2","2","""event"",""trial"",""time""
""fullscreenenter"",""1"",""2263""
","
","
","""event"",""trial"",""time""
""fullscreenenter"",""1"",""2263""
","
","","","","","","1658.8000000044703","<p> Welcome! Today you are going to play 6 different rounds of a decision-making game. </p><p> Use the mouse to click next to continue. </p>","","0","instructions","","","","","","","","","","","","","",""
"learning-instructions","9","134465","0.0-8.0-0.0-0.1","1846","2","2","""event"",""trial"",""time""
""fullscreenenter"",""1"",""2263""
","
","
","""event"",""trial"",""time""
""fullscreenenter"",""1"",""2263""
","
","","","","","","1853","<p> You will start with a practice round to learn the rules. </p>","","0","instructions","","","","","","","","","","","","","",""
"learning-instructions","10","142747","0.0-8.0-0.0-0.2","1846","2","2","""event"",""trial"",""time""
""fullscreenenter"",""1"",""2263""
","
","
","""event"",""trial"",""time""
""fullscreenenter"",""1"",""2263""
","
","","","","","","545","<p> Your goal in this round is to deliver sports equipment to three different parks. </p><p> You will need to deliver many types of equipment. </p></div>","","0","instructions","","","","","","","","","","","","","",""
"learning-instructions","11","152161","0.0-8.0-0.0-0.3","1846","2","2","""event"",""trial"",""time""
""fullscreenenter"",""1"",""2263""
","
","
","""event"",""trial"",""time""
""fullscreenenter"",""1"",""2263""
","
","","","","","","929.1000000014901","<p> On each turn, you will see one piece of sports equipment and three different parks.  </p><p> You need to select which park to deliver the equipment to.  </p>","","0","instructions","","","","","","","","","","","","","",""
"learning-instructions","12","169685","0.0-8.0-0.0-0.4","1846","2","2","""event"",""trial"",""time""
""fullscreenenter"",""1"",""2263""
","
","
","""event"",""trial"",""time""
""fullscreenenter"",""1"",""2263""
","
","","","","","","4241.5","<p> You can select the park on the left by pressing the '1' key on your keyboard. <br>You can select the park in the middle by pressing the '2' key on your keyboard. <br>You can select the park on the right by pressing the '3' key on your keyboard.  </p><br><div class=""choice-instructions-grid""> <div class=""choice-option""><img src=""images/park1.png"" class=""choice-option-img"" stage=""instructions"" position=""0"" ><div class=""choice-option-text""> Press ""1."" </div></div><div class=""choice-option""><img src=""images/park2.png"" class=""choice-option-img"" stage=""instructions"" position=""1"" ><div class=""choice-option-text""> Press ""2."" </div></div><div class=""choice-option""><img src=""images/park3.png"" class=""choice-option-img"" stage=""instructions"" position=""2"" ><div class=""choice-option-text""> Press ""3."" </div></div></div>","","0","instructions","","","","","","","","","","","","","",""
"learning-instructions","13","176663","0.0-8.0-0.0-0.5","1846","2","2","""event"",""trial"",""time""
""fullscreenenter"",""1"",""2263""
","
","
","""event"",""trial"",""time""
""fullscreenenter"",""1"",""2263""
","
","","","","","","1580.2999999970198","<p> If the kids in the park you chose like the equipment, they will be very happy! </p><div style='float: center;'><img src='images/check.png' width = '200' height = '200'></img>","","0","instructions","","","","","","","","","","","","","",""
"learning-instructions","14","182949","0.0-8.0-0.0-0.6","1846","2","2","""event"",""trial"",""time""
""fullscreenenter"",""1"",""2263""
","
","
","""event"",""trial"",""time""
""fullscreenenter"",""1"",""2263""
","
","","","","","","695.8999999985099","<p> But, if the kids in the park you chose do not like the equipment, they will be sad. </p><div style='float: center;'><img src='images/x.png' width = '200' height = '200'></img>","","0","instructions","","","","","","","","","","","","","",""
"learning-instructions","15","190656","0.0-8.0-0.0-0.7","1846","2","2","""event"",""trial"",""time""
""fullscreenenter"",""1"",""2263""
","
","
","""event"",""trial"",""time""
""fullscreenenter"",""1"",""2263""
","
","","","","","","1262.7000000029802","<p> Importantly, the kids in each park like some pieces of sports equipment more than others. </p>","","0","instructions","","","","","","","","","","","","","",""
"learning-instructions","16","198962","0.0-8.0-0.0-0.8","1846","2","2","""event"",""trial"",""time""
""fullscreenenter"",""1"",""2263""
","
","
","""event"",""trial"",""time""
""fullscreenenter"",""1"",""2263""
","
","","","","","","2247.7999999970198","<p> If you choose the best park for each piece of equipment, the kids there will usually be happy. </p>","","0","instructions","","","","","","","","","","","","","",""
"learning-instructions","17","206868","0.0-8.0-0.0-0.9","1846","2","2","""event"",""trial"",""time""
""fullscreenenter"",""1"",""2263""
","
","
","""event"",""trial"",""time""
""fullscreenenter"",""1"",""2263""
","
","","","","","","1255","<p> However, even if you choose the best park for the equipment, the kids may sometimes be sad. </p>","","0","instructions","","","","","","","","","","","","","",""
"learning-instructions","18","217768","0.0-8.0-0.0-0.10","1846","2","2","""event"",""trial"",""time""
""fullscreenenter"",""1"",""2263""
","
","
","""event"",""trial"",""time""
""fullscreenenter"",""1"",""2263""
","
","","","","","","3665.39999999851","<p> Similarly, even if you choose the <i>wrong</i> park for the equipment, the kids may still be happy sometimes.","","0","instructions","","","","","","","","","","","","","",""
"learning-instructions","19","224242","0.0-8.0-0.0-0.11","1846","2","2","""event"",""trial"",""time""
""fullscreenenter"",""1"",""2263""
","
","
","""event"",""trial"",""time""
""fullscreenenter"",""1"",""2263""
","
","","","","","","1418.5","<p> For example, the best park for this soccer ball is this one.<div style='float: center;'><img src='images/i1.png' width = '500' height = '268'></img>","","0","instructions","","","","","","","","","","","","","",""
"learning-instructions","20","230413","0.0-8.0-0.0-0.12","1846","2","2","""event"",""trial"",""time""
""fullscreenenter"",""1"",""2263""
","
","
","""event"",""trial"",""time""
""fullscreenenter"",""1"",""2263""
","
","","","","","","869.3999999985099","<p> Let's see what happens if you choose this park for the soccer ball five times.","","0","instructions","","","","","","","","","","","","","",""
"learning-instructions","21","233039","0.0-8.0-0.0-0.13","1846","2","2","""event"",""trial"",""time""
""fullscreenenter"",""1"",""2263""
","
","
","""event"",""trial"",""time""
""fullscreenenter"",""1"",""2263""
","
","","","","","","455.69999999552965","<p> The kids are happy.<div style='float: left;'><img src='images/i2.png' width = '640' height = '360'></img>","","0","instructions","","","","","","","","","","","","","",""
"learning-instructions","22","235531","0.0-8.0-0.0-0.14","1846","2","2","""event"",""trial"",""time""
""fullscreenenter"",""1"",""2263""
","
","
","""event"",""trial"",""time""
""fullscreenenter"",""1"",""2263""
","
","","","","","","318.20000000298023","<p> The kids are happy.<div style='float: left;'><img src='images/i3.png' width = '640' height = '360'></img>","","0","instructions","","","","","","","","","","","","","",""
"learning-instructions","23","238049","0.0-8.0-0.0-0.15","1846","2","2","""event"",""trial"",""time""
""fullscreenenter"",""1"",""2263""
","
","
","""event"",""trial"",""time""
""fullscreenenter"",""1"",""2263""
","
","","","","","","326.3999999985099","<p> The kids are happy.<div style='float: left;'><img src='images/i4.png' width = '640' height = '360'></img>","","0","instructions","","","","","","","","","","","","","",""
"learning-instructions","24","240677","0.0-8.0-0.0-0.16","1846","2","2","""event"",""trial"",""time""
""fullscreenenter"",""1"",""2263""
","
","
","""event"",""trial"",""time""
""fullscreenenter"",""1"",""2263""
","
","","","","","","413.1000000014901","<p> The kids are sad.<div style='float: left;'><img src='images/i5.png' width = '640' height = '360'></img>","","0","instructions","","","","","","","","","","","","","",""
"learning-instructions","25","254558","0.0-8.0-0.0-0.17","1846","2","2","""event"",""trial"",""time""
""fullscreenenter"",""1"",""2263""
","
","
","""event"",""trial"",""time""
""fullscreenenter"",""1"",""2263""
","
","","","","","","11704.79999999702","<p> The kids are happy.<div style='float: left;'><img src='images/i6.png' width = '640' height = '360'></img>","","0","instructions","","","","","","","","","","","","","",""
"learning-instructions","26","265779","0.0-8.0-0.0-0.18","1846","2","2","""event"",""trial"",""time""
""fullscreenenter"",""1"",""2263""
","
","
","""event"",""trial"",""time""
""fullscreenenter"",""1"",""2263""
","
","","","","","","3946.1999999955297","<p> As you can see, selecting that park for the soccer ball made the kids happy most of the time, but not all the time.","","0","instructions","","","","","","","","","","","","","",""
"learning-instructions","27","272485","0.0-8.0-0.0-0.19","1846","2","2","""event"",""trial"",""time""
""fullscreenenter"",""1"",""2263""
","
","
","""event"",""trial"",""time""
""fullscreenenter"",""1"",""2263""
","
","","","","","","711.7999999970198","<p> Now let's see what happens if you choose a DIFFERENT park for the soccer ball 5 times.","","0","instructions","","","","","","","","","","","","","",""
"learning-instructions","28","276040","0.0-8.0-0.0-0.20","1846","2","2","""event"",""trial"",""time""
""fullscreenenter"",""1"",""2263""
","
","
","""event"",""trial"",""time""
""fullscreenenter"",""1"",""2263""
","
","","","","","","1347.3999999985099","<p> The kids are sad.<div style='float: left;'><img src='images/i7.png' width = '640' height = '360'></img>","","0","instructions","","","","","","","","","","","","","",""
"learning-instructions","29","278732","0.0-8.0-0.0-0.21","1846","2","2","""event"",""trial"",""time""
""fullscreenenter"",""1"",""2263""
","
","
","""event"",""trial"",""time""
""fullscreenenter"",""1"",""2263""
","
","","","","","","478.79999999701977","<p> The kids are sad.<div style='float: left;'><img src='images/i8.png' width = '640' height = '360'></img>","","0","instructions","","","","","","","","","","","","","",""
"learning-instructions","30","281273","0.0-8.0-0.0-0.22","1846","2","2","""event"",""trial"",""time""
""fullscreenenter"",""1"",""2263""
","
","
","""event"",""trial"",""time""
""fullscreenenter"",""1"",""2263""
","
","","","","","","370.5","<p> The kids are happy.<div style='float: left;'><img src='images/i9.png' width = '640' height = '360'></img>","","0","instructions","","","","","","","","","","","","","",""
"learning-instructions","31","283746","0.0-8.0-0.0-0.23","1846","2","2","""event"",""trial"",""time""
""fullscreenenter"",""1"",""2263""
","
","
","""event"",""trial"",""time""
""fullscreenenter"",""1"",""2263""
","
","","","","","","262.69999999552965","<p> The kids are sad.<div style='float: left;'><img src='images/i10.png' width = '640' height = '360'></img>","","0","instructions","","","","","","","","","","","","","",""
"learning-instructions","32","286274","0.0-8.0-0.0-0.24","1846","2","2","""event"",""trial"",""time""
""fullscreenenter"",""1"",""2263""
","
","
","""event"",""trial"",""time""
""fullscreenenter"",""1"",""2263""
","
","","","","","","310.29999999701977","<p> The kids are sad.<div style='float: left;'><img src='images/i11.png' width = '640' height = '360'></img>","","0","instructions","","","","","","","","","","","","","",""
"learning-instructions","33","294763","0.0-8.0-0.0-0.25","1846","2","2","""event"",""trial"",""time""
""fullscreenenter"",""1"",""2263""
","
","
","""event"",""trial"",""time""
""fullscreenenter"",""1"",""2263""
","
","","","","","","360.19999999552965","<p> As you can see, selecting the wrong park for the soccer ball made the kids sad most of the time, but not all the time.","","0","instructions","","","","","","","","","","","","","",""
"learning-instructions","34","304872","0.0-8.0-0.0-0.26","1846","2","2","""event"",""trial"",""time""
""fullscreenenter"",""1"",""2263""
","
","
","""event"",""trial"",""time""
""fullscreenenter"",""1"",""2263""
","
","","","","","","988.7000000029802","<p> The different pieces of equipment belong in different parks. You need to try to learn which is the best park for each piece of equipment.","","0","instructions","","","","","","","","","","","","","",""
"learning-instructions","35","321715","0.0-8.0-0.0-0.27","1846","2","2","""event"",""trial"",""time""
""fullscreenenter"",""1"",""2263""
","
","
","""event"",""trial"",""time""
""fullscreenenter"",""1"",""2263""
","
","","","","","","441.6000000014901","<p> Try to choose the best park for each piece of equipment, because you will <b> WIN </b> 1 point for each time you make the kids happy and <b>LOSE</b> 1 point for each time you make them sad. </p><p> Remember, if you make the best choice, you will win 1 point most of the time, but not all the time. </p>","","0","instructions","","","","","","","","","","","","","",""
"learning-instructions","36","327580","0.0-8.0-0.0-0.28","1846","2","2","""event"",""trial"",""time""
""fullscreenenter"",""1"",""2263""
","
","
","""event"",""trial"",""time""
""fullscreenenter"",""1"",""2263""
","
","","","","","","378","<p> This is just a practice round, but in the real game, your bonus payment will depend on your total number of points.","","0","instructions","","","","","","","","","","","","","",""
"learning-instructions","37","338383","0.0-8.0-0.0-0.29","1846","2","2","""event"",""trial"",""time""
""fullscreenenter"",""1"",""2263""
","
","
","""event"",""trial"",""time""
""fullscreenenter"",""1"",""2263""
","
","","","","","","480.70000000298023","<p> The position where each park appears will change throughout the game. </p><p> The position where the park appears <i> does not </i> influence how likely the kids are to be happy or sad. </p>","","0","instructions","","","","","","","","","","","","","",""
"learning-instructions","38","351071","0.0-8.0-0.0-0.30","1846","2","2","""event"",""trial"",""time""
""fullscreenenter"",""1"",""2263""
","
","
","""event"",""trial"",""time""
""fullscreenenter"",""1"",""2263""
","
","","","","","","2198.7999999970198","<p> You will have 4 seconds to make each choice. Try to respond before time runs out! </p><p> You will lose 1 point each time you do not make a response. </p>","","0","instructions","","","","","","","","","","","","","",""
"learning-instructions","39","358693","0.0-8.0-0.0-0.31","1846","2","2","""event"",""trial"",""time""
""fullscreenenter"",""1"",""2263""
","
","
","""event"",""trial"",""time""
""fullscreenenter"",""1"",""2263""
","
","","","","","","820.5","<p> Remember, you should use the 1, 2, and 3 keys to select the park for each piece of equipment. </p><br><div class=""choice-instructions-grid""> <div class=""choice-option""><img src=""images/park1.png"" class=""choice-option-img"" stage=""instructions"" position=""0"" ><div class=""choice-option-text""> Press ""1."" </div></div><div class=""choice-option""><img src=""images/park2.png"" class=""choice-option-img"" stage=""instructions"" position=""1"" ><div class=""choice-option-text""> Press ""2."" </div></div><div class=""choice-option""><img src=""images/park3.png"" class=""choice-option-img"" stage=""instructions"" position=""2"" ><div class=""choice-option-text""> Press ""3."" </div></div></div>","","0","instructions","","","","","","","","","","","","","",""
"html-button-response","40","362547","0.0-8.0-1.0","1846","2","2","""event"",""trial"",""time""
""fullscreenenter"",""1"",""2263""
","
","
","""event"",""trial"",""time""
""fullscreenenter"",""1"",""2263""
","
","","","","","","3744.89999999851","<p> Ready to practice? </p>","0","","","","","","","","","","","","","","","",""
"html-keyboard-response","41","363181","0.0-8.0-2.0-0.0","1846","2","2","""event"",""trial"",""time""
""fullscreenenter"",""1"",""2263""
","
","
","""event"",""trial"",""time""
""fullscreenenter"",""1"",""2263""
","
","","","","","","null","<div style=""font-size:60px;"">+</div>","null","","fixation","","","","","","","","","","","","","",""
"learning-trial","42","367201","0.0-8.0-2.0-1.0","1846","2","2","""event"",""trial"",""time""
""fullscreenenter"",""1"",""2263""
","
","
","""event"",""trial"",""time""
""fullscreenenter"",""1"",""2263""
","
","","","","","","2776.2999999970198","images/racket4.png","","","practice","images/park1.png","images/park3.png","images/park2.png","[0,2,1]","1","2","2","images/park3.png","-1","practice","","","",""
"html-keyboard-response","43","367720","0.0-8.0-2.0-0.1","1846","2","2","""event"",""trial"",""time""
""fullscreenenter"",""1"",""2263""
","
","
","""event"",""trial"",""time""
""fullscreenenter"",""1"",""2263""
","
","","","","","","null","<div style=""font-size:60px;"">+</div>","null","","fixation","","","","","","","","","","","","","",""
"learning-trial","44","371741","0.0-8.0-2.0-1.1","1846","2","2","""event"",""trial"",""time""
""fullscreenenter"",""1"",""2263""
","
","
","""event"",""trial"",""time""
""fullscreenenter"",""1"",""2263""
","
","","","","","","1396","images/ball4.png","","","practice","images/park2.png","images/park1.png","images/park3.png","[1,0,2]","1","0","1","images/park2.png","1","practice","","","",""
"html-keyboard-response","45","372251","0.0-8.0-2.0-0.2","1846","2","2","""event"",""trial"",""time""
""fullscreenenter"",""1"",""2263""
","
","
","""event"",""trial"",""time""
""fullscreenenter"",""1"",""2263""
","
","","","","","","null","<div style=""font-size:60px;"">+</div>","null","","fixation","","","","","","","","","","","","","",""
"learning-trial","46","376261","0.0-8.0-2.0-1.2","1846","2","2","""event"",""trial"",""time""
""fullscreenenter"",""1"",""2263""
","
","
","""event"",""trial"",""time""
""fullscreenenter"",""1"",""2263""
","
","","","","","","2557.60000000149","images/ball3.png","","","practice","images/park2.png","images/park3.png","images/park1.png","[1,2,0]","0","2","2","images/park3.png","-1","practice","","","",""
"html-keyboard-response","47","376770","0.0-8.0-2.0-0.3","1846","2","2","""event"",""trial"",""time""
""fullscreenenter"",""1"",""2263""
","
","
","""event"",""trial"",""time""
""fullscreenenter"",""1"",""2263""
","
","","","","","","null","<div style=""font-size:60px;"">+</div>","null","","fixation","","","","","","","","","","","","","",""
"learning-trial","48","380791","0.0-8.0-2.0-1.3","1846","2","2","""event"",""trial"",""time""
""fullscreenenter"",""1"",""2263""
","
","
","""event"",""trial"",""time""
""fullscreenenter"",""1"",""2263""
","
","","","","","","2204.2999999970198","images/ball1.png","","","practice","images/park3.png","images/park2.png","images/park1.png","[2,1,0]","2","0","2","images/park2.png","-1","practice","","","",""
"html-keyboard-response","49","381311","0.0-8.0-2.0-0.4","1846","2","2","""event"",""trial"",""time""
""fullscreenenter"",""1"",""2263""
","
","
","""event"",""trial"",""time""
""fullscreenenter"",""1"",""2263""
","
","","","","","","null","<div style=""font-size:60px;"">+</div>","null","","fixation","","","","","","","","","","","","","",""
"learning-trial","50","385331","0.0-8.0-2.0-1.4","1846","2","2","""event"",""trial"",""time""
""fullscreenenter"",""1"",""2263""
","
","
","""event"",""trial"",""time""
""fullscreenenter"",""1"",""2263""
","
","","","","","","2813","images/racket4.png","","","practice","images/park1.png","images/park3.png","images/park2.png","[0,2,1]","1","2","3","images/park2.png","1","practice","","","",""
"html-keyboard-response","51","385840","0.0-8.0-2.0-0.5","1846","2","2","""event"",""trial"",""time""
""fullscreenenter"",""1"",""2263""
","
","
","""event"",""trial"",""time""
""fullscreenenter"",""1"",""2263""
","
","","","","","","null","<div style=""font-size:60px;"">+</div>","null","","fixation","","","","","","","","","","","","","",""
"learning-trial","52","389842","0.0-8.0-2.0-1.5","1846","2","2","""event"",""trial"",""time""
""fullscreenenter"",""1"",""2263""
","
","
","""event"",""trial"",""time""
""fullscreenenter"",""1"",""2263""
","
","","","","","","1752.4000000059605","images/racket3.png","","","practice","images/park2.png","images/park3.png","images/park1.png","[1,2,0]","2","1","1","images/park2.png","-1","practice","","","",""
"html-keyboard-response","53","390344","0.0-8.0-2.0-0.6","1846","2","2","""event"",""trial"",""time""
""fullscreenenter"",""1"",""2263""
","
","
","""event"",""trial"",""time""
""fullscreenenter"",""1"",""2263""
","
","","","","","","null","<div style=""font-size:60px;"">+</div>","null","","fixation","","","","","","","","","","","","","",""
"learning-trial","54","394346","0.0-8.0-2.0-1.6","1846","2","2","""event"",""trial"",""time""
""fullscreenenter"",""1"",""2263""
","
","
","""event"",""trial"",""time""
""fullscreenenter"",""1"",""2263""
","
","","","","","","1618","images/ball3.png","","","practice","images/park2.png","images/park3.png","images/park1.png","[1,2,0]","0","2","3","images/park1.png","1","practice","","","",""
"html-keyboard-response","55","394848","0.0-8.0-2.0-0.7","1846","2","2","""event"",""trial"",""time""
""fullscreenenter"",""1"",""2263""
","
","
","""event"",""trial"",""time""
""fullscreenenter"",""1"",""2263""
","
","","","","","","null","<div style=""font-size:60px;"">+</div>","null","","fixation","","","","","","","","","","","","","",""
"learning-trial","56","398850","0.0-8.0-2.0-1.7","1846","2","2","""event"",""trial"",""time""
""fullscreenenter"",""1"",""2263""
","
","
","""event"",""trial"",""time""
""fullscreenenter"",""1"",""2263""
","
","","","","","","1272.7999999970198","images/racket1.png","","","practice","images/park3.png","images/park1.png","images/park2.png","[2,0,1]","0","1","3","images/park2.png","-1","practice","","","",""
"html-keyboard-response","57","399361","0.0-8.0-2.0-0.8","1846","2","2","""event"",""trial"",""time""
""fullscreenenter"",""1"",""2263""
","
","
","""event"",""trial"",""time""
""fullscreenenter"",""1"",""2263""
","
","","","","","","null","<div style=""font-size:60px;"">+</div>","null","","fixation","","","","","","","","","","","","","",""
"learning-trial","58","403363","0.0-8.0-2.0-1.8","1846","2","2","""event"",""trial"",""time""
""fullscreenenter"",""1"",""2263""
","
","
","""event"",""trial"",""time""
""fullscreenenter"",""1"",""2263""
","
","","","","","","1828.6000000014901","images/ball4.png","","","practice","images/park2.png","images/park3.png","images/park1.png","[1,2,0]","1","0","3","images/park1.png","-1","practice","","","",""
"html-keyboard-response","59","403865","0.0-8.0-2.0-0.9","1846","2","2","""event"",""trial"",""time""
""fullscreenenter"",""1"",""2263""
","
","
","""event"",""trial"",""time""
""fullscreenenter"",""1"",""2263""
","
","","","","","","null","<div style=""font-size:60px;"">+</div>","null","","fixation","","","","","","","","","","","","","",""
"learning-trial","60","407867","0.0-8.0-2.0-1.9","1846","2","2","""event"",""trial"",""time""
""fullscreenenter"",""1"",""2263""
","
","
","""event"",""trial"",""time""
""fullscreenenter"",""1"",""2263""
","
","","","","","","1683.6999999955297","images/racket3.png","","","practice","images/park1.png","images/park3.png","images/park2.png","[0,2,1]","2","1","2","images/park3.png","1","practice","","","",""
"html-keyboard-response","61","408368","0.0-8.0-2.0-0.10","1846","2","2","""event"",""trial"",""time""
""fullscreenenter"",""1"",""2263""
","
","
","""event"",""trial"",""time""
""fullscreenenter"",""1"",""2263""
","
","","","","","","null","<div style=""font-size:60px;"">+</div>","null","","fixation","","","","","","","","","","","","","",""
"learning-trial","62","412371","0.0-8.0-2.0-1.10","1846","2","2","""event"",""trial"",""time""
""fullscreenenter"",""1"",""2263""
","
","
","""event"",""trial"",""time""
""fullscreenenter"",""1"",""2263""
","
","","","","","","1570.2999999970198","images/racket1.png","","","practice","images/park1.png","images/park2.png","images/park3.png","[0,1,2]","0","0","2","images/park2.png","-1","practice","","","",""
"html-keyboard-response","63","412877","0.0-8.0-2.0-0.11","1846","2","2","""event"",""trial"",""time""
""fullscreenenter"",""1"",""2263""
","
","
","""event"",""trial"",""time""
""fullscreenenter"",""1"",""2263""
","
","","","","","","null","<div style=""font-size:60px;"">+</div>","null","","fixation","","","","","","","","","","","","","",""
"learning-trial","64","416880","0.0-8.0-2.0-1.11","1846","2","2","""event"",""trial"",""time""
""fullscreenenter"",""1"",""2263""
","
","
","""event"",""trial"",""time""
""fullscreenenter"",""1"",""2263""
","
","","","","","","2093.2000000029802","images/ball1.png","","","practice","images/park1.png","images/park2.png","images/park3.png","[0,1,2]","2","2","1","images/park1.png","1","practice","","","",""
"html-button-response","65","419925","0.0-8.0-3.0","1846","2","2","""event"",""trial"",""time""
""fullscreenenter"",""1"",""2263""
","
","
","""event"",""trial"",""time""
""fullscreenenter"",""1"",""2263""
","
","","","","","","3043.39999999851","<p> You earned -2 points in the practice round! </p>","0","","break","","","","","","","","","","","","","",""
"learning-instructions","66","429837","0.0-8.0-4.0-0.0","1846","2","2","""event"",""trial"",""time""
""fullscreenenter"",""1"",""2263""
","
","
","""event"",""trial"",""time""
""fullscreenenter"",""1"",""2263""
","
","","","","","","1424.8000000044703","<p> It's almost time to start the real game. </p><p> Before you start, we're going to ask you a few questions about how the game works. </p>","","0","instructions","","","","","","","","","","","","","",""
"preload","67","433303","0.0-8.0-5.0","1846","2","2","""event"",""trial"",""time""
""fullscreenenter"",""1"",""2263""
","
","
","""event"",""trial"",""time""
""fullscreenenter"",""1"",""2263""
","
","true","false","[]","[]","[]","","","","","","","","","","","","","","","","","","",""
"comp-q","68","440592","0.0-8.0-6.0-0.0","1846","2","2","""event"",""trial"",""time""
""fullscreenenter"",""1"",""2263""
","
","
","""event"",""trial"",""time""
""fullscreenenter"",""1"",""2263""
","
","","","","","","1829.5","<p> <b> True or False? </b> </p><p> If you choose the best option, you will always earn 1 point. </p>","","1","comp_question","","","","","","","","","","","true","","",""
"comp-q","69","449053","0.0-8.0-6.0-1.0","1846","2","2","""event"",""trial"",""time""
""fullscreenenter"",""1"",""2263""
","
","
","""event"",""trial"",""time""
""fullscreenenter"",""1"",""2263""
","
","","","","","","2780.9000000059605","<p><b> That's right! </b> Sometimes you will lose 1 point, even if you choose the best option. </p>","","0","comp_answer","","","","","","","","","","","","","",""
"comp-q","70","454663","0.0-8.0-6.0-0.1","1846","2","2","""event"",""trial"",""time""
""fullscreenenter"",""1"",""2263""
","
","
","""event"",""trial"",""time""
""fullscreenenter"",""1"",""2263""
","
","","","","","","970.6000000014901","<p> <b> True or False? </b> </p><p> You will have as much time as you want to make each choice. </p>","","1","comp_question","","","","","","","","","","","true","","",""
"comp-q","71","461541","0.0-8.0-6.0-1.1","1846","2","2","""event"",""trial"",""time""
""fullscreenenter"",""1"",""2263""
","
","
","""event"",""trial"",""time""
""fullscreenenter"",""1"",""2263""
","
","","","","","","2048.89999999851","<p> <b> That's right! </b> You will only have 4 seconds to make each choice. </p>","","0","comp_answer","","","","","","","","","","","","","",""
"comp-q","72","468119","0.0-8.0-6.0-0.2","1846","2","2","""event"",""trial"",""time""
""fullscreenenter"",""1"",""2263""
","
","
","""event"",""trial"",""time""
""fullscreenenter"",""1"",""2263""
","
","","","","","","407.19999999552965","<p> <b> True or False? </b> </p><p> You should use the '1', '2', and '3' keys to make your choices. </p>","","0","comp_question","","","","","","","","","","","true","","",""
"comp-q","73","479533","0.0-8.0-6.0-1.2","1846","2","2","""event"",""trial"",""time""
""fullscreenenter"",""1"",""2263""
","
","
","""event"",""trial"",""time""
""fullscreenenter"",""1"",""2263""
","
","","","","","","6571.30000000447","<p> <b> That's right! </b> You should use the '1', '2', and '3' keys to make each choice. </p>","","0","comp_answer","","","","","","","","","","","","","",""
"learning-instructions","74","490301","0.0-8.0-7.0-0.0","1846","2","2","""event"",""trial"",""time""
""fullscreenenter"",""1"",""2263""
","
","
","""event"",""trial"",""time""
""fullscreenenter"",""1"",""2263""
","
","","","","","","2268.39999999851","<p> It's now time to start the real game. </p>Do your best, because the points you earn in the next rounds will influence your bonus payment. </p>","","0","instructions","","","","","","","","","","","","","",""
"preload","75","494688","0.0-9.0-0.0","1846","2","2","""event"",""trial"",""time""
""fullscreenenter"",""1"",""2263""
","
","
","""event"",""trial"",""time""
""fullscreenenter"",""1"",""2263""
","
","true","false","[]","[]","[]","","","","","","","","","","","","","","","","","","",""
"learning-instructions","76","508822","0.0-9.0-1.0-0.0","1846","2","2","""event"",""trial"",""time""
""fullscreenenter"",""1"",""2263""
","
","
","""event"",""trial"",""time""
""fullscreenenter"",""1"",""2263""
","
","","","","","","5809.70000000298","<p> Your goal in this round is to travel the world by putting fuel into different vehicles. </p><p> To travel, you will need to put fuel into many different vehicles. </p></div>","","0","instructions","","","","","","","","","","","","","",""
"learning-instructions","77","518242","0.0-9.0-1.0-0.1","1846","2","2","""event"",""trial"",""time""
""fullscreenenter"",""1"",""2263""
","
","
","""event"",""trial"",""time""
""fullscreenenter"",""1"",""2263""
","
","","","","","","639.8999999985099","<p> On each turn, you will see a picture of one of your vehicles and three different types of fuel.  </p><p> You need to select which kind of fuel to use.  </p>","","0","instructions","","","","","","","","","","","","","",""
"learning-instructions","78","527303","0.0-9.0-1.0-0.2","1846","2","2","""event"",""trial"",""time""
""fullscreenenter"",""1"",""2263""
","
","
","""event"",""trial"",""time""
""fullscreenenter"",""1"",""2263""
","
","","","","","","2180.8000000044703","<p> You can select the fuel on the left by pressing 1, the fuel in the middle by pressing 2, and the fuel on the right by pressing 3. </p><br><div class=""choice-instructions-grid""> <div class=""choice-option""><img src=""images/vehicles_choice1.png"" class=""choice-option-img"" stage=""instructions"" position=""0"" ><div class=""choice-option-text""> Press ""1."" </div></div><div class=""choice-option""><img src=""images/vehicles_choice2.png"" class=""choice-option-img"" stage=""instructions"" position=""1"" ><div class=""choice-option-text""> Press ""2."" </div></div><div class=""choice-option""><img src=""images/vehicles_choice3.png"" class=""choice-option-img"" stage=""instructions"" position=""2"" ><div class=""choice-option-text""> Press ""3."" </div></div></div>","","0","instructions","","","","","","","","","","","","","",""
"learning-instructions","79","533461","0.0-9.0-1.0-0.3","1846","2","2","""event"",""trial"",""time""
""fullscreenenter"",""1"",""2263""
","
","
","""event"",""trial"",""time""
""fullscreenenter"",""1"",""2263""
","
","","","","","","918.8999999985099","<p> If the fuel you chose works for that vehicle, it will start, and </p><p> you will get to travel. </p><div style='float: center;'><img src='images/check.png' width = '200' height = '200'></img>","","0","instructions","","","","","","","","","","","","","",""
"learning-instructions","80","539347","0.0-9.0-1.0-0.4","1846","2","2","""event"",""trial"",""time""
""fullscreenenter"",""1"",""2263""
","
","
","""event"",""trial"",""time""
""fullscreenenter"",""1"",""2263""
","
","","","","","","1335.0999999940395","<p> But, if the fuel you chose does not work, your vehicle will not move. </p><div style='float: center;'><img src='images/x.png' width = '200' height = '200'></img>","","0","instructions","","","","","","","","","","","","","",""
"learning-instructions","81","550353","0.0-9.0-1.0-0.5","1846","2","2","""event"",""trial"",""time""
""fullscreenenter"",""1"",""2263""
","
","
","""event"",""trial"",""time""
""fullscreenenter"",""1"",""2263""
","
","","","","","","321.30000000447035","<p> Importantly, each vehicle has a fuel that works best for it. </p><p> If you choose the fuel that works best for the vehicle, it will be more likely to start. </p>","","0","instructions","","","","","","","","","","","","","",""
"learning-instructions","82","560789","0.0-9.0-1.0-0.6","1846","2","2","""event"",""trial"",""time""
""fullscreenenter"",""1"",""2263""
","
","
","""event"",""trial"",""time""
""fullscreenenter"",""1"",""2263""
","
","","","","","","217.30000000447035","<p> However, even if you choose the best fuel for the vehicle, it may still not move. </p><p> Similarly, even if you choose the <i>wrong</i> fuel, the vehicle may still start and let you travel.","","0","instructions","","","","","","","","","","","","","",""
"learning-instructions","83","573439","0.0-9.0-1.0-0.7","1846","2","2","""event"",""trial"",""time""
""fullscreenenter"",""1"",""2263""
","
","
","""event"",""trial"",""time""
""fullscreenenter"",""1"",""2263""
","
","","","","","","296.79999999701977","<p> Try to choose the best fuel for each vehicle, because you will <b> WIN </b> 1 point each time you get to travel and <b>LOSE</b> 1 point each time a vehicle does not start. </p><p> Your bonus payment will depend on your total number of points.","","0","instructions","","","","","","","","","","","","","",""
"learning-instructions","84","582811","0.0-9.0-1.0-0.8","1846","2","2","""event"",""trial"",""time""
""fullscreenenter"",""1"",""2263""
","
","
","""event"",""trial"",""time""
""fullscreenenter"",""1"",""2263""
","
","","","","","","1108.7999999970198","<p> The position of each type of fuel will change throughout the round. </p><p> The fuel's position <i> does not </i> influence how likely it is to make each vehicle start. </p>","","0","instructions","","","","","","","","","","","","","",""
"learning-instructions","85","592804","0.0-9.0-1.0-0.9","1846","2","2","""event"",""trial"",""time""
""fullscreenenter"",""1"",""2263""
","
","
","""event"",""trial"",""time""
""fullscreenenter"",""1"",""2263""
","
","","","","","","692","<p> You will have 4 seconds to make each choice. Try to respond before time runs out! </p><p> You will lose 1 point each time you do not make a response. </p>","","0","instructions","","","","","","","","","","","","","",""
"html-keyboard-response","86","593419","0.0-9.0-2.0-0.0","1846","2","2","""event"",""trial"",""time""
""fullscreenenter"",""1"",""2263""
","
","
","""event"",""trial"",""time""
""fullscreenenter"",""1"",""2263""
","
","","","","","","null","<div style=""font-size:60px;"">+</div>","null","","fixation","","","","","","","","","","","","","",""
"learning-trial","87","597431","0.0-9.0-2.0-1.0","1846","2","2","""event"",""trial"",""time""
""fullscreenenter"",""1"",""2263""
","
","
","""event"",""trial"",""time""
""fullscreenenter"",""1"",""2263""
","
","","","","","","1485.8000000044703","images/truck2.png","","","learning","images/vehicles_choice1.png","images/vehicles_choice2.png","images/vehicles_choice3.png","[0,1,2]","1","1","2","images/vehicles_choice2.png","1","vehicles","","truck","2","0"
"html-keyboard-response","88","597951","0.0-9.0-2.0-0.1","1846","2","2","""event"",""trial"",""time""
""fullscreenenter"",""1"",""2263""
","
","
","""event"",""trial"",""time""
""fullscreenenter"",""1"",""2263""
","
","","","","","","null","<div style=""font-size:60px;"">+</div>","null","","fixation","","","","","","","","","","","","","",""
"learning-trial","89","601971","0.0-9.0-2.0-1.1","1846","2","2","""event"",""trial"",""time""
""fullscreenenter"",""1"",""2263""
","
","
","""event"",""trial"",""time""
""fullscreenenter"",""1"",""2263""
","
","","","","","","1170.9000000059605","images/plane2.png","","","learning","images/vehicles_choice3.png","images/vehicles_choice1.png","images/vehicles_choice2.png","[2,0,1]","2","0","1","images/vehicles_choice3.png","1","vehicles","","plane","2","0"
"html-keyboard-response","90","602491","0.0-9.0-2.0-0.2","1846","2","2","""event"",""trial"",""time""
""fullscreenenter"",""1"",""2263""
","
","
","""event"",""trial"",""time""
""fullscreenenter"",""1"",""2263""
","
","","","","","","null","<div style=""font-size:60px;"">+</div>","null","","fixation","","","","","","","","","","","","","",""
"learning-trial","91","606511","0.0-9.0-2.0-1.2","1846","2","2","""event"",""trial"",""time""
""fullscreenenter"",""1"",""2263""
","
","
","""event"",""trial"",""time""
""fullscreenenter"",""1"",""2263""
","
","","","","","","1277.8999999985099","images/plane1.png","","","learning","images/vehicles_choice2.png","images/vehicles_choice1.png","images/vehicles_choice3.png","[1,0,2]","0","1","1","images/vehicles_choice2.png","1","vehicles","","plane","2","0"
"html-keyboard-response","92","607031","0.0-9.0-2.0-0.3","1846","2","2","""event"",""trial"",""time""
""fullscreenenter"",""1"",""2263""
","
","
","""event"",""trial"",""time""
""fullscreenenter"",""1"",""2263""
","
","","","","","","null","<div style=""font-size:60px;"">+</div>","null","","fixation","","","","","","","","","","","","","",""
"learning-trial","93","611046","0.0-9.0-2.0-1.3","1846","2","2","""event"",""trial"",""time""
""fullscreenenter"",""1"",""2263""
","
","
","""event"",""trial"",""time""
""fullscreenenter"",""1"",""2263""
","
","","","","","","1381.6000000014901","images/plane5.png","","","learning","images/vehicles_choice3.png","images/vehicles_choice2.png","images/vehicles_choice1.png","[2,1,0]","1","1","3","images/vehicles_choice1.png","-1","vehicles","","plane","2","0"
"html-keyboard-response","94","611571","0.0-9.0-2.0-0.4","1846","2","2","""event"",""trial"",""time""
""fullscreenenter"",""1"",""2263""
","
","
","""event"",""trial"",""time""
""fullscreenenter"",""1"",""2263""
","
","","","","","","null","<div style=""font-size:60px;"">+</div>","null","","fixation","","","","","","","","","","","","","",""
"learning-trial","95","615581","0.0-9.0-2.0-1.4","1846","2","2","""event"",""trial"",""time""
""fullscreenenter"",""1"",""2263""
","
","
","""event"",""trial"",""time""
""fullscreenenter"",""1"",""2263""
","
","","","","","","2273.5","images/truck3.png","","","learning","images/vehicles_choice2.png","images/vehicles_choice1.png","images/vehicles_choice3.png","[1,0,2]","2","2","2","images/vehicles_choice1.png","-1","vehicles","","truck","2","0"
"html-keyboard-response","96","616090","0.0-9.0-2.0-0.5","1846","2","2","""event"",""trial"",""time""
""fullscreenenter"",""1"",""2263""
","
","
","""event"",""trial"",""time""
""fullscreenenter"",""1"",""2263""
","
","","","","","","null","<div style=""font-size:60px;"">+</div>","null","","fixation","","","","","","","","","","","","","",""
"learning-trial","97","620111","0.0-9.0-2.0-1.5","1846","2","2","""event"",""trial"",""time""
""fullscreenenter"",""1"",""2263""
","
","
","""event"",""trial"",""time""
""fullscreenenter"",""1"",""2263""
","
","","","","","","1832.3999999985099","images/plane1.png","","","learning","images/vehicles_choice3.png","images/vehicles_choice1.png","images/vehicles_choice2.png","[2,0,1]","0","1","1","images/vehicles_choice3.png","-1","vehicles","","plane","2","0"
"html-keyboard-response","98","620630","0.0-9.0-2.0-0.6","1846","2","2","""event"",""trial"",""time""
""fullscreenenter"",""1"",""2263""
","
","
","""event"",""trial"",""time""
""fullscreenenter"",""1"",""2263""
","
","","","","","","null","<div style=""font-size:60px;"">+</div>","null","","fixation","","","","","","","","","","","","","",""
"learning-trial","99","624633","0.0-9.0-2.0-1.6","1846","2","2","""event"",""trial"",""time""
""fullscreenenter"",""1"",""2263""
","
","
","""event"",""trial"",""time""
""fullscreenenter"",""1"",""2263""
","
","","","","","","1417.1000000014901","images/truck2.png","","","learning","images/vehicles_choice1.png","images/vehicles_choice3.png","images/vehicles_choice2.png","[0,2,1]","1","2","3","images/vehicles_choice2.png","1","vehicles","","truck","2","0"
"html-keyboard-response","100","625134","0.0-9.0-2.0-0.7","1846","2","2","""event"",""trial"",""time""
""fullscreenenter"",""1"",""2263""
","
","
","""event"",""trial"",""time""
""fullscreenenter"",""1"",""2263""
","
","","","","","","null","<div style=""font-size:60px;"">+</div>","null","","fixation","","","","","","","","","","","","","",""
"learning-trial","101","629136","0.0-9.0-2.0-1.7","1846","2","2","""event"",""trial"",""time""
""fullscreenenter"",""1"",""2263""
","
","
","""event"",""trial"",""time""
""fullscreenenter"",""1"",""2263""
","
","","","","","","1457.7000000029802","images/plane1.png","","","learning","images/vehicles_choice1.png","images/vehicles_choice2.png","images/vehicles_choice3.png","[0,1,2]","0","0","1","images/vehicles_choice1.png","1","vehicles","","plane","2","0"
"html-keyboard-response","102","629638","0.0-9.0-2.0-0.8","1846","2","2","""event"",""trial"",""time""
""fullscreenenter"",""1"",""2263""
","
","
","""event"",""trial"",""time""
""fullscreenenter"",""1"",""2263""
","
","","","","","","null","<div style=""font-size:60px;"">+</div>","null","","fixation","","","","","","","","","","","","","",""
"learning-trial","103","633641","0.0-9.0-2.0-1.8","1846","2","2","""event"",""trial"",""time""
""fullscreenenter"",""1"",""2263""
","
","
","""event"",""trial"",""time""
""fullscreenenter"",""1"",""2263""
","
","","","","","","1660.2999999970198","images/train5.png","","","learning","images/vehicles_choice1.png","images/vehicles_choice2.png","images/vehicles_choice3.png","[0,1,2]","1","1","2","images/vehicles_choice2.png","1","vehicles","","train","2","0"
"html-keyboard-response","104","634143","0.0-9.0-2.0-0.9","1846","2","2","""event"",""trial"",""time""
""fullscreenenter"",""1"",""2263""
","
","
","""event"",""trial"",""time""
""fullscreenenter"",""1"",""2263""
","
","","","","","","null","<div style=""font-size:60px;"">+</div>","null","","fixation","","","","","","","","","","","","","",""
"learning-trial","105","638145","0.0-9.0-2.0-1.9","1846","2","2","""event"",""trial"",""time""
""fullscreenenter"",""1"",""2263""
","
","
","""event"",""trial"",""time""
""fullscreenenter"",""1"",""2263""
","
","","","","","","1295.7000000029802","images/train5.png","","","learning","images/vehicles_choice1.png","images/vehicles_choice3.png","images/vehicles_choice2.png","[0,2,1]","1","2","2","images/vehicles_choice3.png","-1","vehicles","","train","2","0"
"html-keyboard-response","106","638646","0.0-9.0-2.0-0.10","1846","2","2","""event"",""trial"",""time""
""fullscreenenter"",""1"",""2263""
","
","
","""event"",""trial"",""time""
""fullscreenenter"",""1"",""2263""
","
","","","","","","null","<div style=""font-size:60px;"">+</div>","null","","fixation","","","","","","","","","","","","","",""
"learning-trial","107","642649","0.0-9.0-2.0-1.10","1846","2","2","""event"",""trial"",""time""
""fullscreenenter"",""1"",""2263""
","
","
","""event"",""trial"",""time""
""fullscreenenter"",""1"",""2263""
","
","","","","","","338.30000000447035","images/train2.png","","","learning","images/vehicles_choice1.png","images/vehicles_choice3.png","images/vehicles_choice2.png","[0,2,1]","2","1","1","images/vehicles_choice1.png","-1","vehicles","","train","2","0"
"html-keyboard-response","108","643151","0.0-9.0-2.0-0.11","1846","2","2","""event"",""trial"",""time""
""fullscreenenter"",""1"",""2263""
","
","
","""event"",""trial"",""time""
""fullscreenenter"",""1"",""2263""
","
","","","","","","null","<div style=""font-size:60px;"">+</div>","null","","fixation","","","","","","","","","","","","","",""
"learning-trial","109","647154","0.0-9.0-2.0-1.11","1846","2","2","""event"",""trial"",""time""
""fullscreenenter"",""1"",""2263""
","
","
","""event"",""trial"",""time""
""fullscreenenter"",""1"",""2263""
","
","","","","","","1143.8999999985099","images/train2.png","","","learning","images/vehicles_choice3.png","images/vehicles_choice1.png","images/vehicles_choice2.png","[2,0,1]","2","0","2","images/vehicles_choice1.png","-1","vehicles","","train","2","0"
"html-keyboard-response","110","647655","0.0-9.0-2.0-0.12","1846","2","2","""event"",""trial"",""time""
""fullscreenenter"",""1"",""2263""
","
","
","""event"",""trial"",""time""
""fullscreenenter"",""1"",""2263""
","
","","","","","","null","<div style=""font-size:60px;"">+</div>","null","","fixation","","","","","","","","","","","","","",""
"learning-trial","111","651657","0.0-9.0-2.0-1.12","1846","2","2","""event"",""trial"",""time""
""fullscreenenter"",""1"",""2263""
","
","
","""event"",""trial"",""time""
""fullscreenenter"",""1"",""2263""
","
","","","","","","951","images/train4.png","","","learning","images/vehicles_choice1.png","images/vehicles_choice3.png","images/vehicles_choice2.png","[0,2,1]","0","0","1","images/vehicles_choice1.png","1","vehicles","","train","2","0"
"html-keyboard-response","112","652159","0.0-9.0-2.0-0.13","1846","2","2","""event"",""trial"",""time""
""fullscreenenter"",""1"",""2263""
","
","
","""event"",""trial"",""time""
""fullscreenenter"",""1"",""2263""
","
","","","","","","null","<div style=""font-size:60px;"">+</div>","null","","fixation","","","","","","","","","","","","","",""
"learning-trial","113","656161","0.0-9.0-2.0-1.13","1846","2","2","""event"",""trial"",""time""
""fullscreenenter"",""1"",""2263""
","
","
","""event"",""trial"",""time""
""fullscreenenter"",""1"",""2263""
","
","","","","","","2392","images/truck3.png","","","learning","images/vehicles_choice2.png","images/vehicles_choice1.png","images/vehicles_choice3.png","[1,0,2]","2","2","1","images/vehicles_choice2.png","-1","vehicles","","truck","2","0"
"html-keyboard-response","114","656664","0.0-9.0-2.0-0.14","1846","2","2","""event"",""trial"",""time""
""fullscreenenter"",""1"",""2263""
","
","
","""event"",""trial"",""time""
""fullscreenenter"",""1"",""2263""
","
","","","","","","null","<div style=""font-size:60px;"">+</div>","null","","fixation","","","","","","","","","","","","","",""
"learning-trial","115","660666","0.0-9.0-2.0-1.14","1846","2","2","""event"",""trial"",""time""
""fullscreenenter"",""1"",""2263""
","
","
","""event"",""trial"",""time""
""fullscreenenter"",""1"",""2263""
","
","","","","","","1175","images/truck3.png","","","learning","images/vehicles_choice3.png","images/vehicles_choice2.png","images/vehicles_choice1.png","[2,1,0]","2","0","3","images/vehicles_choice1.png","-1","vehicles","","truck","2","0"
"html-keyboard-response","116","661168","0.0-9.0-2.0-0.15","1846","2","2","""event"",""trial"",""time""
""fullscreenenter"",""1"",""2263""
","
","
","""event"",""trial"",""time""
""fullscreenenter"",""1"",""2263""
","
","","","","","","null","<div style=""font-size:60px;"">+</div>","null","","fixation","","","","","","","","","","","","","",""
"learning-trial","117","665171","0.0-9.0-2.0-1.15","1846","2","2","""event"",""trial"",""time""
""fullscreenenter"",""1"",""2263""
","
","
","""event"",""trial"",""time""
""fullscreenenter"",""1"",""2263""
","
","","","","","","916.5","images/train2.png","","","learning","images/vehicles_choice2.png","images/vehicles_choice3.png","images/vehicles_choice1.png","[1,2,0]","2","1","2","images/vehicles_choice3.png","1","vehicles","","train","2","0"
"html-keyboard-response","118","665672","0.0-9.0-2.0-0.16","1846","2","2","""event"",""trial"",""time""
""fullscreenenter"",""1"",""2263""
","
","
","""event"",""trial"",""time""
""fullscreenenter"",""1"",""2263""
","
","","","","","","null","<div style=""font-size:60px;"">+</div>","null","","fixation","","","","","","","","","","","","","",""
"learning-trial","119","669675","0.0-9.0-2.0-1.16","1846","2","2","""event"",""trial"",""time""
""fullscreenenter"",""1"",""2263""
","
","
","""event"",""trial"",""time""
""fullscreenenter"",""1"",""2263""
","
","","","","","","1255.1000000014901","images/plane1.png","","","learning","images/vehicles_choice2.png","images/vehicles_choice1.png","images/vehicles_choice3.png","[1,0,2]","0","1","3","images/vehicles_choice3.png","-1","vehicles","","plane","2","0"
"html-keyboard-response","120","670177","0.0-9.0-2.0-0.17","1846","2","2","""event"",""trial"",""time""
""fullscreenenter"",""1"",""2263""
","
","
","""event"",""trial"",""time""
""fullscreenenter"",""1"",""2263""
","
","","","","","","null","<div style=""font-size:60px;"">+</div>","null","","fixation","","","","","","","","","","","","","",""
"learning-trial","121","674180","0.0-9.0-2.0-1.17","1846","2","2","""event"",""trial"",""time""
""fullscreenenter"",""1"",""2263""
","
","
","""event"",""trial"",""time""
""fullscreenenter"",""1"",""2263""
","
","","","","","","1281.6999999955297","images/truck2.png","","","learning","images/vehicles_choice3.png","images/vehicles_choice2.png","images/vehicles_choice1.png","[2,1,0]","1","1","2","images/vehicles_choice2.png","1","vehicles","","truck","2","0"
"html-keyboard-response","122","674681","0.0-9.0-2.0-0.18","1846","2","2","""event"",""trial"",""time""
""fullscreenenter"",""1"",""2263""
","
","
","""event"",""trial"",""time""
""fullscreenenter"",""1"",""2263""
","
","","","","","","null","<div style=""font-size:60px;"">+</div>","null","","fixation","","","","","","","","","","","","","",""
"learning-trial","123","678684","0.0-9.0-2.0-1.18","1846","2","2","""event"",""trial"",""time""
""fullscreenenter"",""1"",""2263""
","
","
","""event"",""trial"",""time""
""fullscreenenter"",""1"",""2263""
","
","","","","","","1254.7999999970198","images/truck2.png","","","learning","images/vehicles_choice3.png","images/vehicles_choice1.png","images/vehicles_choice2.png","[2,0,1]","1","2","1","images/vehicles_choice3.png","-1","vehicles","","truck","2","0"
"html-keyboard-response","124","679185","0.0-9.0-2.0-0.19","1846","2","2","""event"",""trial"",""time""
""fullscreenenter"",""1"",""2263""
","
","
","""event"",""trial"",""time""
""fullscreenenter"",""1"",""2263""
","
","","","","","","null","<div style=""font-size:60px;"">+</div>","null","","fixation","","","","","","","","","","","","","",""
"learning-trial","125","683188","0.0-9.0-2.0-1.19","1846","2","2","""event"",""trial"",""time""
""fullscreenenter"",""1"",""2263""
","
","
","""event"",""trial"",""time""
""fullscreenenter"",""1"",""2263""
","
","","","","","","1139.8999999985099","images/truck2.png","","","learning","images/vehicles_choice3.png","images/vehicles_choice1.png","images/vehicles_choice2.png","[2,0,1]","1","2","3","images/vehicles_choice2.png","1","vehicles","","truck","2","0"
"html-keyboard-response","126","683689","0.0-9.0-2.0-0.20","1846","2","2","""event"",""trial"",""time""
""fullscreenenter"",""1"",""2263""
","
","
","""event"",""trial"",""time""
""fullscreenenter"",""1"",""2263""
","
","","","","","","null","<div style=""font-size:60px;"">+</div>","null","","fixation","","","","","","","","","","","","","",""
"learning-trial","127","687691","0.0-9.0-2.0-1.20","1846","2","2","""event"",""trial"",""time""
""fullscreenenter"",""1"",""2263""
","
","
","""event"",""trial"",""time""
""fullscreenenter"",""1"",""2263""
","
","","","","","","2009.2999999970198","images/train5.png","","","learning","images/vehicles_choice3.png","images/vehicles_choice2.png","images/vehicles_choice1.png","[2,1,0]","1","1","3","images/vehicles_choice1.png","-1","vehicles","","train","2","0"
"html-keyboard-response","128","688193","0.0-9.0-2.0-0.21","1846","2","2","""event"",""trial"",""time""
""fullscreenenter"",""1"",""2263""
","
","
","""event"",""trial"",""time""
""fullscreenenter"",""1"",""2263""
","
","","","","","","null","<div style=""font-size:60px;"">+</div>","null","","fixation","","","","","","","","","","","","","",""
"learning-trial","129","692195","0.0-9.0-2.0-1.21","1846","2","2","""event"",""trial"",""time""
""fullscreenenter"",""1"",""2263""
","
","
","""event"",""trial"",""time""
""fullscreenenter"",""1"",""2263""
","
","","","","","","1445.5","images/plane2.png","","","learning","images/vehicles_choice1.png","images/vehicles_choice3.png","images/vehicles_choice2.png","[0,2,1]","2","1","1","images/vehicles_choice1.png","-1","vehicles","","plane","2","0"
"html-keyboard-response","130","692697","0.0-9.0-2.0-0.22","1846","2","2","""event"",""trial"",""time""
""fullscreenenter"",""1"",""2263""
","
","
","""event"",""trial"",""time""
""fullscreenenter"",""1"",""2263""
","
","","","","","","null","<div style=""font-size:60px;"">+</div>","null","","fixation","","","","","","","","","","","","","",""
"learning-trial","131","696700","0.0-9.0-2.0-1.22","1846","2","2","""event"",""trial"",""time""
""fullscreenenter"",""1"",""2263""
","
","
","""event"",""trial"",""time""
""fullscreenenter"",""1"",""2263""
","
","","","","","","1352.1999999955297","images/plane1.png","","","learning","images/vehicles_choice2.png","images/vehicles_choice1.png","images/vehicles_choice3.png","[1,0,2]","0","1","2","images/vehicles_choice1.png","1","vehicles","","plane","2","0"
"html-keyboard-response","132","697201","0.0-9.0-2.0-0.23","1846","2","2","""event"",""trial"",""time""
""fullscreenenter"",""1"",""2263""
","
","
","""event"",""trial"",""time""
""fullscreenenter"",""1"",""2263""
","
","","","","","","null","<div style=""font-size:60px;"">+</div>","null","","fixation","","","","","","","","","","","","","",""
"learning-trial","133","701204","0.0-9.0-2.0-1.23","1846","2","2","""event"",""trial"",""time""
""fullscreenenter"",""1"",""2263""
","
","
","""event"",""trial"",""time""
""fullscreenenter"",""1"",""2263""
","
","","","","","","1255.2999999970198","images/plane2.png","","","learning","images/vehicles_choice2.png","images/vehicles_choice3.png","images/vehicles_choice1.png","[1,2,0]","2","1","1","images/vehicles_choice2.png","-1","vehicles","","plane","2","0"
"html-keyboard-response","134","701705","0.0-9.0-2.0-0.24","1846","2","2","""event"",""trial"",""time""
""fullscreenenter"",""1"",""2263""
","
","
","""event"",""trial"",""time""
""fullscreenenter"",""1"",""2263""
","
","","","","","","null","<div style=""font-size:60px;"">+</div>","null","","fixation","","","","","","","","","","","","","",""
"learning-trial","135","705707","0.0-9.0-2.0-1.24","1846","2","2","""event"",""trial"",""time""
""fullscreenenter"",""1"",""2263""
","
","
","""event"",""trial"",""time""
""fullscreenenter"",""1"",""2263""
","
","","","","","","726.1000000014901","images/truck1.png","","","learning","images/vehicles_choice3.png","images/vehicles_choice2.png","images/vehicles_choice1.png","[2,1,0]","0","2","1","images/vehicles_choice3.png","-1","vehicles","","truck","2","0"
"html-keyboard-response","136","706209","0.0-9.0-2.0-0.25","1846","2","2","""event"",""trial"",""time""
""fullscreenenter"",""1"",""2263""
","
","
","""event"",""trial"",""time""
""fullscreenenter"",""1"",""2263""
","
","","","","","","null","<div style=""font-size:60px;"">+</div>","null","","fixation","","","","","","","","","","","","","",""
"learning-trial","137","710211","0.0-9.0-2.0-1.25","1846","2","2","""event"",""trial"",""time""
""fullscreenenter"",""1"",""2263""
","
","
","""event"",""trial"",""time""
""fullscreenenter"",""1"",""2263""
","
","","","","","","1688.1999999955297","images/train4.png","","","learning","images/vehicles_choice1.png","images/vehicles_choice3.png","images/vehicles_choice2.png","[0,2,1]","0","0","1","images/vehicles_choice1.png","1","vehicles","","train","2","0"
"html-keyboard-response","138","710714","0.0-9.0-2.0-0.26","1846","2","2","""event"",""trial"",""time""
""fullscreenenter"",""1"",""2263""
","
","
","""event"",""trial"",""time""
""fullscreenenter"",""1"",""2263""
","
","","","","","","null","<div style=""font-size:60px;"">+</div>","null","","fixation","","","","","","","","","","","","","",""
"learning-trial","139","714717","0.0-9.0-2.0-1.26","1846","2","2","""event"",""trial"",""time""
""fullscreenenter"",""1"",""2263""
","
","
","""event"",""trial"",""time""
""fullscreenenter"",""1"",""2263""
","
","","","","","","1105.7999999970198","images/plane5.png","","","learning","images/vehicles_choice3.png","images/vehicles_choice1.png","images/vehicles_choice2.png","[2,0,1]","1","2","1","images/vehicles_choice3.png","-1","vehicles","","plane","2","0"
"html-keyboard-response","140","715218","0.0-9.0-2.0-0.27","1846","2","2","""event"",""trial"",""time""
""fullscreenenter"",""1"",""2263""
","
","
","""event"",""trial"",""time""
""fullscreenenter"",""1"",""2263""
","
","","","","","","null","<div style=""font-size:60px;"">+</div>","null","","fixation","","","","","","","","","","","","","",""
"learning-trial","141","719220","0.0-9.0-2.0-1.27","1846","2","2","""event"",""trial"",""time""
""fullscreenenter"",""1"",""2263""
","
","
","""event"",""trial"",""time""
""fullscreenenter"",""1"",""2263""
","
","","","","","","1091","images/plane5.png","","","learning","images/vehicles_choice1.png","images/vehicles_choice2.png","images/vehicles_choice3.png","[0,1,2]","1","1","2","images/vehicles_choice2.png","1","vehicles","","plane","2","0"
"html-keyboard-response","142","719721","0.0-9.0-2.0-0.28","1846","2","2","""event"",""trial"",""time""
""fullscreenenter"",""1"",""2263""
","
","
","""event"",""trial"",""time""
""fullscreenenter"",""1"",""2263""
","
","","","","","","null","<div style=""font-size:60px;"">+</div>","null","","fixation","","","","","","","","","","","","","",""
"learning-trial","143","723724","0.0-9.0-2.0-1.28","1846","2","2","""event"",""trial"",""time""
""fullscreenenter"",""1"",""2263""
","
","
","""event"",""trial"",""time""
""fullscreenenter"",""1"",""2263""
","
","","","","","","1030.1000000014901","images/truck1.png","","","learning","images/vehicles_choice3.png","images/vehicles_choice1.png","images/vehicles_choice2.png","[2,0,1]","0","1","3","images/vehicles_choice2.png","-1","vehicles","","truck","2","0"
"html-keyboard-response","144","724226","0.0-9.0-2.0-0.29","1846","2","2","""event"",""trial"",""time""
""fullscreenenter"",""1"",""2263""
","
","
","""event"",""trial"",""time""
""fullscreenenter"",""1"",""2263""
","
","","","","","","null","<div style=""font-size:60px;"">+</div>","null","","fixation","","","","","","","","","","","","","",""
"learning-trial","145","728229","0.0-9.0-2.0-1.29","1846","2","2","""event"",""trial"",""time""
""fullscreenenter"",""1"",""2263""
","
","
","""event"",""trial"",""time""
""fullscreenenter"",""1"",""2263""
","
","","","","","","1025.1000000014901","images/truck1.png","","","learning","images/vehicles_choice1.png","images/vehicles_choice2.png","images/vehicles_choice3.png","[0,1,2]","0","0","2","images/vehicles_choice2.png","-1","vehicles","","truck","2","0"
"html-keyboard-response","146","728731","0.0-9.0-2.0-0.30","1846","2","2","""event"",""trial"",""time""
""fullscreenenter"",""1"",""2263""
","
","
","""event"",""trial"",""time""
""fullscreenenter"",""1"",""2263""
","
","","","","","","null","<div style=""font-size:60px;"">+</div>","null","","fixation","","","","","","","","","","","","","",""
"learning-trial","147","732734","0.0-9.0-2.0-1.30","1846","2","2","""event"",""trial"",""time""
""fullscreenenter"",""1"",""2263""
","
","
","""event"",""trial"",""time""
""fullscreenenter"",""1"",""2263""
","
","","","","","","887.5999999940395","images/train5.png","","","learning","images/vehicles_choice2.png","images/vehicles_choice1.png","images/vehicles_choice3.png","[1,0,2]","1","0","1","images/vehicles_choice2.png","1","vehicles","","train","2","0"
"html-keyboard-response","148","733235","0.0-9.0-2.0-0.31","1846","2","2","""event"",""trial"",""time""
""fullscreenenter"",""1"",""2263""
","
","
","""event"",""trial"",""time""
""fullscreenenter"",""1"",""2263""
","
","","","","","","null","<div style=""font-size:60px;"">+</div>","null","","fixation","","","","","","","","","","","","","",""
"learning-trial","149","737237","0.0-9.0-2.0-1.31","1846","2","2","""event"",""trial"",""time""
""fullscreenenter"",""1"",""2263""
","
","
","""event"",""trial"",""time""
""fullscreenenter"",""1"",""2263""
","
","","","","","","1804.8000000044703","images/plane5.png","","","learning","images/vehicles_choice3.png","images/vehicles_choice2.png","images/vehicles_choice1.png","[2,1,0]","1","1","3","images/vehicles_choice1.png","-1","vehicles","","plane","2","0"
"html-keyboard-response","150","737739","0.0-9.0-2.0-0.32","1846","2","2","""event"",""trial"",""time""
""fullscreenenter"",""1"",""2263""
","
","
","""event"",""trial"",""time""
""fullscreenenter"",""1"",""2263""
","
","","","","","","null","<div style=""font-size:60px;"">+</div>","null","","fixation","","","","","","","","","","","","","",""
"learning-trial","151","741755","0.0-9.0-2.0-1.32","1846","2","2","""event"",""trial"",""time""
""fullscreenenter"",""1"",""2263""
","
","
","""event"",""trial"",""time""
""fullscreenenter"",""1"",""2263""
","
","","","","","","695.6000000014901","images/truck3.png","","","learning","images/vehicles_choice1.png","images/vehicles_choice3.png","images/vehicles_choice2.png","[0,2,1]","2","1","2","images/vehicles_choice3.png","-1","vehicles","","truck","2","0"
"html-keyboard-response","152","742256","0.0-9.0-2.0-0.33","1846","2","2","""event"",""trial"",""time""
""fullscreenenter"",""1"",""2263""
","
","
","""event"",""trial"",""time""
""fullscreenenter"",""1"",""2263""
","
","","","","","","null","<div style=""font-size:60px;"">+</div>","null","","fixation","","","","","","","","","","","","","",""
"learning-trial","153","746259","0.0-9.0-2.0-1.33","1846","2","2","""event"",""trial"",""time""
""fullscreenenter"",""1"",""2263""
","
","
","""event"",""trial"",""time""
""fullscreenenter"",""1"",""2263""
","
","","","","","","327.6000000014901","images/plane5.png","","","learning","images/vehicles_choice1.png","images/vehicles_choice2.png","images/vehicles_choice3.png","[0,1,2]","1","1","1","images/vehicles_choice1.png","-1","vehicles","","plane","2","0"
"html-keyboard-response","154","746760","0.0-9.0-2.0-0.34","1846","2","2","""event"",""trial"",""time""
""fullscreenenter"",""1"",""2263""
","
","
","""event"",""trial"",""time""
""fullscreenenter"",""1"",""2263""
","
","","","","","","null","<div style=""font-size:60px;"">+</div>","null","","fixation","","","","","","","","","","","","","",""
"learning-trial","155","750763","0.0-9.0-2.0-1.34","1846","2","2","""event"",""trial"",""time""
""fullscreenenter"",""1"",""2263""
","
","
","""event"",""trial"",""time""
""fullscreenenter"",""1"",""2263""
","
","","","","","","1702.8999999985099","images/plane5.png","","","learning","images/vehicles_choice2.png","images/vehicles_choice1.png","images/vehicles_choice3.png","[1,0,2]","1","0","3","images/vehicles_choice3.png","-1","vehicles","","plane","2","0"
"html-keyboard-response","156","751264","0.0-9.0-2.0-0.35","1846","2","2","""event"",""trial"",""time""
""fullscreenenter"",""1"",""2263""
","
","
","""event"",""trial"",""time""
""fullscreenenter"",""1"",""2263""
","
","","","","","","null","<div style=""font-size:60px;"">+</div>","null","","fixation","","","","","","","","","","","","","",""
"learning-trial","157","755266","0.0-9.0-2.0-1.35","1846","2","2","""event"",""trial"",""time""
""fullscreenenter"",""1"",""2263""
","
","
","""event"",""trial"",""time""
""fullscreenenter"",""1"",""2263""
","
","","","","","","715.3999999985099","images/train2.png","","","learning","images/vehicles_choice1.png","images/vehicles_choice3.png","images/vehicles_choice2.png","[0,2,1]","2","1","1","images/vehicles_choice1.png","1","vehicles","","train","2","0"
"html-keyboard-response","158","755767","0.0-9.0-2.0-0.36","1846","2","2","""event"",""trial"",""time""
""fullscreenenter"",""1"",""2263""
","
","
","""event"",""trial"",""time""
""fullscreenenter"",""1"",""2263""
","
","","","","","","null","<div style=""font-size:60px;"">+</div>","null","","fixation","","","","","","","","","","","","","",""
"learning-trial","159","759770","0.0-9.0-2.0-1.36","1846","2","2","""event"",""trial"",""time""
""fullscreenenter"",""1"",""2263""
","
","
","""event"",""trial"",""time""
""fullscreenenter"",""1"",""2263""
","
","","","","","","2187.39999999851","images/train5.png","","","learning","images/vehicles_choice1.png","images/vehicles_choice3.png","images/vehicles_choice2.png","[0,2,1]","1","2","2","images/vehicles_choice3.png","-1","vehicles","","train","2","0"
"html-keyboard-response","160","760271","0.0-9.0-2.0-0.37","1846","2","2","""event"",""trial"",""time""
""fullscreenenter"",""1"",""2263""
","
","
","""event"",""trial"",""time""
""fullscreenenter"",""1"",""2263""
","
","","","","","","null","<div style=""font-size:60px;"">+</div>","null","","fixation","","","","","","","","","","","","","",""
"learning-trial","161","764274","0.0-9.0-2.0-1.37","1846","2","2","""event"",""trial"",""time""
""fullscreenenter"",""1"",""2263""
","
","
","""event"",""trial"",""time""
""fullscreenenter"",""1"",""2263""
","
","","","","","","916.3000000044703","images/truck2.png","","","learning","images/vehicles_choice3.png","images/vehicles_choice2.png","images/vehicles_choice1.png","[2,1,0]","1","1","2","images/vehicles_choice2.png","1","vehicles","","truck","2","0"
"html-keyboard-response","162","764775","0.0-9.0-2.0-0.38","1846","2","2","""event"",""trial"",""time""
""fullscreenenter"",""1"",""2263""
","
","
","""event"",""trial"",""time""
""fullscreenenter"",""1"",""2263""
","
","","","","","","null","<div style=""font-size:60px;"">+</div>","null","","fixation","","","","","","","","","","","","","",""
"learning-trial","163","768777","0.0-9.0-2.0-1.38","1846","2","2","""event"",""trial"",""time""
""fullscreenenter"",""1"",""2263""
","
","
","""event"",""trial"",""time""
""fullscreenenter"",""1"",""2263""
","
","","","","","","2016.7000000029802","images/plane1.png","","","learning","images/vehicles_choice3.png","images/vehicles_choice1.png","images/vehicles_choice2.png","[2,0,1]","0","1","1","images/vehicles_choice3.png","-1","vehicles","","plane","2","0"
"html-keyboard-response","164","769279","0.0-9.0-2.0-0.39","1846","2","2","""event"",""trial"",""time""
""fullscreenenter"",""1"",""2263""
","
","
","""event"",""trial"",""time""
""fullscreenenter"",""1"",""2263""
","
","","","","","","null","<div style=""font-size:60px;"">+</div>","null","","fixation","","","","","","","","","","","","","",""
"learning-trial","165","773282","0.0-9.0-2.0-1.39","1846","2","2","""event"",""trial"",""time""
""fullscreenenter"",""1"",""2263""
","
","
","""event"",""trial"",""time""
""fullscreenenter"",""1"",""2263""
","
","","","","","","2013.5","images/truck3.png","","","learning","images/vehicles_choice3.png","images/vehicles_choice2.png","images/vehicles_choice1.png","[2,1,0]","2","0","2","images/vehicles_choice2.png","-1","vehicles","","truck","2","0"
"html-keyboard-response","166","773784","0.0-9.0-2.0-0.40","1846","2","2","""event"",""trial"",""time""
""fullscreenenter"",""1"",""2263""
","
","
","""event"",""trial"",""time""
""fullscreenenter"",""1"",""2263""
","
","","","","","","null","<div style=""font-size:60px;"">+</div>","null","","fixation","","","","","","","","","","","","","",""
"learning-trial","167","777786","0.0-9.0-2.0-1.40","1846","2","2","""event"",""trial"",""time""
""fullscreenenter"",""1"",""2263""
","
","
","""event"",""trial"",""time""
""fullscreenenter"",""1"",""2263""
","
","","","","","","1012.6000000014901","images/truck2.png","","","learning","images/vehicles_choice3.png","images/vehicles_choice2.png","images/vehicles_choice1.png","[2,1,0]","1","1","2","images/vehicles_choice2.png","1","vehicles","","truck","2","0"
"html-keyboard-response","168","778288","0.0-9.0-2.0-0.41","1846","2","2","""event"",""trial"",""time""
""fullscreenenter"",""1"",""2263""
","
","
","""event"",""trial"",""time""
""fullscreenenter"",""1"",""2263""
","
","","","","","","null","<div style=""font-size:60px;"">+</div>","null","","fixation","","","","","","","","","","","","","",""
"learning-trial","169","782290","0.0-9.0-2.0-1.41","1846","2","2","""event"",""trial"",""time""
""fullscreenenter"",""1"",""2263""
","
","
","""event"",""trial"",""time""
""fullscreenenter"",""1"",""2263""
","
","","","","","","1838.1000000014901","images/train4.png","","","learning","images/vehicles_choice1.png","images/vehicles_choice3.png","images/vehicles_choice2.png","[0,2,1]","0","0","1","images/vehicles_choice1.png","1","vehicles","","train","2","0"
"html-keyboard-response","170","782791","0.0-9.0-2.0-0.42","1846","2","2","""event"",""trial"",""time""
""fullscreenenter"",""1"",""2263""
","
","
","""event"",""trial"",""time""
""fullscreenenter"",""1"",""2263""
","
","","","","","","null","<div style=""font-size:60px;"">+</div>","null","","fixation","","","","","","","","","","","","","",""
"learning-trial","171","786794","0.0-9.0-2.0-1.42","1846","2","2","""event"",""trial"",""time""
""fullscreenenter"",""1"",""2263""
","
","
","""event"",""trial"",""time""
""fullscreenenter"",""1"",""2263""
","
","","","","","","1297.8000000044703","images/plane1.png","","","learning","images/vehicles_choice3.png","images/vehicles_choice2.png","images/vehicles_choice1.png","[2,1,0]","0","2","3","images/vehicles_choice1.png","-1","vehicles","","plane","2","0"
"html-keyboard-response","172","787296","0.0-9.0-2.0-0.43","1846","2","2","""event"",""trial"",""time""
""fullscreenenter"",""1"",""2263""
","
","
","""event"",""trial"",""time""
""fullscreenenter"",""1"",""2263""
","
","","","","","","null","<div style=""font-size:60px;"">+</div>","null","","fixation","","","","","","","","","","","","","",""
"learning-trial","173","791298","0.0-9.0-2.0-1.43","1846","2","2","""event"",""trial"",""time""
""fullscreenenter"",""1"",""2263""
","
","
","""event"",""trial"",""time""
""fullscreenenter"",""1"",""2263""
","
","","","","","","1689","images/train4.png","","","learning","images/vehicles_choice2.png","images/vehicles_choice1.png","images/vehicles_choice3.png","[1,0,2]","0","1","2","images/vehicles_choice1.png","1","vehicles","","train","2","0"
"html-keyboard-response","174","791800","0.0-9.0-2.0-0.44","1846","2","2","""event"",""trial"",""time""
""fullscreenenter"",""1"",""2263""
","
","
","""event"",""trial"",""time""
""fullscreenenter"",""1"",""2263""
","
","","","","","","null","<div style=""font-size:60px;"">+</div>","null","","fixation","","","","","","","","","","","","","",""
"learning-trial","175","795802","0.0-9.0-2.0-1.44","1846","2","2","""event"",""trial"",""time""
""fullscreenenter"",""1"",""2263""
","
","
","""event"",""trial"",""time""
""fullscreenenter"",""1"",""2263""
","
","","","","","","620","images/train4.png","","","learning","images/vehicles_choice2.png","images/vehicles_choice1.png","images/vehicles_choice3.png","[1,0,2]","0","1","2","images/vehicles_choice1.png","1","vehicles","","train","2","0"
"html-keyboard-response","176","796304","0.0-9.0-2.0-0.45","1846","2","2","""event"",""trial"",""time""
""fullscreenenter"",""1"",""2263""
","
","
","""event"",""trial"",""time""
""fullscreenenter"",""1"",""2263""
","
","","","","","","null","<div style=""font-size:60px;"">+</div>","null","","fixation","","","","","","","","","","","","","",""
"learning-trial","177","800306","0.0-9.0-2.0-1.45","1846","2","2","""event"",""trial"",""time""
""fullscreenenter"",""1"",""2263""
","
","
","""event"",""trial"",""time""
""fullscreenenter"",""1"",""2263""
","
","","","","","","2141.5","images/plane5.png","","","learning","images/vehicles_choice3.png","images/vehicles_choice2.png","images/vehicles_choice1.png","[2,1,0]","1","1","1","images/vehicles_choice3.png","-1","vehicles","","plane","2","0"
"html-keyboard-response","178","800807","0.0-9.0-2.0-0.46","1846","2","2","""event"",""trial"",""time""
""fullscreenenter"",""1"",""2263""
","
","
","""event"",""trial"",""time""
""fullscreenenter"",""1"",""2263""
","
","","","","","","null","<div style=""font-size:60px;"">+</div>","null","","fixation","","","","","","","","","","","","","",""
"learning-trial","179","804810","0.0-9.0-2.0-1.46","1846","2","2","""event"",""trial"",""time""
""fullscreenenter"",""1"",""2263""
","
","
","""event"",""trial"",""time""
""fullscreenenter"",""1"",""2263""
","
","","","","","","1745.8999999985099","images/truck2.png","","","learning","images/vehicles_choice2.png","images/vehicles_choice1.png","images/vehicles_choice3.png","[1,0,2]","1","0","1","images/vehicles_choice2.png","1","vehicles","","truck","2","0"
"html-keyboard-response","180","805311","0.0-9.0-2.0-0.47","1846","2","2","""event"",""trial"",""time""
""fullscreenenter"",""1"",""2263""
","
","
","""event"",""trial"",""time""
""fullscreenenter"",""1"",""2263""
","
","","","","","","null","<div style=""font-size:60px;"">+</div>","null","","fixation","","","","","","","","","","","","","",""
"learning-trial","181","809314","0.0-9.0-2.0-1.47","1846","2","2","""event"",""trial"",""time""
""fullscreenenter"",""1"",""2263""
","
","
","""event"",""trial"",""time""
""fullscreenenter"",""1"",""2263""
","
","","","","","","2614.2999999970198","images/plane5.png","","","learning","images/vehicles_choice2.png","images/vehicles_choice1.png","images/vehicles_choice3.png","[1,0,2]","1","0","2","images/vehicles_choice1.png","-1","vehicles","","plane","2","0"
"html-keyboard-response","182","809815","0.0-9.0-2.0-0.48","1846","2","2","""event"",""trial"",""time""
""fullscreenenter"",""1"",""2263""
","
","
","""event"",""trial"",""time""
""fullscreenenter"",""1"",""2263""
","
","","","","","","null","<div style=""font-size:60px;"">+</div>","null","","fixation","","","","","","","","","","","","","",""
"learning-trial","183","813817","0.0-9.0-2.0-1.48","1846","2","2","""event"",""trial"",""time""
""fullscreenenter"",""1"",""2263""
","
","
","""event"",""trial"",""time""
""fullscreenenter"",""1"",""2263""
","
","","","","","","2475","images/train4.png","","","learning","images/vehicles_choice1.png","images/vehicles_choice2.png","images/vehicles_choice3.png","[0,1,2]","0","0","1","images/vehicles_choice1.png","1","vehicles","","train","2","0"
"html-keyboard-response","184","814319","0.0-9.0-2.0-0.49","1846","2","2","""event"",""trial"",""time""
""fullscreenenter"",""1"",""2263""
","
","
","""event"",""trial"",""time""
""fullscreenenter"",""1"",""2263""
","
","","","","","","null","<div style=""font-size:60px;"">+</div>","null","","fixation","","","","","","","","","","","","","",""
"learning-trial","185","818321","0.0-9.0-2.0-1.49","1846","2","2","""event"",""trial"",""time""
""fullscreenenter"",""1"",""2263""
","
","
","""event"",""trial"",""time""
""fullscreenenter"",""1"",""2263""
","
","","","","","","1101.1000000014901","images/truck1.png","","","learning","images/vehicles_choice3.png","images/vehicles_choice1.png","images/vehicles_choice2.png","[2,0,1]","0","1","3","images/vehicles_choice2.png","-1","vehicles","","truck","2","0"
"html-keyboard-response","186","818823","0.0-9.0-2.0-0.50","1846","2","2","""event"",""trial"",""time""
""fullscreenenter"",""1"",""2263""
","
","
","""event"",""trial"",""time""
""fullscreenenter"",""1"",""2263""
","
","","","","","","null","<div style=""font-size:60px;"">+</div>","null","","fixation","","","","","","","","","","","","","",""
"learning-trial","187","822826","0.0-9.0-2.0-1.50","1846","2","2","""event"",""trial"",""time""
""fullscreenenter"",""1"",""2263""
","
","
","""event"",""trial"",""time""
""fullscreenenter"",""1"",""2263""
","
","","","","","","962.5","images/train4.png","","","learning","images/vehicles_choice2.png","images/vehicles_choice3.png","images/vehicles_choice1.png","[1,2,0]","0","2","1","images/vehicles_choice2.png","1","vehicles","","train","2","0"
"html-keyboard-response","188","823327","0.0-9.0-2.0-0.51","1846","2","2","""event"",""trial"",""time""
""fullscreenenter"",""1"",""2263""
","
","
","""event"",""trial"",""time""
""fullscreenenter"",""1"",""2263""
","
","","","","","","null","<div style=""font-size:60px;"">+</div>","null","","fixation","","","","","","","","","","","","","",""
"learning-trial","189","827330","0.0-9.0-2.0-1.51","1846","2","2","""event"",""trial"",""time""
""fullscreenenter"",""1"",""2263""
","
","
","""event"",""trial"",""time""
""fullscreenenter"",""1"",""2263""
","
","","","","","","1181.3999999985099","images/plane2.png","","","learning","images/vehicles_choice2.png","images/vehicles_choice1.png","images/vehicles_choice3.png","[1,0,2]","2","2","2","images/vehicles_choice1.png","-1","vehicles","","plane","2","0"
"html-keyboard-response","190","827831","0.0-9.0-2.0-0.52","1846","2","2","""event"",""trial"",""time""
""fullscreenenter"",""1"",""2263""
","
","
","""event"",""trial"",""time""
""fullscreenenter"",""1"",""2263""
","
","","","","","","null","<div style=""font-size:60px;"">+</div>","null","","fixation","","","","","","","","","","","","","",""
"learning-trial","191","831834","0.0-9.0-2.0-1.52","1846","2","2","""event"",""trial"",""time""
""fullscreenenter"",""1"",""2263""
","
","
","""event"",""trial"",""time""
""fullscreenenter"",""1"",""2263""
","
","","","","","","983.1000000014901","images/truck3.png","","","learning","images/vehicles_choice1.png","images/vehicles_choice2.png","images/vehicles_choice3.png","[0,1,2]","2","2","2","images/vehicles_choice2.png","-1","vehicles","","truck","2","0"
"html-keyboard-response","192","832335","0.0-9.0-2.0-0.53","1846","2","2","""event"",""trial"",""time""
""fullscreenenter"",""1"",""2263""
","
","
","""event"",""trial"",""time""
""fullscreenenter"",""1"",""2263""
","
","","","","","","null","<div style=""font-size:60px;"">+</div>","null","","fixation","","","","","","","","","","","","","",""
"learning-trial","193","836347","0.0-9.0-2.0-1.53","1846","2","2","""event"",""trial"",""time""
""fullscreenenter"",""1"",""2263""
","
","
","""event"",""trial"",""time""
""fullscreenenter"",""1"",""2263""
","
","","","","","","1203.5","images/train5.png","","","learning","images/vehicles_choice1.png","images/vehicles_choice2.png","images/vehicles_choice3.png","[0,1,2]","1","1","3","images/vehicles_choice3.png","-1","vehicles","","train","2","0"
"html-keyboard-response","194","836849","0.0-9.0-2.0-0.54","1846","2","2","""event"",""trial"",""time""
""fullscreenenter"",""1"",""2263""
","
","
","""event"",""trial"",""time""
""fullscreenenter"",""1"",""2263""
","
","","","","","","null","<div style=""font-size:60px;"">+</div>","null","","fixation","","","","","","","","","","","","","",""
"learning-trial","195","840851","0.0-9.0-2.0-1.54","1846","2","2","""event"",""trial"",""time""
""fullscreenenter"",""1"",""2263""
","
","
","""event"",""trial"",""time""
""fullscreenenter"",""1"",""2263""
","
","","","","","","1112.3000000044703","images/truck1.png","","","learning","images/vehicles_choice3.png","images/vehicles_choice1.png","images/vehicles_choice2.png","[2,0,1]","0","1","3","images/vehicles_choice2.png","-1","vehicles","","truck","2","0"
"html-keyboard-response","196","841353","0.0-9.0-2.0-0.55","1846","2","2","""event"",""trial"",""time""
""fullscreenenter"",""1"",""2263""
","
","
","""event"",""trial"",""time""
""fullscreenenter"",""1"",""2263""
","
","","","","","","null","<div style=""font-size:60px;"">+</div>","null","","fixation","","","","","","","","","","","","","",""
"learning-trial","197","845355","0.0-9.0-2.0-1.55","1846","2","2","""event"",""trial"",""time""
""fullscreenenter"",""1"",""2263""
","
","
","""event"",""trial"",""time""
""fullscreenenter"",""1"",""2263""
","
","","","","","","1450.6000000014901","images/plane1.png","","","learning","images/vehicles_choice3.png","images/vehicles_choice1.png","images/vehicles_choice2.png","[2,0,1]","0","1","2","images/vehicles_choice1.png","1","vehicles","","plane","2","0"
"html-keyboard-response","198","845857","0.0-9.0-2.0-0.56","1846","2","2","""event"",""trial"",""time""
""fullscreenenter"",""1"",""2263""
","
","
","""event"",""trial"",""time""
""fullscreenenter"",""1"",""2263""
","
","","","","","","null","<div style=""font-size:60px;"">+</div>","null","","fixation","","","","","","","","","","","","","",""
"learning-trial","199","849859","0.0-9.0-2.0-1.56","1846","2","2","""event"",""trial"",""time""
""fullscreenenter"",""1"",""2263""
","
","
","""event"",""trial"",""time""
""fullscreenenter"",""1"",""2263""
","
","","","","","","2246.60000000149","images/train5.png","","","learning","images/vehicles_choice3.png","images/vehicles_choice1.png","images/vehicles_choice2.png","[2,0,1]","1","2","1","images/vehicles_choice3.png","-1","vehicles","","train","2","0"
"html-keyboard-response","200","850361","0.0-9.0-2.0-0.57","1846","2","2","""event"",""trial"",""time""
""fullscreenenter"",""1"",""2263""
","
","
","""event"",""trial"",""time""
""fullscreenenter"",""1"",""2263""
","
","","","","","","null","<div style=""font-size:60px;"">+</div>","null","","fixation","","","","","","","","","","","","","",""
"learning-trial","201","854363","0.0-9.0-2.0-1.57","1846","2","2","""event"",""trial"",""time""
""fullscreenenter"",""1"",""2263""
","
","
","""event"",""trial"",""time""
""fullscreenenter"",""1"",""2263""
","
","","","","","","877.7999999970198","images/train2.png","","","learning","images/vehicles_choice2.png","images/vehicles_choice1.png","images/vehicles_choice3.png","[1,0,2]","2","2","3","images/vehicles_choice3.png","1","vehicles","","train","2","0"
"html-keyboard-response","202","854865","0.0-9.0-2.0-0.58","1846","2","2","""event"",""trial"",""time""
""fullscreenenter"",""1"",""2263""
","
","
","""event"",""trial"",""time""
""fullscreenenter"",""1"",""2263""
","
","","","","","","null","<div style=""font-size:60px;"">+</div>","null","","fixation","","","","","","","","","","","","","",""
"learning-trial","203","858867","0.0-9.0-2.0-1.58","1846","2","2","""event"",""trial"",""time""
""fullscreenenter"",""1"",""2263""
","
","
","""event"",""trial"",""time""
""fullscreenenter"",""1"",""2263""
","
","","","","","","970.6000000014901","images/train2.png","","","learning","images/vehicles_choice2.png","images/vehicles_choice1.png","images/vehicles_choice3.png","[1,0,2]","2","2","3","images/vehicles_choice3.png","1","vehicles","","train","2","0"
"html-keyboard-response","204","859368","0.0-9.0-2.0-0.59","1846","2","2","""event"",""trial"",""time""
""fullscreenenter"",""1"",""2263""
","
","
","""event"",""trial"",""time""
""fullscreenenter"",""1"",""2263""
","
","","","","","","null","<div style=""font-size:60px;"">+</div>","null","","fixation","","","","","","","","","","","","","",""
"learning-trial","205","863370","0.0-9.0-2.0-1.59","1846","2","2","""event"",""trial"",""time""
""fullscreenenter"",""1"",""2263""
","
","
","""event"",""trial"",""time""
""fullscreenenter"",""1"",""2263""
","
","","","","","","1295.3999999985099","images/truck3.png","","","learning","images/vehicles_choice1.png","images/vehicles_choice2.png","images/vehicles_choice3.png","[0,1,2]","2","2","2","images/vehicles_choice2.png","-1","vehicles","","truck","2","0"
"html-keyboard-response","206","863873","0.0-9.0-2.0-0.60","1846","2","2","""event"",""trial"",""time""
""fullscreenenter"",""1"",""2263""
","
","
","""event"",""trial"",""time""
""fullscreenenter"",""1"",""2263""
","
","","","","","","null","<div style=""font-size:60px;"">+</div>","null","","fixation","","","","","","","","","","","","","",""
"learning-trial","207","867875","0.0-9.0-2.0-1.60","1846","2","2","""event"",""trial"",""time""
""fullscreenenter"",""1"",""2263""
","
","
","""event"",""trial"",""time""
""fullscreenenter"",""1"",""2263""
","
","","","","","","714","images/train5.png","","","learning","images/vehicles_choice2.png","images/vehicles_choice3.png","images/vehicles_choice1.png","[1,2,0]","1","0","1","images/vehicles_choice2.png","-1","vehicles","","train","2","0"
"html-keyboard-response","208","868376","0.0-9.0-2.0-0.61","1846","2","2","""event"",""trial"",""time""
""fullscreenenter"",""1"",""2263""
","
","
","""event"",""trial"",""time""
""fullscreenenter"",""1"",""2263""
","
","","","","","","null","<div style=""font-size:60px;"">+</div>","null","","fixation","","","","","","","","","","","","","",""
"learning-trial","209","872378","0.0-9.0-2.0-1.61","1846","2","2","""event"",""trial"",""time""
""fullscreenenter"",""1"",""2263""
","
","
","""event"",""trial"",""time""
""fullscreenenter"",""1"",""2263""
","
","","","","","","807.3999999985099","images/train2.png","","","learning","images/vehicles_choice3.png","images/vehicles_choice1.png","images/vehicles_choice2.png","[2,0,1]","2","0","3","images/vehicles_choice2.png","-1","vehicles","","train","2","0"
"html-keyboard-response","210","872880","0.0-9.0-2.0-0.62","1846","2","2","""event"",""trial"",""time""
""fullscreenenter"",""1"",""2263""
","
","
","""event"",""trial"",""time""
""fullscreenenter"",""1"",""2263""
","
","","","","","","null","<div style=""font-size:60px;"">+</div>","null","","fixation","","","","","","","","","","","","","",""
"learning-trial","211","876883","0.0-9.0-2.0-1.62","1846","2","2","""event"",""trial"",""time""
""fullscreenenter"",""1"",""2263""
","
","
","""event"",""trial"",""time""
""fullscreenenter"",""1"",""2263""
","
","","","","","","330","images/plane2.png","","","learning","images/vehicles_choice3.png","images/vehicles_choice1.png","images/vehicles_choice2.png","[2,0,1]","2","0","2","images/vehicles_choice1.png","1","vehicles","","plane","2","0"
"html-keyboard-response","212","877384","0.0-9.0-2.0-0.63","1846","2","2","""event"",""trial"",""time""
""fullscreenenter"",""1"",""2263""
","
","
","""event"",""trial"",""time""
""fullscreenenter"",""1"",""2263""
","
","","","","","","null","<div style=""font-size:60px;"">+</div>","null","","fixation","","","","","","","","","","","","","",""
"learning-trial","213","881387","0.0-9.0-2.0-1.63","1846","2","2","""event"",""trial"",""time""
""fullscreenenter"",""1"",""2263""
","
","
","""event"",""trial"",""time""
""fullscreenenter"",""1"",""2263""
","
","","","","","","2269.5","images/truck1.png","","","learning","images/vehicles_choice2.png","images/vehicles_choice3.png","images/vehicles_choice1.png","[1,2,0]","0","2","3","images/vehicles_choice1.png","1","vehicles","","truck","2","0"
"html-keyboard-response","214","881888","0.0-9.0-2.0-0.64","1846","2","2","""event"",""trial"",""time""
""fullscreenenter"",""1"",""2263""
","
","
","""event"",""trial"",""time""
""fullscreenenter"",""1"",""2263""
","
","","","","","","null","<div style=""font-size:60px;"">+</div>","null","","fixation","","","","","","","","","","","","","",""
"learning-trial","215","885890","0.0-9.0-2.0-1.64","1846","2","2","""event"",""trial"",""time""
""fullscreenenter"",""1"",""2263""
","
","
","""event"",""trial"",""time""
""fullscreenenter"",""1"",""2263""
","
","","","","","","1831.8000000044703","images/train2.png","","","learning","images/vehicles_choice1.png","images/vehicles_choice2.png","images/vehicles_choice3.png","[0,1,2]","2","2","3","images/vehicles_choice3.png","1","vehicles","","train","2","0"
"html-keyboard-response","216","886391","0.0-9.0-2.0-0.65","1846","2","2","""event"",""trial"",""time""
""fullscreenenter"",""1"",""2263""
","
","
","""event"",""trial"",""time""
""fullscreenenter"",""1"",""2263""
","
","","","","","","null","<div style=""font-size:60px;"">+</div>","null","","fixation","","","","","","","","","","","","","",""
"learning-trial","217","890394","0.0-9.0-2.0-1.65","1846","2","2","""event"",""trial"",""time""
""fullscreenenter"",""1"",""2263""
","
","
","""event"",""trial"",""time""
""fullscreenenter"",""1"",""2263""
","
","","","","","","1510.3999999985099","images/truck1.png","","","learning","images/vehicles_choice3.png","images/vehicles_choice1.png","images/vehicles_choice2.png","[2,0,1]","0","1","2","images/vehicles_choice1.png","1","vehicles","","truck","2","0"
"html-keyboard-response","218","890896","0.0-9.0-2.0-0.66","1846","2","2","""event"",""trial"",""time""
""fullscreenenter"",""1"",""2263""
","
","
","""event"",""trial"",""time""
""fullscreenenter"",""1"",""2263""
","
","","","","","","null","<div style=""font-size:60px;"">+</div>","null","","fixation","","","","","","","","","","","","","",""
"learning-trial","219","894899","0.0-9.0-2.0-1.66","1846","2","2","""event"",""trial"",""time""
""fullscreenenter"",""1"",""2263""
","
","
","""event"",""trial"",""time""
""fullscreenenter"",""1"",""2263""
","
","","","","","","1789.6000000014901","images/plane2.png","","","learning","images/vehicles_choice3.png","images/vehicles_choice1.png","images/vehicles_choice2.png","[2,0,1]","2","0","2","images/vehicles_choice1.png","-1","vehicles","","plane","2","0"
"html-keyboard-response","220","895400","0.0-9.0-2.0-0.67","1846","2","2","""event"",""trial"",""time""
""fullscreenenter"",""1"",""2263""
","
","
","""event"",""trial"",""time""
""fullscreenenter"",""1"",""2263""
","
","","","","","","null","<div style=""font-size:60px;"">+</div>","null","","fixation","","","","","","","","","","","","","",""
"learning-trial","221","899403","0.0-9.0-2.0-1.67","1846","2","2","""event"",""trial"",""time""
""fullscreenenter"",""1"",""2263""
","
","
","""event"",""trial"",""time""
""fullscreenenter"",""1"",""2263""
","
","","","","","","2152.2999999970198","images/plane2.png","","","learning","images/vehicles_choice2.png","images/vehicles_choice1.png","images/vehicles_choice3.png","[1,0,2]","2","2","3","images/vehicles_choice3.png","1","vehicles","","plane","2","0"
"html-keyboard-response","222","899905","0.0-9.0-2.0-0.68","1846","2","2","""event"",""trial"",""time""
""fullscreenenter"",""1"",""2263""
","
","
","""event"",""trial"",""time""
""fullscreenenter"",""1"",""2263""
","
","","","","","","null","<div style=""font-size:60px;"">+</div>","null","","fixation","","","","","","","","","","","","","",""
"learning-trial","223","903908","0.0-9.0-2.0-1.68","1846","2","2","""event"",""trial"",""time""
""fullscreenenter"",""1"",""2263""
","
","
","""event"",""trial"",""time""
""fullscreenenter"",""1"",""2263""
","
","","","","","","1583","images/truck1.png","","","learning","images/vehicles_choice1.png","images/vehicles_choice3.png","images/vehicles_choice2.png","[0,2,1]","0","0","3","images/vehicles_choice2.png","-1","vehicles","","truck","2","0"
"html-keyboard-response","224","904409","0.0-9.0-2.0-0.69","1846","2","2","""event"",""trial"",""time""
""fullscreenenter"",""1"",""2263""
","
","
","""event"",""trial"",""time""
""fullscreenenter"",""1"",""2263""
","
","","","","","","null","<div style=""font-size:60px;"">+</div>","null","","fixation","","","","","","","","","","","","","",""
"learning-trial","225","908411","0.0-9.0-2.0-1.69","1846","2","2","""event"",""trial"",""time""
""fullscreenenter"",""1"",""2263""
","
","
","""event"",""trial"",""time""
""fullscreenenter"",""1"",""2263""
","
","","","","","","1909.1000000014901","images/plane2.png","","","learning","images/vehicles_choice2.png","images/vehicles_choice3.png","images/vehicles_choice1.png","[1,2,0]","2","1","3","images/vehicles_choice1.png","1","vehicles","","plane","2","0"
"html-keyboard-response","226","908918","0.0-9.0-2.0-0.70","1846","2","2","""event"",""trial"",""time""
""fullscreenenter"",""1"",""2263""
","
","
","""event"",""trial"",""time""
""fullscreenenter"",""1"",""2263""
","
","","","","","","null","<div style=""font-size:60px;"">+</div>","null","","fixation","","","","","","","","","","","","","",""
"learning-trial","227","912920","0.0-9.0-2.0-1.70","1846","2","2","""event"",""trial"",""time""
""fullscreenenter"",""1"",""2263""
","
","
","""event"",""trial"",""time""
""fullscreenenter"",""1"",""2263""
","
","","","","","","2340.89999999851","images/train4.png","","","learning","images/vehicles_choice1.png","images/vehicles_choice2.png","images/vehicles_choice3.png","[0,1,2]","0","0","2","images/vehicles_choice2.png","-1","vehicles","","train","2","0"
"html-keyboard-response","228","913421","0.0-9.0-2.0-0.71","1846","2","2","""event"",""trial"",""time""
""fullscreenenter"",""1"",""2263""
","
","
","""event"",""trial"",""time""
""fullscreenenter"",""1"",""2263""
","
","","","","","","null","<div style=""font-size:60px;"">+</div>","null","","fixation","","","","","","","","","","","","","",""
"learning-trial","229","917423","0.0-9.0-2.0-1.71","1846","2","2","""event"",""trial"",""time""
""fullscreenenter"",""1"",""2263""
","
","
","""event"",""trial"",""time""
""fullscreenenter"",""1"",""2263""
","
","","","","","","1565.1000000014901","images/truck3.png","","","learning","images/vehicles_choice2.png","images/vehicles_choice3.png","images/vehicles_choice1.png","[1,2,0]","2","1","3","images/vehicles_choice1.png","-1","vehicles","","truck","2","0"
"html-button-response","230","921651","0.0-9.0-3.0","1846","2","2","""event"",""trial"",""time""
""fullscreenenter"",""1"",""2263""
","
","
","""event"",""trial"",""time""
""fullscreenenter"",""1"",""2263""
","
","","","","","","4226.10000000149","<p> You have completed the round! <p> In this round, you earned -8 points! </p>","0","","break","","","","","","","","","","","","","",""
"html-button-response","231","922667","0.0-10.0","1846","2","2","""event"",""trial"",""time""
""fullscreenenter"",""1"",""2263""
","
","
","""event"",""trial"",""time""
""fullscreenenter"",""1"",""2263""
","
","","","","","","1015.1000000014901","<p> Now it's time to play another round. </p>","0","","transition_screen","","","","","","","","","","","","","",""
"preload","232","928016","0.0-11.0-0.0","1846","2","2","""event"",""trial"",""time""
""fullscreenenter"",""1"",""2263""
","
","
","""event"",""trial"",""time""
""fullscreenenter"",""1"",""2263""
","
","true","false","[]","[]","[]","","","","","","","","","","","","","","","","","","",""
"learning-instructions","233","940547","0.0-11.0-1.0-0.0","1846","2","2","""event"",""trial"",""time""
""fullscreenenter"",""1"",""2263""
","
","
","""event"",""trial"",""time""
""fullscreenenter"",""1"",""2263""
","
","","","","","","4018.10000000149","<p> Your goal in this round is to return farm animals to the barns where they live. </p><p>  Different animals wandered away from different barns! </p></div>","","0","instructions","","","","","","","","","","","","","",""
"learning-instructions","234","958934","0.0-11.0-1.0-0.1","1846","2","2","""event"",""trial"",""time""
""fullscreenenter"",""1"",""2263""
","
","
","""event"",""trial"",""time""
""fullscreenenter"",""1"",""2263""
","
","","","","","","9754.89999999851","<p> On each turn, you will see a picture of a farm animal and three different barns.  </p><p> You need to select the barn where each animal lives.  </p>","","0","instructions","","","","","","","","","","","","","",""
"learning-instructions","235","996718","0.0-11.0-1.0-0.2","1846","2","2","""event"",""trial"",""time""
""fullscreenenter"",""1"",""2263""
","
","
","""event"",""trial"",""time""
""fullscreenenter"",""1"",""2263""
","
