"trial_type","trial_index","time_elapsed","internal_node_id","subject_id","condition","task_version","interactions","blur_events","focus_events","fullscreenenter_events","fullscreenexit_events","success","timeout","failed_images","failed_audio","failed_video","rt","stimulus","response","button_pressed","task_part","left_choice","middle_choice","right_choice","choice_positions","correct_response","correct_position","key_press","option_selected","points","task_block","correct","stim_cat","block_condition","block_number"
"pavlovia","0","6","0.0-0.0","1710","1","2","""event"",""trial"",""time""
""fullscreenenter"",""1"",""2322""
","
","
","""event"",""trial"",""time""
""fullscreenenter"",""1"",""2322""
","
","","","","","","","","","","","","","","","","","","","","","","","",""
"fullscreen","1","3262","0.0-1.0","1710","1","2","""event"",""trial"",""time""
""fullscreenenter"",""1"",""2322""
","
","
","""event"",""trial"",""time""
""fullscreenenter"",""1"",""2322""
","
","true","","","","","","","","","","","","","","","","","","","","","","",""
"preload","2","11226","0.0-2.0","1710","1","2","""event"",""trial"",""time""
""fullscreenenter"",""1"",""2322""
","
","
","""event"",""trial"",""time""
""fullscreenenter"",""1"",""2322""
","
","true","false","[]","[]","[]","","","","","","","","","","","","","","","","","","",""
"audio-keyboard-response","3","13650","0.0-3.0","1710","1","2","""event"",""trial"",""time""
""fullscreenenter"",""1"",""2322""
","
","
","""event"",""trial"",""time""
""fullscreenenter"",""1"",""2322""
","
","","","","","","2420.680272108844","audio/beep_loop.wav"," ","","","","","","","","","","","","","","","",""
"audio-button-response","4","15254","0.0-4.0","1710","1","2","""event"",""trial"",""time""
""fullscreenenter"",""1"",""2322""
","
","
","""event"",""trial"",""time""
""fullscreenenter"",""1"",""2322""
","
","","","","","","1596","audio/shark.wav","4","","","","","","","","","","","","","","","",""
"audio-button-response","5","17631","0.0-5.0","1710","1","2","""event"",""trial"",""time""
""fullscreenenter"",""1"",""2322""
","
","
","""event"",""trial"",""time""
""fullscreenenter"",""1"",""2322""
","
","","","","","","1370","audio/turtle.wav","1","","","","","","","","","","","","","","","",""
"preload","6","32117","0.0-6.0","1710","1","2","""event"",""trial"",""time""
""fullscreenenter"",""1"",""2322""
","
","
","""event"",""trial"",""time""
""fullscreenenter"",""1"",""2322""
","
","true","false","[]","[]","[]","","","","","","","","","","","","","","","","","","",""
"html-keyboard-response","7","34296","0.0-7.0","1710","1","2","""event"",""trial"",""time""
""fullscreenenter"",""1"",""2322""
","
","
","""event"",""trial"",""time""
""fullscreenenter"",""1"",""2322""
","
","","","","","","2176.2000000001863","Welcome to the experiment. Press any key to begin and to advance the instructions."," ","","","","","","","","","","","","","","","",""
"learning-instructions","8","43724","0.0-8.0-0.0-0.0","1710","1","2","""event"",""trial"",""time""
""fullscreenenter"",""1"",""2322""
","
","
","""event"",""trial"",""time""
""fullscreenenter"",""1"",""2322""
","
","","","","","","1676.2000000001863","<p> Welcome! Today you are going to play 6 different rounds of a decision-making game. </p><p> Use the mouse to click next to continue. </p>","","0","instructions","","","","","","","","","","","","","",""
"learning-instructions","9","47560","0.0-8.0-0.0-0.1","1710","1","2","""event"",""trial"",""time""
""fullscreenenter"",""1"",""2322""
","
","
","""event"",""trial"",""time""
""fullscreenenter"",""1"",""2322""
","
","","","","","","828.1000000005588","<p> You will start with a practice round to learn the rules. </p>","","0","instructions","","","","","","","","","","","","","",""
"learning-instructions","10","56248","0.0-8.0-0.0-0.2","1710","1","2","""event"",""trial"",""time""
""fullscreenenter"",""1"",""2322""
","
","
","""event"",""trial"",""time""
""fullscreenenter"",""1"",""2322""
","
","","","","","","948.7999999998137","<p> Your goal in this round is to deliver sports equipment to three different parks. </p><p> You will need to deliver many types of equipment. </p></div>","","0","instructions","","","","","","","","","","","","","",""
"learning-instructions","11","65307","0.0-8.0-0.0-0.3","1710","1","2","""event"",""trial"",""time""
""fullscreenenter"",""1"",""2322""
","
","
","""event"",""trial"",""time""
""fullscreenenter"",""1"",""2322""
","
","","","","","","574.6999999992549","<p> On each turn, you will see one piece of sports equipment and three different parks.  </p><p> You need to select which park to deliver the equipment to.  </p>","","0","instructions","","","","","","","","","","","","","",""
"learning-instructions","12","79130","0.0-8.0-0.0-0.4","1710","1","2","""event"",""trial"",""time""
""fullscreenenter"",""1"",""2322""
","
","
","""event"",""trial"",""time""
""fullscreenenter"",""1"",""2322""
","
","","","","","","540.9000000003725","<p> You can select the park on the left by pressing the '1' key on your keyboard. <br>You can select the park in the middle by pressing the '2' key on your keyboard. <br>You can select the park on the right by pressing the '3' key on your keyboard.  </p><br><div class=""choice-instructions-grid""> <div class=""choice-option""><img src=""images/park1.png"" class=""choice-option-img"" stage=""instructions"" position=""0"" ><div class=""choice-option-text""> Press ""1."" </div></div><div class=""choice-option""><img src=""images/park2.png"" class=""choice-option-img"" stage=""instructions"" position=""1"" ><div class=""choice-option-text""> Press ""2."" </div></div><div class=""choice-option""><img src=""images/park3.png"" class=""choice-option-img"" stage=""instructions"" position=""2"" ><div class=""choice-option-text""> Press ""3."" </div></div></div>","","0","instructions","","","","","","","","","","","","","",""
"learning-instructions","13","85391","0.0-8.0-0.0-0.5","1710","1","2","""event"",""trial"",""time""
""fullscreenenter"",""1"",""2322""
","
","
","""event"",""trial"",""time""
""fullscreenenter"",""1"",""2322""
","
","","","","","","881.0999999996275","<p> If the kids in the park you chose like the equipment, they will be very happy! </p><div style='float: center;'><img src='images/check.png' width = '200' height = '200'></img>","","0","instructions","","","","","","","","","","","","","",""
"learning-instructions","14","91573","0.0-8.0-0.0-0.6","1710","1","2","""event"",""trial"",""time""
""fullscreenenter"",""1"",""2322""
","
","
","""event"",""trial"",""time""
""fullscreenenter"",""1"",""2322""
","
","","","","","","591","<p> But, if the kids in the park you chose do not like the equipment, they will be sad. </p><div style='float: center;'><img src='images/x.png' width = '200' height = '200'></img>","","0","instructions","","","","","","","","","","","","","",""
"learning-instructions","15","98674","0.0-8.0-0.0-0.7","1710","1","2","""event"",""trial"",""time""
""fullscreenenter"",""1"",""2322""
","
","
","""event"",""trial"",""time""
""fullscreenenter"",""1"",""2322""
","
","","","","","","668.9000000003725","<p> Importantly, the kids in each park like some pieces of sports equipment more than others. </p>","","0","instructions","","","","","","","","","","","","","",""
"learning-instructions","16","105210","0.0-8.0-0.0-0.8","1710","1","2","""event"",""trial"",""time""
""fullscreenenter"",""1"",""2322""
","
","
","""event"",""trial"",""time""
""fullscreenenter"",""1"",""2322""
","
","","","","","","487.09999999962747","<p> If you choose the best park for each piece of equipment, the kids there will usually be happy. </p>","","0","instructions","","","","","","","","","","","","","",""
"learning-instructions","17","113009","0.0-8.0-0.0-0.9","1710","1","2","""event"",""trial"",""time""
""fullscreenenter"",""1"",""2322""
","
","
","""event"",""trial"",""time""
""fullscreenenter"",""1"",""2322""
","
","","","","","","1152.2999999998137","<p> However, even if you choose the best park for the equipment, the kids may sometimes be sad. </p>","","0","instructions","","","","","","","","","","","","","",""
"learning-instructions","18","120995","0.0-8.0-0.0-0.10","1710","1","2","""event"",""trial"",""time""
""fullscreenenter"",""1"",""2322""
","
","
","""event"",""trial"",""time""
""fullscreenenter"",""1"",""2322""
","
","","","","","","762.5999999996275","<p> Similarly, even if you choose the <i>wrong</i> park for the equipment, the kids may still be happy sometimes.","","0","instructions","","","","","","","","","","","","","",""
"learning-instructions","19","126585","0.0-8.0-0.0-0.11","1710","1","2","""event"",""trial"",""time""
""fullscreenenter"",""1"",""2322""
","
","
","""event"",""trial"",""time""
""fullscreenenter"",""1"",""2322""
","
","","","","","","535","<p> For example, the best park for this soccer ball is this one.<div style='float: center;'><img src='images/i1.png' width = '500' height = '268'></img>","","0","instructions","","","","","","","","","","","","","",""
"learning-instructions","20","132492","0.0-8.0-0.0-0.12","1710","1","2","""event"",""trial"",""time""
""fullscreenenter"",""1"",""2322""
","
","
","""event"",""trial"",""time""
""fullscreenenter"",""1"",""2322""
","
","","","","","","620.7000000001863","<p> Let's see what happens if you choose this park for the soccer ball five times.","","0","instructions","","","","","","","","","","","","","",""
"learning-instructions","21","135417","0.0-8.0-0.0-0.13","1710","1","2","""event"",""trial"",""time""
""fullscreenenter"",""1"",""2322""
","
","
","""event"",""trial"",""time""
""fullscreenenter"",""1"",""2322""
","
","","","","","","759.2999999998137","<p> The kids are happy.<div style='float: left;'><img src='images/i2.png' width = '640' height = '360'></img>","","0","instructions","","","","","","","","","","","","","",""
"learning-instructions","22","138213","0.0-8.0-0.0-0.14","1710","1","2","""event"",""trial"",""time""
""fullscreenenter"",""1"",""2322""
","
","
","""event"",""trial"",""time""
""fullscreenenter"",""1"",""2322""
","
","","","","","","629.5","<p> The kids are happy.<div style='float: left;'><img src='images/i3.png' width = '640' height = '360'></img>","","0","instructions","","","","","","","","","","","","","",""
"learning-instructions","23","140882","0.0-8.0-0.0-0.15","1710","1","2","""event"",""trial"",""time""
""fullscreenenter"",""1"",""2322""
","
","
","""event"",""trial"",""time""
""fullscreenenter"",""1"",""2322""
","
","","","","","","505.70000000018626","<p> The kids are happy.<div style='float: left;'><img src='images/i4.png' width = '640' height = '360'></img>","","0","instructions","","","","","","","","","","","","","",""
"learning-instructions","24","143526","0.0-8.0-0.0-0.16","1710","1","2","""event"",""trial"",""time""
""fullscreenenter"",""1"",""2322""
","
","
","""event"",""trial"",""time""
""fullscreenenter"",""1"",""2322""
","
","","","","","","438.79999999981374","<p> The kids are sad.<div style='float: left;'><img src='images/i5.png' width = '640' height = '360'></img>","","0","instructions","","","","","","","","","","","","","",""
"learning-instructions","25","146531","0.0-8.0-0.0-0.17","1710","1","2","""event"",""trial"",""time""
""fullscreenenter"",""1"",""2322""
","
","
","""event"",""trial"",""time""
""fullscreenenter"",""1"",""2322""
","
","","","","","","843.7999999998137","<p> The kids are happy.<div style='float: left;'><img src='images/i6.png' width = '640' height = '360'></img>","","0","instructions","","","","","","","","","","","","","",""
"learning-instructions","26","154253","0.0-8.0-0.0-0.18","1710","1","2","""event"",""trial"",""time""
""fullscreenenter"",""1"",""2322""
","
","
","""event"",""trial"",""time""
""fullscreenenter"",""1"",""2322""
","
","","","","","","456.5","<p> As you can see, selecting that park for the soccer ball made the kids happy most of the time, but not all the time.","","0","instructions","","","","","","","","","","","","","",""
"learning-instructions","27","160682","0.0-8.0-0.0-0.19","1710","1","2","""event"",""trial"",""time""
""fullscreenenter"",""1"",""2322""
","
","
","""event"",""trial"",""time""
""fullscreenenter"",""1"",""2322""
","
","","","","","","430.79999999981374","<p> Now let's see what happens if you choose a DIFFERENT park for the soccer ball 5 times.","","0","instructions","","","","","","","","","","","","","",""
"learning-instructions","28","163334","0.0-8.0-0.0-0.20","1710","1","2","""event"",""trial"",""time""
""fullscreenenter"",""1"",""2322""
","
","
","""event"",""trial"",""time""
""fullscreenenter"",""1"",""2322""
","
","","","","","","446.3999999994412","<p> The kids are sad.<div style='float: left;'><img src='images/i7.png' width = '640' height = '360'></img>","","0","instructions","","","","","","","","","","","","","",""
"learning-instructions","29","165952","0.0-8.0-0.0-0.21","1710","1","2","""event"",""trial"",""time""
""fullscreenenter"",""1"",""2322""
","
","
","""event"",""trial"",""time""
""fullscreenenter"",""1"",""2322""
","
","","","","","","411.5","<p> The kids are sad.<div style='float: left;'><img src='images/i8.png' width = '640' height = '360'></img>","","0","instructions","","","","","","","","","","","","","",""
"learning-instructions","30","168585","0.0-8.0-0.0-0.22","1710","1","2","""event"",""trial"",""time""
""fullscreenenter"",""1"",""2322""
","
","
","""event"",""trial"",""time""
""fullscreenenter"",""1"",""2322""
","
","","","","","","468.09999999962747","<p> The kids are happy.<div style='float: left;'><img src='images/i9.png' width = '640' height = '360'></img>","","0","instructions","","","","","","","","","","","","","",""
"learning-instructions","31","171233","0.0-8.0-0.0-0.23","1710","1","2","""event"",""trial"",""time""
""fullscreenenter"",""1"",""2322""
","
","
","""event"",""trial"",""time""
""fullscreenenter"",""1"",""2322""
","
","","","","","","440.1000000005588","<p> The kids are sad.<div style='float: left;'><img src='images/i10.png' width = '640' height = '360'></img>","","0","instructions","","","","","","","","","","","","","",""
"learning-instructions","32","174061","0.0-8.0-0.0-0.24","1710","1","2","""event"",""trial"",""time""
""fullscreenenter"",""1"",""2322""
","
","
","""event"",""trial"",""time""
""fullscreenenter"",""1"",""2322""
","
","","","","","","620.4000000003725","<p> The kids are sad.<div style='float: left;'><img src='images/i11.png' width = '640' height = '360'></img>","","0","instructions","","","","","","","","","","","","","",""
"learning-instructions","33","182984","0.0-8.0-0.0-0.25","1710","1","2","""event"",""trial"",""time""
""fullscreenenter"",""1"",""2322""
","
","
","""event"",""trial"",""time""
""fullscreenenter"",""1"",""2322""
","
","","","","","","802","<p> As you can see, selecting the wrong park for the soccer ball made the kids sad most of the time, but not all the time.","","0","instructions","","","","","","","","","","","","","",""
"learning-instructions","34","192712","0.0-8.0-0.0-0.26","1710","1","2","""event"",""trial"",""time""
""fullscreenenter"",""1"",""2322""
","
","
","""event"",""trial"",""time""
""fullscreenenter"",""1"",""2322""
","
","","","","","","615.0999999996275","<p> The different pieces of equipment belong in different parks. You need to try to learn which is the best park for each piece of equipment.","","0","instructions","","","","","","","","","","","","","",""
"learning-instructions","35","209621","0.0-8.0-0.0-0.27","1710","1","2","""event"",""trial"",""time""
""fullscreenenter"",""1"",""2322""
","
","
","""event"",""trial"",""time""
""fullscreenenter"",""1"",""2322""
","
","","","","","","521.9000000003725","<p> Try to choose the best park for each piece of equipment, because you will <b> WIN </b> 1 point for each time you make the kids happy and <b>LOSE</b> 1 point for each time you make them sad. </p><p> Remember, if you make the best choice, you will win 1 point most of the time, but not all the time. </p>","","0","instructions","","","","","","","","","","","","","",""
"learning-instructions","36","216247","0.0-8.0-0.0-0.28","1710","1","2","""event"",""trial"",""time""
""fullscreenenter"",""1"",""2322""
","
","
","""event"",""trial"",""time""
""fullscreenenter"",""1"",""2322""
","
","","","","","","1145.5","<p> This is just a practice round, but in the real game, your bonus payment will depend on your total number of points.","","0","instructions","","","","","","","","","","","","","",""
"learning-instructions","37","227191","0.0-8.0-0.0-0.29","1710","1","2","""event"",""trial"",""time""
""fullscreenenter"",""1"",""2322""
","
","
","""event"",""trial"",""time""
""fullscreenenter"",""1"",""2322""
","
","","","","","","618.7000000001863","<p> The position where each park appears will change throughout the game. </p><p> The position where the park appears <i> does not </i> influence how likely the kids are to be happy or sad. </p>","","0","instructions","","","","","","","","","","","","","",""
"learning-instructions","38","238913","0.0-8.0-0.0-0.30","1710","1","2","""event"",""trial"",""time""
""fullscreenenter"",""1"",""2322""
","
","
","""event"",""trial"",""time""
""fullscreenenter"",""1"",""2322""
","
","","","","","","539.2000000001863","<p> You will have 4 seconds to make each choice. Try to respond before time runs out! </p><p> You will lose 1 point each time you do not make a response. </p>","","0","instructions","","","","","","","","","","","","","",""
"learning-instructions","39","246236","0.0-8.0-0.0-0.31","1710","1","2","""event"",""trial"",""time""
""fullscreenenter"",""1"",""2322""
","
","
","""event"",""trial"",""time""
""fullscreenenter"",""1"",""2322""
","
","","","","","","535.7999999998137","<p> Remember, you should use the 1, 2, and 3 keys to select the park for each piece of equipment. </p><br><div class=""choice-instructions-grid""> <div class=""choice-option""><img src=""images/park1.png"" class=""choice-option-img"" stage=""instructions"" position=""0"" ><div class=""choice-option-text""> Press ""1."" </div></div><div class=""choice-option""><img src=""images/park2.png"" class=""choice-option-img"" stage=""instructions"" position=""1"" ><div class=""choice-option-text""> Press ""2."" </div></div><div class=""choice-option""><img src=""images/park3.png"" class=""choice-option-img"" stage=""instructions"" position=""2"" ><div class=""choice-option-text""> Press ""3."" </div></div></div>","","0","instructions","","","","","","","","","","","","","",""
"html-button-response","40","247545","0.0-8.0-1.0","1710","1","2","""event"",""trial"",""time""
""fullscreenenter"",""1"",""2322""
","
","
","""event"",""trial"",""time""
""fullscreenenter"",""1"",""2322""
","
","","","","","","1205.5","<p> Ready to practice? </p>","0","","","","","","","","","","","","","","","",""
"html-keyboard-response","41","248153","0.0-8.0-2.0-0.0","1710","1","2","""event"",""trial"",""time""
""fullscreenenter"",""1"",""2322""
","
","
","""event"",""trial"",""time""
""fullscreenenter"",""1"",""2322""
","
","","","","","","null","<div style=""font-size:60px;"">+</div>","null","","fixation","","","","","","","","","","","","","",""
"learning-trial","42","252166","0.0-8.0-2.0-1.0","1710","1","2","""event"",""trial"",""time""
""fullscreenenter"",""1"",""2322""
","
","
","""event"",""trial"",""time""
""fullscreenenter"",""1"",""2322""
","
","","","","","","1091.7999999998137","images/racket3.png","","","practice","images/park3.png","images/park2.png","images/park1.png","[2,1,0]","1","1","1","images/park3.png","-1","practice","","","",""
"html-keyboard-response","43","252670","0.0-8.0-2.0-0.1","1710","1","2","""event"",""trial"",""time""
""fullscreenenter"",""1"",""2322""
","
","
","""event"",""trial"",""time""
""fullscreenenter"",""1"",""2322""
","
","","","","","","null","<div style=""font-size:60px;"">+</div>","null","","fixation","","","","","","","","","","","","","",""
"learning-trial","44","256677","0.0-8.0-2.0-1.1","1710","1","2","""event"",""trial"",""time""
""fullscreenenter"",""1"",""2322""
","
","
","""event"",""trial"",""time""
""fullscreenenter"",""1"",""2322""
","
","","","","","","1086","images/racket4.png","","","practice","images/park3.png","images/park2.png","images/park1.png","[2,1,0]","1","1","2","images/park2.png","-1","practice","","","",""
"html-keyboard-response","45","257180","0.0-8.0-2.0-0.2","1710","1","2","""event"",""trial"",""time""
""fullscreenenter"",""1"",""2322""
","
","
","""event"",""trial"",""time""
""fullscreenenter"",""1"",""2322""
","
","","","","","","null","<div style=""font-size:60px;"">+</div>","null","","fixation","","","","","","","","","","","","","",""
"learning-trial","46","261188","0.0-8.0-2.0-1.2","1710","1","2","""event"",""trial"",""time""
""fullscreenenter"",""1"",""2322""
","
","
","""event"",""trial"",""time""
""fullscreenenter"",""1"",""2322""
","
","","","","","","893.7000000001863","images/racket4.png","","","practice","images/park3.png","images/park2.png","images/park1.png","[2,1,0]","1","1","3","images/park1.png","-1","practice","","","",""
"html-keyboard-response","47","261691","0.0-8.0-2.0-0.3","1710","1","2","""event"",""trial"",""time""
""fullscreenenter"",""1"",""2322""
","
","
","""event"",""trial"",""time""
""fullscreenenter"",""1"",""2322""
","
","","","","","","null","<div style=""font-size:60px;"">+</div>","null","","fixation","","","","","","","","","","","","","",""
"learning-trial","48","265696","0.0-8.0-2.0-1.3","1710","1","2","""event"",""trial"",""time""
""fullscreenenter"",""1"",""2322""
","
","
","""event"",""trial"",""time""
""fullscreenenter"",""1"",""2322""
","
","","","","","","1964.4000000003725","images/racket3.png","","","practice","images/park1.png","images/park3.png","images/park2.png","[0,2,1]","1","2","1","images/park1.png","-1","practice","","","",""
"html-keyboard-response","49","266201","0.0-8.0-2.0-0.4","1710","1","2","""event"",""trial"",""time""
""fullscreenenter"",""1"",""2322""
","
","
","""event"",""trial"",""time""
""fullscreenenter"",""1"",""2322""
","
","","","","","","null","<div style=""font-size:60px;"">+</div>","null","","fixation","","","","","","","","","","","","","",""
"learning-trial","50","270207","0.0-8.0-2.0-1.4","1710","1","2","""event"",""trial"",""time""
""fullscreenenter"",""1"",""2322""
","
","
","""event"",""trial"",""time""
""fullscreenenter"",""1"",""2322""
","
","","","","","","1077.7999999998137","images/ball4.png","","","practice","images/park2.png","images/park3.png","images/park1.png","[1,2,0]","0","2","1","images/park2.png","-1","practice","","","",""
"html-keyboard-response","51","270711","0.0-8.0-2.0-0.5","1710","1","2","""event"",""trial"",""time""
""fullscreenenter"",""1"",""2322""
","
","
","""event"",""trial"",""time""
""fullscreenenter"",""1"",""2322""
","
","","","","","","null","<div style=""font-size:60px;"">+</div>","null","","fixation","","","","","","","","","","","","","",""
"learning-trial","52","274717","0.0-8.0-2.0-1.5","1710","1","2","""event"",""trial"",""time""
""fullscreenenter"",""1"",""2322""
","
","
","""event"",""trial"",""time""
""fullscreenenter"",""1"",""2322""
","
","","","","","","783","images/ball4.png","","","practice","images/park2.png","images/park3.png","images/park1.png","[1,2,0]","0","2","2","images/park3.png","-1","practice","","","",""
"html-keyboard-response","53","275222","0.0-8.0-2.0-0.6","1710","1","2","""event"",""trial"",""time""
""fullscreenenter"",""1"",""2322""
","
","
","""event"",""trial"",""time""
""fullscreenenter"",""1"",""2322""
","
","","","","","","null","<div style=""font-size:60px;"">+</div>","null","","fixation","","","","","","","","","","","","","",""
"learning-trial","54","279229","0.0-8.0-2.0-1.6","1710","1","2","""event"",""trial"",""time""
""fullscreenenter"",""1"",""2322""
","
","
","""event"",""trial"",""time""
""fullscreenenter"",""1"",""2322""
","
","","","","","","1545.1000000005588","images/ball1.png","","","practice","images/park2.png","images/park1.png","images/park3.png","[1,0,2]","2","2","1","images/park2.png","-1","practice","","","",""
"html-keyboard-response","55","279734","0.0-8.0-2.0-0.7","1710","1","2","""event"",""trial"",""time""
""fullscreenenter"",""1"",""2322""
","
","
","""event"",""trial"",""time""
""fullscreenenter"",""1"",""2322""
","
","","","","","","null","<div style=""font-size:60px;"">+</div>","null","","fixation","","","","","","","","","","","","","",""
"learning-trial","56","283739","0.0-8.0-2.0-1.7","1710","1","2","""event"",""trial"",""time""
""fullscreenenter"",""1"",""2322""
","
","
","""event"",""trial"",""time""
""fullscreenenter"",""1"",""2322""
","
","","","","","","1651","images/racket2.png","","","practice","images/park1.png","images/park2.png","images/park3.png","[0,1,2]","2","2","1","images/park1.png","-1","practice","","","",""
"html-keyboard-response","57","284244","0.0-8.0-2.0-0.8","1710","1","2","""event"",""trial"",""time""
""fullscreenenter"",""1"",""2322""
","
","
","""event"",""trial"",""time""
""fullscreenenter"",""1"",""2322""
","
","","","","","","null","<div style=""font-size:60px;"">+</div>","null","","fixation","","","","","","","","","","","","","",""
"learning-trial","58","288249","0.0-8.0-2.0-1.8","1710","1","2","""event"",""trial"",""time""
""fullscreenenter"",""1"",""2322""
","
","
","""event"",""trial"",""time""
""fullscreenenter"",""1"",""2322""
","
","","","","","","1264.9000000003725","images/ball2.png","","","practice","images/park2.png","images/park3.png","images/park1.png","[1,2,0]","0","2","3","images/park1.png","1","practice","","","",""
"html-keyboard-response","59","288754","0.0-8.0-2.0-0.9","1710","1","2","""event"",""trial"",""time""
""fullscreenenter"",""1"",""2322""
","
","
","""event"",""trial"",""time""
""fullscreenenter"",""1"",""2322""
","
","","","","","","null","<div style=""font-size:60px;"">+</div>","null","","fixation","","","","","","","","","","","","","",""
"learning-trial","60","292760","0.0-8.0-2.0-1.9","1710","1","2","""event"",""trial"",""time""
""fullscreenenter"",""1"",""2322""
","
","
","""event"",""trial"",""time""
""fullscreenenter"",""1"",""2322""
","
","","","","","","1381.7000000001863","images/ball1.png","","","practice","images/park2.png","images/park1.png","images/park3.png","[1,0,2]","2","2","3","images/park3.png","1","practice","","","",""
"html-keyboard-response","61","293265","0.0-8.0-2.0-0.10","1710","1","2","""event"",""trial"",""time""
""fullscreenenter"",""1"",""2322""
","
","
","""event"",""trial"",""time""
""fullscreenenter"",""1"",""2322""
","
","","","","","","null","<div style=""font-size:60px;"">+</div>","null","","fixation","","","","","","","","","","","","","",""
"learning-trial","62","297270","0.0-8.0-2.0-1.10","1710","1","2","""event"",""trial"",""time""
""fullscreenenter"",""1"",""2322""
","
","
","""event"",""trial"",""time""
""fullscreenenter"",""1"",""2322""
","
","","","","","","1233.7999999998137","images/ball2.png","","","practice","images/park1.png","images/park3.png","images/park2.png","[0,2,1]","0","0","1","images/park1.png","1","practice","","","",""
"html-keyboard-response","63","297775","0.0-8.0-2.0-0.11","1710","1","2","""event"",""trial"",""time""
""fullscreenenter"",""1"",""2322""
","
","
","""event"",""trial"",""time""
""fullscreenenter"",""1"",""2322""
","
","","","","","","null","<div style=""font-size:60px;"">+</div>","null","","fixation","","","","","","","","","","","","","",""
"learning-trial","64","301781","0.0-8.0-2.0-1.11","1710","1","2","""event"",""trial"",""time""
""fullscreenenter"",""1"",""2322""
","
","
","""event"",""trial"",""time""
""fullscreenenter"",""1"",""2322""
","
","","","","","","1575.1000000005588","images/racket2.png","","","practice","images/park2.png","images/park3.png","images/park1.png","[1,2,0]","2","1","2","images/park3.png","1","practice","","","",""
"html-button-response","65","303736","0.0-8.0-3.0","1710","1","2","""event"",""trial"",""time""
""fullscreenenter"",""1"",""2322""
","
","
","""event"",""trial"",""time""
""fullscreenenter"",""1"",""2322""
","
","","","","","","1951.6000000005588","<p> You earned -4 points in the practice round! </p>","0","","break","","","","","","","","","","","","","",""
"learning-instructions","66","312250","0.0-8.0-4.0-0.0","1710","1","2","""event"",""trial"",""time""
""fullscreenenter"",""1"",""2322""
","
","
","""event"",""trial"",""time""
""fullscreenenter"",""1"",""2322""
","
","","","","","","821.2000000001863","<p> It's almost time to start the real game. </p><p> Before you start, we're going to ask you a few questions about how the game works. </p>","","0","instructions","","","","","","","","","","","","","",""
"preload","67","315558","0.0-8.0-5.0","1710","1","2","""event"",""trial"",""time""
""fullscreenenter"",""1"",""2322""
","
","
","""event"",""trial"",""time""
""fullscreenenter"",""1"",""2322""
","
","true","false","[]","[]","[]","","","","","","","","","","","","","","","","","","",""
"comp-q","68","322266","0.0-8.0-6.0-0.0","1710","1","2","""event"",""trial"",""time""
""fullscreenenter"",""1"",""2322""
","
","
","""event"",""trial"",""time""
""fullscreenenter"",""1"",""2322""
","
","","","","","","1252.7999999998137","<p> <b> True or False? </b> </p><p> If you choose the best option, you will always earn 1 point. </p>","","1","comp_question","","","","","","","","","","","true","","",""
"comp-q","69","329157","0.0-8.0-6.0-1.0","1710","1","2","""event"",""trial"",""time""
""fullscreenenter"",""1"",""2322""
","
","
","""event"",""trial"",""time""
""fullscreenenter"",""1"",""2322""
","
","","","","","","1230.7999999998137","<p><b> That's right! </b> Sometimes you will lose 1 point, even if you choose the best option. </p>","","0","comp_answer","","","","","","","","","","","","","",""
"comp-q","70","335035","0.0-8.0-6.0-0.1","1710","1","2","""event"",""trial"",""time""
""fullscreenenter"",""1"",""2322""
","
","
","""event"",""trial"",""time""
""fullscreenenter"",""1"",""2322""
","
","","","","","","1246.5","<p> <b> True or False? </b> </p><p> You will have as much time as you want to make each choice. </p>","","1","comp_question","","","","","","","","","","","true","","",""
"comp-q","71","340988","0.0-8.0-6.0-1.1","1710","1","2","""event"",""trial"",""time""
""fullscreenenter"",""1"",""2322""
","
","
","""event"",""trial"",""time""
""fullscreenenter"",""1"",""2322""
","
","","","","","","1138.7999999998137","<p> <b> That's right! </b> You will only have 4 seconds to make each choice. </p>","","0","comp_answer","","","","","","","","","","","","","",""
"comp-q","72","347955","0.0-8.0-6.0-0.2","1710","1","2","""event"",""trial"",""time""
""fullscreenenter"",""1"",""2322""
","
","
","""event"",""trial"",""time""
""fullscreenenter"",""1"",""2322""
","
","","","","","","815.0999999996275","<p> <b> True or False? </b> </p><p> You should use the '1', '2', and '3' keys to make your choices. </p>","","0","comp_question","","","","","","","","","","","true","","",""
"comp-q","73","353724","0.0-8.0-6.0-1.2","1710","1","2","""event"",""trial"",""time""
""fullscreenenter"",""1"",""2322""
","
","
","""event"",""trial"",""time""
""fullscreenenter"",""1"",""2322""
","
","","","","","","924","<p> <b> That's right! </b> You should use the '1', '2', and '3' keys to make each choice. </p>","","0","comp_answer","","","","","","","","","","","","","",""
"learning-instructions","74","363518","0.0-8.0-7.0-0.0","1710","1","2","""event"",""trial"",""time""
""fullscreenenter"",""1"",""2322""
","
","
","""event"",""trial"",""time""
""fullscreenenter"",""1"",""2322""
","
","","","","","","1307.5","<p> It's now time to start the real game. </p>Do your best, because the points you earn in the next rounds will influence your bonus payment. </p>","","0","instructions","","","","","","","","","","","","","",""
"preload","75","366919","0.0-9.0-0.0","1710","1","2","""event"",""trial"",""time""
""fullscreenenter"",""1"",""2322""
","
","
","""event"",""trial"",""time""
""fullscreenenter"",""1"",""2322""
","
","true","false","[]","[]","[]","","","","","","","","","","","","","","","","","","",""
"learning-instructions","76","375221","0.0-9.0-1.0-0.0","1710","1","2","""event"",""trial"",""time""
""fullscreenenter"",""1"",""2322""
","
","
","""event"",""trial"",""time""
""fullscreenenter"",""1"",""2322""
","
","","","","","","1807.9000000003725","<p> Your goal in this round is to buy different types of fruits. </p><p> You will try to purchase many fruits from different stores. </p></div>","","0","instructions","","","","","","","","","","","","","",""
"learning-instructions","77","384313","0.0-9.0-1.0-0.1","1710","1","2","""event"",""trial"",""time""
""fullscreenenter"",""1"",""2322""
","
","
","""event"",""trial"",""time""
""fullscreenenter"",""1"",""2322""
","
","","","","","","597","<p> On each turn, you will see a picture of a fruit and three different stores.  </p><p> You need to select the store where you can buy that fruit.  </p>","","0","instructions","","","","","","","","","","","","","",""
"learning-instructions","78","392104","0.0-9.0-1.0-0.2","1710","1","2","""event"",""trial"",""time""
""fullscreenenter"",""1"",""2322""
","
","
","""event"",""trial"",""time""
""fullscreenenter"",""1"",""2322""
","
","","","","","","409.70000000018626","<p> You can select the store on the left by pressing 1, the store in the middle by pressing 2, and the store on the right by pressing 3. </p><br><div class=""choice-instructions-grid""> <div class=""choice-option""><img src=""images/fruit_choice1.png"" class=""choice-option-img"" stage=""instructions"" position=""0"" ><div class=""choice-option-text""> Press ""1."" </div></div><div class=""choice-option""><img src=""images/fruit_choice2.png"" class=""choice-option-img"" stage=""instructions"" position=""1"" ><div class=""choice-option-text""> Press ""2."" </div></div><div class=""choice-option""><img src=""images/fruit_choice3.png"" class=""choice-option-img"" stage=""instructions"" position=""2"" ><div class=""choice-option-text""> Press ""3."" </div></div></div>","","0","instructions","","","","","","","","","","","","","",""
"learning-instructions","79","398181","0.0-9.0-1.0-0.3","1710","1","2","""event"",""trial"",""time""
""fullscreenenter"",""1"",""2322""
","
","
","""event"",""trial"",""time""
""fullscreenenter"",""1"",""2322""
","
","","","","","","1130.199999999255","<p> If you find the fruit in the store you chose, you will get to buy and eat it! </p><div style='float: center;'><img src='images/check.png' width = '200' height = '200'></img>","","0","instructions","","","","","","","","","","","","","",""
"learning-instructions","80","403066","0.0-9.0-1.0-0.4","1710","1","2","""event"",""trial"",""time""
""fullscreenenter"",""1"",""2322""
","
","
","""event"",""trial"",""time""
""fullscreenenter"",""1"",""2322""
","
","","","","","","413","<p> But, if the fruit is not in that store, you will be hungry. </p><div style='float: center;'><img src='images/x.png' width = '200' height = '200'></img>","","0","instructions","","","","","","","","","","","","","",""
"learning-instructions","81","413349","0.0-9.0-1.0-0.5","1710","1","2","""event"",""trial"",""time""
""fullscreenenter"",""1"",""2322""
","
","
","""event"",""trial"",""time""
""fullscreenenter"",""1"",""2322""
","
","","","","","","508.90000000037253","<p> Importantly, each fruit is more likely to be found in one of the stores. </p><p> If you choose the correct store, you will be more likely to be able to buy the fruit! </p>","","0","instructions","","","","","","","","","","","","","",""
"learning-instructions","82","424341","0.0-9.0-1.0-0.6","1710","1","2","""event"",""trial"",""time""
""fullscreenenter"",""1"",""2322""
","
","
","""event"",""trial"",""time""
""fullscreenenter"",""1"",""2322""
","
","","","","","","542","<p> However, even if you choose the best store for the fruit, the store might not have it sometimes. </p><p> Similarly, even if you choose the <i>wrong</i> store, it might still have the fruit.","","0","instructions","","","","","","","","","","","","","",""
"learning-instructions","83","436985","0.0-9.0-1.0-0.7","1710","1","2","""event"",""trial"",""time""
""fullscreenenter"",""1"",""2322""
","
","
","""event"",""trial"",""time""
""fullscreenenter"",""1"",""2322""
","
","","","","","","461.09999999962747","<p> Try to choose the best store for each fruit, because you will <b> WIN </b> 1 point for each fruit you eat and <b>LOSE</b> 1 point each time you are hungry. </p><p> Your bonus payment will depend on your total number of points.","","0","instructions","","","","","","","","","","","","","",""
"learning-instructions","84","445850","0.0-9.0-1.0-0.8","1710","1","2","""event"",""trial"",""time""
""fullscreenenter"",""1"",""2322""
","
","
","""event"",""trial"",""time""
""fullscreenenter"",""1"",""2322""
","
","","","","","","659.5","<p> The position of each store will change throughout the round. </p><p> The store's position <i> does not </i> influence how likely you are to find the fruit. </p>","","0","instructions","","","","","","","","","","","","","",""
"learning-instructions","85","455628","0.0-9.0-1.0-0.9","1710","1","2","""event"",""trial"",""time""
""fullscreenenter"",""1"",""2322""
","
","
","""event"",""trial"",""time""
""fullscreenenter"",""1"",""2322""
","
","","","","","","488.09999999962747","<p> You will have 4 seconds to make each choice. Try to respond before time runs out! </p><p> You will lose 1 point each time you do not make a response. </p>","","0","instructions","","","","","","","","","","","","","",""
"html-keyboard-response","86","456236","0.0-9.0-2.0-0.0","1710","1","2","""event"",""trial"",""time""
""fullscreenenter"",""1"",""2322""
","
","
","""event"",""trial"",""time""
""fullscreenenter"",""1"",""2322""
","
","","","","","","null","<div style=""font-size:60px;"">+</div>","null","","fixation","","","","","","","","","","","","","",""
"learning-trial","87","460242","0.0-9.0-2.0-1.0","1710","1","2","""event"",""trial"",""time""
""fullscreenenter"",""1"",""2322""
","
","
","""event"",""trial"",""time""
""fullscreenenter"",""1"",""2322""
","
","","","","","","1116.0999999996275","images/straw2.png","","","learning","images/fruit_choice3.png","images/fruit_choice2.png","images/fruit_choice1.png","[2,1,0]","0","2","2","images/fruit_choice2.png","-1","fruit","","straw","1","0"
"html-keyboard-response","88","460746","0.0-9.0-2.0-0.1","1710","1","2","""event"",""trial"",""time""
""fullscreenenter"",""1"",""2322""
","
","
","""event"",""trial"",""time""
""fullscreenenter"",""1"",""2322""
","
","","","","","","null","<div style=""font-size:60px;"">+</div>","null","","fixation","","","","","","","","","","","","","",""
"learning-trial","89","464752","0.0-9.0-2.0-1.1","1710","1","2","""event"",""trial"",""time""
""fullscreenenter"",""1"",""2322""
","
","
","""event"",""trial"",""time""
""fullscreenenter"",""1"",""2322""
","
","","","","","","1336.5","images/banana5.png","","","learning","images/fruit_choice2.png","images/fruit_choice1.png","images/fruit_choice3.png","[1,0,2]","2","2","1","images/fruit_choice2.png","-1","fruit","","banana","1","0"
"html-keyboard-response","90","465257","0.0-9.0-2.0-0.2","1710","1","2","""event"",""trial"",""time""
""fullscreenenter"",""1"",""2322""
","
","
","""event"",""trial"",""time""
""fullscreenenter"",""1"",""2322""
","
","","","","","","null","<div style=""font-size:60px;"">+</div>","null","","fixation","","","","","","","","","","","","","",""
"learning-trial","91","469262","0.0-9.0-2.0-1.2","1710","1","2","""event"",""trial"",""time""
""fullscreenenter"",""1"",""2322""
","
","
","""event"",""trial"",""time""
""fullscreenenter"",""1"",""2322""
","
","","","","","","1808.2999999998137","images/straw5.png","","","learning","images/fruit_choice2.png","images/fruit_choice1.png","images/fruit_choice3.png","[1,0,2]","0","1","2","images/fruit_choice1.png","1","fruit","","straw","1","0"
"html-keyboard-response","92","469767","0.0-9.0-2.0-0.3","1710","1","2","""event"",""trial"",""time""
""fullscreenenter"",""1"",""2322""
","
","
","""event"",""trial"",""time""
""fullscreenenter"",""1"",""2322""
","
","","","","","","null","<div style=""font-size:60px;"">+</div>","null","","fixation","","","","","","","","","","","","","",""
"learning-trial","93","473773","0.0-9.0-2.0-1.3","1710","1","2","""event"",""trial"",""time""
""fullscreenenter"",""1"",""2322""
","
","
","""event"",""trial"",""time""
""fullscreenenter"",""1"",""2322""
","
","","","","","","1139.8999999994412","images/orange3.png","","","learning","images/fruit_choice2.png","images/fruit_choice1.png","images/fruit_choice3.png","[1,0,2]","1","0","1","images/fruit_choice2.png","1","fruit","","orange","1","0"
"html-keyboard-response","94","474278","0.0-9.0-2.0-0.4","1710","1","2","""event"",""trial"",""time""
""fullscreenenter"",""1"",""2322""
","
","
","""event"",""trial"",""time""
""fullscreenenter"",""1"",""2322""
","
","","","","","","null","<div style=""font-size:60px;"">+</div>","null","","fixation","","","","","","","","","","","","","",""
"learning-trial","95","478283","0.0-9.0-2.0-1.4","1710","1","2","""event"",""trial"",""time""
""fullscreenenter"",""1"",""2322""
","
","
","""event"",""trial"",""time""
""fullscreenenter"",""1"",""2322""
","
","","","","","","2182.800000000745","images/banana3.png","","","learning","images/fruit_choice1.png","images/fruit_choice2.png","images/fruit_choice3.png","[0,1,2]","2","2","3","images/fruit_choice3.png","1","fruit","","banana","1","0"
"html-keyboard-response","96","478789","0.0-9.0-2.0-0.5","1710","1","2","""event"",""trial"",""time""
""fullscreenenter"",""1"",""2322""
","
","
","""event"",""trial"",""time""
""fullscreenenter"",""1"",""2322""
","
","","","","","","null","<div style=""font-size:60px;"">+</div>","null","","fixation","","","","","","","","","","","","","",""
"learning-trial","97","482795","0.0-9.0-2.0-1.5","1710","1","2","""event"",""trial"",""time""
""fullscreenenter"",""1"",""2322""
","
","
","""event"",""trial"",""time""
""fullscreenenter"",""1"",""2322""
","
","","","","","","2659.800000000745","images/orange3.png","","","learning","images/fruit_choice2.png","images/fruit_choice1.png","images/fruit_choice3.png","[1,0,2]","1","0","1","images/fruit_choice2.png","1","fruit","","orange","1","0"
"html-keyboard-response","98","483299","0.0-9.0-2.0-0.6","1710","1","2","""event"",""trial"",""time""
""fullscreenenter"",""1"",""2322""
","
","
","""event"",""trial"",""time""
""fullscreenenter"",""1"",""2322""
","
","","","","","","null","<div style=""font-size:60px;"">+</div>","null","","fixation","","","","","","","","","","","","","",""
"learning-trial","99","487305","0.0-9.0-2.0-1.6","1710","1","2","""event"",""trial"",""time""
""fullscreenenter"",""1"",""2322""
","
","
","""event"",""trial"",""time""
""fullscreenenter"",""1"",""2322""
","
","","","","","","958.7000000001863","images/straw3.png","","","learning","images/fruit_choice3.png","images/fruit_choice1.png","images/fruit_choice2.png","[2,0,1]","0","1","2","images/fruit_choice1.png","1","fruit","","straw","1","0"
"html-keyboard-response","100","487810","0.0-9.0-2.0-0.7","1710","1","2","""event"",""trial"",""time""
""fullscreenenter"",""1"",""2322""
","
","
","""event"",""trial"",""time""
""fullscreenenter"",""1"",""2322""
","
","","","","","","null","<div style=""font-size:60px;"">+</div>","null","","fixation","","","","","","","","","","","","","",""
"learning-trial","101","491816","0.0-9.0-2.0-1.7","1710","1","2","""event"",""trial"",""time""
""fullscreenenter"",""1"",""2322""
","
","
","""event"",""trial"",""time""
""fullscreenenter"",""1"",""2322""
","
","","","","","","1042.7999999998137","images/orange5.png","","","learning","images/fruit_choice2.png","images/fruit_choice1.png","images/fruit_choice3.png","[1,0,2]","1","0","1","images/fruit_choice2.png","1","fruit","","orange","1","0"
"html-keyboard-response","102","492320","0.0-9.0-2.0-0.8","1710","1","2","""event"",""trial"",""time""
""fullscreenenter"",""1"",""2322""
","
","
","""event"",""trial"",""time""
""fullscreenenter"",""1"",""2322""
","
","","","","","","null","<div style=""font-size:60px;"">+</div>","null","","fixation","","","","","","","","","","","","","",""
"learning-trial","103","496326","0.0-9.0-2.0-1.8","1710","1","2","""event"",""trial"",""time""
""fullscreenenter"",""1"",""2322""
","
","
","""event"",""trial"",""time""
""fullscreenenter"",""1"",""2322""
","
","","","","","","1261.4000000003725","images/banana2.png","","","learning","images/fruit_choice2.png","images/fruit_choice3.png","images/fruit_choice1.png","[1,2,0]","2","1","2","images/fruit_choice3.png","1","fruit","","banana","1","0"
"html-keyboard-response","104","496831","0.0-9.0-2.0-0.9","1710","1","2","""event"",""trial"",""time""
""fullscreenenter"",""1"",""2322""
","
","
","""event"",""trial"",""time""
""fullscreenenter"",""1"",""2322""
","
","","","","","","null","<div style=""font-size:60px;"">+</div>","null","","fixation","","","","","","","","","","","","","",""
"learning-trial","105","500836","0.0-9.0-2.0-1.9","1710","1","2","""event"",""trial"",""time""
""fullscreenenter"",""1"",""2322""
","
","
","""event"",""trial"",""time""
""fullscreenenter"",""1"",""2322""
","
","","","","","","2430.2000000001863","images/orange5.png","","","learning","images/fruit_choice1.png","images/fruit_choice3.png","images/fruit_choice2.png","[0,2,1]","1","2","3","images/fruit_choice2.png","1","fruit","","orange","1","0"
"html-keyboard-response","106","501341","0.0-9.0-2.0-0.10","1710","1","2","""event"",""trial"",""time""
""fullscreenenter"",""1"",""2322""
","
","
","""event"",""trial"",""time""
""fullscreenenter"",""1"",""2322""
","
","","","","","","null","<div style=""font-size:60px;"">+</div>","null","","fixation","","","","","","","","","","","","","",""
"learning-trial","107","505347","0.0-9.0-2.0-1.10","1710","1","2","""event"",""trial"",""time""
""fullscreenenter"",""1"",""2322""
","
","
","""event"",""trial"",""time""
""fullscreenenter"",""1"",""2322""
","
","","","","","","1015.5","images/orange3.png","","","learning","images/fruit_choice2.png","images/fruit_choice3.png","images/fruit_choice1.png","[1,2,0]","1","0","1","images/fruit_choice2.png","1","fruit","","orange","1","0"
"html-keyboard-response","108","505852","0.0-9.0-2.0-0.11","1710","1","2","""event"",""trial"",""time""
""fullscreenenter"",""1"",""2322""
","
","
","""event"",""trial"",""time""
""fullscreenenter"",""1"",""2322""
","
","","","","","","null","<div style=""font-size:60px;"">+</div>","null","","fixation","","","","","","","","","","","","","",""
"learning-trial","109","509857","0.0-9.0-2.0-1.11","1710","1","2","""event"",""trial"",""time""
""fullscreenenter"",""1"",""2322""
","
","
","""event"",""trial"",""time""
""fullscreenenter"",""1"",""2322""
","
","","","","","","979.5","images/banana3.png","","","learning","images/fruit_choice3.png","images/fruit_choice2.png","images/fruit_choice1.png","[2,1,0]","2","0","1","images/fruit_choice3.png","1","fruit","","banana","1","0"
"html-keyboard-response","110","510362","0.0-9.0-2.0-0.12","1710","1","2","""event"",""trial"",""time""
""fullscreenenter"",""1"",""2322""
","
","
","""event"",""trial"",""time""
""fullscreenenter"",""1"",""2322""
","
","","","","","","null","<div style=""font-size:60px;"">+</div>","null","","fixation","","","","","","","","","","","","","",""
"learning-trial","111","514367","0.0-9.0-2.0-1.12","1710","1","2","""event"",""trial"",""time""
""fullscreenenter"",""1"",""2322""
","
","
","""event"",""trial"",""time""
""fullscreenenter"",""1"",""2322""
","
","","","","","","1209.3999999994412","images/banana2.png","","","learning","images/fruit_choice2.png","images/fruit_choice3.png","images/fruit_choice1.png","[1,2,0]","2","1","2","images/fruit_choice3.png","1","fruit","","banana","1","0"
"html-keyboard-response","112","514872","0.0-9.0-2.0-0.13","1710","1","2","""event"",""trial"",""time""
""fullscreenenter"",""1"",""2322""
","
","
","""event"",""trial"",""time""
""fullscreenenter"",""1"",""2322""
","
","","","","","","null","<div style=""font-size:60px;"">+</div>","null","","fixation","","","","","","","","","","","","","",""
"learning-trial","113","518878","0.0-9.0-2.0-1.13","1710","1","2","""event"",""trial"",""time""
""fullscreenenter"",""1"",""2322""
","
","
","""event"",""trial"",""time""
""fullscreenenter"",""1"",""2322""
","
","","","","","","867.7999999998137","images/straw5.png","","","learning","images/fruit_choice2.png","images/fruit_choice1.png","images/fruit_choice3.png","[1,0,2]","0","1","1","images/fruit_choice2.png","-1","fruit","","straw","1","0"
"html-keyboard-response","114","519383","0.0-9.0-2.0-0.14","1710","1","2","""event"",""trial"",""time""
""fullscreenenter"",""1"",""2322""
","
","
","""event"",""trial"",""time""
""fullscreenenter"",""1"",""2322""
","
","","","","","","null","<div style=""font-size:60px;"">+</div>","null","","fixation","","","","","","","","","","","","","",""
"learning-trial","115","523388","0.0-9.0-2.0-1.14","1710","1","2","""event"",""trial"",""time""
""fullscreenenter"",""1"",""2322""
","
","
","""event"",""trial"",""time""
""fullscreenenter"",""1"",""2322""
","
","","","","","","1274.9000000003725","images/orange1.png","","","learning","images/fruit_choice1.png","images/fruit_choice3.png","images/fruit_choice2.png","[0,2,1]","1","2","3","images/fruit_choice2.png","-1","fruit","","orange","1","0"
"html-keyboard-response","116","523893","0.0-9.0-2.0-0.15","1710","1","2","""event"",""trial"",""time""
""fullscreenenter"",""1"",""2322""
","
","
","""event"",""trial"",""time""
""fullscreenenter"",""1"",""2322""
","
","","","","","","null","<div style=""font-size:60px;"">+</div>","null","","fixation","","","","","","","","","","","","","",""
"learning-trial","117","527899","0.0-9.0-2.0-1.15","1710","1","2","""event"",""trial"",""time""
""fullscreenenter"",""1"",""2322""
","
","
","""event"",""trial"",""time""
""fullscreenenter"",""1"",""2322""
","
","","","","","","987.7000000001863","images/straw3.png","","","learning","images/fruit_choice3.png","images/fruit_choice1.png","images/fruit_choice2.png","[2,0,1]","0","1","2","images/fruit_choice1.png","1","fruit","","straw","1","0"
"html-keyboard-response","118","528403","0.0-9.0-2.0-0.16","1710","1","2","""event"",""trial"",""time""
""fullscreenenter"",""1"",""2322""
","
","
","""event"",""trial"",""time""
""fullscreenenter"",""1"",""2322""
","
","","","","","","null","<div style=""font-size:60px;"">+</div>","null","","fixation","","","","","","","","","","","","","",""
"learning-trial","119","532409","0.0-9.0-2.0-1.16","1710","1","2","""event"",""trial"",""time""
""fullscreenenter"",""1"",""2322""
","
","
","""event"",""trial"",""time""
""fullscreenenter"",""1"",""2322""
","
","","","","","","1842","images/orange5.png","","","learning","images/fruit_choice2.png","images/fruit_choice3.png","images/fruit_choice1.png","[1,2,0]","1","0","1","images/fruit_choice2.png","1","fruit","","orange","1","0"
"html-keyboard-response","120","532914","0.0-9.0-2.0-0.17","1710","1","2","""event"",""trial"",""time""
""fullscreenenter"",""1"",""2322""
","
","
","""event"",""trial"",""time""
""fullscreenenter"",""1"",""2322""
","
","","","","","","null","<div style=""font-size:60px;"">+</div>","null","","fixation","","","","","","","","","","","","","",""
"learning-trial","121","536920","0.0-9.0-2.0-1.17","1710","1","2","""event"",""trial"",""time""
""fullscreenenter"",""1"",""2322""
","
","
","""event"",""trial"",""time""
""fullscreenenter"",""1"",""2322""
","
","","","","","","2018.5999999996275","images/banana5.png","","","learning","images/fruit_choice1.png","images/fruit_choice2.png","images/fruit_choice3.png","[0,1,2]","2","2","3","images/fruit_choice3.png","1","fruit","","banana","1","0"
"html-keyboard-response","122","537424","0.0-9.0-2.0-0.18","1710","1","2","""event"",""trial"",""time""
""fullscreenenter"",""1"",""2322""
","
","
","""event"",""trial"",""time""
""fullscreenenter"",""1"",""2322""
","
","","","","","","null","<div style=""font-size:60px;"">+</div>","null","","fixation","","","","","","","","","","","","","",""
"learning-trial","123","541430","0.0-9.0-2.0-1.18","1710","1","2","""event"",""trial"",""time""
""fullscreenenter"",""1"",""2322""
","
","
","""event"",""trial"",""time""
""fullscreenenter"",""1"",""2322""
","
","","","","","","1178.4000000003725","images/orange1.png","","","learning","images/fruit_choice2.png","images/fruit_choice1.png","images/fruit_choice3.png","[1,0,2]","1","0","1","images/fruit_choice2.png","1","fruit","","orange","1","0"
"html-keyboard-response","124","541935","0.0-9.0-2.0-0.19","1710","1","2","""event"",""trial"",""time""
""fullscreenenter"",""1"",""2322""
","
","
","""event"",""trial"",""time""
""fullscreenenter"",""1"",""2322""
","
","","","","","","null","<div style=""font-size:60px;"">+</div>","null","","fixation","","","","","","","","","","","","","",""
"learning-trial","125","545940","0.0-9.0-2.0-1.19","1710","1","2","""event"",""trial"",""time""
""fullscreenenter"",""1"",""2322""
","
","
","""event"",""trial"",""time""
""fullscreenenter"",""1"",""2322""
","
","","","","","","843.7999999998137","images/orange3.png","","","learning","images/fruit_choice3.png","images/fruit_choice2.png","images/fruit_choice1.png","[2,1,0]","1","1","2","images/fruit_choice2.png","1","fruit","","orange","1","0"
"html-keyboard-response","126","546445","0.0-9.0-2.0-0.20","1710","1","2","""event"",""trial"",""time""
""fullscreenenter"",""1"",""2322""
","
","
","""event"",""trial"",""time""
""fullscreenenter"",""1"",""2322""
","
","","","","","","null","<div style=""font-size:60px;"">+</div>","null","","fixation","","","","","","","","","","","","","",""
"learning-trial","127","550453","0.0-9.0-2.0-1.20","1710","1","2","""event"",""trial"",""time""
""fullscreenenter"",""1"",""2322""
","
","
","""event"",""trial"",""time""
""fullscreenenter"",""1"",""2322""
","
","","","","","","1703.7999999998137","images/banana5.png","","","learning","images/fruit_choice2.png","images/fruit_choice3.png","images/fruit_choice1.png","[1,2,0]","2","1","2","images/fruit_choice3.png","1","fruit","","banana","1","0"
"html-keyboard-response","128","550955","0.0-9.0-2.0-0.21","1710","1","2","""event"",""trial"",""time""
""fullscreenenter"",""1"",""2322""
","
","
","""event"",""trial"",""time""
""fullscreenenter"",""1"",""2322""
","
","","","","","","null","<div style=""font-size:60px;"">+</div>","null","","fixation","","","","","","","","","","","","","",""
"learning-trial","129","554964","0.0-9.0-2.0-1.21","1710","1","2","""event"",""trial"",""time""
""fullscreenenter"",""1"",""2322""
","
","
","""event"",""trial"",""time""
""fullscreenenter"",""1"",""2322""
","
","","","","","","1037.7999999998137","images/banana3.png","","","learning","images/fruit_choice3.png","images/fruit_choice2.png","images/fruit_choice1.png","[2,1,0]","2","0","1","images/fruit_choice3.png","1","fruit","","banana","1","0"
"html-keyboard-response","130","555466","0.0-9.0-2.0-0.22","1710","1","2","""event"",""trial"",""time""
""fullscreenenter"",""1"",""2322""
","
","
","""event"",""trial"",""time""
""fullscreenenter"",""1"",""2322""
","
","","","","","","null","<div style=""font-size:60px;"">+</div>","null","","fixation","","","","","","","","","","","","","",""
"learning-trial","131","559471","0.0-9.0-2.0-1.22","1710","1","2","""event"",""trial"",""time""
""fullscreenenter"",""1"",""2322""
","
","
","""event"",""trial"",""time""
""fullscreenenter"",""1"",""2322""
","
","","","","","","1159.5","images/banana2.png","","","learning","images/fruit_choice2.png","images/fruit_choice1.png","images/fruit_choice3.png","[1,0,2]","2","2","3","images/fruit_choice3.png","1","fruit","","banana","1","0"
"html-keyboard-response","132","559976","0.0-9.0-2.0-0.23","1710","1","2","""event"",""trial"",""time""
""fullscreenenter"",""1"",""2322""
","
","
","""event"",""trial"",""time""
""fullscreenenter"",""1"",""2322""
","
","","","","","","null","<div style=""font-size:60px;"">+</div>","null","","fixation","","","","","","","","","","","","","",""
"learning-trial","133","563982","0.0-9.0-2.0-1.23","1710","1","2","""event"",""trial"",""time""
""fullscreenenter"",""1"",""2322""
","
","
","""event"",""trial"",""time""
""fullscreenenter"",""1"",""2322""
","
","","","","","","1394.4000000003725","images/banana5.png","","","learning","images/fruit_choice1.png","images/fruit_choice2.png","images/fruit_choice3.png","[0,1,2]","2","2","3","images/fruit_choice3.png","1","fruit","","banana","1","0"
"html-keyboard-response","134","564486","0.0-9.0-2.0-0.24","1710","1","2","""event"",""trial"",""time""
""fullscreenenter"",""1"",""2322""
","
","
","""event"",""trial"",""time""
""fullscreenenter"",""1"",""2322""
","
","","","","","","null","<div style=""font-size:60px;"">+</div>","null","","fixation","","","","","","","","","","","","","",""
"learning-trial","135","568492","0.0-9.0-2.0-1.24","1710","1","2","""event"",""trial"",""time""
""fullscreenenter"",""1"",""2322""
","
","
","""event"",""trial"",""time""
""fullscreenenter"",""1"",""2322""
","
","","","","","","906.5999999996275","images/banana2.png","","","learning","images/fruit_choice1.png","images/fruit_choice2.png","images/fruit_choice3.png","[0,1,2]","2","2","3","images/fruit_choice3.png","1","fruit","","banana","1","0"
"html-keyboard-response","136","568996","0.0-9.0-2.0-0.25","1710","1","2","""event"",""trial"",""time""
""fullscreenenter"",""1"",""2322""
","
","
","""event"",""trial"",""time""
""fullscreenenter"",""1"",""2322""
","
","","","","","","null","<div style=""font-size:60px;"">+</div>","null","","fixation","","","","","","","","","","","","","",""
"learning-trial","137","573003","0.0-9.0-2.0-1.25","1710","1","2","""event"",""trial"",""time""
""fullscreenenter"",""1"",""2322""
","
","
","""event"",""trial"",""time""
""fullscreenenter"",""1"",""2322""
","
","","","","","","945.8000000007451","images/orange3.png","","","learning","images/fruit_choice3.png","images/fruit_choice1.png","images/fruit_choice2.png","[2,0,1]","1","2","3","images/fruit_choice2.png","1","fruit","","orange","1","0"
"html-keyboard-response","138","573507","0.0-9.0-2.0-0.26","1710","1","2","""event"",""trial"",""time""
""fullscreenenter"",""1"",""2322""
","
","
","""event"",""trial"",""time""
""fullscreenenter"",""1"",""2322""
","
","","","","","","null","<div style=""font-size:60px;"">+</div>","null","","fixation","","","","","","","","","","","","","",""
"learning-trial","139","577513","0.0-9.0-2.0-1.26","1710","1","2","""event"",""trial"",""time""
""fullscreenenter"",""1"",""2322""
","
","
","""event"",""trial"",""time""
""fullscreenenter"",""1"",""2322""
","
","","","","","","866.6000000005588","images/banana5.png","","","learning","images/fruit_choice1.png","images/fruit_choice3.png","images/fruit_choice2.png","[0,2,1]","2","1","2","images/fruit_choice3.png","1","fruit","","banana","1","0"
"html-keyboard-response","140","578018","0.0-9.0-2.0-0.27","1710","1","2","""event"",""trial"",""time""
""fullscreenenter"",""1"",""2322""
","
","
","""event"",""trial"",""time""
""fullscreenenter"",""1"",""2322""
","
","","","","","","null","<div style=""font-size:60px;"">+</div>","null","","fixation","","","","","","","","","","","","","",""
"learning-trial","141","582023","0.0-9.0-2.0-1.27","1710","1","2","""event"",""trial"",""time""
""fullscreenenter"",""1"",""2322""
","
","
","""event"",""trial"",""time""
""fullscreenenter"",""1"",""2322""
","
","","","","","","1409.2999999998137","images/straw2.png","","","learning","images/fruit_choice1.png","images/fruit_choice2.png","images/fruit_choice3.png","[0,1,2]","0","0","1","images/fruit_choice1.png","1","fruit","","straw","1","0"
"html-keyboard-response","142","582528","0.0-9.0-2.0-0.28","1710","1","2","""event"",""trial"",""time""
""fullscreenenter"",""1"",""2322""
","
","
","""event"",""trial"",""time""
""fullscreenenter"",""1"",""2322""
","
","","","","","","null","<div style=""font-size:60px;"">+</div>","null","","fixation","","","","","","","","","","","","","",""
"learning-trial","143","586534","0.0-9.0-2.0-1.28","1710","1","2","""event"",""trial"",""time""
""fullscreenenter"",""1"",""2322""
","
","
","""event"",""trial"",""time""
""fullscreenenter"",""1"",""2322""
","
","","","","","","1690.3999999994412","images/straw3.png","","","learning","images/fruit_choice2.png","images/fruit_choice3.png","images/fruit_choice1.png","[1,2,0]","0","2","3","images/fruit_choice1.png","-1","fruit","","straw","1","0"
"html-keyboard-response","144","587038","0.0-9.0-2.0-0.29","1710","1","2","""event"",""trial"",""time""
""fullscreenenter"",""1"",""2322""
","
","
","""event"",""trial"",""time""
""fullscreenenter"",""1"",""2322""
","
","","","","","","null","<div style=""font-size:60px;"">+</div>","null","","fixation","","","","","","","","","","","","","",""
"learning-trial","145","591044","0.0-9.0-2.0-1.29","1710","1","2","""event"",""trial"",""time""
""fullscreenenter"",""1"",""2322""
","
","
","""event"",""trial"",""time""
""fullscreenenter"",""1"",""2322""
","
","","","","","","989.6999999992549","images/orange1.png","","","learning","images/fruit_choice1.png","images/fruit_choice3.png","images/fruit_choice2.png","[0,2,1]","1","2","3","images/fruit_choice2.png","-1","fruit","","orange","1","0"
"html-keyboard-response","146","591549","0.0-9.0-2.0-0.30","1710","1","2","""event"",""trial"",""time""
""fullscreenenter"",""1"",""2322""
","
","
","""event"",""trial"",""time""
""fullscreenenter"",""1"",""2322""
","
","","","","","","null","<div style=""font-size:60px;"">+</div>","null","","fixation","","","","","","","","","","","","","",""
"learning-trial","147","595555","0.0-9.0-2.0-1.30","1710","1","2","""event"",""trial"",""time""
""fullscreenenter"",""1"",""2322""
","
","
","""event"",""trial"",""time""
""fullscreenenter"",""1"",""2322""
","
","","","","","","806.5","images/orange1.png","","","learning","images/fruit_choice2.png","images/fruit_choice3.png","images/fruit_choice1.png","[1,2,0]","1","0","1","images/fruit_choice2.png","1","fruit","","orange","1","0"
"html-keyboard-response","148","596059","0.0-9.0-2.0-0.31","1710","1","2","""event"",""trial"",""time""
""fullscreenenter"",""1"",""2322""
","
","
","""event"",""trial"",""time""
""fullscreenenter"",""1"",""2322""
","
","","","","","","null","<div style=""font-size:60px;"">+</div>","null","","fixation","","","","","","","","","","","","","",""
"learning-trial","149","600065","0.0-9.0-2.0-1.31","1710","1","2","""event"",""trial"",""time""
""fullscreenenter"",""1"",""2322""
","
","
","""event"",""trial"",""time""
""fullscreenenter"",""1"",""2322""
","
","","","","","","709.2999999998137","images/orange3.png","","","learning","images/fruit_choice1.png","images/fruit_choice2.png","images/fruit_choice3.png","[0,1,2]","1","1","2","images/fruit_choice2.png","-1","fruit","","orange","1","0"
"html-keyboard-response","150","600570","0.0-9.0-2.0-0.32","1710","1","2","""event"",""trial"",""time""
""fullscreenenter"",""1"",""2322""
","
","
","""event"",""trial"",""time""
""fullscreenenter"",""1"",""2322""
","
","","","","","","null","<div style=""font-size:60px;"">+</div>","null","","fixation","","","","","","","","","","","","","",""
"learning-trial","151","604575","0.0-9.0-2.0-1.32","1710","1","2","""event"",""trial"",""time""
""fullscreenenter"",""1"",""2322""
","
","
","""event"",""trial"",""time""
""fullscreenenter"",""1"",""2322""
","
","","","","","","1131","images/straw2.png","","","learning","images/fruit_choice3.png","images/fruit_choice1.png","images/fruit_choice2.png","[2,0,1]","0","1","2","images/fruit_choice1.png","1","fruit","","straw","1","0"
"html-keyboard-response","152","605080","0.0-9.0-2.0-0.33","1710","1","2","""event"",""trial"",""time""
""fullscreenenter"",""1"",""2322""
","
","
","""event"",""trial"",""time""
""fullscreenenter"",""1"",""2322""
","
","","","","","","null","<div style=""font-size:60px;"">+</div>","null","","fixation","","","","","","","","","","","","","",""
"learning-trial","153","609086","0.0-9.0-2.0-1.33","1710","1","2","""event"",""trial"",""time""
""fullscreenenter"",""1"",""2322""
","
","
","""event"",""trial"",""time""
""fullscreenenter"",""1"",""2322""
","
","","","","","","1967.2000000001863","images/banana5.png","","","learning","images/fruit_choice3.png","images/fruit_choice2.png","images/fruit_choice1.png","[2,1,0]","2","0","1","images/fruit_choice3.png","1","fruit","","banana","1","0"
"html-keyboard-response","154","609590","0.0-9.0-2.0-0.34","1710","1","2","""event"",""trial"",""time""
""fullscreenenter"",""1"",""2322""
","
","
","""event"",""trial"",""time""
""fullscreenenter"",""1"",""2322""
","
","","","","","","null","<div style=""font-size:60px;"">+</div>","null","","fixation","","","","","","","","","","","","","",""
"learning-trial","155","613596","0.0-9.0-2.0-1.34","1710","1","2","""event"",""trial"",""time""
""fullscreenenter"",""1"",""2322""
","
","
","""event"",""trial"",""time""
""fullscreenenter"",""1"",""2322""
","
","","","","","","795","images/banana2.png","","","learning","images/fruit_choice1.png","images/fruit_choice3.png","images/fruit_choice2.png","[0,2,1]","2","1","2","images/fruit_choice3.png","1","fruit","","banana","1","0"
"html-keyboard-response","156","614101","0.0-9.0-2.0-0.35","1710","1","2","""event"",""trial"",""time""
""fullscreenenter"",""1"",""2322""
","
","
","""event"",""trial"",""time""
""fullscreenenter"",""1"",""2322""
","
","","","","","","null","<div style=""font-size:60px;"">+</div>","null","","fixation","","","","","","","","","","","","","",""
"learning-trial","157","618106","0.0-9.0-2.0-1.35","1710","1","2","""event"",""trial"",""time""
""fullscreenenter"",""1"",""2322""
","
","
","""event"",""trial"",""time""
""fullscreenenter"",""1"",""2322""
","
","","","","","","856.5999999996275","images/orange1.png","","","learning","images/fruit_choice3.png","images/fruit_choice1.png","images/fruit_choice2.png","[2,0,1]","1","2","3","images/fruit_choice2.png","1","fruit","","orange","1","0"
"html-keyboard-response","158","618611","0.0-9.0-2.0-0.36","1710","1","2","""event"",""trial"",""time""
""fullscreenenter"",""1"",""2322""
","
","
","""event"",""trial"",""time""
""fullscreenenter"",""1"",""2322""
","
","","","","","","null","<div style=""font-size:60px;"">+</div>","null","","fixation","","","","","","","","","","","","","",""
"learning-trial","159","622617","0.0-9.0-2.0-1.36","1710","1","2","""event"",""trial"",""time""
""fullscreenenter"",""1"",""2322""
","
","
","""event"",""trial"",""time""
""fullscreenenter"",""1"",""2322""
","
","","","","","","1894.5","images/banana3.png","","","learning","images/fruit_choice3.png","images/fruit_choice1.png","images/fruit_choice2.png","[2,0,1]","2","0","1","images/fruit_choice3.png","1","fruit","","banana","1","0"
"html-keyboard-response","160","623122","0.0-9.0-2.0-0.37","1710","1","2","""event"",""trial"",""time""
""fullscreenenter"",""1"",""2322""
","
","
","""event"",""trial"",""time""
""fullscreenenter"",""1"",""2322""
","
","","","","","","null","<div style=""font-size:60px;"">+</div>","null","","fixation","","","","","","","","","","","","","",""
"learning-trial","161","627127","0.0-9.0-2.0-1.37","1710","1","2","""event"",""trial"",""time""
""fullscreenenter"",""1"",""2322""
","
","
","""event"",""trial"",""time""
""fullscreenenter"",""1"",""2322""
","
","","","","","","1636.5999999996275","images/orange5.png","","","learning","images/fruit_choice1.png","images/fruit_choice2.png","images/fruit_choice3.png","[0,1,2]","1","1","2","images/fruit_choice2.png","1","fruit","","orange","1","0"
"html-keyboard-response","162","627632","0.0-9.0-2.0-0.38","1710","1","2","""event"",""trial"",""time""
""fullscreenenter"",""1"",""2322""
","
","
","""event"",""trial"",""time""
""fullscreenenter"",""1"",""2322""
","
","","","","","","null","<div style=""font-size:60px;"">+</div>","null","","fixation","","","","","","","","","","","","","",""
"learning-trial","163","631637","0.0-9.0-2.0-1.38","1710","1","2","""event"",""trial"",""time""
""fullscreenenter"",""1"",""2322""
","
","
","""event"",""trial"",""time""
""fullscreenenter"",""1"",""2322""
","
","","","","","","1550.5999999996275","images/straw2.png","","","learning","images/fruit_choice1.png","images/fruit_choice2.png","images/fruit_choice3.png","[0,1,2]","0","0","1","images/fruit_choice1.png","1","fruit","","straw","1","0"
"html-keyboard-response","164","632142","0.0-9.0-2.0-0.39","1710","1","2","""event"",""trial"",""time""
""fullscreenenter"",""1"",""2322""
","
","
","""event"",""trial"",""time""
""fullscreenenter"",""1"",""2322""
","
","","","","","","null","<div style=""font-size:60px;"">+</div>","null","","fixation","","","","","","","","","","","","","",""
"learning-trial","165","636148","0.0-9.0-2.0-1.39","1710","1","2","""event"",""trial"",""time""
""fullscreenenter"",""1"",""2322""
","
","
","""event"",""trial"",""time""
""fullscreenenter"",""1"",""2322""
","
","","","","","","2475.5","images/straw3.png","","","learning","images/fruit_choice3.png","images/fruit_choice2.png","images/fruit_choice1.png","[2,1,0]","0","2","3","images/fruit_choice1.png","1","fruit","","straw","1","0"
"html-keyboard-response","166","636653","0.0-9.0-2.0-0.40","1710","1","2","""event"",""trial"",""time""
""fullscreenenter"",""1"",""2322""
","
","
","""event"",""trial"",""time""
""fullscreenenter"",""1"",""2322""
","
","","","","","","null","<div style=""font-size:60px;"">+</div>","null","","fixation","","","","","","","","","","","","","",""
"learning-trial","167","640658","0.0-9.0-2.0-1.40","1710","1","2","""event"",""trial"",""time""
""fullscreenenter"",""1"",""2322""
","
","
","""event"",""trial"",""time""
""fullscreenenter"",""1"",""2322""
","
","","","","","","812.4000000003725","images/straw5.png","","","learning","images/fruit_choice1.png","images/fruit_choice3.png","images/fruit_choice2.png","[0,2,1]","0","0","1","images/fruit_choice1.png","1","fruit","","straw","1","0"
"html-keyboard-response","168","641163","0.0-9.0-2.0-0.41","1710","1","2","""event"",""trial"",""time""
""fullscreenenter"",""1"",""2322""
","
","
","""event"",""trial"",""time""
""fullscreenenter"",""1"",""2322""
","
","","","","","","null","<div style=""font-size:60px;"">+</div>","null","","fixation","","","","","","","","","","","","","",""
"learning-trial","169","645169","0.0-9.0-2.0-1.41","1710","1","2","""event"",""trial"",""time""
""fullscreenenter"",""1"",""2322""
","
","
","""event"",""trial"",""time""
""fullscreenenter"",""1"",""2322""
","
","","","","","","709.2999999998137","images/straw3.png","","","learning","images/fruit_choice2.png","images/fruit_choice1.png","images/fruit_choice3.png","[1,0,2]","0","1","2","images/fruit_choice1.png","-1","fruit","","straw","1","0"
"html-keyboard-response","170","645674","0.0-9.0-2.0-0.42","1710","1","2","""event"",""trial"",""time""
""fullscreenenter"",""1"",""2322""
","
","
","""event"",""trial"",""time""
""fullscreenenter"",""1"",""2322""
","
","","","","","","null","<div style=""font-size:60px;"">+</div>","null","","fixation","","","","","","","","","","","","","",""
"learning-trial","171","649679","0.0-9.0-2.0-1.42","1710","1","2","""event"",""trial"",""time""
""fullscreenenter"",""1"",""2322""
","
","
","""event"",""trial"",""time""
""fullscreenenter"",""1"",""2322""
","
","","","","","","768.4000000003725","images/straw3.png","","","learning","images/fruit_choice3.png","images/fruit_choice2.png","images/fruit_choice1.png","[2,1,0]","0","2","3","images/fruit_choice1.png","1","fruit","","straw","1","0"
"html-keyboard-response","172","650184","0.0-9.0-2.0-0.43","1710","1","2","""event"",""trial"",""time""
""fullscreenenter"",""1"",""2322""
","
","
","""event"",""trial"",""time""
""fullscreenenter"",""1"",""2322""
","
","","","","","","null","<div style=""font-size:60px;"">+</div>","null","","fixation","","","","","","","","","","","","","",""
"learning-trial","173","654190","0.0-9.0-2.0-1.43","1710","1","2","""event"",""trial"",""time""
""fullscreenenter"",""1"",""2322""
","
","
","""event"",""trial"",""time""
""fullscreenenter"",""1"",""2322""
","
","","","","","","1730.2999999998137","images/orange3.png","","","learning","images/fruit_choice3.png","images/fruit_choice1.png","images/fruit_choice2.png","[2,0,1]","1","2","3","images/fruit_choice2.png","1","fruit","","orange","1","0"
"html-keyboard-response","174","654694","0.0-9.0-2.0-0.44","1710","1","2","""event"",""trial"",""time""
""fullscreenenter"",""1"",""2322""
","
","
","""event"",""trial"",""time""
""fullscreenenter"",""1"",""2322""
","
","","","","","","null","<div style=""font-size:60px;"">+</div>","null","","fixation","","","","","","","","","","","","","",""
"learning-trial","175","658700","0.0-9.0-2.0-1.44","1710","1","2","""event"",""trial"",""time""
""fullscreenenter"",""1"",""2322""
","
","
","""event"",""trial"",""time""
""fullscreenenter"",""1"",""2322""
","
","","","","","","1079.7999999998137","images/banana3.png","","","learning","images/fruit_choice1.png","images/fruit_choice3.png","images/fruit_choice2.png","[0,2,1]","2","1","2","images/fruit_choice3.png","1","fruit","","banana","1","0"
"html-keyboard-response","176","659205","0.0-9.0-2.0-0.45","1710","1","2","""event"",""trial"",""time""
""fullscreenenter"",""1"",""2322""
","
","
","""event"",""trial"",""time""
""fullscreenenter"",""1"",""2322""
","
","","","","","","null","<div style=""font-size:60px;"">+</div>","null","","fixation","","","","","","","","","","","","","",""
"learning-trial","177","663210","0.0-9.0-2.0-1.45","1710","1","2","""event"",""trial"",""time""
""fullscreenenter"",""1"",""2322""
","
","
","""event"",""trial"",""time""
""fullscreenenter"",""1"",""2322""
","
","","","","","","831.1999999992549","images/banana3.png","","","learning","images/fruit_choice2.png","images/fruit_choice3.png","images/fruit_choice1.png","[1,2,0]","2","1","2","images/fruit_choice3.png","1","fruit","","banana","1","0"
"html-keyboard-response","178","663715","0.0-9.0-2.0-0.46","1710","1","2","""event"",""trial"",""time""
""fullscreenenter"",""1"",""2322""
","
","
","""event"",""trial"",""time""
""fullscreenenter"",""1"",""2322""
","
","","","","","","null","<div style=""font-size:60px;"">+</div>","null","","fixation","","","","","","","","","","","","","",""
"learning-trial","179","667721","0.0-9.0-2.0-1.46","1710","1","2","""event"",""trial"",""time""
""fullscreenenter"",""1"",""2322""
","
","
","""event"",""trial"",""time""
""fullscreenenter"",""1"",""2322""
","
","","","","","","849.6999999992549","images/banana5.png","","","learning","images/fruit_choice2.png","images/fruit_choice1.png","images/fruit_choice3.png","[1,0,2]","2","2","3","images/fruit_choice3.png","1","fruit","","banana","1","0"
"html-keyboard-response","180","668226","0.0-9.0-2.0-0.47","1710","1","2","""event"",""trial"",""time""
""fullscreenenter"",""1"",""2322""
","
","
","""event"",""trial"",""time""
""fullscreenenter"",""1"",""2322""
","
","","","","","","null","<div style=""font-size:60px;"">+</div>","null","","fixation","","","","","","","","","","","","","",""
"learning-trial","181","672231","0.0-9.0-2.0-1.47","1710","1","2","""event"",""trial"",""time""
""fullscreenenter"",""1"",""2322""
","
","
","""event"",""trial"",""time""
""fullscreenenter"",""1"",""2322""
","
","","","","","","1626.7999999998137","images/straw2.png","","","learning","images/fruit_choice2.png","images/fruit_choice1.png","images/fruit_choice3.png","[1,0,2]","0","1","1","images/fruit_choice2.png","-1","fruit","","straw","1","0"
"html-keyboard-response","182","672736","0.0-9.0-2.0-0.48","1710","1","2","""event"",""trial"",""time""
""fullscreenenter"",""1"",""2322""
","
","
","""event"",""trial"",""time""
""fullscreenenter"",""1"",""2322""
","
","","","","","","null","<div style=""font-size:60px;"">+</div>","null","","fixation","","","","","","","","","","","","","",""
"learning-trial","183","676741","0.0-9.0-2.0-1.48","1710","1","2","""event"",""trial"",""time""
""fullscreenenter"",""1"",""2322""
","
","
","""event"",""trial"",""time""
""fullscreenenter"",""1"",""2322""
","
","","","","","","883.7000000001863","images/straw5.png","","","learning","images/fruit_choice3.png","images/fruit_choice1.png","images/fruit_choice2.png","[2,0,1]","0","1","2","images/fruit_choice1.png","-1","fruit","","straw","1","0"
"html-keyboard-response","184","677246","0.0-9.0-2.0-0.49","1710","1","2","""event"",""trial"",""time""
""fullscreenenter"",""1"",""2322""
","
","
","""event"",""trial"",""time""
""fullscreenenter"",""1"",""2322""
","
","","","","","","null","<div style=""font-size:60px;"">+</div>","null","","fixation","","","","","","","","","","","","","",""
"learning-trial","185","681252","0.0-9.0-2.0-1.49","1710","1","2","""event"",""trial"",""time""
""fullscreenenter"",""1"",""2322""
","
","
","""event"",""trial"",""time""
""fullscreenenter"",""1"",""2322""
","
","","","","","","1113.8999999994412","images/orange5.png","","","learning","images/fruit_choice3.png","images/fruit_choice1.png","images/fruit_choice2.png","[2,0,1]","1","2","3","images/fruit_choice2.png","1","fruit","","orange","1","0"
"html-keyboard-response","186","681757","0.0-9.0-2.0-0.50","1710","1","2","""event"",""trial"",""time""
""fullscreenenter"",""1"",""2322""
","
","
","""event"",""trial"",""time""
""fullscreenenter"",""1"",""2322""
","
","","","","","","null","<div style=""font-size:60px;"">+</div>","null","","fixation","","","","","","","","","","","","","",""
"learning-trial","187","685762","0.0-9.0-2.0-1.50","1710","1","2","""event"",""trial"",""time""
""fullscreenenter"",""1"",""2322""
","
","
","""event"",""trial"",""time""
""fullscreenenter"",""1"",""2322""
","
","","","","","","1132.9000000003725","images/banana3.png","","","learning","images/fruit_choice3.png","images/fruit_choice2.png","images/fruit_choice1.png","[2,1,0]","2","0","1","images/fruit_choice3.png","1","fruit","","banana","1","0"
"html-keyboard-response","188","686267","0.0-9.0-2.0-0.51","1710","1","2","""event"",""trial"",""time""
""fullscreenenter"",""1"",""2322""
","
","
","""event"",""trial"",""time""
""fullscreenenter"",""1"",""2322""
","
","","","","","","null","<div style=""font-size:60px;"">+</div>","null","","fixation","","","","","","","","","","","","","",""
"learning-trial","189","690273","0.0-9.0-2.0-1.51","1710","1","2","""event"",""trial"",""time""
""fullscreenenter"",""1"",""2322""
","
","
","""event"",""trial"",""time""
""fullscreenenter"",""1"",""2322""
","
","","","","","","1273.6000000005588","images/straw5.png","","","learning","images/fruit_choice2.png","images/fruit_choice3.png","images/fruit_choice1.png","[1,2,0]","0","2","3","images/fruit_choice1.png","1","fruit","","straw","1","0"
"html-keyboard-response","190","690778","0.0-9.0-2.0-0.52","1710","1","2","""event"",""trial"",""time""
""fullscreenenter"",""1"",""2322""
","
","
","""event"",""trial"",""time""
""fullscreenenter"",""1"",""2322""
","
","","","","","","null","<div style=""font-size:60px;"">+</div>","null","","fixation","","","","","","","","","","","","","",""
"learning-trial","191","694783","0.0-9.0-2.0-1.52","1710","1","2","""event"",""trial"",""time""
""fullscreenenter"",""1"",""2322""
","
","
","""event"",""trial"",""time""
""fullscreenenter"",""1"",""2322""
","
","","","","","","874.7000000001863","images/orange1.png","","","learning","images/fruit_choice2.png","images/fruit_choice3.png","images/fruit_choice1.png","[1,2,0]","1","0","1","images/fruit_choice2.png","1","fruit","","orange","1","0"
"html-keyboard-response","192","695288","0.0-9.0-2.0-0.53","1710","1","2","""event"",""trial"",""time""
""fullscreenenter"",""1"",""2322""
","
","
","""event"",""trial"",""time""
""fullscreenenter"",""1"",""2322""
","
","","","","","","null","<div style=""font-size:60px;"">+</div>","null","","fixation","","","","","","","","","","","","","",""
"learning-trial","193","699297","0.0-9.0-2.0-1.53","1710","1","2","""event"",""trial"",""time""
""fullscreenenter"",""1"",""2322""
","
","
","""event"",""trial"",""time""
""fullscreenenter"",""1"",""2322""
","
","","","","","","1269.2000000001863","images/straw5.png","","","learning","images/fruit_choice1.png","images/fruit_choice2.png","images/fruit_choice3.png","[0,1,2]","0","0","1","images/fruit_choice1.png","1","fruit","","straw","1","0"
"html-keyboard-response","194","699798","0.0-9.0-2.0-0.54","1710","1","2","""event"",""trial"",""time""
""fullscreenenter"",""1"",""2322""
","
","
","""event"",""trial"",""time""
""fullscreenenter"",""1"",""2322""
","
","","","","","","null","<div style=""font-size:60px;"">+</div>","null","","fixation","","","","","","","","","","","","","",""
"learning-trial","195","703807","0.0-9.0-2.0-1.54","1710","1","2","""event"",""trial"",""time""
""fullscreenenter"",""1"",""2322""
","
","
","""event"",""trial"",""time""
""fullscreenenter"",""1"",""2322""
","
","","","","","","977.6000000005588","images/orange5.png","","","learning","images/fruit_choice1.png","images/fruit_choice2.png","images/fruit_choice3.png","[0,1,2]","1","1","1","images/fruit_choice1.png","-1","fruit","","orange","1","0"
"html-keyboard-response","196","704311","0.0-9.0-2.0-0.55","1710","1","2","""event"",""trial"",""time""
""fullscreenenter"",""1"",""2322""
","
","
","""event"",""trial"",""time""
""fullscreenenter"",""1"",""2322""
","
","","","","","","null","<div style=""font-size:60px;"">+</div>","null","","fixation","","","","","","","","","","","","","",""
"learning-trial","197","708320","0.0-9.0-2.0-1.55","1710","1","2","""event"",""trial"",""time""
""fullscreenenter"",""1"",""2322""
","
","
","""event"",""trial"",""time""
""fullscreenenter"",""1"",""2322""
","
","","","","","","921.8000000007451","images/banana2.png","","","learning","images/fruit_choice2.png","images/fruit_choice3.png","images/fruit_choice1.png","[1,2,0]","2","1","2","images/fruit_choice3.png","1","fruit","","banana","1","0"
"html-keyboard-response","198","708825","0.0-9.0-2.0-0.56","1710","1","2","""event"",""trial"",""time""
""fullscreenenter"",""1"",""2322""
","
","
","""event"",""trial"",""time""
""fullscreenenter"",""1"",""2322""
","
","","","","","","null","<div style=""font-size:60px;"">+</div>","null","","fixation","","","","","","","","","","","","","",""
"learning-trial","199","712830","0.0-9.0-2.0-1.56","1710","1","2","""event"",""trial"",""time""
""fullscreenenter"",""1"",""2322""
","
","
","""event"",""trial"",""time""
""fullscreenenter"",""1"",""2322""
","
","","","","","","680.2000000001863","images/banana2.png","","","learning","images/fruit_choice2.png","images/fruit_choice3.png","images/fruit_choice1.png","[1,2,0]","2","1","2","images/fruit_choice3.png","1","fruit","","banana","1","0"
"html-keyboard-response","200","713335","0.0-9.0-2.0-0.57","1710","1","2","""event"",""trial"",""time""
""fullscreenenter"",""1"",""2322""
","
","
","""event"",""trial"",""time""
""fullscreenenter"",""1"",""2322""
","
","","","","","","null","<div style=""font-size:60px;"">+</div>","null","","fixation","","","","","","","","","","","","","",""
"learning-trial","201","717341","0.0-9.0-2.0-1.57","1710","1","2","""event"",""trial"",""time""
""fullscreenenter"",""1"",""2322""
","
","
","""event"",""trial"",""time""
""fullscreenenter"",""1"",""2322""
","
","","","","","","738.7000000001863","images/orange1.png","","","learning","images/fruit_choice1.png","images/fruit_choice2.png","images/fruit_choice3.png","[0,1,2]","1","1","2","images/fruit_choice2.png","1","fruit","","orange","1","0"
"html-keyboard-response","202","717846","0.0-9.0-2.0-0.58","1710","1","2","""event"",""trial"",""time""
""fullscreenenter"",""1"",""2322""
","
","
","""event"",""trial"",""time""
""fullscreenenter"",""1"",""2322""
","
","","","","","","null","<div style=""font-size:60px;"">+</div>","null","","fixation","","","","","","","","","","","","","",""
"learning-trial","203","721851","0.0-9.0-2.0-1.58","1710","1","2","""event"",""trial"",""time""
""fullscreenenter"",""1"",""2322""
","
","
","""event"",""trial"",""time""
""fullscreenenter"",""1"",""2322""
","
","","","","","","827","images/orange5.png","","","learning","images/fruit_choice3.png","images/fruit_choice1.png","images/fruit_choice2.png","[2,0,1]","1","2","3","images/fruit_choice2.png","1","fruit","","orange","1","0"
"html-keyboard-response","204","722356","0.0-9.0-2.0-0.59","1710","1","2","""event"",""trial"",""time""
""fullscreenenter"",""1"",""2322""
","
","
","""event"",""trial"",""time""
""fullscreenenter"",""1"",""2322""
","
","","","","","","null","<div style=""font-size:60px;"">+</div>","null","","fixation","","","","","","","","","","","","","",""
"learning-trial","205","726362","0.0-9.0-2.0-1.59","1710","1","2","""event"",""trial"",""time""
""fullscreenenter"",""1"",""2322""
","
","
","""event"",""trial"",""time""
""fullscreenenter"",""1"",""2322""
","
","","","","","","1477.5999999996275","images/banana2.png","","","learning","images/fruit_choice2.png","images/fruit_choice1.png","images/fruit_choice3.png","[1,0,2]","2","2","3","images/fruit_choice3.png","1","fruit","","banana","1","0"
"html-keyboard-response","206","726866","0.0-9.0-2.0-0.60","1710","1","2","""event"",""trial"",""time""
""fullscreenenter"",""1"",""2322""
","
","
","""event"",""trial"",""time""
""fullscreenenter"",""1"",""2322""
","
","","","","","","null","<div style=""font-size:60px;"">+</div>","null","","fixation","","","","","","","","","","","","","",""
"learning-trial","207","730872","0.0-9.0-2.0-1.60","1710","1","2","""event"",""trial"",""time""
""fullscreenenter"",""1"",""2322""
","
","
","""event"",""trial"",""time""
""fullscreenenter"",""1"",""2322""
","
","","","","","","1058.3999999994412","images/orange3.png","","","learning","images/fruit_choice1.png","images/fruit_choice3.png","images/fruit_choice2.png","[0,2,1]","1","2","3","images/fruit_choice2.png","1","fruit","","orange","1","0"
"html-keyboard-response","208","731377","0.0-9.0-2.0-0.61","1710","1","2","""event"",""trial"",""time""
""fullscreenenter"",""1"",""2322""
","
","
","""event"",""trial"",""time""
""fullscreenenter"",""1"",""2322""
","
","","","","","","null","<div style=""font-size:60px;"">+</div>","null","","fixation","","","","","","","","","","","","","",""
"learning-trial","209","735382","0.0-9.0-2.0-1.61","1710","1","2","""event"",""trial"",""time""
""fullscreenenter"",""1"",""2322""
","
","
","""event"",""trial"",""time""
""fullscreenenter"",""1"",""2322""
","
","","","","","","1210.0999999996275","images/straw2.png","","","learning","images/fruit_choice1.png","images/fruit_choice2.png","images/fruit_choice3.png","[0,1,2]","0","0","1","images/fruit_choice1.png","1","fruit","","straw","1","0"
"html-keyboard-response","210","735887","0.0-9.0-2.0-0.62","1710","1","2","""event"",""trial"",""time""
""fullscreenenter"",""1"",""2322""
","
","
","""event"",""trial"",""time""
""fullscreenenter"",""1"",""2322""
","
","","","","","","null","<div style=""font-size:60px;"">+</div>","null","","fixation","","","","","","","","","","","","","",""
"learning-trial","211","739895","0.0-9.0-2.0-1.62","1710","1","2","""event"",""trial"",""time""
""fullscreenenter"",""1"",""2322""
","
","
","""event"",""trial"",""time""
""fullscreenenter"",""1"",""2322""
","
","","","","","","1259.2000000001863","images/orange5.png","","","learning","images/fruit_choice3.png","images/fruit_choice1.png","images/fruit_choice2.png","[2,0,1]","1","2","3","images/fruit_choice2.png","-1","fruit","","orange","1","0"
"html-keyboard-response","212","740403","0.0-9.0-2.0-0.63","1710","1","2","""event"",""trial"",""time""
""fullscreenenter"",""1"",""2322""
","
","
","""event"",""trial"",""time""
""fullscreenenter"",""1"",""2322""
","
","","","","","","null","<div style=""font-size:60px;"">+</div>","null","","fixation","","","","","","","","","","","","","",""
"learning-trial","213","744409","0.0-9.0-2.0-1.63","1710","1","2","""event"",""trial"",""time""
""fullscreenenter"",""1"",""2322""
","
","
","""event"",""trial"",""time""
""fullscreenenter"",""1"",""2322""
","
","","","","","","965","images/straw3.png","","","learning","images/fruit_choice3.png","images/fruit_choice2.png","images/fruit_choice1.png","[2,1,0]","0","2","3","images/fruit_choice1.png","1","fruit","","straw","1","0"
"html-keyboard-response","214","744914","0.0-9.0-2.0-0.64","1710","1","2","""event"",""trial"",""time""
""fullscreenenter"",""1"",""2322""
","
","
","""event"",""trial"",""time""
""fullscreenenter"",""1"",""2322""
","
","","","","","","null","<div style=""font-size:60px;"">+</div>","null","","fixation","","","","","","","","","","","","","",""
"learning-trial","215","748920","0.0-9.0-2.0-1.64","1710","1","2","""event"",""trial"",""time""
""fullscreenenter"",""1"",""2322""
","
","
","""event"",""trial"",""time""
""fullscreenenter"",""1"",""2322""
","
","","","","","","954.3999999994412","images/straw3.png","","","learning","images/fruit_choice1.png","images/fruit_choice2.png","images/fruit_choice3.png","[0,1,2]","0","0","1","images/fruit_choice1.png","-1","fruit","","straw","1","0"
"html-keyboard-response","216","749424","0.0-9.0-2.0-0.65","1710","1","2","""event"",""trial"",""time""
""fullscreenenter"",""1"",""2322""
","
","
","""event"",""trial"",""time""
""fullscreenenter"",""1"",""2322""
","
","","","","","","null","<div style=""font-size:60px;"">+</div>","null","","fixation","","","","","","","","","","","","","",""
"learning-trial","217","753430","0.0-9.0-2.0-1.65","1710","1","2","""event"",""trial"",""time""
""fullscreenenter"",""1"",""2322""
","
","
","""event"",""trial"",""time""
""fullscreenenter"",""1"",""2322""
","
","","","","","","820.8000000007451","images/banana5.png","","","learning","images/fruit_choice2.png","images/fruit_choice3.png","images/fruit_choice1.png","[1,2,0]","2","1","2","images/fruit_choice3.png","1","fruit","","banana","1","0"
"html-keyboard-response","218","753935","0.0-9.0-2.0-0.66","1710","1","2","""event"",""trial"",""time""
""fullscreenenter"",""1"",""2322""
","
","
","""event"",""trial"",""time""
""fullscreenenter"",""1"",""2322""
","
","","","","","","null","<div style=""font-size:60px;"">+</div>","null","","fixation","","","","","","","","","","","","","",""
"learning-trial","219","757940","0.0-9.0-2.0-1.66","1710","1","2","""event"",""trial"",""time""
""fullscreenenter"",""1"",""2322""
","
","
","""event"",""trial"",""time""
""fullscreenenter"",""1"",""2322""
","
","","","","","","2270.600000000559","images/straw2.png","","","learning","images/fruit_choice2.png","images/fruit_choice3.png","images/fruit_choice1.png","[1,2,0]","0","2","3","images/fruit_choice1.png","1","fruit","","straw","1","0"
"html-keyboard-response","220","758445","0.0-9.0-2.0-0.67","1710","1","2","""event"",""trial"",""time""
""fullscreenenter"",""1"",""2322""
","
","
","""event"",""trial"",""time""
""fullscreenenter"",""1"",""2322""
","
","","","","","","null","<div style=""font-size:60px;"">+</div>","null","","fixation","","","","","","","","","","","","","",""
"learning-trial","221","762451","0.0-9.0-2.0-1.67","1710","1","2","""event"",""trial"",""time""
""fullscreenenter"",""1"",""2322""
","
","
","""event"",""trial"",""time""
""fullscreenenter"",""1"",""2322""
","
","","","","","","751","images/straw5.png","","","learning","images/fruit_choice3.png","images/fruit_choice1.png","images/fruit_choice2.png","[2,0,1]","0","1","2","images/fruit_choice1.png","1","fruit","","straw","1","0"
"html-keyboard-response","222","762955","0.0-9.0-2.0-0.68","1710","1","2","""event"",""trial"",""time""
""fullscreenenter"",""1"",""2322""
","
","
","""event"",""trial"",""time""
""fullscreenenter"",""1"",""2322""
","
","","","","","","null","<div style=""font-size:60px;"">+</div>","null","","fixation","","","","","","","","","","","","","",""
"learning-trial","223","766961","0.0-9.0-2.0-1.68","1710","1","2","""event"",""trial"",""time""
""fullscreenenter"",""1"",""2322""
","
","
","""event"",""trial"",""time""
""fullscreenenter"",""1"",""2322""
","
","","","","","","843","images/banana3.png","","","learning","images/fruit_choice1.png","images/fruit_choice3.png","images/fruit_choice2.png","[0,2,1]","2","1","2","images/fruit_choice3.png","1","fruit","","banana","1","0"
"html-keyboard-response","224","767466","0.0-9.0-2.0-0.69","1710","1","2","""event"",""trial"",""time""
""fullscreenenter"",""1"",""2322""
","
","
","""event"",""trial"",""time""
""fullscreenenter"",""1"",""2322""
","
","","","","","","null","<div style=""font-size:60px;"">+</div>","null","","fixation","","","","","","","","","","","","","",""
"learning-trial","225","771471","0.0-9.0-2.0-1.69","1710","1","2","""event"",""trial"",""time""
""fullscreenenter"",""1"",""2322""
","
","
","""event"",""trial"",""time""
""fullscreenenter"",""1"",""2322""
","
","","","","","","981","images/straw2.png","","","learning","images/fruit_choice1.png","images/fruit_choice2.png","images/fruit_choice3.png","[0,1,2]","0","0","1","images/fruit_choice1.png","1","fruit","","straw","1","0"
"html-keyboard-response","226","771976","0.0-9.0-2.0-0.70","1710","1","2","""event"",""trial"",""time""
""fullscreenenter"",""1"",""2322""
","
","
","""event"",""trial"",""time""
""fullscreenenter"",""1"",""2322""
","
","","","","","","null","<div style=""font-size:60px;"">+</div>","null","","fixation","","","","","","","","","","","","","",""
"learning-trial","227","775981","0.0-9.0-2.0-1.70","1710","1","2","""event"",""trial"",""time""
""fullscreenenter"",""1"",""2322""
","
","
","""event"",""trial"",""time""
""fullscreenenter"",""1"",""2322""
","
","","","","","","1315.4000000003725","images/orange1.png","","","learning","images/fruit_choice3.png","images/fruit_choice2.png","images/fruit_choice1.png","[2,1,0]","1","1","2","images/fruit_choice2.png","1","fruit","","orange","1","0"
"html-keyboard-response","228","776487","0.0-9.0-2.0-0.71","1710","1","2","""event"",""trial"",""time""
""fullscreenenter"",""1"",""2322""
","
","
","""event"",""trial"",""time""
""fullscreenenter"",""1"",""2322""
","
","","","","","","null","<div style=""font-size:60px;"">+</div>","null","","fixation","","","","","","","","","","","","","",""
"learning-trial","229","780492","0.0-9.0-2.0-1.71","1710","1","2","""event"",""trial"",""time""
""fullscreenenter"",""1"",""2322""
","
","
","""event"",""trial"",""time""
""fullscreenenter"",""1"",""2322""
","
","","","","","","1180.7999999998137","images/straw5.png","","","learning","images/fruit_choice1.png","images/fruit_choice2.png","images/fruit_choice3.png","[0,1,2]","0","0","1","images/fruit_choice1.png","-1","fruit","","straw","1","0"
"html-button-response","230","782974","0.0-9.0-3.0","1710","1","2","""event"",""trial"",""time""
""fullscreenenter"",""1"",""2322""
","
","
","""event"",""trial"",""time""
""fullscreenenter"",""1"",""2322""
","
","","","","","","2479.0999999996275","<p> You have completed the round! <p> In this round, you earned 44 points! </p>","0","","break","","","","","","","","","","","","","",""
"html-button-response","231","784229","0.0-10.0","1710","1","2","""event"",""trial"",""time""
""fullscreenenter"",""1"",""2322""
","
","
","""event"",""trial"",""time""
""fullscreenenter"",""1"",""2322""
","
","","","","","","1253.7999999998137","<p> Now it's time to play another round. </p>","0","","transition_screen","","","","","","","","","","","","","",""
"preload","232","787443","0.0-11.0-0.0","1710","1","2","""event"",""trial"",""time""
""fullscreenenter"",""1"",""2322""
","
","
","""event"",""trial"",""time""
""fullscreenenter"",""1"",""2322""
","
","true","false","[]","[]","[]","","","","","","","","","","","","","","","","","","",""
"learning-instructions","233","796919","0.0-11.0-1.0-0.0","1710","1","2","""event"",""trial"",""time""
""fullscreenenter"",""1"",""2322""
","
","
","""event"",""trial"",""time""
""fullscreenenter"",""1"",""2322""
","
","","","","","","1597.4000000003725","<p> Your goal in this round is to return farm animals to the barns where they live. </p><p>  Different animals wandered away from different barns! </p></div>","","0","instructions","","","","","","","","","","","","","",""
"learning-instructions","234","806023","0.0-11.0-1.0-0.1","1710","1","2","""event"",""trial"",""time""
""fullscreenenter"",""1"",""2322""
","
","
","""event"",""trial"",""time""
""fullscreenenter"",""1"",""2322""
","
","","","","","","478.90000000037253","<p> On each turn, you will see a picture of a farm animal and three different barns.  </p><p> You need to select the barn where each animal lives.  </p>","","0","instructions","","","","","","","","","","","","","",""
"learning-instructions","235","813739","0.0-11.0-1.0-0.2","1710","1","2","""event"",""trial"",""time""
""fullscreenenter"",""1"",""2322""
","
","
","""event"",""trial"",""time""
""fullscreenenter"",""1"",""2322""
","
","","","","","","531.5","<p> You can select the barn on the left by pressing 1, the barn in the middle by pressing 2, and the barn on the right by pressing 3. </p><br><div class=""choice-instructions-grid""> <div class=""choice-option""><img src=""images/animals_choice1.png"" class=""choice-option-img"" stage=""instructions"" position=""0"" ><div class=""choice-option-text""> Press ""1."" </div></div><div class=""choice-option""><img src=""images/animals_choice2.png"" class=""choice-option-img"" stage=""instructions"" position=""1"" ><div class=""choice-option-text""> Press ""2."" </div></div><div class=""choice-option""><img src=""images/animals_choice3.png"" class=""choice-option-img"" stage=""instructions"" position=""2"" ><div class=""choice-option-text""> Press ""3."" </div></div></div>","","0","instructions","","","","","","","","","","","","","",""
"learning-instructions","236","819275","0.0-11.0-1.0-0.3","1710","1","2","""event"",""trial"",""time""
""fullscreenenter"",""1"",""2322""
","
","
","""event"",""trial"",""time""
""fullscreenenter"",""1"",""2322""
","
","","","","","","396.29999999981374","<p> If you return the farm animal to the correct barn, it will usually be happy! </p><div style='float: center;'><img src='images/check.png' width = '200' height = '200'></img>","","0","instructions","","","","","","","","","","","","","",""
"learning-instructions","237","825151","0.0-11.0-1.0-0.4","1710","1","2","""event"",""trial"",""time""
""fullscreenenter"",""1"",""2322""
","
","
