"trial_type","trial_index","time_elapsed","internal_node_id","subject_id","condition","task_version","interactions","blur_events","focus_events","fullscreenenter_events","fullscreenexit_events","success","timeout","failed_images","failed_audio","failed_video","rt","stimulus","response","button_pressed","task_part","left_choice","middle_choice","right_choice","choice_positions","correct_response","correct_position","key_press","option_selected","points","task_block","correct","stim_cat","block_condition","block_number"
"pavlovia","0","5","0.0-0.0","1800","1","2","""event"",""trial"",""time""
""fullscreenenter"",""1"",""3907""
","
","
","""event"",""trial"",""time""
""fullscreenenter"",""1"",""3907""
","
","","","","","","","","","","","","","","","","","","","","","","","",""
"fullscreen","1","4893","0.0-1.0","1800","1","2","""event"",""trial"",""time""
""fullscreenenter"",""1"",""3907""
","
","
","""event"",""trial"",""time""
""fullscreenenter"",""1"",""3907""
","
","true","","","","","","","","","","","","","","","","","","","","","","",""
"preload","2","10538","0.0-2.0","1800","1","2","""event"",""trial"",""time""
""fullscreenenter"",""1"",""3907""
","
","
","""event"",""trial"",""time""
""fullscreenenter"",""1"",""3907""
","
","true","false","[]","[]","[]","","","","","","","","","","","","","","","","","","",""
"audio-keyboard-response","3","13397","0.0-3.0","1800","1","2","""event"",""trial"",""time""
""fullscreenenter"",""1"",""3907""
","
","
","""event"",""trial"",""time""
""fullscreenenter"",""1"",""3907""
","
","","","","","","2856.0544217687075","audio/beep_loop.wav"," ","","","","","","","","","","","","","","","",""
"audio-button-response","4","15739","0.0-4.0","1800","1","2","""event"",""trial"",""time""
""fullscreenenter"",""1"",""3907""
","
","
","""event"",""trial"",""time""
""fullscreenenter"",""1"",""3907""
","
","","","","","","2328","audio/shark.wav","4","","","","","","","","","","","","","","","",""
"audio-button-response","5","18405","0.0-5.0","1800","1","2","""event"",""trial"",""time""
""fullscreenenter"",""1"",""3907""
","
","
","""event"",""trial"",""time""
""fullscreenenter"",""1"",""3907""
","
","","","","","","1660","audio/turtle.wav","1","","","","","","","","","","","","","","","",""
"preload","6","26162","0.0-6.0","1800","1","2","""event"",""trial"",""time""
""fullscreenenter"",""1"",""3907""
","
","
","""event"",""trial"",""time""
""fullscreenenter"",""1"",""3907""
","
","true","false","[]","[]","[]","","","","","","","","","","","","","","","","","","",""
"html-keyboard-response","7","28935","0.0-7.0","1800","1","2","""event"",""trial"",""time""
""fullscreenenter"",""1"",""3907""
","
","
","""event"",""trial"",""time""
""fullscreenenter"",""1"",""3907""
","
","","","","","","2772.0999999046326","Welcome to the experiment. Press any key to begin and to advance the instructions."," ","","","","","","","","","","","","","","","",""
"learning-instructions","8","37887","0.0-8.0-0.0-0.0","1800","1","2","""event"",""trial"",""time""
""fullscreenenter"",""1"",""3907""
","
","
","""event"",""trial"",""time""
""fullscreenenter"",""1"",""3907""
","
","","","","","","1202.2999997138977","<p> Welcome! Today you are going to play 6 different rounds of a decision-making game. </p><p> Use the mouse to click next to continue. </p>","","0","instructions","","","","","","","","","","","","","",""
"learning-instructions","9","41594","0.0-8.0-0.0-0.1","1800","1","2","""event"",""trial"",""time""
""fullscreenenter"",""1"",""3907""
","
","
","""event"",""trial"",""time""
""fullscreenenter"",""1"",""3907""
","
","","","","","","707.6000003814697","<p> You will start with a practice round to learn the rules. </p>","","0","instructions","","","","","","","","","","","","","",""
"learning-instructions","10","49888","0.0-8.0-0.0-0.2","1800","1","2","""event"",""trial"",""time""
""fullscreenenter"",""1"",""3907""
","
","
","""event"",""trial"",""time""
""fullscreenenter"",""1"",""3907""
","
","","","","","","547","<p> Your goal in this round is to deliver sports equipment to three different parks. </p><p> You will need to deliver many types of equipment. </p></div>","","0","instructions","","","","","","","","","","","","","",""
"learning-instructions","11","58964","0.0-8.0-0.0-0.3","1800","1","2","""event"",""trial"",""time""
""fullscreenenter"",""1"",""3907""
","
","
","""event"",""trial"",""time""
""fullscreenenter"",""1"",""3907""
","
","","","","","","593.6000003814697","<p> On each turn, you will see one piece of sports equipment and three different parks.  </p><p> You need to select which park to deliver the equipment to.  </p>","","0","instructions","","","","","","","","","","","","","",""
"learning-instructions","12","73513","0.0-8.0-0.0-0.4","1800","1","2","""event"",""trial"",""time""
""fullscreenenter"",""1"",""3907""
","
","
","""event"",""trial"",""time""
""fullscreenenter"",""1"",""3907""
","
","","","","","","1264.8000001907349","<p> You can select the park on the left by pressing the '1' key on your keyboard. <br>You can select the park in the middle by pressing the '2' key on your keyboard. <br>You can select the park on the right by pressing the '3' key on your keyboard.  </p><br><div class=""choice-instructions-grid""> <div class=""choice-option""><img src=""images/park1.png"" class=""choice-option-img"" stage=""instructions"" position=""0"" ><div class=""choice-option-text""> Press ""1."" </div></div><div class=""choice-option""><img src=""images/park2.png"" class=""choice-option-img"" stage=""instructions"" position=""1"" ><div class=""choice-option-text""> Press ""2."" </div></div><div class=""choice-option""><img src=""images/park3.png"" class=""choice-option-img"" stage=""instructions"" position=""2"" ><div class=""choice-option-text""> Press ""3."" </div></div></div>","","0","instructions","","","","","","","","","","","","","",""
"learning-instructions","13","80569","0.0-8.0-0.0-0.5","1800","1","2","""event"",""trial"",""time""
""fullscreenenter"",""1"",""3907""
","
","
","""event"",""trial"",""time""
""fullscreenenter"",""1"",""3907""
","
","","","","","","1665.5999999046326","<p> If the kids in the park you chose like the equipment, they will be very happy! </p><div style='float: center;'><img src='images/check.png' width = '200' height = '200'></img>","","0","instructions","","","","","","","","","","","","","",""
"learning-instructions","14","86735","0.0-8.0-0.0-0.6","1800","1","2","""event"",""trial"",""time""
""fullscreenenter"",""1"",""3907""
","
","
","""event"",""trial"",""time""
""fullscreenenter"",""1"",""3907""
","
","","","","","","570.5999999046326","<p> But, if the kids in the park you chose do not like the equipment, they will be sad. </p><div style='float: center;'><img src='images/x.png' width = '200' height = '200'></img>","","0","instructions","","","","","","","","","","","","","",""
"learning-instructions","15","93799","0.0-8.0-0.0-0.7","1800","1","2","""event"",""trial"",""time""
""fullscreenenter"",""1"",""3907""
","
","
","""event"",""trial"",""time""
""fullscreenenter"",""1"",""3907""
","
","","","","","","631.4000000953674","<p> Importantly, the kids in each park like some pieces of sports equipment more than others. </p>","","0","instructions","","","","","","","","","","","","","",""
"learning-instructions","16","100566","0.0-8.0-0.0-0.8","1800","1","2","""event"",""trial"",""time""
""fullscreenenter"",""1"",""3907""
","
","
","""event"",""trial"",""time""
""fullscreenenter"",""1"",""3907""
","
","","","","","","690.5999999046326","<p> If you choose the best park for each piece of equipment, the kids there will usually be happy. </p>","","0","instructions","","","","","","","","","","","","","",""
"learning-instructions","17","107995","0.0-8.0-0.0-0.9","1800","1","2","""event"",""trial"",""time""
""fullscreenenter"",""1"",""3907""
","
","
","""event"",""trial"",""time""
""fullscreenenter"",""1"",""3907""
","
","","","","","","779.9000000953674","<p> However, even if you choose the best park for the equipment, the kids may sometimes be sad. </p>","","0","instructions","","","","","","","","","","","","","",""
"learning-instructions","18","115926","0.0-8.0-0.0-0.10","1800","1","2","""event"",""trial"",""time""
""fullscreenenter"",""1"",""3907""
","
","
","""event"",""trial"",""time""
""fullscreenenter"",""1"",""3907""
","
","","","","","","698.7000002861023","<p> Similarly, even if you choose the <i>wrong</i> park for the equipment, the kids may still be happy sometimes.","","0","instructions","","","","","","","","","","","","","",""
"learning-instructions","19","121566","0.0-8.0-0.0-0.11","1800","1","2","""event"",""trial"",""time""
""fullscreenenter"",""1"",""3907""
","
","
","""event"",""trial"",""time""
""fullscreenenter"",""1"",""3907""
","
","","","","","","588.1999998092651","<p> For example, the best park for this soccer ball is this one.<div style='float: center;'><img src='images/i1.png' width = '500' height = '268'></img>","","0","instructions","","","","","","","","","","","","","",""
"learning-instructions","20","127559","0.0-8.0-0.0-0.12","1800","1","2","""event"",""trial"",""time""
""fullscreenenter"",""1"",""3907""
","
","
","""event"",""trial"",""time""
""fullscreenenter"",""1"",""3907""
","
","","","","","","699.0999999046326","<p> Let's see what happens if you choose this park for the soccer ball five times.","","0","instructions","","","","","","","","","","","","","",""
"learning-instructions","21","130507","0.0-8.0-0.0-0.13","1800","1","2","""event"",""trial"",""time""
""fullscreenenter"",""1"",""3907""
","
","
","""event"",""trial"",""time""
""fullscreenenter"",""1"",""3907""
","
","","","","","","778.0999999046326","<p> The kids are happy.<div style='float: left;'><img src='images/i2.png' width = '640' height = '360'></img>","","0","instructions","","","","","","","","","","","","","",""
"learning-instructions","22","133279","0.0-8.0-0.0-0.14","1800","1","2","""event"",""trial"",""time""
""fullscreenenter"",""1"",""3907""
","
","
","""event"",""trial"",""time""
""fullscreenenter"",""1"",""3907""
","
","","","","","","607.9000000953674","<p> The kids are happy.<div style='float: left;'><img src='images/i3.png' width = '640' height = '360'></img>","","0","instructions","","","","","","","","","","","","","",""
"learning-instructions","23","135899","0.0-8.0-0.0-0.15","1800","1","2","""event"",""trial"",""time""
""fullscreenenter"",""1"",""3907""
","
","
","""event"",""trial"",""time""
""fullscreenenter"",""1"",""3907""
","
","","","","","","450.5","<p> The kids are happy.<div style='float: left;'><img src='images/i4.png' width = '640' height = '360'></img>","","0","instructions","","","","","","","","","","","","","",""
"learning-instructions","24","138561","0.0-8.0-0.0-0.16","1800","1","2","""event"",""trial"",""time""
""fullscreenenter"",""1"",""3907""
","
","
","""event"",""trial"",""time""
""fullscreenenter"",""1"",""3907""
","
","","","","","","460","<p> The kids are sad.<div style='float: left;'><img src='images/i5.png' width = '640' height = '360'></img>","","0","instructions","","","","","","","","","","","","","",""
"learning-instructions","25","141359","0.0-8.0-0.0-0.17","1800","1","2","""event"",""trial"",""time""
""fullscreenenter"",""1"",""3907""
","
","
","""event"",""trial"",""time""
""fullscreenenter"",""1"",""3907""
","
","","","","","","638.7999997138977","<p> The kids are happy.<div style='float: left;'><img src='images/i6.png' width = '640' height = '360'></img>","","0","instructions","","","","","","","","","","","","","",""
"learning-instructions","26","149156","0.0-8.0-0.0-0.18","1800","1","2","""event"",""trial"",""time""
""fullscreenenter"",""1"",""3907""
","
","
","""event"",""trial"",""time""
""fullscreenenter"",""1"",""3907""
","
","","","","","","529.9000000953674","<p> As you can see, selecting that park for the soccer ball made the kids happy most of the time, but not all the time.","","0","instructions","","","","","","","","","","","","","",""
"learning-instructions","27","155595","0.0-8.0-0.0-0.19","1800","1","2","""event"",""trial"",""time""
""fullscreenenter"",""1"",""3907""
","
","
","""event"",""trial"",""time""
""fullscreenenter"",""1"",""3907""
","
","","","","","","438.8999996185303","<p> Now let's see what happens if you choose a DIFFERENT park for the soccer ball 5 times.","","0","instructions","","","","","","","","","","","","","",""
"learning-instructions","28","158129","0.0-8.0-0.0-0.20","1800","1","2","""event"",""trial"",""time""
""fullscreenenter"",""1"",""3907""
","
","
","""event"",""trial"",""time""
""fullscreenenter"",""1"",""3907""
","
","","","","","","330.59999990463257","<p> The kids are sad.<div style='float: left;'><img src='images/i7.png' width = '640' height = '360'></img>","","0","instructions","","","","","","","","","","","","","",""
"learning-instructions","29","160757","0.0-8.0-0.0-0.21","1800","1","2","""event"",""trial"",""time""
""fullscreenenter"",""1"",""3907""
","
","
","""event"",""trial"",""time""
""fullscreenenter"",""1"",""3907""
","
","","","","","","418.59999990463257","<p> The kids are sad.<div style='float: left;'><img src='images/i8.png' width = '640' height = '360'></img>","","0","instructions","","","","","","","","","","","","","",""
"learning-instructions","30","163393","0.0-8.0-0.0-0.22","1800","1","2","""event"",""trial"",""time""
""fullscreenenter"",""1"",""3907""
","
","
","""event"",""trial"",""time""
""fullscreenenter"",""1"",""3907""
","
","","","","","","467.09999990463257","<p> The kids are happy.<div style='float: left;'><img src='images/i9.png' width = '640' height = '360'></img>","","0","instructions","","","","","","","","","","","","","",""
"learning-instructions","31","166077","0.0-8.0-0.0-0.23","1800","1","2","""event"",""trial"",""time""
""fullscreenenter"",""1"",""3907""
","
","
","""event"",""trial"",""time""
""fullscreenenter"",""1"",""3907""
","
","","","","","","470.7000002861023","<p> The kids are sad.<div style='float: left;'><img src='images/i10.png' width = '640' height = '360'></img>","","0","instructions","","","","","","","","","","","","","",""
"learning-instructions","32","168777","0.0-8.0-0.0-0.24","1800","1","2","""event"",""trial"",""time""
""fullscreenenter"",""1"",""3907""
","
","
","""event"",""trial"",""time""
""fullscreenenter"",""1"",""3907""
","
","","","","","","494.30000019073486","<p> The kids are sad.<div style='float: left;'><img src='images/i11.png' width = '640' height = '360'></img>","","0","instructions","","","","","","","","","","","","","",""
"learning-instructions","33","177378","0.0-8.0-0.0-0.25","1800","1","2","""event"",""trial"",""time""
""fullscreenenter"",""1"",""3907""
","
","
","""event"",""trial"",""time""
""fullscreenenter"",""1"",""3907""
","
","","","","","","475.5","<p> As you can see, selecting the wrong park for the soccer ball made the kids sad most of the time, but not all the time.","","0","instructions","","","","","","","","","","","","","",""
"learning-instructions","34","186943","0.0-8.0-0.0-0.26","1800","1","2","""event"",""trial"",""time""
""fullscreenenter"",""1"",""3907""
","
","
","""event"",""trial"",""time""
""fullscreenenter"",""1"",""3907""
","
","","","","","","451.90000009536743","<p> The different pieces of equipment belong in different parks. You need to try to learn which is the best park for each piece of equipment.","","0","instructions","","","","","","","","","","","","","",""
"learning-instructions","35","203762","0.0-8.0-0.0-0.27","1800","1","2","""event"",""trial"",""time""
""fullscreenenter"",""1"",""3907""
","
","
","""event"",""trial"",""time""
""fullscreenenter"",""1"",""3907""
","
","","","","","","436.59999990463257","<p> Try to choose the best park for each piece of equipment, because you will <b> WIN </b> 1 point for each time you make the kids happy and <b>LOSE</b> 1 point for each time you make them sad. </p><p> Remember, if you make the best choice, you will win 1 point most of the time, but not all the time. </p>","","0","instructions","","","","","","","","","","","","","",""
"learning-instructions","36","210392","0.0-8.0-0.0-0.28","1800","1","2","""event"",""trial"",""time""
""fullscreenenter"",""1"",""3907""
","
","
","""event"",""trial"",""time""
""fullscreenenter"",""1"",""3907""
","
","","","","","","1145.8000001907349","<p> This is just a practice round, but in the real game, your bonus payment will depend on your total number of points.","","0","instructions","","","","","","","","","","","","","",""
"learning-instructions","37","221189","0.0-8.0-0.0-0.29","1800","1","2","""event"",""trial"",""time""
""fullscreenenter"",""1"",""3907""
","
","
","""event"",""trial"",""time""
""fullscreenenter"",""1"",""3907""
","
","","","","","","466.69999980926514","<p> The position where each park appears will change throughout the game. </p><p> The position where the park appears <i> does not </i> influence how likely the kids are to be happy or sad. </p>","","0","instructions","","","","","","","","","","","","","",""
"learning-instructions","38","232183","0.0-8.0-0.0-0.30","1800","1","2","""event"",""trial"",""time""
""fullscreenenter"",""1"",""3907""
","
","
","""event"",""trial"",""time""
""fullscreenenter"",""1"",""3907""
","
","","","","","","564.5","<p> You will have 4 seconds to make each choice. Try to respond before time runs out! </p><p> You will lose 1 point each time you do not make a response. </p>","","0","instructions","","","","","","","","","","","","","",""
"learning-instructions","39","239355","0.0-8.0-0.0-0.31","1800","1","2","""event"",""trial"",""time""
""fullscreenenter"",""1"",""3907""
","
","
","""event"",""trial"",""time""
""fullscreenenter"",""1"",""3907""
","
","","","","","","393.19999980926514","<p> Remember, you should use the 1, 2, and 3 keys to select the park for each piece of equipment. </p><br><div class=""choice-instructions-grid""> <div class=""choice-option""><img src=""images/park1.png"" class=""choice-option-img"" stage=""instructions"" position=""0"" ><div class=""choice-option-text""> Press ""1."" </div></div><div class=""choice-option""><img src=""images/park2.png"" class=""choice-option-img"" stage=""instructions"" position=""1"" ><div class=""choice-option-text""> Press ""2."" </div></div><div class=""choice-option""><img src=""images/park3.png"" class=""choice-option-img"" stage=""instructions"" position=""2"" ><div class=""choice-option-text""> Press ""3."" </div></div></div>","","0","instructions","","","","","","","","","","","","","",""
"html-button-response","40","240583","0.0-8.0-1.0","1800","1","2","""event"",""trial"",""time""
""fullscreenenter"",""1"",""3907""
","
","
","""event"",""trial"",""time""
""fullscreenenter"",""1"",""3907""
","
","","","","","","1125.5","<p> Ready to practice? </p>","0","","","","","","","","","","","","","","","",""
"html-keyboard-response","41","241207","0.0-8.0-2.0-0.0","1800","1","2","""event"",""trial"",""time""
""fullscreenenter"",""1"",""3907""
","
","
","""event"",""trial"",""time""
""fullscreenenter"",""1"",""3907""
","
","","","","","","null","<div style=""font-size:60px;"">+</div>","null","","fixation","","","","","","","","","","","","","",""
"learning-trial","42","245222","0.0-8.0-2.0-1.0","1800","1","2","""event"",""trial"",""time""
""fullscreenenter"",""1"",""3907""
","
","
","""event"",""trial"",""time""
""fullscreenenter"",""1"",""3907""
","
","","","","","","1036.2000002861023","images/racket4.png","","","practice","images/park1.png","images/park2.png","images/park3.png","[0,1,2]","0","0","2","images/park2.png","-1","practice","","","",""
"html-keyboard-response","43","245724","0.0-8.0-2.0-0.1","1800","1","2","""event"",""trial"",""time""
""fullscreenenter"",""1"",""3907""
","
","
","""event"",""trial"",""time""
""fullscreenenter"",""1"",""3907""
","
","","","","","","null","<div style=""font-size:60px;"">+</div>","null","","fixation","","","","","","","","","","","","","",""
"learning-trial","44","249730","0.0-8.0-2.0-1.1","1800","1","2","""event"",""trial"",""time""
""fullscreenenter"",""1"",""3907""
","
","
","""event"",""trial"",""time""
""fullscreenenter"",""1"",""3907""
","
","","","","","","1306.3000001907349","images/ball1.png","","","practice","images/park1.png","images/park3.png","images/park2.png","[0,2,1]","2","1","3","images/park2.png","-1","practice","","","",""
"html-keyboard-response","45","250235","0.0-8.0-2.0-0.2","1800","1","2","""event"",""trial"",""time""
""fullscreenenter"",""1"",""3907""
","
","
","""event"",""trial"",""time""
""fullscreenenter"",""1"",""3907""
","
","","","","","","null","<div style=""font-size:60px;"">+</div>","null","","fixation","","","","","","","","","","","","","",""
"learning-trial","46","254240","0.0-8.0-2.0-1.2","1800","1","2","""event"",""trial"",""time""
""fullscreenenter"",""1"",""3907""
","
","
","""event"",""trial"",""time""
""fullscreenenter"",""1"",""3907""
","
","","","","","","1576.5","images/ball3.png","","","practice","images/park3.png","images/park1.png","images/park2.png","[2,0,1]","0","1","2","images/park1.png","1","practice","","","",""
"html-keyboard-response","47","254742","0.0-8.0-2.0-0.3","1800","1","2","""event"",""trial"",""time""
""fullscreenenter"",""1"",""3907""
","
","
","""event"",""trial"",""time""
""fullscreenenter"",""1"",""3907""
","
","","","","","","null","<div style=""font-size:60px;"">+</div>","null","","fixation","","","","","","","","","","","","","",""
"learning-trial","48","258754","0.0-8.0-2.0-1.3","1800","1","2","""event"",""trial"",""time""
""fullscreenenter"",""1"",""3907""
","
","
","""event"",""trial"",""time""
""fullscreenenter"",""1"",""3907""
","
","","","","","","1393.7999997138977","images/ball4.png","","","practice","images/park3.png","images/park2.png","images/park1.png","[2,1,0]","2","0","1","images/park3.png","1","practice","","","",""
"html-keyboard-response","49","259258","0.0-8.0-2.0-0.4","1800","1","2","""event"",""trial"",""time""
""fullscreenenter"",""1"",""3907""
","
","
","""event"",""trial"",""time""
""fullscreenenter"",""1"",""3907""
","
","","","","","","null","<div style=""font-size:60px;"">+</div>","null","","fixation","","","","","","","","","","","","","",""
"learning-trial","50","263261","0.0-8.0-2.0-1.4","1800","1","2","""event"",""trial"",""time""
""fullscreenenter"",""1"",""3907""
","
","
","""event"",""trial"",""time""
""fullscreenenter"",""1"",""3907""
","
","","","","","","2007.7999997138977","images/ball2.png","","","practice","images/park2.png","images/park1.png","images/park3.png","[1,0,2]","1","0","3","images/park3.png","-1","practice","","","",""
"html-keyboard-response","51","263771","0.0-8.0-2.0-0.5","1800","1","2","""event"",""trial"",""time""
""fullscreenenter"",""1"",""3907""
","
","
","""event"",""trial"",""time""
""fullscreenenter"",""1"",""3907""
","
","","","","","","null","<div style=""font-size:60px;"">+</div>","null","","fixation","","","","","","","","","","","","","",""
"learning-trial","52","267776","0.0-8.0-2.0-1.5","1800","1","2","""event"",""trial"",""time""
""fullscreenenter"",""1"",""3907""
","
","
","""event"",""trial"",""time""
""fullscreenenter"",""1"",""3907""
","
","","","","","","3454.9000000953674","images/racket2.png","","","practice","images/park2.png","images/park3.png","images/park1.png","[1,2,0]","1","0","2","images/park3.png","-1","practice","","","",""
"html-keyboard-response","53","268277","0.0-8.0-2.0-0.6","1800","1","2","""event"",""trial"",""time""
""fullscreenenter"",""1"",""3907""
","
","
","""event"",""trial"",""time""
""fullscreenenter"",""1"",""3907""
","
","","","","","","null","<div style=""font-size:60px;"">+</div>","null","","fixation","","","","","","","","","","","","","",""
"learning-trial","54","272285","0.0-8.0-2.0-1.6","1800","1","2","""event"",""trial"",""time""
""fullscreenenter"",""1"",""3907""
","
","
","""event"",""trial"",""time""
""fullscreenenter"",""1"",""3907""
","
","","","","","","2405.0999999046326","images/racket4.png","","","practice","images/park3.png","images/park2.png","images/park1.png","[2,1,0]","0","2","1","images/park3.png","-1","practice","","","",""
"html-keyboard-response","55","272787","0.0-8.0-2.0-0.7","1800","1","2","""event"",""trial"",""time""
""fullscreenenter"",""1"",""3907""
","
","
","""event"",""trial"",""time""
""fullscreenenter"",""1"",""3907""
","
","","","","","","null","<div style=""font-size:60px;"">+</div>","null","","fixation","","","","","","","","","","","","","",""
"learning-trial","56","276792","0.0-8.0-2.0-1.7","1800","1","2","""event"",""trial"",""time""
""fullscreenenter"",""1"",""3907""
","
","
","""event"",""trial"",""time""
""fullscreenenter"",""1"",""3907""
","
","","","","","","1924.2000002861023","images/ball4.png","","","practice","images/park2.png","images/park1.png","images/park3.png","[1,0,2]","2","2","2","images/park1.png","-1","practice","","","",""
"html-keyboard-response","57","277303","0.0-8.0-2.0-0.8","1800","1","2","""event"",""trial"",""time""
""fullscreenenter"",""1"",""3907""
","
","
","""event"",""trial"",""time""
""fullscreenenter"",""1"",""3907""
","
","","","","","","null","<div style=""font-size:60px;"">+</div>","null","","fixation","","","","","","","","","","","","","",""
"learning-trial","58","281315","0.0-8.0-2.0-1.8","1800","1","2","""event"",""trial"",""time""
""fullscreenenter"",""1"",""3907""
","
","
","""event"",""trial"",""time""
""fullscreenenter"",""1"",""3907""
","
","","","","","","1097.6000003814697","images/ball2.png","","","practice","images/park3.png","images/park1.png","images/park2.png","[2,0,1]","1","2","3","images/park2.png","1","practice","","","",""
"html-keyboard-response","59","281820","0.0-8.0-2.0-0.9","1800","1","2","""event"",""trial"",""time""
""fullscreenenter"",""1"",""3907""
","
","
","""event"",""trial"",""time""
""fullscreenenter"",""1"",""3907""
","
","","","","","","null","<div style=""font-size:60px;"">+</div>","null","","fixation","","","","","","","","","","","","","",""
"learning-trial","60","285825","0.0-8.0-2.0-1.9","1800","1","2","""event"",""trial"",""time""
""fullscreenenter"",""1"",""3907""
","
","
","""event"",""trial"",""time""
""fullscreenenter"",""1"",""3907""
","
","","","","","","1763.5","images/ball3.png","","","practice","images/park3.png","images/park1.png","images/park2.png","[2,0,1]","0","1","2","images/park1.png","1","practice","","","",""
"html-keyboard-response","61","286330","0.0-8.0-2.0-0.10","1800","1","2","""event"",""trial"",""time""
""fullscreenenter"",""1"",""3907""
","
","
","""event"",""trial"",""time""
""fullscreenenter"",""1"",""3907""
","
","","","","","","null","<div style=""font-size:60px;"">+</div>","null","","fixation","","","","","","","","","","","","","",""
"learning-trial","62","290357","0.0-8.0-2.0-1.10","1800","1","2","""event"",""trial"",""time""
""fullscreenenter"",""1"",""3907""
","
","
","""event"",""trial"",""time""
""fullscreenenter"",""1"",""3907""
","
","","","","","","1773.1000003814697","images/ball1.png","","","practice","images/park2.png","images/park1.png","images/park3.png","[1,0,2]","2","2","3","images/park3.png","1","practice","","","",""
"html-keyboard-response","63","290858","0.0-8.0-2.0-0.11","1800","1","2","""event"",""trial"",""time""
""fullscreenenter"",""1"",""3907""
","
","
","""event"",""trial"",""time""
""fullscreenenter"",""1"",""3907""
","
","","","","","","null","<div style=""font-size:60px;"">+</div>","null","","fixation","","","","","","","","","","","","","",""
"learning-trial","64","294864","0.0-8.0-2.0-1.11","1800","1","2","""event"",""trial"",""time""
""fullscreenenter"",""1"",""3907""
","
","
","""event"",""trial"",""time""
""fullscreenenter"",""1"",""3907""
","
","","","","","","1600.3000001907349","images/racket2.png","","","practice","images/park2.png","images/park1.png","images/park3.png","[1,0,2]","1","0","2","images/park1.png","-1","practice","","","",""
"html-button-response","65","298858","0.0-8.0-3.0","1800","1","2","""event"",""trial"",""time""
""fullscreenenter"",""1"",""3907""
","
","
","""event"",""trial"",""time""
""fullscreenenter"",""1"",""3907""
","
","","","","","","3985.0999999046326","<p> You earned -2 points in the practice round! </p>","0","","break","","","","","","","","","","","","","",""
"learning-instructions","66","307721","0.0-8.0-4.0-0.0","1800","1","2","""event"",""trial"",""time""
""fullscreenenter"",""1"",""3907""
","
","
","""event"",""trial"",""time""
""fullscreenenter"",""1"",""3907""
","
","","","","","","1081.2000002861023","<p> It's almost time to start the real game. </p><p> Before you start, we're going to ask you a few questions about how the game works. </p>","","0","instructions","","","","","","","","","","","","","",""
"preload","67","309547","0.0-8.0-5.0","1800","1","2","""event"",""trial"",""time""
""fullscreenenter"",""1"",""3907""
","
","
","""event"",""trial"",""time""
""fullscreenenter"",""1"",""3907""
","
","true","false","[]","[]","[]","","","","","","","","","","","","","","","","","","",""
"comp-q","68","317083","0.0-8.0-6.0-0.0","1800","1","2","""event"",""trial"",""time""
""fullscreenenter"",""1"",""3907""
","
","
","""event"",""trial"",""time""
""fullscreenenter"",""1"",""3907""
","
","","","","","","2069.5999999046326","<p> <b> True or False? </b> </p><p> If you choose the best option, you will always earn 1 point. </p>","","1","comp_question","","","","","","","","","","","true","","",""
"comp-q","69","324107","0.0-8.0-6.0-1.0","1800","1","2","""event"",""trial"",""time""
""fullscreenenter"",""1"",""3907""
","
","
","""event"",""trial"",""time""
""fullscreenenter"",""1"",""3907""
","
","","","","","","1365.8000001907349","<p><b> That's right! </b> Sometimes you will lose 1 point, even if you choose the best option. </p>","","0","comp_answer","","","","","","","","","","","","","",""
"comp-q","70","330970","0.0-8.0-6.0-0.1","1800","1","2","""event"",""trial"",""time""
""fullscreenenter"",""1"",""3907""
","
","
","""event"",""trial"",""time""
""fullscreenenter"",""1"",""3907""
","
","","","","","","2231.2999997138977","<p> <b> True or False? </b> </p><p> You will have as much time as you want to make each choice. </p>","","1","comp_question","","","","","","","","","","","true","","",""
"comp-q","71","341185","0.0-8.0-6.0-1.1","1800","1","2","""event"",""trial"",""time""
""fullscreenenter"",""1"",""3907""
","
","
","""event"",""trial"",""time""
""fullscreenenter"",""1"",""3907""
","
","","","","","","5475.800000190735","<p> <b> That's right! </b> You will only have 4 seconds to make each choice. </p>","","0","comp_answer","","","","","","","","","","","","","",""
"comp-q","72","348051","0.0-8.0-6.0-0.2","1800","1","2","""event"",""trial"",""time""
""fullscreenenter"",""1"",""3907""
","
","
","""event"",""trial"",""time""
""fullscreenenter"",""1"",""3907""
","
","","","","","","681.6999998092651","<p> <b> True or False? </b> </p><p> You should use the '1', '2', and '3' keys to make your choices. </p>","","0","comp_question","","","","","","","","","","","true","","",""
"comp-q","73","353956","0.0-8.0-6.0-1.2","1800","1","2","""event"",""trial"",""time""
""fullscreenenter"",""1"",""3907""
","
","
","""event"",""trial"",""time""
""fullscreenenter"",""1"",""3907""
","
","","","","","","1063.3000001907349","<p> <b> That's right! </b> You should use the '1', '2', and '3' keys to make each choice. </p>","","0","comp_answer","","","","","","","","","","","","","",""
"learning-instructions","74","363547","0.0-8.0-7.0-0.0","1800","1","2","""event"",""trial"",""time""
""fullscreenenter"",""1"",""3907""
","
","
","""event"",""trial"",""time""
""fullscreenenter"",""1"",""3907""
","
","","","","","","1111.5","<p> It's now time to start the real game. </p>Do your best, because the points you earn in the next rounds will influence your bonus payment. </p>","","0","instructions","","","","","","","","","","","","","",""
"preload","75","365523","0.0-9.0-0.0","1800","1","2","""event"",""trial"",""time""
""fullscreenenter"",""1"",""3907""
","
","
","""event"",""trial"",""time""
""fullscreenenter"",""1"",""3907""
","
","true","false","[]","[]","[]","","","","","","","","","","","","","","","","","","",""
"learning-instructions","76","375674","0.0-9.0-1.0-0.0","1800","1","2","""event"",""trial"",""time""
""fullscreenenter"",""1"",""3907""
","
","
","""event"",""trial"",""time""
""fullscreenenter"",""1"",""3907""
","
","","","","","","1820.5999999046326","<p> Your goal in this round is to travel the world by putting fuel into different vehicles. </p><p> To travel, you will need to put fuel into many different vehicles. </p></div>","","0","instructions","","","","","","","","","","","","","",""
"learning-instructions","77","384928","0.0-9.0-1.0-0.1","1800","1","2","""event"",""trial"",""time""
""fullscreenenter"",""1"",""3907""
","
","
","""event"",""trial"",""time""
""fullscreenenter"",""1"",""3907""
","
","","","","","","469.6000003814697","<p> On each turn, you will see a picture of one of your vehicles and three different types of fuel.  </p><p> You need to select which kind of fuel to use.  </p>","","0","instructions","","","","","","","","","","","","","",""
"learning-instructions","78","392295","0.0-9.0-1.0-0.2","1800","1","2","""event"",""trial"",""time""
""fullscreenenter"",""1"",""3907""
","
","
","""event"",""trial"",""time""
""fullscreenenter"",""1"",""3907""
","
","","","","","","493.59999990463257","<p> You can select the fuel on the left by pressing 1, the fuel in the middle by pressing 2, and the fuel on the right by pressing 3. </p><br><div class=""choice-instructions-grid""> <div class=""choice-option""><img src=""images/vehicles_choice1.png"" class=""choice-option-img"" stage=""instructions"" position=""0"" ><div class=""choice-option-text""> Press ""1."" </div></div><div class=""choice-option""><img src=""images/vehicles_choice2.png"" class=""choice-option-img"" stage=""instructions"" position=""1"" ><div class=""choice-option-text""> Press ""2."" </div></div><div class=""choice-option""><img src=""images/vehicles_choice3.png"" class=""choice-option-img"" stage=""instructions"" position=""2"" ><div class=""choice-option-text""> Press ""3."" </div></div></div>","","0","instructions","","","","","","","","","","","","","",""
"learning-instructions","79","398160","0.0-9.0-1.0-0.3","1800","1","2","""event"",""trial"",""time""
""fullscreenenter"",""1"",""3907""
","
","
","""event"",""trial"",""time""
""fullscreenenter"",""1"",""3907""
","
","","","","","","635.5","<p> If the fuel you chose works for that vehicle, it will start, and </p><p> you will get to travel. </p><div style='float: center;'><img src='images/check.png' width = '200' height = '200'></img>","","0","instructions","","","","","","","","","","","","","",""
"learning-instructions","80","403810","0.0-9.0-1.0-0.4","1800","1","2","""event"",""trial"",""time""
""fullscreenenter"",""1"",""3907""
","
","
","""event"",""trial"",""time""
""fullscreenenter"",""1"",""3907""
","
","","","","","","1113","<p> But, if the fuel you chose does not work, your vehicle will not move. </p><div style='float: center;'><img src='images/x.png' width = '200' height = '200'></img>","","0","instructions","","","","","","","","","","","","","",""
"learning-instructions","81","415438","0.0-9.0-1.0-0.5","1800","1","2","""event"",""trial"",""time""
""fullscreenenter"",""1"",""3907""
","
","
","""event"",""trial"",""time""
""fullscreenenter"",""1"",""3907""
","
","","","","","","946.2000002861023","<p> Importantly, each vehicle has a fuel that works best for it. </p><p> If you choose the fuel that works best for the vehicle, it will be more likely to start. </p>","","0","instructions","","","","","","","","","","","","","",""
"learning-instructions","82","426076","0.0-9.0-1.0-0.6","1800","1","2","""event"",""trial"",""time""
""fullscreenenter"",""1"",""3907""
","
","
","""event"",""trial"",""time""
""fullscreenenter"",""1"",""3907""
","
","","","","","","433.19999980926514","<p> However, even if you choose the best fuel for the vehicle, it may still not move. </p><p> Similarly, even if you choose the <i>wrong</i> fuel, the vehicle may still start and let you travel.","","0","instructions","","","","","","","","","","","","","",""
"learning-instructions","83","438910","0.0-9.0-1.0-0.7","1800","1","2","""event"",""trial"",""time""
""fullscreenenter"",""1"",""3907""
","
","
","""event"",""trial"",""time""
""fullscreenenter"",""1"",""3907""
","
","","","","","","480.40000009536743","<p> Try to choose the best fuel for each vehicle, because you will <b> WIN </b> 1 point each time you get to travel and <b>LOSE</b> 1 point each time a vehicle does not start. </p><p> Your bonus payment will depend on your total number of points.","","0","instructions","","","","","","","","","","","","","",""
"learning-instructions","84","449461","0.0-9.0-1.0-0.8","1800","1","2","""event"",""trial"",""time""
""fullscreenenter"",""1"",""3907""
","
","
","""event"",""trial"",""time""
""fullscreenenter"",""1"",""3907""
","
","","","","","","2283.5999999046326","<p> The position of each type of fuel will change throughout the round. </p><p> The fuel's position <i> does not </i> influence how likely it is to make each vehicle start. </p>","","0","instructions","","","","","","","","","","","","","",""
"learning-instructions","85","460473","0.0-9.0-1.0-0.9","1800","1","2","""event"",""trial"",""time""
""fullscreenenter"",""1"",""3907""
","
","
","""event"",""trial"",""time""
""fullscreenenter"",""1"",""3907""
","
","","","","","","1702.8000001907349","<p> You will have 4 seconds to make each choice. Try to respond before time runs out! </p><p> You will lose 1 point each time you do not make a response. </p>","","0","instructions","","","","","","","","","","","","","",""
"html-keyboard-response","86","461079","0.0-9.0-2.0-0.0","1800","1","2","""event"",""trial"",""time""
""fullscreenenter"",""1"",""3907""
","
","
","""event"",""trial"",""time""
""fullscreenenter"",""1"",""3907""
","
","","","","","","null","<div style=""font-size:60px;"">+</div>","null","","fixation","","","","","","","","","","","","","",""
"learning-trial","87","465085","0.0-9.0-2.0-1.0","1800","1","2","""event"",""trial"",""time""
""fullscreenenter"",""1"",""3907""
","
","
","""event"",""trial"",""time""
""fullscreenenter"",""1"",""3907""
","
","","","","","","1169.1000003814697","images/train2.png","","","learning","images/vehicles_choice1.png","images/vehicles_choice3.png","images/vehicles_choice2.png","[0,2,1]","2","1","2","images/vehicles_choice3.png","1","vehicles","","train","1","0"
"html-keyboard-response","88","465607","0.0-9.0-2.0-0.1","1800","1","2","""event"",""trial"",""time""
""fullscreenenter"",""1"",""3907""
","
","
","""event"",""trial"",""time""
""fullscreenenter"",""1"",""3907""
","
","","","","","","null","<div style=""font-size:60px;"">+</div>","null","","fixation","","","","","","","","","","","","","",""
"learning-trial","89","469611","0.0-9.0-2.0-1.1","1800","1","2","""event"",""trial"",""time""
""fullscreenenter"",""1"",""3907""
","
","
","""event"",""trial"",""time""
""fullscreenenter"",""1"",""3907""
","
","","","","","","1710.1999998092651","images/train5.png","","","learning","images/vehicles_choice3.png","images/vehicles_choice2.png","images/vehicles_choice1.png","[2,1,0]","2","0","3","images/vehicles_choice1.png","-1","vehicles","","train","1","0"
"html-keyboard-response","90","470123","0.0-9.0-2.0-0.2","1800","1","2","""event"",""trial"",""time""
""fullscreenenter"",""1"",""3907""
","
","
","""event"",""trial"",""time""
""fullscreenenter"",""1"",""3907""
","
","","","","","","null","<div style=""font-size:60px;"">+</div>","null","","fixation","","","","","","","","","","","","","",""
"learning-trial","91","474128","0.0-9.0-2.0-1.2","1800","1","2","""event"",""trial"",""time""
""fullscreenenter"",""1"",""3907""
","
","
","""event"",""trial"",""time""
""fullscreenenter"",""1"",""3907""
","
","","","","","","972.0999999046326","images/train2.png","","","learning","images/vehicles_choice3.png","images/vehicles_choice1.png","images/vehicles_choice2.png","[2,0,1]","2","0","2","images/vehicles_choice1.png","-1","vehicles","","train","1","0"
"html-keyboard-response","92","474639","0.0-9.0-2.0-0.3","1800","1","2","""event"",""trial"",""time""
""fullscreenenter"",""1"",""3907""
","
","
","""event"",""trial"",""time""
""fullscreenenter"",""1"",""3907""
","
","","","","","","null","<div style=""font-size:60px;"">+</div>","null","","fixation","","","","","","","","","","","","","",""
"learning-trial","93","478644","0.0-9.0-2.0-1.3","1800","1","2","""event"",""trial"",""time""
""fullscreenenter"",""1"",""3907""
","
","
","""event"",""trial"",""time""
""fullscreenenter"",""1"",""3907""
","
","","","","","","2639.699999809265","images/plane5.png","","","learning","images/vehicles_choice3.png","images/vehicles_choice1.png","images/vehicles_choice2.png","[2,0,1]","1","2","3","images/vehicles_choice2.png","1","vehicles","","plane","1","0"
"html-keyboard-response","94","479148","0.0-9.0-2.0-0.4","1800","1","2","""event"",""trial"",""time""
""fullscreenenter"",""1"",""3907""
","
","
","""event"",""trial"",""time""
""fullscreenenter"",""1"",""3907""
","
","","","","","","null","<div style=""font-size:60px;"">+</div>","null","","fixation","","","","","","","","","","","","","",""
"learning-trial","95","483160","0.0-9.0-2.0-1.4","1800","1","2","""event"",""trial"",""time""
""fullscreenenter"",""1"",""3907""
","
","
","""event"",""trial"",""time""
""fullscreenenter"",""1"",""3907""
","
","","","","","","3422.699999809265","images/train3.png","","","learning","images/vehicles_choice3.png","images/vehicles_choice1.png","images/vehicles_choice2.png","[2,0,1]","2","0","2","images/vehicles_choice1.png","-1","vehicles","","train","1","0"
"html-keyboard-response","96","483665","0.0-9.0-2.0-0.5","1800","1","2","""event"",""trial"",""time""
""fullscreenenter"",""1"",""3907""
","
","
","""event"",""trial"",""time""
""fullscreenenter"",""1"",""3907""
","
","","","","","","null","<div style=""font-size:60px;"">+</div>","null","","fixation","","","","","","","","","","","","","",""
"learning-trial","97","487670","0.0-9.0-2.0-1.5","1800","1","2","""event"",""trial"",""time""
""fullscreenenter"",""1"",""3907""
","
","
","""event"",""trial"",""time""
""fullscreenenter"",""1"",""3907""
","
","","","","","","1391.6999998092651","images/plane5.png","","","learning","images/vehicles_choice2.png","images/vehicles_choice3.png","images/vehicles_choice1.png","[1,2,0]","1","0","1","images/vehicles_choice2.png","1","vehicles","","plane","1","0"
"html-keyboard-response","98","488175","0.0-9.0-2.0-0.6","1800","1","2","""event"",""trial"",""time""
""fullscreenenter"",""1"",""3907""
","
","
","""event"",""trial"",""time""
""fullscreenenter"",""1"",""3907""
","
","","","","","","null","<div style=""font-size:60px;"">+</div>","null","","fixation","","","","","","","","","","","","","",""
"learning-trial","99","492182","0.0-9.0-2.0-1.6","1800","1","2","""event"",""trial"",""time""
""fullscreenenter"",""1"",""3907""
","
","
","""event"",""trial"",""time""
""fullscreenenter"",""1"",""3907""
","
","","","","","","2209.699999809265","images/plane2.png","","","learning","images/vehicles_choice2.png","images/vehicles_choice3.png","images/vehicles_choice1.png","[1,2,0]","1","0","3","images/vehicles_choice1.png","-1","vehicles","","plane","1","0"
"html-keyboard-response","100","492687","0.0-9.0-2.0-0.7","1800","1","2","""event"",""trial"",""time""
""fullscreenenter"",""1"",""3907""
","
","
","""event"",""trial"",""time""
""fullscreenenter"",""1"",""3907""
","
","","","","","","null","<div style=""font-size:60px;"">+</div>","null","","fixation","","","","","","","","","","","","","",""
"learning-trial","101","496696","0.0-9.0-2.0-1.7","1800","1","2","""event"",""trial"",""time""
""fullscreenenter"",""1"",""3907""
","
","
","""event"",""trial"",""time""
""fullscreenenter"",""1"",""3907""
","
","","","","","","2456.7000002861023","images/train2.png","","","learning","images/vehicles_choice2.png","images/vehicles_choice1.png","images/vehicles_choice3.png","[1,0,2]","2","2","2","images/vehicles_choice1.png","-1","vehicles","","train","1","0"
"html-keyboard-response","102","497198","0.0-9.0-2.0-0.8","1800","1","2","""event"",""trial"",""time""
""fullscreenenter"",""1"",""3907""
","
","
","""event"",""trial"",""time""
""fullscreenenter"",""1"",""3907""
","
","","","","","","null","<div style=""font-size:60px;"">+</div>","null","","fixation","","","","","","","","","","","","","",""
"learning-trial","103","501212","0.0-9.0-2.0-1.8","1800","1","2","""event"",""trial"",""time""
""fullscreenenter"",""1"",""3907""
","
","
","""event"",""trial"",""time""
""fullscreenenter"",""1"",""3907""
","
","","","","","","1224.9000000953674","images/boat1.png","","","learning","images/vehicles_choice3.png","images/vehicles_choice1.png","images/vehicles_choice2.png","[2,0,1]","0","1","2","images/vehicles_choice1.png","-1","vehicles","","boat","1","0"
"html-keyboard-response","104","501713","0.0-9.0-2.0-0.9","1800","1","2","""event"",""trial"",""time""
""fullscreenenter"",""1"",""3907""
","
","
","""event"",""trial"",""time""
""fullscreenenter"",""1"",""3907""
","
","","","","","","null","<div style=""font-size:60px;"">+</div>","null","","fixation","","","","","","","","","","","","","",""
"learning-trial","105","505718","0.0-9.0-2.0-1.9","1800","1","2","""event"",""trial"",""time""
""fullscreenenter"",""1"",""3907""
","
","
","""event"",""trial"",""time""
""fullscreenenter"",""1"",""3907""
","
","","","","","","1280.3000001907349","images/boat1.png","","","learning","images/vehicles_choice3.png","images/vehicles_choice1.png","images/vehicles_choice2.png","[2,0,1]","0","1","1","images/vehicles_choice3.png","-1","vehicles","","boat","1","0"
"html-keyboard-response","106","506223","0.0-9.0-2.0-0.10","1800","1","2","""event"",""trial"",""time""
""fullscreenenter"",""1"",""3907""
","
","
","""event"",""trial"",""time""
""fullscreenenter"",""1"",""3907""
","
","","","","","","null","<div style=""font-size:60px;"">+</div>","null","","fixation","","","","","","","","","","","","","",""
"learning-trial","107","510229","0.0-9.0-2.0-1.10","1800","1","2","""event"",""trial"",""time""
""fullscreenenter"",""1"",""3907""
","
","
","""event"",""trial"",""time""
""fullscreenenter"",""1"",""3907""
","
","","","","","","1695.0999999046326","images/train3.png","","","learning","images/vehicles_choice2.png","images/vehicles_choice1.png","images/vehicles_choice3.png","[1,0,2]","2","2","2","images/vehicles_choice1.png","-1","vehicles","","train","1","0"
"html-keyboard-response","108","510734","0.0-9.0-2.0-0.11","1800","1","2","""event"",""trial"",""time""
""fullscreenenter"",""1"",""3907""
","
","
","""event"",""trial"",""time""
""fullscreenenter"",""1"",""3907""
","
","","","","","","null","<div style=""font-size:60px;"">+</div>","null","","fixation","","","","","","","","","","","","","",""
"learning-trial","109","514739","0.0-9.0-2.0-1.11","1800","1","2","""event"",""trial"",""time""
""fullscreenenter"",""1"",""3907""
","
","
","""event"",""trial"",""time""
""fullscreenenter"",""1"",""3907""
","
","","","","","","1639.2999997138977","images/train3.png","","","learning","images/vehicles_choice1.png","images/vehicles_choice2.png","images/vehicles_choice3.png","[0,1,2]","2","2","2","images/vehicles_choice2.png","-1","vehicles","","train","1","0"
"html-keyboard-response","110","515245","0.0-9.0-2.0-0.12","1800","1","2","""event"",""trial"",""time""
""fullscreenenter"",""1"",""3907""
","
","
","""event"",""trial"",""time""
""fullscreenenter"",""1"",""3907""
","
","","","","","","null","<div style=""font-size:60px;"">+</div>","null","","fixation","","","","","","","","","","","","","",""
"learning-trial","111","519249","0.0-9.0-2.0-1.12","1800","1","2","""event"",""trial"",""time""
""fullscreenenter"",""1"",""3907""
","
","
","""event"",""trial"",""time""
""fullscreenenter"",""1"",""3907""
","
","","","","","","1346.3000001907349","images/boat2.png","","","learning","images/vehicles_choice1.png","images/vehicles_choice2.png","images/vehicles_choice3.png","[0,1,2]","0","0","3","images/vehicles_choice3.png","-1","vehicles","","boat","1","0"
"html-keyboard-response","112","519754","0.0-9.0-2.0-0.13","1800","1","2","""event"",""trial"",""time""
""fullscreenenter"",""1"",""3907""
","
","
","""event"",""trial"",""time""
""fullscreenenter"",""1"",""3907""
","
","","","","","","null","<div style=""font-size:60px;"">+</div>","null","","fixation","","","","","","","","","","","","","",""
"learning-trial","113","523759","0.0-9.0-2.0-1.13","1800","1","2","""event"",""trial"",""time""
""fullscreenenter"",""1"",""3907""
","
","
","""event"",""trial"",""time""
""fullscreenenter"",""1"",""3907""
","
","","","","","","2435.800000190735","images/boat1.png","","","learning","images/vehicles_choice3.png","images/vehicles_choice1.png","images/vehicles_choice2.png","[2,0,1]","0","1","3","images/vehicles_choice2.png","1","vehicles","","boat","1","0"
"html-keyboard-response","114","524264","0.0-9.0-2.0-0.14","1800","1","2","""event"",""trial"",""time""
""fullscreenenter"",""1"",""3907""
","
","
","""event"",""trial"",""time""
""fullscreenenter"",""1"",""3907""
","
","","","","","","null","<div style=""font-size:60px;"">+</div>","null","","fixation","","","","","","","","","","","","","",""
"learning-trial","115","528269","0.0-9.0-2.0-1.14","1800","1","2","""event"",""trial"",""time""
""fullscreenenter"",""1"",""3907""
","
","
","""event"",""trial"",""time""
""fullscreenenter"",""1"",""3907""
","
","","","","","","1742.3000001907349","images/plane2.png","","","learning","images/vehicles_choice3.png","images/vehicles_choice2.png","images/vehicles_choice1.png","[2,1,0]","1","1","1","images/vehicles_choice3.png","1","vehicles","","plane","1","0"
"html-keyboard-response","116","528774","0.0-9.0-2.0-0.15","1800","1","2","""event"",""trial"",""time""
""fullscreenenter"",""1"",""3907""
","
","
","""event"",""trial"",""time""
""fullscreenenter"",""1"",""3907""
","
","","","","","","null","<div style=""font-size:60px;"">+</div>","null","","fixation","","","","","","","","","","","","","",""
"learning-trial","117","532780","0.0-9.0-2.0-1.15","1800","1","2","""event"",""trial"",""time""
""fullscreenenter"",""1"",""3907""
","
","
","""event"",""trial"",""time""
""fullscreenenter"",""1"",""3907""
","
","","","","","","1161.0999999046326","images/plane2.png","","","learning","images/vehicles_choice1.png","images/vehicles_choice2.png","images/vehicles_choice3.png","[0,1,2]","1","1","3","images/vehicles_choice3.png","-1","vehicles","","plane","1","0"
"html-keyboard-response","118","533285","0.0-9.0-2.0-0.16","1800","1","2","""event"",""trial"",""time""
""fullscreenenter"",""1"",""3907""
","
","
","""event"",""trial"",""time""
""fullscreenenter"",""1"",""3907""
","
","","","","","","null","<div style=""font-size:60px;"">+</div>","null","","fixation","","","","","","","","","","","","","",""
"learning-trial","119","537290","0.0-9.0-2.0-1.16","1800","1","2","""event"",""trial"",""time""
""fullscreenenter"",""1"",""3907""
","
","
","""event"",""trial"",""time""
""fullscreenenter"",""1"",""3907""
","
","","","","","","1745.7000002861023","images/boat1.png","","","learning","images/vehicles_choice2.png","images/vehicles_choice3.png","images/vehicles_choice1.png","[1,2,0]","0","2","1","images/vehicles_choice2.png","1","vehicles","","boat","1","0"
"html-keyboard-response","120","537795","0.0-9.0-2.0-0.17","1800","1","2","""event"",""trial"",""time""
""fullscreenenter"",""1"",""3907""
","
","
","""event"",""trial"",""time""
""fullscreenenter"",""1"",""3907""
","
","","","","","","null","<div style=""font-size:60px;"">+</div>","null","","fixation","","","","","","","","","","","","","",""
"learning-trial","121","541800","0.0-9.0-2.0-1.17","1800","1","2","""event"",""trial"",""time""
""fullscreenenter"",""1"",""3907""
","
","
","""event"",""trial"",""time""
""fullscreenenter"",""1"",""3907""
","
","","","","","","1928.2000002861023","images/train3.png","","","learning","images/vehicles_choice1.png","images/vehicles_choice2.png","images/vehicles_choice3.png","[0,1,2]","2","2","3","images/vehicles_choice3.png","1","vehicles","","train","1","0"
"html-keyboard-response","122","542305","0.0-9.0-2.0-0.18","1800","1","2","""event"",""trial"",""time""
""fullscreenenter"",""1"",""3907""
","
","
","""event"",""trial"",""time""
""fullscreenenter"",""1"",""3907""
","
","","","","","","null","<div style=""font-size:60px;"">+</div>","null","","fixation","","","","","","","","","","","","","",""
"learning-trial","123","546310","0.0-9.0-2.0-1.18","1800","1","2","""event"",""trial"",""time""
""fullscreenenter"",""1"",""3907""
","
","
","""event"",""trial"",""time""
""fullscreenenter"",""1"",""3907""
","
","","","","","","1709.9000000953674","images/boat4.png","","","learning","images/vehicles_choice2.png","images/vehicles_choice1.png","images/vehicles_choice3.png","[1,0,2]","0","1","2","images/vehicles_choice1.png","1","vehicles","","boat","1","0"
"html-keyboard-response","124","546839","0.0-9.0-2.0-0.19","1800","1","2","""event"",""trial"",""time""
""fullscreenenter"",""1"",""3907""
","
","
","""event"",""trial"",""time""
""fullscreenenter"",""1"",""3907""
","
","","","","","","null","<div style=""font-size:60px;"">+</div>","null","","fixation","","","","","","","","","","","","","",""
"learning-trial","125","550843","0.0-9.0-2.0-1.19","1800","1","2","""event"",""trial"",""time""
""fullscreenenter"",""1"",""3907""
","
","
","""event"",""trial"",""time""
""fullscreenenter"",""1"",""3907""
","
","","","","","","1693.1000003814697","images/train5.png","","","learning","images/vehicles_choice3.png","images/vehicles_choice2.png","images/vehicles_choice1.png","[2,1,0]","2","0","1","images/vehicles_choice3.png","1","vehicles","","train","1","0"
"html-keyboard-response","126","551348","0.0-9.0-2.0-0.20","1800","1","2","""event"",""trial"",""time""
""fullscreenenter"",""1"",""3907""
","
","
","""event"",""trial"",""time""
""fullscreenenter"",""1"",""3907""
","
","","","","","","null","<div style=""font-size:60px;"">+</div>","null","","fixation","","","","","","","","","","","","","",""
"learning-trial","127","555354","0.0-9.0-2.0-1.20","1800","1","2","""event"",""trial"",""time""
""fullscreenenter"",""1"",""3907""
","
","
","""event"",""trial"",""time""
""fullscreenenter"",""1"",""3907""
","
","","","","","","1786.6999998092651","images/boat2.png","","","learning","images/vehicles_choice1.png","images/vehicles_choice2.png","images/vehicles_choice3.png","[0,1,2]","0","0","2","images/vehicles_choice2.png","-1","vehicles","","boat","1","0"
"html-keyboard-response","128","555870","0.0-9.0-2.0-0.21","1800","1","2","""event"",""trial"",""time""
""fullscreenenter"",""1"",""3907""
","
","
","""event"",""trial"",""time""
""fullscreenenter"",""1"",""3907""
","
","","","","","","null","<div style=""font-size:60px;"">+</div>","null","","fixation","","","","","","","","","","","","","",""
"learning-trial","129","559876","0.0-9.0-2.0-1.21","1800","1","2","""event"",""trial"",""time""
""fullscreenenter"",""1"",""3907""
","
","
","""event"",""trial"",""time""
""fullscreenenter"",""1"",""3907""
","
","","","","","","1311.1000003814697","images/plane2.png","","","learning","images/vehicles_choice2.png","images/vehicles_choice3.png","images/vehicles_choice1.png","[1,2,0]","1","0","3","images/vehicles_choice1.png","-1","vehicles","","plane","1","0"
"html-keyboard-response","130","560381","0.0-9.0-2.0-0.22","1800","1","2","""event"",""trial"",""time""
""fullscreenenter"",""1"",""3907""
","
","
","""event"",""trial"",""time""
""fullscreenenter"",""1"",""3907""
","
","","","","","","null","<div style=""font-size:60px;"">+</div>","null","","fixation","","","","","","","","","","","","","",""
"learning-trial","131","564385","0.0-9.0-2.0-1.22","1800","1","2","""event"",""trial"",""time""
""fullscreenenter"",""1"",""3907""
","
","
","""event"",""trial"",""time""
""fullscreenenter"",""1"",""3907""
","
","","","","","","1672.4000000953674","images/train2.png","","","learning","images/vehicles_choice3.png","images/vehicles_choice2.png","images/vehicles_choice1.png","[2,1,0]","2","0","3","images/vehicles_choice1.png","1","vehicles","","train","1","0"
"html-keyboard-response","132","564887","0.0-9.0-2.0-0.23","1800","1","2","""event"",""trial"",""time""
""fullscreenenter"",""1"",""3907""
","
","
","""event"",""trial"",""time""
""fullscreenenter"",""1"",""3907""
","
","","","","","","null","<div style=""font-size:60px;"">+</div>","null","","fixation","","","","","","","","","","","","","",""
"learning-trial","133","568890","0.0-9.0-2.0-1.23","1800","1","2","""event"",""trial"",""time""
""fullscreenenter"",""1"",""3907""
","
","
","""event"",""trial"",""time""
""fullscreenenter"",""1"",""3907""
","
","","","","","","775.3000001907349","images/train2.png","","","learning","images/vehicles_choice3.png","images/vehicles_choice2.png","images/vehicles_choice1.png","[2,1,0]","2","0","3","images/vehicles_choice1.png","1","vehicles","","train","1","0"
"html-keyboard-response","134","569395","0.0-9.0-2.0-0.24","1800","1","2","""event"",""trial"",""time""
""fullscreenenter"",""1"",""3907""
","
","
","""event"",""trial"",""time""
""fullscreenenter"",""1"",""3907""
","
","","","","","","null","<div style=""font-size:60px;"">+</div>","null","","fixation","","","","","","","","","","","","","",""
"learning-trial","135","573400","0.0-9.0-2.0-1.24","1800","1","2","""event"",""trial"",""time""
""fullscreenenter"",""1"",""3907""
","
","
","""event"",""trial"",""time""
""fullscreenenter"",""1"",""3907""
","
","","","","","","1185.9000000953674","images/train3.png","","","learning","images/vehicles_choice3.png","images/vehicles_choice1.png","images/vehicles_choice2.png","[2,0,1]","2","0","1","images/vehicles_choice3.png","1","vehicles","","train","1","0"
"html-keyboard-response","136","573912","0.0-9.0-2.0-0.25","1800","1","2","""event"",""trial"",""time""
""fullscreenenter"",""1"",""3907""
","
","
","""event"",""trial"",""time""
""fullscreenenter"",""1"",""3907""
","
","","","","","","null","<div style=""font-size:60px;"">+</div>","null","","fixation","","","","","","","","","","","","","",""
"learning-trial","137","577916","0.0-9.0-2.0-1.25","1800","1","2","""event"",""trial"",""time""
""fullscreenenter"",""1"",""3907""
","
","
","""event"",""trial"",""time""
""fullscreenenter"",""1"",""3907""
","
","","","","","","1731.5","images/plane2.png","","","learning","images/vehicles_choice3.png","images/vehicles_choice1.png","images/vehicles_choice2.png","[2,0,1]","1","2","1","images/vehicles_choice3.png","-1","vehicles","","plane","1","0"
"html-keyboard-response","138","578421","0.0-9.0-2.0-0.26","1800","1","2","""event"",""trial"",""time""
""fullscreenenter"",""1"",""3907""
","
","
","""event"",""trial"",""time""
""fullscreenenter"",""1"",""3907""
","
","","","","","","null","<div style=""font-size:60px;"">+</div>","null","","fixation","","","","","","","","","","","","","",""
"learning-trial","139","582427","0.0-9.0-2.0-1.26","1800","1","2","""event"",""trial"",""time""
""fullscreenenter"",""1"",""3907""
","
","
","""event"",""trial"",""time""
""fullscreenenter"",""1"",""3907""
","
","","","","","","1587.5","images/boat2.png","","","learning","images/vehicles_choice2.png","images/vehicles_choice3.png","images/vehicles_choice1.png","[1,2,0]","0","2","1","images/vehicles_choice2.png","-1","vehicles","","boat","1","0"
"html-keyboard-response","140","582932","0.0-9.0-2.0-0.27","1800","1","2","""event"",""trial"",""time""
""fullscreenenter"",""1"",""3907""
","
","
","""event"",""trial"",""time""
""fullscreenenter"",""1"",""3907""
","
","","","","","","null","<div style=""font-size:60px;"">+</div>","null","","fixation","","","","","","","","","","","","","",""
"learning-trial","141","586937","0.0-9.0-2.0-1.27","1800","1","2","""event"",""trial"",""time""
""fullscreenenter"",""1"",""3907""
","
","
","""event"",""trial"",""time""
""fullscreenenter"",""1"",""3907""
","
","","","","","","2343.199999809265","images/train3.png","","","learning","images/vehicles_choice2.png","images/vehicles_choice1.png","images/vehicles_choice3.png","[1,0,2]","2","2","3","images/vehicles_choice3.png","1","vehicles","","train","1","0"
"html-keyboard-response","142","587442","0.0-9.0-2.0-0.28","1800","1","2","""event"",""trial"",""time""
""fullscreenenter"",""1"",""3907""
","
","
","""event"",""trial"",""time""
""fullscreenenter"",""1"",""3907""
","
","","","","","","null","<div style=""font-size:60px;"">+</div>","null","","fixation","","","","","","","","","","","","","",""
"learning-trial","143","591453","0.0-9.0-2.0-1.28","1800","1","2","""event"",""trial"",""time""
""fullscreenenter"",""1"",""3907""
","
","
","""event"",""trial"",""time""
""fullscreenenter"",""1"",""3907""
","
","","","","","","2353.199999809265","images/boat1.png","","","learning","images/vehicles_choice2.png","images/vehicles_choice1.png","images/vehicles_choice3.png","[1,0,2]","0","1","1","images/vehicles_choice2.png","-1","vehicles","","boat","1","0"
"html-keyboard-response","144","591960","0.0-9.0-2.0-0.29","1800","1","2","""event"",""trial"",""time""
""fullscreenenter"",""1"",""3907""
","
","
","""event"",""trial"",""time""
""fullscreenenter"",""1"",""3907""
","
","","","","","","null","<div style=""font-size:60px;"">+</div>","null","","fixation","","","","","","","","","","","","","",""
"learning-trial","145","595963","0.0-9.0-2.0-1.29","1800","1","2","""event"",""trial"",""time""
""fullscreenenter"",""1"",""3907""
","
","
","""event"",""trial"",""time""
""fullscreenenter"",""1"",""3907""
","
","","","","","","1853.4000000953674","images/train5.png","","","learning","images/vehicles_choice2.png","images/vehicles_choice3.png","images/vehicles_choice1.png","[1,2,0]","2","1","2","images/vehicles_choice3.png","1","vehicles","","train","1","0"
"html-keyboard-response","146","596474","0.0-9.0-2.0-0.30","1800","1","2","""event"",""trial"",""time""
""fullscreenenter"",""1"",""3907""
","
","
","""event"",""trial"",""time""
""fullscreenenter"",""1"",""3907""
","
","","","","","","null","<div style=""font-size:60px;"">+</div>","null","","fixation","","","","","","","","","","","","","",""
"learning-trial","147","600479","0.0-9.0-2.0-1.30","1800","1","2","""event"",""trial"",""time""
""fullscreenenter"",""1"",""3907""
","
","
","""event"",""trial"",""time""
""fullscreenenter"",""1"",""3907""
","
","","","","","","1211.0999999046326","images/train5.png","","","learning","images/vehicles_choice3.png","images/vehicles_choice1.png","images/vehicles_choice2.png","[2,0,1]","2","0","1","images/vehicles_choice3.png","1","vehicles","","train","1","0"
"html-keyboard-response","148","600984","0.0-9.0-2.0-0.31","1800","1","2","""event"",""trial"",""time""
""fullscreenenter"",""1"",""3907""
","
","
","""event"",""trial"",""time""
""fullscreenenter"",""1"",""3907""
","
","","","","","","null","<div style=""font-size:60px;"">+</div>","null","","fixation","","","","","","","","","","","","","",""
"learning-trial","149","604989","0.0-9.0-2.0-1.31","1800","1","2","""event"",""trial"",""time""
""fullscreenenter"",""1"",""3907""
","
","
","""event"",""trial"",""time""
""fullscreenenter"",""1"",""3907""
","
","","","","","","1069.0999999046326","images/train5.png","","","learning","images/vehicles_choice2.png","images/vehicles_choice3.png","images/vehicles_choice1.png","[1,2,0]","2","1","2","images/vehicles_choice3.png","1","vehicles","","train","1","0"
"html-keyboard-response","150","605494","0.0-9.0-2.0-0.32","1800","1","2","""event"",""trial"",""time""
""fullscreenenter"",""1"",""3907""
","
","
","""event"",""trial"",""time""
""fullscreenenter"",""1"",""3907""
","
","","","","","","null","<div style=""font-size:60px;"">+</div>","null","","fixation","","","","","","","","","","","","","",""
"learning-trial","151","609516","0.0-9.0-2.0-1.32","1800","1","2","""event"",""trial"",""time""
""fullscreenenter"",""1"",""3907""
","
","
","""event"",""trial"",""time""
""fullscreenenter"",""1"",""3907""
","
","","","","","","1607.8000001907349","images/boat2.png","","","learning","images/vehicles_choice2.png","images/vehicles_choice3.png","images/vehicles_choice1.png","[1,2,0]","0","2","3","images/vehicles_choice1.png","1","vehicles","","boat","1","0"
"html-keyboard-response","152","610017","0.0-9.0-2.0-0.33","1800","1","2","""event"",""trial"",""time""
""fullscreenenter"",""1"",""3907""
","
","
","""event"",""trial"",""time""
""fullscreenenter"",""1"",""3907""
","
","","","","","","null","<div style=""font-size:60px;"">+</div>","null","","fixation","","","","","","","","","","","","","",""
"learning-trial","153","614021","0.0-9.0-2.0-1.33","1800","1","2","""event"",""trial"",""time""
""fullscreenenter"",""1"",""3907""
","
","
","""event"",""trial"",""time""
""fullscreenenter"",""1"",""3907""
","
","","","","","","1660.5999999046326","images/boat1.png","","","learning","images/vehicles_choice3.png","images/vehicles_choice1.png","images/vehicles_choice2.png","[2,0,1]","0","1","2","images/vehicles_choice1.png","1","vehicles","","boat","1","0"
"html-keyboard-response","154","614523","0.0-9.0-2.0-0.34","1800","1","2","""event"",""trial"",""time""
""fullscreenenter"",""1"",""3907""
","
","
","""event"",""trial"",""time""
""fullscreenenter"",""1"",""3907""
","
","","","","","","null","<div style=""font-size:60px;"">+</div>","null","","fixation","","","","","","","","","","","","","",""
"learning-trial","155","618533","0.0-9.0-2.0-1.34","1800","1","2","""event"",""trial"",""time""
""fullscreenenter"",""1"",""3907""
","
","
","""event"",""trial"",""time""
""fullscreenenter"",""1"",""3907""
","
","","","","","","1349.5","images/boat4.png","","","learning","images/vehicles_choice3.png","images/vehicles_choice2.png","images/vehicles_choice1.png","[2,1,0]","0","2","2","images/vehicles_choice2.png","-1","vehicles","","boat","1","0"
"html-keyboard-response","156","619035","0.0-9.0-2.0-0.35","1800","1","2","""event"",""trial"",""time""
""fullscreenenter"",""1"",""3907""
","
","
","""event"",""trial"",""time""
""fullscreenenter"",""1"",""3907""
","
","","","","","","null","<div style=""font-size:60px;"">+</div>","null","","fixation","","","","","","","","","","","","","",""
"learning-trial","157","623042","0.0-9.0-2.0-1.35","1800","1","2","""event"",""trial"",""time""
""fullscreenenter"",""1"",""3907""
","
","
","""event"",""trial"",""time""
""fullscreenenter"",""1"",""3907""
","
","","","","","","1675.7000002861023","images/plane5.png","","","learning","images/vehicles_choice3.png","images/vehicles_choice2.png","images/vehicles_choice1.png","[2,1,0]","1","1","2","images/vehicles_choice2.png","1","vehicles","","plane","1","0"
"html-keyboard-response","158","623566","0.0-9.0-2.0-0.36","1800","1","2","""event"",""trial"",""time""
""fullscreenenter"",""1"",""3907""
","
","
","""event"",""trial"",""time""
""fullscreenenter"",""1"",""3907""
","
","","","","","","null","<div style=""font-size:60px;"">+</div>","null","","fixation","","","","","","","","","","","","","",""
"learning-trial","159","627569","0.0-9.0-2.0-1.36","1800","1","2","""event"",""trial"",""time""
""fullscreenenter"",""1"",""3907""
","
","
","""event"",""trial"",""time""
""fullscreenenter"",""1"",""3907""
","
","","","","","","1609.9000000953674","images/plane2.png","","","learning","images/vehicles_choice2.png","images/vehicles_choice1.png","images/vehicles_choice3.png","[1,0,2]","1","0","2","images/vehicles_choice1.png","-1","vehicles","","plane","1","0"
"html-keyboard-response","160","628074","0.0-9.0-2.0-0.37","1800","1","2","""event"",""trial"",""time""
""fullscreenenter"",""1"",""3907""
","
","
","""event"",""trial"",""time""
""fullscreenenter"",""1"",""3907""
","
","","","","","","null","<div style=""font-size:60px;"">+</div>","null","","fixation","","","","","","","","","","","","","",""
"learning-trial","161","632080","0.0-9.0-2.0-1.37","1800","1","2","""event"",""trial"",""time""
""fullscreenenter"",""1"",""3907""
","
","
","""event"",""trial"",""time""
""fullscreenenter"",""1"",""3907""
","
","","","","","","1844.7999997138977","images/boat4.png","","","learning","images/vehicles_choice3.png","images/vehicles_choice2.png","images/vehicles_choice1.png","[2,1,0]","0","2","2","images/vehicles_choice2.png","-1","vehicles","","boat","1","0"
"html-keyboard-response","162","632584","0.0-9.0-2.0-0.38","1800","1","2","""event"",""trial"",""time""
""fullscreenenter"",""1"",""3907""
","
","
","""event"",""trial"",""time""
""fullscreenenter"",""1"",""3907""
","
","","","","","","null","<div style=""font-size:60px;"">+</div>","null","","fixation","","","","","","","","","","","","","",""
"learning-trial","163","636590","0.0-9.0-2.0-1.38","1800","1","2","""event"",""trial"",""time""
""fullscreenenter"",""1"",""3907""
","
","
","""event"",""trial"",""time""
""fullscreenenter"",""1"",""3907""
","
","","","","","","2173.199999809265","images/boat2.png","","","learning","images/vehicles_choice2.png","images/vehicles_choice1.png","images/vehicles_choice3.png","[1,0,2]","0","1","2","images/vehicles_choice1.png","1","vehicles","","boat","1","0"
"html-keyboard-response","164","637095","0.0-9.0-2.0-0.39","1800","1","2","""event"",""trial"",""time""
""fullscreenenter"",""1"",""3907""
","
","
","""event"",""trial"",""time""
""fullscreenenter"",""1"",""3907""
","
","","","","","","null","<div style=""font-size:60px;"">+</div>","null","","fixation","","","","","","","","","","","","","",""
"learning-trial","165","641106","0.0-9.0-2.0-1.39","1800","1","2","""event"",""trial"",""time""
""fullscreenenter"",""1"",""3907""
","
","
","""event"",""trial"",""time""
""fullscreenenter"",""1"",""3907""
","
","","","","","","1811.1999998092651","images/plane3.png","","","learning","images/vehicles_choice1.png","images/vehicles_choice3.png","images/vehicles_choice2.png","[0,2,1]","1","2","1","images/vehicles_choice1.png","-1","vehicles","","plane","1","0"
"html-keyboard-response","166","641611","0.0-9.0-2.0-0.40","1800","1","2","""event"",""trial"",""time""
""fullscreenenter"",""1"",""3907""
","
","
","""event"",""trial"",""time""
""fullscreenenter"",""1"",""3907""
","
","","","","","","null","<div style=""font-size:60px;"">+</div>","null","","fixation","","","","","","","","","","","","","",""
"learning-trial","167","645630","0.0-9.0-2.0-1.40","1800","1","2","""event"",""trial"",""time""
""fullscreenenter"",""1"",""3907""
","
","
","""event"",""trial"",""time""
""fullscreenenter"",""1"",""3907""
","
","","","","","","1566.4000000953674","images/plane3.png","","","learning","images/vehicles_choice1.png","images/vehicles_choice2.png","images/vehicles_choice3.png","[0,1,2]","1","1","2","images/vehicles_choice2.png","1","vehicles","","plane","1","0"
"html-keyboard-response","168","646132","0.0-9.0-2.0-0.41","1800","1","2","""event"",""trial"",""time""
""fullscreenenter"",""1"",""3907""
","
","
","""event"",""trial"",""time""
""fullscreenenter"",""1"",""3907""
","
","","","","","","null","<div style=""font-size:60px;"">+</div>","null","","fixation","","","","","","","","","","","","","",""
"learning-trial","169","650137","0.0-9.0-2.0-1.41","1800","1","2","""event"",""trial"",""time""
""fullscreenenter"",""1"",""3907""
","
","
","""event"",""trial"",""time""
""fullscreenenter"",""1"",""3907""
","
","","","","","","1969.2999997138977","images/boat1.png","","","learning","images/vehicles_choice3.png","images/vehicles_choice1.png","images/vehicles_choice2.png","[2,0,1]","0","1","3","images/vehicles_choice2.png","-1","vehicles","","boat","1","0"
"html-keyboard-response","170","650659","0.0-9.0-2.0-0.42","1800","1","2","""event"",""trial"",""time""
""fullscreenenter"",""1"",""3907""
","
","
","""event"",""trial"",""time""
""fullscreenenter"",""1"",""3907""
","
","","","","","","null","<div style=""font-size:60px;"">+</div>","null","","fixation","","","","","","","","","","","","","",""
"learning-trial","171","654665","0.0-9.0-2.0-1.42","1800","1","2","""event"",""trial"",""time""
""fullscreenenter"",""1"",""3907""
","
","
","""event"",""trial"",""time""
""fullscreenenter"",""1"",""3907""
","
","","","","","","997.7000002861023","images/plane3.png","","","learning","images/vehicles_choice1.png","images/vehicles_choice3.png","images/vehicles_choice2.png","[0,2,1]","1","2","3","images/vehicles_choice2.png","1","vehicles","","plane","1","0"
"html-keyboard-response","172","655170","0.0-9.0-2.0-0.43","1800","1","2","""event"",""trial"",""time""
""fullscreenenter"",""1"",""3907""
","
","
","""event"",""trial"",""time""
""fullscreenenter"",""1"",""3907""
","
","","","","","","null","<div style=""font-size:60px;"">+</div>","null","","fixation","","","","","","","","","","","","","",""
"learning-trial","173","659176","0.0-9.0-2.0-1.43","1800","1","2","""event"",""trial"",""time""
""fullscreenenter"",""1"",""3907""
","
","
","""event"",""trial"",""time""
""fullscreenenter"",""1"",""3907""
","
","","","","","","2668.5999999046326","images/boat4.png","","","learning","images/vehicles_choice1.png","images/vehicles_choice2.png","images/vehicles_choice3.png","[0,1,2]","0","0","2","images/vehicles_choice2.png","-1","vehicles","","boat","1","0"
"html-keyboard-response","174","659685","0.0-9.0-2.0-0.44","1800","1","2","""event"",""trial"",""time""
""fullscreenenter"",""1"",""3907""
","
","
","""event"",""trial"",""time""
""fullscreenenter"",""1"",""3907""
","
","","","","","","null","<div style=""font-size:60px;"">+</div>","null","","fixation","","","","","","","","","","","","","",""
"learning-trial","175","663692","0.0-9.0-2.0-1.44","1800","1","2","""event"",""trial"",""time""
""fullscreenenter"",""1"",""3907""
","
","
","""event"",""trial"",""time""
""fullscreenenter"",""1"",""3907""
","
","","","","","","944.7000002861023","images/plane2.png","","","learning","images/vehicles_choice2.png","images/vehicles_choice1.png","images/vehicles_choice3.png","[1,0,2]","1","0","1","images/vehicles_choice2.png","1","vehicles","","plane","1","0"
"html-keyboard-response","176","664196","0.0-9.0-2.0-0.45","1800","1","2","""event"",""trial"",""time""
""fullscreenenter"",""1"",""3907""
","
","
","""event"",""trial"",""time""
""fullscreenenter"",""1"",""3907""
","
","","","","","","null","<div style=""font-size:60px;"">+</div>","null","","fixation","","","","","","","","","","","","","",""
"learning-trial","177","668206","0.0-9.0-2.0-1.45","1800","1","2","""event"",""trial"",""time""
""fullscreenenter"",""1"",""3907""
","
","
","""event"",""trial"",""time""
""fullscreenenter"",""1"",""3907""
","
","","","","","","2728.2000002861023","images/plane5.png","","","learning","images/vehicles_choice1.png","images/vehicles_choice3.png","images/vehicles_choice2.png","[0,2,1]","1","2","2","images/vehicles_choice3.png","-1","vehicles","","plane","1","0"
"html-keyboard-response","178","668716","0.0-9.0-2.0-0.46","1800","1","2","""event"",""trial"",""time""
""fullscreenenter"",""1"",""3907""
","
","
","""event"",""trial"",""time""
""fullscreenenter"",""1"",""3907""
","
","","","","","","null","<div style=""font-size:60px;"">+</div>","null","","fixation","","","","","","","","","","","","","",""
"learning-trial","179","672718","0.0-9.0-2.0-1.46","1800","1","2","""event"",""trial"",""time""
""fullscreenenter"",""1"",""3907""
","
","
","""event"",""trial"",""time""
""fullscreenenter"",""1"",""3907""
","
","","","","","","1445.7999997138977","images/train5.png","","","learning","images/vehicles_choice3.png","images/vehicles_choice1.png","images/vehicles_choice2.png","[2,0,1]","2","0","1","images/vehicles_choice3.png","1","vehicles","","train","1","0"
"html-keyboard-response","180","673223","0.0-9.0-2.0-0.47","1800","1","2","""event"",""trial"",""time""
""fullscreenenter"",""1"",""3907""
","
","
","""event"",""trial"",""time""
""fullscreenenter"",""1"",""3907""
","
","","","","","","null","<div style=""font-size:60px;"">+</div>","null","","fixation","","","","","","","","","","","","","",""
"learning-trial","181","677228","0.0-9.0-2.0-1.47","1800","1","2","""event"",""trial"",""time""
""fullscreenenter"",""1"",""3907""
","
","
","""event"",""trial"",""time""
""fullscreenenter"",""1"",""3907""
","
","","","","","","1541.4000000953674","images/plane5.png","","","learning","images/vehicles_choice2.png","images/vehicles_choice1.png","images/vehicles_choice3.png","[1,0,2]","1","0","2","images/vehicles_choice1.png","-1","vehicles","","plane","1","0"
"html-keyboard-response","182","677733","0.0-9.0-2.0-0.48","1800","1","2","""event"",""trial"",""time""
""fullscreenenter"",""1"",""3907""
","
","
","""event"",""trial"",""time""
""fullscreenenter"",""1"",""3907""
","
","","","","","","null","<div style=""font-size:60px;"">+</div>","null","","fixation","","","","","","","","","","","","","",""
"learning-trial","183","681748","0.0-9.0-2.0-1.48","1800","1","2","""event"",""trial"",""time""
""fullscreenenter"",""1"",""3907""
","
","
","""event"",""trial"",""time""
""fullscreenenter"",""1"",""3907""
","
","","","","","","1977.3000001907349","images/boat2.png","","","learning","images/vehicles_choice2.png","images/vehicles_choice1.png","images/vehicles_choice3.png","[1,0,2]","0","1","2","images/vehicles_choice1.png","1","vehicles","","boat","1","0"
"html-keyboard-response","184","682249","0.0-9.0-2.0-0.49","1800","1","2","""event"",""trial"",""time""
""fullscreenenter"",""1"",""3907""
","
","
","""event"",""trial"",""time""
""fullscreenenter"",""1"",""3907""
","
","","","","","","null","<div style=""font-size:60px;"">+</div>","null","","fixation","","","","","","","","","","","","","",""
"learning-trial","185","686261","0.0-9.0-2.0-1.49","1800","1","2","""event"",""trial"",""time""
""fullscreenenter"",""1"",""3907""
","
","
","""event"",""trial"",""time""
""fullscreenenter"",""1"",""3907""
","
","","","","","","3372.0999999046326","images/boat4.png","","","learning","images/vehicles_choice2.png","images/vehicles_choice3.png","images/vehicles_choice1.png","[1,2,0]","0","2","3","images/vehicles_choice1.png","1","vehicles","","boat","1","0"
"html-keyboard-response","186","686765","0.0-9.0-2.0-0.50","1800","1","2","""event"",""trial"",""time""
""fullscreenenter"",""1"",""3907""
","
","
","""event"",""trial"",""time""
""fullscreenenter"",""1"",""3907""
","
","","","","","","null","<div style=""font-size:60px;"">+</div>","null","","fixation","","","","","","","","","","","","","",""
"learning-trial","187","690770","0.0-9.0-2.0-1.50","1800","1","2","""event"",""trial"",""time""
""fullscreenenter"",""1"",""3907""
","
","
","""event"",""trial"",""time""
""fullscreenenter"",""1"",""3907""
","
","","","","","","2124","images/train2.png","","","learning","images/vehicles_choice1.png","images/vehicles_choice3.png","images/vehicles_choice2.png","[0,2,1]","2","1","2","images/vehicles_choice3.png","1","vehicles","","train","1","0"
"html-keyboard-response","188","691275","0.0-9.0-2.0-0.51","1800","1","2","""event"",""trial"",""time""
""fullscreenenter"",""1"",""3907""
","
","
","""event"",""trial"",""time""
""fullscreenenter"",""1"",""3907""
","
","","","","","","null","<div style=""font-size:60px;"">+</div>","null","","fixation","","","","","","","","","","","","","",""
"learning-trial","189","695280","0.0-9.0-2.0-1.51","1800","1","2","""event"",""trial"",""time""
""fullscreenenter"",""1"",""3907""
","
","
","""event"",""trial"",""time""
""fullscreenenter"",""1"",""3907""
","
","","","","","","1326.4000000953674","images/plane3.png","","","learning","images/vehicles_choice3.png","images/vehicles_choice2.png","images/vehicles_choice1.png","[2,1,0]","1","1","2","images/vehicles_choice2.png","1","vehicles","","plane","1","0"
"html-keyboard-response","190","695785","0.0-9.0-2.0-0.52","1800","1","2","""event"",""trial"",""time""
""fullscreenenter"",""1"",""3907""
","
","
","""event"",""trial"",""time""
""fullscreenenter"",""1"",""3907""
","
","","","","","","null","<div style=""font-size:60px;"">+</div>","null","","fixation","","","","","","","","","","","","","",""
"learning-trial","191","699787","0.0-9.0-2.0-1.52","1800","1","2","""event"",""trial"",""time""
""fullscreenenter"",""1"",""3907""
","
","
","""event"",""trial"",""time""
""fullscreenenter"",""1"",""3907""
","
","","","","","","1564.7000002861023","images/train2.png","","","learning","images/vehicles_choice1.png","images/vehicles_choice3.png","images/vehicles_choice2.png","[0,2,1]","2","1","2","images/vehicles_choice3.png","1","vehicles","","train","1","0"
"html-keyboard-response","192","700290","0.0-9.0-2.0-0.53","1800","1","2","""event"",""trial"",""time""
""fullscreenenter"",""1"",""3907""
","
","
","""event"",""trial"",""time""
""fullscreenenter"",""1"",""3907""
","
","","","","","","null","<div style=""font-size:60px;"">+</div>","null","","fixation","","","","","","","","","","","","","",""
"learning-trial","193","704295","0.0-9.0-2.0-1.53","1800","1","2","""event"",""trial"",""time""
""fullscreenenter"",""1"",""3907""
","
","
","""event"",""trial"",""time""
""fullscreenenter"",""1"",""3907""
","
","","","","","","963.6000003814697","images/plane2.png","","","learning","images/vehicles_choice1.png","images/vehicles_choice2.png","images/vehicles_choice3.png","[0,1,2]","1","1","2","images/vehicles_choice2.png","1","vehicles","","plane","1","0"
"html-keyboard-response","194","704800","0.0-9.0-2.0-0.54","1800","1","2","""event"",""trial"",""time""
""fullscreenenter"",""1"",""3907""
","
","
","""event"",""trial"",""time""
""fullscreenenter"",""1"",""3907""
","
","","","","","","null","<div style=""font-size:60px;"">+</div>","null","","fixation","","","","","","","","","","","","","",""
"learning-trial","195","708803","0.0-9.0-2.0-1.54","1800","1","2","""event"",""trial"",""time""
""fullscreenenter"",""1"",""3907""
","
","
","""event"",""trial"",""time""
""fullscreenenter"",""1"",""3907""
","
","","","","","","1398.7999997138977","images/boat1.png","","","learning","images/vehicles_choice2.png","images/vehicles_choice1.png","images/vehicles_choice3.png","[1,0,2]","0","1","2","images/vehicles_choice1.png","1","vehicles","","boat","1","0"
"html-keyboard-response","196","709304","0.0-9.0-2.0-0.55","1800","1","2","""event"",""trial"",""time""
""fullscreenenter"",""1"",""3907""
","
","
","""event"",""trial"",""time""
""fullscreenenter"",""1"",""3907""
","
","","","","","","null","<div style=""font-size:60px;"">+</div>","null","","fixation","","","","","","","","","","","","","",""
"learning-trial","197","713310","0.0-9.0-2.0-1.55","1800","1","2","""event"",""trial"",""time""
""fullscreenenter"",""1"",""3907""
","
","
","""event"",""trial"",""time""
""fullscreenenter"",""1"",""3907""
","
","","","","","","1097.0999999046326","images/plane3.png","","","learning","images/vehicles_choice1.png","images/vehicles_choice2.png","images/vehicles_choice3.png","[0,1,2]","1","1","2","images/vehicles_choice2.png","1","vehicles","","plane","1","0"
"html-keyboard-response","198","713828","0.0-9.0-2.0-0.56","1800","1","2","""event"",""trial"",""time""
""fullscreenenter"",""1"",""3907""
","
","
","""event"",""trial"",""time""
""fullscreenenter"",""1"",""3907""
","
","","","","","","null","<div style=""font-size:60px;"">+</div>","null","","fixation","","","","","","","","","","","","","",""
"learning-trial","199","717833","0.0-9.0-2.0-1.56","1800","1","2","""event"",""trial"",""time""
""fullscreenenter"",""1"",""3907""
","
","
","""event"",""trial"",""time""
""fullscreenenter"",""1"",""3907""
","
","","","","","","2884.7999997138977","images/boat4.png","","","learning","images/vehicles_choice3.png","images/vehicles_choice1.png","images/vehicles_choice2.png","[2,0,1]","0","1","3","images/vehicles_choice2.png","1","vehicles","","boat","1","0"
"html-keyboard-response","200","718336","0.0-9.0-2.0-0.57","1800","1","2","""event"",""trial"",""time""
""fullscreenenter"",""1"",""3907""
","
","
","""event"",""trial"",""time""
""fullscreenenter"",""1"",""3907""
","
","","","","","","null","<div style=""font-size:60px;"">+</div>","null","","fixation","","","","","","","","","","","","","",""
"learning-trial","201","722341","0.0-9.0-2.0-1.57","1800","1","2","""event"",""trial"",""time""
""fullscreenenter"",""1"",""3907""
","
","
","""event"",""trial"",""time""
""fullscreenenter"",""1"",""3907""
","
","","","","","","1002.8000001907349","images/plane5.png","","","learning","images/vehicles_choice3.png","images/vehicles_choice1.png","images/vehicles_choice2.png","[2,0,1]","1","2","3","images/vehicles_choice2.png","-1","vehicles","","plane","1","0"
"html-keyboard-response","202","722847","0.0-9.0-2.0-0.58","1800","1","2","""event"",""trial"",""time""
""fullscreenenter"",""1"",""3907""
","
","
","""event"",""trial"",""time""
""fullscreenenter"",""1"",""3907""
","
","","","","","","null","<div style=""font-size:60px;"">+</div>","null","","fixation","","","","","","","","","","","","","",""
"learning-trial","203","726853","0.0-9.0-2.0-1.58","1800","1","2","""event"",""trial"",""time""
""fullscreenenter"",""1"",""3907""
","
","
","""event"",""trial"",""time""
""fullscreenenter"",""1"",""3907""
","
","","","","","","1901.2000002861023","images/boat2.png","","","learning","images/vehicles_choice1.png","images/vehicles_choice2.png","images/vehicles_choice3.png","[0,1,2]","0","0","1","images/vehicles_choice1.png","1","vehicles","","boat","1","0"
"html-keyboard-response","204","727357","0.0-9.0-2.0-0.59","1800","1","2","""event"",""trial"",""time""
""fullscreenenter"",""1"",""3907""
","
","
","""event"",""trial"",""time""
""fullscreenenter"",""1"",""3907""
","
","","","","","","null","<div style=""font-size:60px;"">+</div>","null","","fixation","","","","","","","","","","","","","",""
"learning-trial","205","731362","0.0-9.0-2.0-1.59","1800","1","2","""event"",""trial"",""time""
""fullscreenenter"",""1"",""3907""
","
","
","""event"",""trial"",""time""
""fullscreenenter"",""1"",""3907""
","
","","","","","","1825.1999998092651","images/train3.png","","","learning","images/vehicles_choice1.png","images/vehicles_choice3.png","images/vehicles_choice2.png","[0,2,1]","2","1","2","images/vehicles_choice3.png","-1","vehicles","","train","1","0"
"html-keyboard-response","206","731867","0.0-9.0-2.0-0.60","1800","1","2","""event"",""trial"",""time""
""fullscreenenter"",""1"",""3907""
","
","
","""event"",""trial"",""time""
""fullscreenenter"",""1"",""3907""
","
","","","","","","null","<div style=""font-size:60px;"">+</div>","null","","fixation","","","","","","","","","","","","","",""
"learning-trial","207","735872","0.0-9.0-2.0-1.60","1800","1","2","""event"",""trial"",""time""
""fullscreenenter"",""1"",""3907""
","
","
","""event"",""trial"",""time""
""fullscreenenter"",""1"",""3907""
","
","","","","","","1201","images/plane3.png","","","learning","images/vehicles_choice1.png","images/vehicles_choice3.png","images/vehicles_choice2.png","[0,2,1]","1","2","3","images/vehicles_choice2.png","-1","vehicles","","plane","1","0"
"html-keyboard-response","208","736377","0.0-9.0-2.0-0.61","1800","1","2","""event"",""trial"",""time""
""fullscreenenter"",""1"",""3907""
","
","
","""event"",""trial"",""time""
""fullscreenenter"",""1"",""3907""
","
","","","","","","null","<div style=""font-size:60px;"">+</div>","null","","fixation","","","","","","","","","","","","","",""
"learning-trial","209","740383","0.0-9.0-2.0-1.61","1800","1","2","""event"",""trial"",""time""
""fullscreenenter"",""1"",""3907""
","
","
","""event"",""trial"",""time""
""fullscreenenter"",""1"",""3907""
","
","","","","","","1968.5","images/train2.png","","","learning","images/vehicles_choice3.png","images/vehicles_choice1.png","images/vehicles_choice2.png","[2,0,1]","2","0","1","images/vehicles_choice3.png","1","vehicles","","train","1","0"
"html-keyboard-response","210","740887","0.0-9.0-2.0-0.62","1800","1","2","""event"",""trial"",""time""
""fullscreenenter"",""1"",""3907""
","
","
","""event"",""trial"",""time""
""fullscreenenter"",""1"",""3907""
","
","","","","","","null","<div style=""font-size:60px;"">+</div>","null","","fixation","","","","","","","","","","","","","",""
"learning-trial","211","744893","0.0-9.0-2.0-1.62","1800","1","2","""event"",""trial"",""time""
""fullscreenenter"",""1"",""3907""
","
","
","""event"",""trial"",""time""
""fullscreenenter"",""1"",""3907""
","
","","","","","","2851","images/plane5.png","","","learning","images/vehicles_choice1.png","images/vehicles_choice2.png","images/vehicles_choice3.png","[0,1,2]","1","1","2","images/vehicles_choice2.png","1","vehicles","","plane","1","0"
"html-keyboard-response","212","745400","0.0-9.0-2.0-0.63","1800","1","2","""event"",""trial"",""time""
""fullscreenenter"",""1"",""3907""
","
","
","""event"",""trial"",""time""
""fullscreenenter"",""1"",""3907""
","
","","","","","","null","<div style=""font-size:60px;"">+</div>","null","","fixation","","","","","","","","","","","","","",""
"learning-trial","213","749403","0.0-9.0-2.0-1.63","1800","1","2","""event"",""trial"",""time""
""fullscreenenter"",""1"",""3907""
","
","
","""event"",""trial"",""time""
""fullscreenenter"",""1"",""3907""
","
","","","","","","2192.5","images/train3.png","","","learning","images/vehicles_choice2.png","images/vehicles_choice1.png","images/vehicles_choice3.png","[1,0,2]","2","2","2","images/vehicles_choice1.png","-1","vehicles","","train","1","0"
"html-keyboard-response","214","749907","0.0-9.0-2.0-0.64","1800","1","2","""event"",""trial"",""time""
""fullscreenenter"",""1"",""3907""
","
","
","""event"",""trial"",""time""
""fullscreenenter"",""1"",""3907""
","
","","","","","","null","<div style=""font-size:60px;"">+</div>","null","","fixation","","","","","","","","","","","","","",""
"learning-trial","215","753913","0.0-9.0-2.0-1.64","1800","1","2","""event"",""trial"",""time""
""fullscreenenter"",""1"",""3907""
","
","
","""event"",""trial"",""time""
""fullscreenenter"",""1"",""3907""
","
","","","","","","2411.9000000953674","images/train5.png","","","learning","images/vehicles_choice1.png","images/vehicles_choice2.png","images/vehicles_choice3.png","[0,1,2]","2","2","1","images/vehicles_choice1.png","1","vehicles","","train","1","0"
"html-keyboard-response","216","754418","0.0-9.0-2.0-0.65","1800","1","2","""event"",""trial"",""time""
""fullscreenenter"",""1"",""3907""
","
","
","""event"",""trial"",""time""
""fullscreenenter"",""1"",""3907""
","
","","","","","","null","<div style=""font-size:60px;"">+</div>","null","","fixation","","","","","","","","","","","","","",""
"learning-trial","217","758423","0.0-9.0-2.0-1.65","1800","1","2","""event"",""trial"",""time""
""fullscreenenter"",""1"",""3907""
","
","
","""event"",""trial"",""time""
""fullscreenenter"",""1"",""3907""
","
","","","","","","1216.6999998092651","images/plane5.png","","","learning","images/vehicles_choice1.png","images/vehicles_choice2.png","images/vehicles_choice3.png","[0,1,2]","1","1","2","images/vehicles_choice2.png","1","vehicles","","plane","1","0"
"html-keyboard-response","218","758928","0.0-9.0-2.0-0.66","1800","1","2","""event"",""trial"",""time""
""fullscreenenter"",""1"",""3907""
","
","
","""event"",""trial"",""time""
""fullscreenenter"",""1"",""3907""
","
","","","","","","null","<div style=""font-size:60px;"">+</div>","null","","fixation","","","","","","","","","","","","","",""
"learning-trial","219","762934","0.0-9.0-2.0-1.66","1800","1","2","""event"",""trial"",""time""
""fullscreenenter"",""1"",""3907""
","
","
","""event"",""trial"",""time""
""fullscreenenter"",""1"",""3907""
","
","","","","","","2264.699999809265","images/boat2.png","","","learning","images/vehicles_choice3.png","images/vehicles_choice1.png","images/vehicles_choice2.png","[2,0,1]","0","1","2","images/vehicles_choice1.png","1","vehicles","","boat","1","0"
"html-keyboard-response","220","763438","0.0-9.0-2.0-0.67","1800","1","2","""event"",""trial"",""time""
""fullscreenenter"",""1"",""3907""
","
","
","""event"",""trial"",""time""
""fullscreenenter"",""1"",""3907""
","
","","","","","","null","<div style=""font-size:60px;"">+</div>","null","","fixation","","","","","","","","","","","","","",""
"learning-trial","221","767444","0.0-9.0-2.0-1.67","1800","1","2","""event"",""trial"",""time""
""fullscreenenter"",""1"",""3907""
","
","
","""event"",""trial"",""time""
""fullscreenenter"",""1"",""3907""
","
","","","","","","2751.699999809265","images/boat4.png","","","learning","images/vehicles_choice1.png","images/vehicles_choice3.png","images/vehicles_choice2.png","[0,2,1]","0","0","3","images/vehicles_choice2.png","-1","vehicles","","boat","1","0"
"html-keyboard-response","222","767956","0.0-9.0-2.0-0.68","1800","1","2","""event"",""trial"",""time""
""fullscreenenter"",""1"",""3907""
","
","
","""event"",""trial"",""time""
""fullscreenenter"",""1"",""3907""
","
","","","","","","null","<div style=""font-size:60px;"">+</div>","null","","fixation","","","","","","","","","","","","","",""
"learning-trial","223","771960","0.0-9.0-2.0-1.68","1800","1","2","""event"",""trial"",""time""
""fullscreenenter"",""1"",""3907""
","
","
","""event"",""trial"",""time""
""fullscreenenter"",""1"",""3907""
","
","","","","","","1472.2999997138977","images/plane3.png","","","learning","images/vehicles_choice3.png","images/vehicles_choice2.png","images/vehicles_choice1.png","[2,1,0]","1","1","2","images/vehicles_choice2.png","1","vehicles","","plane","1","0"
"html-keyboard-response","224","772465","0.0-9.0-2.0-0.69","1800","1","2","""event"",""trial"",""time""
""fullscreenenter"",""1"",""3907""
","
","
","""event"",""trial"",""time""
""fullscreenenter"",""1"",""3907""
","
","","","","","","null","<div style=""font-size:60px;"">+</div>","null","","fixation","","","","","","","","","","","","","",""
"learning-trial","225","776470","0.0-9.0-2.0-1.69","1800","1","2","""event"",""trial"",""time""
""fullscreenenter"",""1"",""3907""
","
","
","""event"",""trial"",""time""
""fullscreenenter"",""1"",""3907""
","
","","","","","","1074.6000003814697","images/plane3.png","","","learning","images/vehicles_choice2.png","images/vehicles_choice1.png","images/vehicles_choice3.png","[1,0,2]","1","0","1","images/vehicles_choice2.png","1","vehicles","","plane","1","0"
"html-keyboard-response","226","776975","0.0-9.0-2.0-0.70","1800","1","2","""event"",""trial"",""time""
""fullscreenenter"",""1"",""3907""
","
","
","""event"",""trial"",""time""
""fullscreenenter"",""1"",""3907""
","
","","","","","","null","<div style=""font-size:60px;"">+</div>","null","","fixation","","","","","","","","","","","","","",""
"learning-trial","227","780980","0.0-9.0-2.0-1.70","1800","1","2","""event"",""trial"",""time""
""fullscreenenter"",""1"",""3907""
","
","
","""event"",""trial"",""time""
""fullscreenenter"",""1"",""3907""
","
","","","","","","1699.9000000953674","images/boat4.png","","","learning","images/vehicles_choice2.png","images/vehicles_choice3.png","images/vehicles_choice1.png","[1,2,0]","0","2","2","images/vehicles_choice3.png","-1","vehicles","","boat","1","0"
"html-keyboard-response","228","781485","0.0-9.0-2.0-0.71","1800","1","2","""event"",""trial"",""time""
""fullscreenenter"",""1"",""3907""
","
","
","""event"",""trial"",""time""
""fullscreenenter"",""1"",""3907""
","
","","","","","","null","<div style=""font-size:60px;"">+</div>","null","","fixation","","","","","","","","","","","","","",""
"learning-trial","229","785490","0.0-9.0-2.0-1.71","1800","1","2","""event"",""trial"",""time""
""fullscreenenter"",""1"",""3907""
","
","
","""event"",""trial"",""time""
""fullscreenenter"",""1"",""3907""
","
","","","","","","1896.5999999046326","images/train5.png","","","learning","images/vehicles_choice1.png","images/vehicles_choice2.png","images/vehicles_choice3.png","[0,1,2]","2","2","3","images/vehicles_choice3.png","1","vehicles","","train","1","0"
"html-button-response","230","789196","0.0-9.0-3.0","1800","1","2","""event"",""trial"",""time""
""fullscreenenter"",""1"",""3907""
","
","
","""event"",""trial"",""time""
""fullscreenenter"",""1"",""3907""
","
","","","","","","3704.699999809265","<p> You have completed the round! <p> In this round, you earned 12 points! </p>","0","","break","","","","","","","","","","","","","",""
"html-button-response","231","793927","0.0-10.0","1800","1","2","""event"",""trial"",""time""
""fullscreenenter"",""1"",""3907""
","
","
","""event"",""trial"",""time""
""fullscreenenter"",""1"",""3907""
","
","","","","","","4729.900000095367","<p> Now it's time to play another round. </p>","0","","transition_screen","","","","","","","","","","","","","",""
"preload","232","796192","0.0-11.0-0.0","1800","1","2","""event"",""trial"",""time""
""fullscreenenter"",""1"",""3907""
","
","
","""event"",""trial"",""time""
""fullscreenenter"",""1"",""3907""
","
","true","false","[]","[]","[]","","","","","","","","","","","","","","","","","","",""
"learning-instructions","233","804900","0.0-11.0-1.0-0.0","1800","1","2","""event"",""trial"",""time""
""fullscreenenter"",""1"",""3907""
","
","
","""event"",""trial"",""time""
""fullscreenenter"",""1"",""3907""
","
","","","","","","2142.0999999046326","<p> Your goal in this round is to feed all of your pets with the foods they like. </p><p> You will need to feed many pets. </p></div>","","0","instructions","","","","","","","","","","","","","",""
"learning-instructions","234","813339","0.0-11.0-1.0-0.1","1800","1","2","""event"",""trial"",""time""
""fullscreenenter"",""1"",""3907""
","
","
","""event"",""trial"",""time""
""fullscreenenter"",""1"",""3907""
","
","","","","","","444.7000002861023","<p> On each turn, you will see a picture of one of your pets and three different types of foods.  </p><p> You need to select the food that you want to give to your pet.  </p>","","0","instructions","","","","","","","","","","","","","",""
"learning-instructions","235","820157","0.0-11.0-1.0-0.2","1800","1","2","""event"",""trial"",""time""
""fullscreenenter"",""1"",""3907""
","
","
","""event"",""trial"",""time""
""fullscreenenter"",""1"",""3907""
","
