"trial_type","trial_index","time_elapsed","internal_node_id","subject_id","condition","task_version","interactions","blur_events","focus_events","fullscreenenter_events","fullscreenexit_events","success","timeout","failed_images","failed_audio","failed_video","rt","stimulus","response","button_pressed","task_part","left_choice","middle_choice","right_choice","choice_positions","correct_response","correct_position","key_press","option_selected","points","task_block","correct","stim_cat","block_condition","block_number"
"pavlovia","0","4","0.0-0.0","1858","1","2","""event"",""trial"",""time""
""fullscreenenter"",""1"",""2447""
","
","
","""event"",""trial"",""time""
""fullscreenenter"",""1"",""2447""
","
","","","","","","","","","","","","","","","","","","","","","","","",""
"fullscreen","1","3392","0.0-1.0","1858","1","2","""event"",""trial"",""time""
""fullscreenenter"",""1"",""2447""
","
","
","""event"",""trial"",""time""
""fullscreenenter"",""1"",""2447""
","
","true","","","","","","","","","","","","","","","","","","","","","","",""
"preload","2","19153","0.0-2.0","1858","1","2","""event"",""trial"",""time""
""fullscreenenter"",""1"",""2447""
","
","
","""event"",""trial"",""time""
""fullscreenenter"",""1"",""2447""
","
","true","false","[]","[]","[]","","","","","","","","","","","","","","","","","","",""
"audio-keyboard-response","3","21618","0.0-3.0","1858","1","2","""event"",""trial"",""time""
""fullscreenenter"",""1"",""2447""
","
","
","""event"",""trial"",""time""
""fullscreenenter"",""1"",""2447""
","
","","","","","","2467.120181405896","audio/beep_loop.wav"," ","","","","","","","","","","","","","","","",""
"audio-button-response","4","24350","0.0-4.0","1858","1","2","""event"",""trial"",""time""
""fullscreenenter"",""1"",""2447""
","
","
","""event"",""trial"",""time""
""fullscreenenter"",""1"",""2447""
","
","","","","","","2728","audio/shark.wav","4","","","","","","","","","","","","","","","",""
"audio-button-response","5","26623","0.0-5.0","1858","1","2","""event"",""trial"",""time""
""fullscreenenter"",""1"",""2447""
","
","
","""event"",""trial"",""time""
""fullscreenenter"",""1"",""2447""
","
","","","","","","1271","audio/turtle.wav","1","","","","","","","","","","","","","","","",""
"preload","6","34518","0.0-6.0","1858","1","2","""event"",""trial"",""time""
""fullscreenenter"",""1"",""2447""
","
","
","""event"",""trial"",""time""
""fullscreenenter"",""1"",""2447""
","
","true","false","[]","[]","[]","","","","","","","","","","","","","","","","","","",""
"html-keyboard-response","7","38325","0.0-7.0","1858","1","2","""event"",""trial"",""time""
""fullscreenenter"",""1"",""2447""
","
","
","""event"",""trial"",""time""
""fullscreenenter"",""1"",""2447""
","
","","","","","","3805.800000000745","Welcome to the experiment. Press any key to begin and to advance the instructions.","1","","","","","","","","","","","","","","","",""
"learning-instructions","8","47516","0.0-8.0-0.0-0.0","1858","1","2","""event"",""trial"",""time""
""fullscreenenter"",""1"",""2447""
","
","
","""event"",""trial"",""time""
""fullscreenenter"",""1"",""2447""
","
","","","","","","1440.9000000003725","<p> Welcome! Today you are going to play 6 different rounds of a decision-making game. </p><p> Use the mouse to click next to continue. </p>","","0","instructions","","","","","","","","","","","","","",""
"learning-instructions","9","51836","0.0-8.0-0.0-0.1","1858","1","2","""event"",""trial"",""time""
""fullscreenenter"",""1"",""2447""
","
","
","""event"",""trial"",""time""
""fullscreenenter"",""1"",""2447""
","
","","","","","","1314.7000000011176","<p> You will start with a practice round to learn the rules. </p>","","0","instructions","","","","","","","","","","","","","",""
"learning-instructions","10","60218","0.0-8.0-0.0-0.2","1858","1","2","""event"",""trial"",""time""
""fullscreenenter"",""1"",""2447""
","
","
","""event"",""trial"",""time""
""fullscreenenter"",""1"",""2447""
","
","","","","","","641.6999999992549","<p> Your goal in this round is to deliver sports equipment to three different parks. </p><p> You will need to deliver many types of equipment. </p></div>","","0","instructions","","","","","","","","","","","","","",""
"learning-instructions","11","69275","0.0-8.0-0.0-0.3","1858","1","2","""event"",""trial"",""time""
""fullscreenenter"",""1"",""2447""
","
","
","""event"",""trial"",""time""
""fullscreenenter"",""1"",""2447""
","
","","","","","","566.5999999996275","<p> On each turn, you will see one piece of sports equipment and three different parks.  </p><p> You need to select which park to deliver the equipment to.  </p>","","0","instructions","","","","","","","","","","","","","",""
"learning-instructions","12","83293","0.0-8.0-0.0-0.4","1858","1","2","""event"",""trial"",""time""
""fullscreenenter"",""1"",""2447""
","
","
","""event"",""trial"",""time""
""fullscreenenter"",""1"",""2447""
","
","","","","","","740","<p> You can select the park on the left by pressing the '1' key on your keyboard. <br>You can select the park in the middle by pressing the '2' key on your keyboard. <br>You can select the park on the right by pressing the '3' key on your keyboard.  </p><br><div class=""choice-instructions-grid""> <div class=""choice-option""><img src=""images/park1.png"" class=""choice-option-img"" stage=""instructions"" position=""0"" ><div class=""choice-option-text""> Press ""1."" </div></div><div class=""choice-option""><img src=""images/park2.png"" class=""choice-option-img"" stage=""instructions"" position=""1"" ><div class=""choice-option-text""> Press ""2."" </div></div><div class=""choice-option""><img src=""images/park3.png"" class=""choice-option-img"" stage=""instructions"" position=""2"" ><div class=""choice-option-text""> Press ""3."" </div></div></div>","","0","instructions","","","","","","","","","","","","","",""
"learning-instructions","13","90055","0.0-8.0-0.0-0.5","1858","1","2","""event"",""trial"",""time""
""fullscreenenter"",""1"",""2447""
","
","
","""event"",""trial"",""time""
""fullscreenenter"",""1"",""2447""
","
","","","","","","1383.5","<p> If the kids in the park you chose like the equipment, they will be very happy! </p><div style='float: center;'><img src='images/check.png' width = '200' height = '200'></img>","","0","instructions","","","","","","","","","","","","","",""
"learning-instructions","14","97908","0.0-8.0-0.0-0.6","1858","1","2","""event"",""trial"",""time""
""fullscreenenter"",""1"",""2447""
","
","
","""event"",""trial"",""time""
""fullscreenenter"",""1"",""2447""
","
","","","","","","2265.2000000011176","<p> But, if the kids in the park you chose do not like the equipment, they will be sad. </p><div style='float: center;'><img src='images/x.png' width = '200' height = '200'></img>","","0","instructions","","","","","","","","","","","","","",""
"learning-instructions","15","104872","0.0-8.0-0.0-0.7","1858","1","2","""event"",""trial"",""time""
""fullscreenenter"",""1"",""2447""
","
","
","""event"",""trial"",""time""
""fullscreenenter"",""1"",""2447""
","
","","","","","","533.3000000007451","<p> Importantly, the kids in each park like some pieces of sports equipment more than others. </p>","","0","instructions","","","","","","","","","","","","","",""
"learning-instructions","16","111386","0.0-8.0-0.0-0.8","1858","1","2","""event"",""trial"",""time""
""fullscreenenter"",""1"",""2447""
","
","
","""event"",""trial"",""time""
""fullscreenenter"",""1"",""2447""
","
","","","","","","464.40000000037253","<p> If you choose the best park for each piece of equipment, the kids there will usually be happy. </p>","","0","instructions","","","","","","","","","","","","","",""
"learning-instructions","17","118530","0.0-8.0-0.0-0.9","1858","1","2","""event"",""trial"",""time""
""fullscreenenter"",""1"",""2447""
","
","
","""event"",""trial"",""time""
""fullscreenenter"",""1"",""2447""
","
","","","","","","497.80000000074506","<p> However, even if you choose the best park for the equipment, the kids may sometimes be sad. </p>","","0","instructions","","","","","","","","","","","","","",""
"learning-instructions","18","126282","0.0-8.0-0.0-0.10","1858","1","2","""event"",""trial"",""time""
""fullscreenenter"",""1"",""2447""
","
","
","""event"",""trial"",""time""
""fullscreenenter"",""1"",""2447""
","
","","","","","","523.0999999996275","<p> Similarly, even if you choose the <i>wrong</i> park for the equipment, the kids may still be happy sometimes.","","0","instructions","","","","","","","","","","","","","",""
"learning-instructions","19","132043","0.0-8.0-0.0-0.11","1858","1","2","""event"",""trial"",""time""
""fullscreenenter"",""1"",""2447""
","
","
","""event"",""trial"",""time""
""fullscreenenter"",""1"",""2447""
","
","","","","","","704.9000000003725","<p> For example, the best park for this soccer ball is this one.<div style='float: center;'><img src='images/i1.png' width = '500' height = '268'></img>","","0","instructions","","","","","","","","","","","","","",""
"learning-instructions","20","138355","0.0-8.0-0.0-0.12","1858","1","2","""event"",""trial"",""time""
""fullscreenenter"",""1"",""2447""
","
","
","""event"",""trial"",""time""
""fullscreenenter"",""1"",""2447""
","
","","","","","","1026.2000000011176","<p> Let's see what happens if you choose this park for the soccer ball five times.","","0","instructions","","","","","","","","","","","","","",""
"learning-instructions","21","141246","0.0-8.0-0.0-0.13","1858","1","2","""event"",""trial"",""time""
""fullscreenenter"",""1"",""2447""
","
","
","""event"",""trial"",""time""
""fullscreenenter"",""1"",""2447""
","
","","","","","","730.2999999988824","<p> The kids are happy.<div style='float: left;'><img src='images/i2.png' width = '640' height = '360'></img>","","0","instructions","","","","","","","","","","","","","",""
"learning-instructions","22","144047","0.0-8.0-0.0-0.14","1858","1","2","""event"",""trial"",""time""
""fullscreenenter"",""1"",""2447""
","
","
","""event"",""trial"",""time""
""fullscreenenter"",""1"",""2447""
","
","","","","","","641","<p> The kids are happy.<div style='float: left;'><img src='images/i3.png' width = '640' height = '360'></img>","","0","instructions","","","","","","","","","","","","","",""
"learning-instructions","23","146838","0.0-8.0-0.0-0.15","1858","1","2","""event"",""trial"",""time""
""fullscreenenter"",""1"",""2447""
","
","
","""event"",""trial"",""time""
""fullscreenenter"",""1"",""2447""
","
","","","","","","627.4000000003725","<p> The kids are happy.<div style='float: left;'><img src='images/i4.png' width = '640' height = '360'></img>","","0","instructions","","","","","","","","","","","","","",""
"learning-instructions","24","149774","0.0-8.0-0.0-0.16","1858","1","2","""event"",""trial"",""time""
""fullscreenenter"",""1"",""2447""
","
","
","""event"",""trial"",""time""
""fullscreenenter"",""1"",""2447""
","
","","","","","","730.8000000007451","<p> The kids are sad.<div style='float: left;'><img src='images/i5.png' width = '640' height = '360'></img>","","0","instructions","","","","","","","","","","","","","",""
"learning-instructions","25","153397","0.0-8.0-0.0-0.17","1858","1","2","""event"",""trial"",""time""
""fullscreenenter"",""1"",""2447""
","
","
","""event"",""trial"",""time""
""fullscreenenter"",""1"",""2447""
","
","","","","","","1457.300000000745","<p> The kids are happy.<div style='float: left;'><img src='images/i6.png' width = '640' height = '360'></img>","","0","instructions","","","","","","","","","","","","","",""
"learning-instructions","26","161058","0.0-8.0-0.0-0.18","1858","1","2","""event"",""trial"",""time""
""fullscreenenter"",""1"",""2447""
","
","
","""event"",""trial"",""time""
""fullscreenenter"",""1"",""2447""
","
","","","","","","400.19999999925494","<p> As you can see, selecting that park for the soccer ball made the kids happy most of the time, but not all the time.","","0","instructions","","","","","","","","","","","","","",""
"learning-instructions","27","167674","0.0-8.0-0.0-0.19","1858","1","2","""event"",""trial"",""time""
""fullscreenenter"",""1"",""2447""
","
","
","""event"",""trial"",""time""
""fullscreenenter"",""1"",""2447""
","
","","","","","","612.5999999996275","<p> Now let's see what happens if you choose a DIFFERENT park for the soccer ball 5 times.","","0","instructions","","","","","","","","","","","","","",""
"learning-instructions","28","171252","0.0-8.0-0.0-0.20","1858","1","2","""event"",""trial"",""time""
""fullscreenenter"",""1"",""2447""
","
","
","""event"",""trial"",""time""
""fullscreenenter"",""1"",""2447""
","
","","","","","","1374.5999999996275","<p> The kids are sad.<div style='float: left;'><img src='images/i7.png' width = '640' height = '360'></img>","","0","instructions","","","","","","","","","","","","","",""
"learning-instructions","29","174143","0.0-8.0-0.0-0.21","1858","1","2","""event"",""trial"",""time""
""fullscreenenter"",""1"",""2447""
","
","
","""event"",""trial"",""time""
""fullscreenenter"",""1"",""2447""
","
","","","","","","684.8999999985099","<p> The kids are sad.<div style='float: left;'><img src='images/i8.png' width = '640' height = '360'></img>","","0","instructions","","","","","","","","","","","","","",""
"learning-instructions","30","177845","0.0-8.0-0.0-0.22","1858","1","2","""event"",""trial"",""time""
""fullscreenenter"",""1"",""2447""
","
","
","""event"",""trial"",""time""
""fullscreenenter"",""1"",""2447""
","
","","","","","","1535.9000000003725","<p> The kids are happy.<div style='float: left;'><img src='images/i9.png' width = '640' height = '360'></img>","","0","instructions","","","","","","","","","","","","","",""
"learning-instructions","31","180691","0.0-8.0-0.0-0.23","1858","1","2","""event"",""trial"",""time""
""fullscreenenter"",""1"",""2447""
","
","
","""event"",""trial"",""time""
""fullscreenenter"",""1"",""2447""
","
","","","","","","644.1999999992549","<p> The kids are sad.<div style='float: left;'><img src='images/i10.png' width = '640' height = '360'></img>","","0","instructions","","","","","","","","","","","","","",""
"learning-instructions","32","183807","0.0-8.0-0.0-0.24","1858","1","2","""event"",""trial"",""time""
""fullscreenenter"",""1"",""2447""
","
","
","""event"",""trial"",""time""
""fullscreenenter"",""1"",""2447""
","
","","","","","","915.6999999992549","<p> The kids are sad.<div style='float: left;'><img src='images/i11.png' width = '640' height = '360'></img>","","0","instructions","","","","","","","","","","","","","",""
"learning-instructions","33","192459","0.0-8.0-0.0-0.25","1858","1","2","""event"",""trial"",""time""
""fullscreenenter"",""1"",""2447""
","
","
","""event"",""trial"",""time""
""fullscreenenter"",""1"",""2447""
","
","","","","","","535.7000000011176","<p> As you can see, selecting the wrong park for the soccer ball made the kids sad most of the time, but not all the time.","","0","instructions","","","","","","","","","","","","","",""
"learning-instructions","34","201989","0.0-8.0-0.0-0.26","1858","1","2","""event"",""trial"",""time""
""fullscreenenter"",""1"",""2447""
","
","
","""event"",""trial"",""time""
""fullscreenenter"",""1"",""2447""
","
","","","","","","417.59999999962747","<p> The different pieces of equipment belong in different parks. You need to try to learn which is the best park for each piece of equipment.","","0","instructions","","","","","","","","","","","","","",""
"learning-instructions","35","218842","0.0-8.0-0.0-0.27","1858","1","2","""event"",""trial"",""time""
""fullscreenenter"",""1"",""2447""
","
","
","""event"",""trial"",""time""
""fullscreenenter"",""1"",""2447""
","
","","","","","","465.30000000074506","<p> Try to choose the best park for each piece of equipment, because you will <b> WIN </b> 1 point for each time you make the kids happy and <b>LOSE</b> 1 point for each time you make them sad. </p><p> Remember, if you make the best choice, you will win 1 point most of the time, but not all the time. </p>","","0","instructions","","","","","","","","","","","","","",""
"learning-instructions","36","225818","0.0-8.0-0.0-0.28","1858","1","2","""event"",""trial"",""time""
""fullscreenenter"",""1"",""2447""
","
","
","""event"",""trial"",""time""
""fullscreenenter"",""1"",""2447""
","
","","","","","","1497","<p> This is just a practice round, but in the real game, your bonus payment will depend on your total number of points.","","0","instructions","","","","","","","","","","","","","",""
"learning-instructions","37","236923","0.0-8.0-0.0-0.29","1858","1","2","""event"",""trial"",""time""
""fullscreenenter"",""1"",""2447""
","
","
","""event"",""trial"",""time""
""fullscreenenter"",""1"",""2447""
","
","","","","","","776.5","<p> The position where each park appears will change throughout the game. </p><p> The position where the park appears <i> does not </i> influence how likely the kids are to be happy or sad. </p>","","0","instructions","","","","","","","","","","","","","",""
"learning-instructions","38","248455","0.0-8.0-0.0-0.30","1858","1","2","""event"",""trial"",""time""
""fullscreenenter"",""1"",""2447""
","
","
","""event"",""trial"",""time""
""fullscreenenter"",""1"",""2447""
","
","","","","","","559.5","<p> You will have 4 seconds to make each choice. Try to respond before time runs out! </p><p> You will lose 1 point each time you do not make a response. </p>","","0","instructions","","","","","","","","","","","","","",""
"learning-instructions","39","256690","0.0-8.0-0.0-0.31","1858","1","2","""event"",""trial"",""time""
""fullscreenenter"",""1"",""2447""
","
","
","""event"",""trial"",""time""
""fullscreenenter"",""1"",""2447""
","
","","","","","","1451.4000000003725","<p> Remember, you should use the 1, 2, and 3 keys to select the park for each piece of equipment. </p><br><div class=""choice-instructions-grid""> <div class=""choice-option""><img src=""images/park1.png"" class=""choice-option-img"" stage=""instructions"" position=""0"" ><div class=""choice-option-text""> Press ""1."" </div></div><div class=""choice-option""><img src=""images/park2.png"" class=""choice-option-img"" stage=""instructions"" position=""1"" ><div class=""choice-option-text""> Press ""2."" </div></div><div class=""choice-option""><img src=""images/park3.png"" class=""choice-option-img"" stage=""instructions"" position=""2"" ><div class=""choice-option-text""> Press ""3."" </div></div></div>","","0","instructions","","","","","","","","","","","","","",""
"html-button-response","40","259031","0.0-8.0-1.0","1858","1","2","""event"",""trial"",""time""
""fullscreenenter"",""1"",""2447""
","
","
","""event"",""trial"",""time""
""fullscreenenter"",""1"",""2447""
","
","","","","","","2236.2000000011176","<p> Ready to practice? </p>","0","","","","","","","","","","","","","","","",""
"html-keyboard-response","41","259638","0.0-8.0-2.0-0.0","1858","1","2","""event"",""trial"",""time""
""fullscreenenter"",""1"",""2447""
","
","
","""event"",""trial"",""time""
""fullscreenenter"",""1"",""2447""
","
","","","","","","null","<div style=""font-size:60px;"">+</div>","null","","fixation","","","","","","","","","","","","","",""
"learning-trial","42","263644","0.0-8.0-2.0-1.0","1858","1","2","""event"",""trial"",""time""
""fullscreenenter"",""1"",""2447""
","
","
","""event"",""trial"",""time""
""fullscreenenter"",""1"",""2447""
","
","","","","","","1236.199999999255","images/racket1.png","","","practice","images/park1.png","images/park3.png","images/park2.png","[0,2,1]","0","0","1","images/park1.png","1","practice","","","",""
"html-keyboard-response","43","264149","0.0-8.0-2.0-0.1","1858","1","2","""event"",""trial"",""time""
""fullscreenenter"",""1"",""2447""
","
","
","""event"",""trial"",""time""
""fullscreenenter"",""1"",""2447""
","
","","","","","","null","<div style=""font-size:60px;"">+</div>","null","","fixation","","","","","","","","","","","","","",""
"learning-trial","44","268154","0.0-8.0-2.0-1.1","1858","1","2","""event"",""trial"",""time""
""fullscreenenter"",""1"",""2447""
","
","
","""event"",""trial"",""time""
""fullscreenenter"",""1"",""2447""
","
","","","","","","1518.2000000011176","images/racket2.png","","","practice","images/park1.png","images/park3.png","images/park2.png","[0,2,1]","2","1","1","images/park1.png","-1","practice","","","",""
"html-keyboard-response","45","268659","0.0-8.0-2.0-0.2","1858","1","2","""event"",""trial"",""time""
""fullscreenenter"",""1"",""2447""
","
","
","""event"",""trial"",""time""
""fullscreenenter"",""1"",""2447""
","
","","","","","","null","<div style=""font-size:60px;"">+</div>","null","","fixation","","","","","","","","","","","","","",""
"learning-trial","46","272665","0.0-8.0-2.0-1.2","1858","1","2","""event"",""trial"",""time""
""fullscreenenter"",""1"",""2447""
","
","
","""event"",""trial"",""time""
""fullscreenenter"",""1"",""2447""
","
","","","","","","1238.300000000745","images/ball4.png","","","practice","images/park2.png","images/park1.png","images/park3.png","[1,0,2]","1","0","2","images/park1.png","-1","practice","","","",""
"html-keyboard-response","47","273170","0.0-8.0-2.0-0.3","1858","1","2","""event"",""trial"",""time""
""fullscreenenter"",""1"",""2447""
","
","
","""event"",""trial"",""time""
""fullscreenenter"",""1"",""2447""
","
","","","","","","null","<div style=""font-size:60px;"">+</div>","null","","fixation","","","","","","","","","","","","","",""
"learning-trial","48","277175","0.0-8.0-2.0-1.3","1858","1","2","""event"",""trial"",""time""
""fullscreenenter"",""1"",""2447""
","
","
","""event"",""trial"",""time""
""fullscreenenter"",""1"",""2447""
","
","","","","","","2005.5","images/ball1.png","","","practice","images/park1.png","images/park3.png","images/park2.png","[0,2,1]","2","1","2","images/park3.png","1","practice","","","",""
"html-keyboard-response","49","277676","0.0-8.0-2.0-0.4","1858","1","2","""event"",""trial"",""time""
""fullscreenenter"",""1"",""2447""
","
","
","""event"",""trial"",""time""
""fullscreenenter"",""1"",""2447""
","
","","","","","","null","<div style=""font-size:60px;"">+</div>","null","","fixation","","","","","","","","","","","","","",""
"learning-trial","50","281679","0.0-8.0-2.0-1.4","1858","1","2","""event"",""trial"",""time""
""fullscreenenter"",""1"",""2447""
","
","
","""event"",""trial"",""time""
""fullscreenenter"",""1"",""2447""
","
","","","","","","1525.5","images/ball3.png","","","practice","images/park1.png","images/park3.png","images/park2.png","[0,2,1]","0","0","2","images/park3.png","1","practice","","","",""
"html-keyboard-response","51","282185","0.0-8.0-2.0-0.5","1858","1","2","""event"",""trial"",""time""
""fullscreenenter"",""1"",""2447""
","
","
","""event"",""trial"",""time""
""fullscreenenter"",""1"",""2447""
","
","","","","","","null","<div style=""font-size:60px;"">+</div>","null","","fixation","","","","","","","","","","","","","",""
"learning-trial","52","286191","0.0-8.0-2.0-1.5","1858","1","2","""event"",""trial"",""time""
""fullscreenenter"",""1"",""2447""
","
","
","""event"",""trial"",""time""
""fullscreenenter"",""1"",""2447""
","
","","","","","","1090.3999999985099","images/ball1.png","","","practice","images/park2.png","images/park3.png","images/park1.png","[1,2,0]","2","1","2","images/park3.png","1","practice","","","",""
"html-keyboard-response","53","286696","0.0-8.0-2.0-0.6","1858","1","2","""event"",""trial"",""time""
""fullscreenenter"",""1"",""2447""
","
","
","""event"",""trial"",""time""
""fullscreenenter"",""1"",""2447""
","
","","","","","","null","<div style=""font-size:60px;"">+</div>","null","","fixation","","","","","","","","","","","","","",""
"learning-trial","54","290699","0.0-8.0-2.0-1.6","1858","1","2","""event"",""trial"",""time""
""fullscreenenter"",""1"",""2447""
","
","
","""event"",""trial"",""time""
""fullscreenenter"",""1"",""2447""
","
","","","","","","2237.699999999255","images/racket4.png","","","practice","images/park2.png","images/park1.png","images/park3.png","[1,0,2]","1","0","2","images/park1.png","-1","practice","","","",""
"html-keyboard-response","55","291201","0.0-8.0-2.0-0.7","1858","1","2","""event"",""trial"",""time""
""fullscreenenter"",""1"",""2447""
","
","
","""event"",""trial"",""time""
""fullscreenenter"",""1"",""2447""
","
","","","","","","null","<div style=""font-size:60px;"">+</div>","null","","fixation","","","","","","","","","","","","","",""
"learning-trial","56","295205","0.0-8.0-2.0-1.7","1858","1","2","""event"",""trial"",""time""
""fullscreenenter"",""1"",""2447""
","
","
","""event"",""trial"",""time""
""fullscreenenter"",""1"",""2447""
","
","","","","","","1501.9000000003725","images/racket4.png","","","practice","images/park2.png","images/park1.png","images/park3.png","[1,0,2]","1","0","2","images/park1.png","1","practice","","","",""
"html-keyboard-response","57","295705","0.0-8.0-2.0-0.8","1858","1","2","""event"",""trial"",""time""
""fullscreenenter"",""1"",""2447""
","
","
","""event"",""trial"",""time""
""fullscreenenter"",""1"",""2447""
","
","","","","","","null","<div style=""font-size:60px;"">+</div>","null","","fixation","","","","","","","","","","","","","",""
"learning-trial","58","299711","0.0-8.0-2.0-1.8","1858","1","2","""event"",""trial"",""time""
""fullscreenenter"",""1"",""2447""
","
","
","""event"",""trial"",""time""
""fullscreenenter"",""1"",""2447""
","
","","","","","","1463.7999999988824","images/ball3.png","","","practice","images/park2.png","images/park1.png","images/park3.png","[1,0,2]","0","1","3","images/park3.png","-1","practice","","","",""
"html-keyboard-response","59","300216","0.0-8.0-2.0-0.9","1858","1","2","""event"",""trial"",""time""
""fullscreenenter"",""1"",""2447""
","
","
","""event"",""trial"",""time""
""fullscreenenter"",""1"",""2447""
","
","","","","","","null","<div style=""font-size:60px;"">+</div>","null","","fixation","","","","","","","","","","","","","",""
"learning-trial","60","304222","0.0-8.0-2.0-1.9","1858","1","2","""event"",""trial"",""time""
""fullscreenenter"",""1"",""2447""
","
","
","""event"",""trial"",""time""
""fullscreenenter"",""1"",""2447""
","
","","","","","","1870.0999999996275","images/ball4.png","","","practice","images/park3.png","images/park1.png","images/park2.png","[2,0,1]","1","2","1","images/park3.png","-1","practice","","","",""
"html-keyboard-response","61","304726","0.0-8.0-2.0-0.10","1858","1","2","""event"",""trial"",""time""
""fullscreenenter"",""1"",""2447""
","
","
","""event"",""trial"",""time""
""fullscreenenter"",""1"",""2447""
","
","","","","","","null","<div style=""font-size:60px;"">+</div>","null","","fixation","","","","","","","","","","","","","",""
"learning-trial","62","308732","0.0-8.0-2.0-1.10","1858","1","2","""event"",""trial"",""time""
""fullscreenenter"",""1"",""2447""
","
","
","""event"",""trial"",""time""
""fullscreenenter"",""1"",""2447""
","
","","","","","","1792.8999999985099","images/racket1.png","","","practice","images/park2.png","images/park1.png","images/park3.png","[1,0,2]","0","1","1","images/park2.png","-1","practice","","","",""
"html-keyboard-response","63","309237","0.0-8.0-2.0-0.11","1858","1","2","""event"",""trial"",""time""
""fullscreenenter"",""1"",""2447""
","
","
","""event"",""trial"",""time""
""fullscreenenter"",""1"",""2447""
","
","","","","","","null","<div style=""font-size:60px;"">+</div>","null","","fixation","","","","","","","","","","","","","",""
"learning-trial","64","313242","0.0-8.0-2.0-1.11","1858","1","2","""event"",""trial"",""time""
""fullscreenenter"",""1"",""2447""
","
","
","""event"",""trial"",""time""
""fullscreenenter"",""1"",""2447""
","
","","","","","","1624.9000000003725","images/racket2.png","","","practice","images/park1.png","images/park2.png","images/park3.png","[0,1,2]","2","2","2","images/park2.png","-1","practice","","","",""
"html-button-response","65","315003","0.0-8.0-3.0","1858","1","2","""event"",""trial"",""time""
""fullscreenenter"",""1"",""2447""
","
","
","""event"",""trial"",""time""
""fullscreenenter"",""1"",""2447""
","
","","","","","","1758.9000000003725","<p> You earned -2 points in the practice round! </p>","0","","break","","","","","","","","","","","","","",""
"learning-instructions","66","325072","0.0-8.0-4.0-0.0","1858","1","2","""event"",""trial"",""time""
""fullscreenenter"",""1"",""2447""
","
","
","""event"",""trial"",""time""
""fullscreenenter"",""1"",""2447""
","
","","","","","","2390.9000000003725","<p> It's almost time to start the real game. </p><p> Before you start, we're going to ask you a few questions about how the game works. </p>","","0","instructions","","","","","","","","","","","","","",""
"preload","67","329177","0.0-8.0-5.0","1858","1","2","""event"",""trial"",""time""
""fullscreenenter"",""1"",""2447""
","
","
","""event"",""trial"",""time""
""fullscreenenter"",""1"",""2447""
","
","true","false","[]","[]","[]","","","","","","","","","","","","","","","","","","",""
"comp-q","68","335626","0.0-8.0-6.0-0.0","1858","1","2","""event"",""trial"",""time""
""fullscreenenter"",""1"",""2447""
","
","
","""event"",""trial"",""time""
""fullscreenenter"",""1"",""2447""
","
","","","","","","998.1000000014901","<p> <b> True or False? </b> </p><p> If you choose the best option, you will always earn 1 point. </p>","","1","comp_question","","","","","","","","","","","true","","",""
"comp-q","69","342860","0.0-8.0-6.0-1.0","1858","1","2","""event"",""trial"",""time""
""fullscreenenter"",""1"",""2447""
","
","
","""event"",""trial"",""time""
""fullscreenenter"",""1"",""2447""
","
","","","","","","1574.0999999996275","<p><b> That's right! </b> Sometimes you will lose 1 point, even if you choose the best option. </p>","","0","comp_answer","","","","","","","","","","","","","",""
"comp-q","70","349431","0.0-8.0-6.0-0.1","1858","1","2","""event"",""trial"",""time""
""fullscreenenter"",""1"",""2447""
","
","
","""event"",""trial"",""time""
""fullscreenenter"",""1"",""2447""
","
","","","","","","1938.9000000003725","<p> <b> True or False? </b> </p><p> You will have as much time as you want to make each choice. </p>","","1","comp_question","","","","","","","","","","","true","","",""
"comp-q","71","355168","0.0-8.0-6.0-1.1","1858","1","2","""event"",""trial"",""time""
""fullscreenenter"",""1"",""2447""
","
","
","""event"",""trial"",""time""
""fullscreenenter"",""1"",""2447""
","
","","","","","","919.5999999996275","<p> <b> That's right! </b> You will only have 4 seconds to make each choice. </p>","","0","comp_answer","","","","","","","","","","","","","",""
"comp-q","72","362954","0.0-8.0-6.0-0.2","1858","1","2","""event"",""trial"",""time""
""fullscreenenter"",""1"",""2447""
","
","
","""event"",""trial"",""time""
""fullscreenenter"",""1"",""2447""
","
","","","","","","1634.7000000011176","<p> <b> True or False? </b> </p><p> You should use the '1', '2', and '3' keys to make your choices. </p>","","0","comp_question","","","","","","","","","","","true","","",""
"comp-q","73","368928","0.0-8.0-6.0-1.2","1858","1","2","""event"",""trial"",""time""
""fullscreenenter"",""1"",""2447""
","
","
","""event"",""trial"",""time""
""fullscreenenter"",""1"",""2447""
","
","","","","","","1130.5999999996275","<p> <b> That's right! </b> You should use the '1', '2', and '3' keys to make each choice. </p>","","0","comp_answer","","","","","","","","","","","","","",""
"learning-instructions","74","378975","0.0-8.0-7.0-0.0","1858","1","2","""event"",""trial"",""time""
""fullscreenenter"",""1"",""2447""
","
","
","""event"",""trial"",""time""
""fullscreenenter"",""1"",""2447""
","
","","","","","","1558.5999999996275","<p> It's now time to start the real game. </p>Do your best, because the points you earn in the next rounds will influence your bonus payment. </p>","","0","instructions","","","","","","","","","","","","","",""
"preload","75","384693","0.0-9.0-0.0","1858","1","2","""event"",""trial"",""time""
""fullscreenenter"",""1"",""2447""
","
","
","""event"",""trial"",""time""
""fullscreenenter"",""1"",""2447""
","
","true","false","[]","[]","[]","","","","","","","","","","","","","","","","","","",""
"learning-instructions","76","393016","0.0-9.0-1.0-0.0","1858","1","2","""event"",""trial"",""time""
""fullscreenenter"",""1"",""2447""
","
","
","""event"",""trial"",""time""
""fullscreenenter"",""1"",""2447""
","
","","","","","","541.5","<p> Your goal in this round is to deliver furniture to three different buildings. </p><p> You will need to deliver many pieces of furniture. </p></div>","","0","instructions","","","","","","","","","","","","","",""
"learning-instructions","77","400993","0.0-9.0-1.0-0.1","1858","1","2","""event"",""trial"",""time""
""fullscreenenter"",""1"",""2447""
","
","
","""event"",""trial"",""time""
""fullscreenenter"",""1"",""2447""
","
","","","","","","542.5999999996275","<p> On each turn, you will see a picture of a furniture item and three different buildings.  </p><p> You need to select the building that you want to deliver the furniture to.  </p>","","0","instructions","","","","","","","","","","","","","",""
"learning-instructions","78","410534","0.0-9.0-1.0-0.2","1858","1","2","""event"",""trial"",""time""
""fullscreenenter"",""1"",""2447""
","
","
","""event"",""trial"",""time""
""fullscreenenter"",""1"",""2447""
","
","","","","","","1253.699999999255","<p> You can select the building on the left by pressing 1, the building in the middle by pressing 2, and the building on the right by pressing 3.  </p><br><div class=""choice-instructions-grid""> <div class=""choice-option""><img src=""images/furniture_choice1.png"" class=""choice-option-img"" stage=""instructions"" position=""0"" ><div class=""choice-option-text""> Press ""1."" </div></div><div class=""choice-option""><img src=""images/furniture_choice2.png"" class=""choice-option-img"" stage=""instructions"" position=""1"" ><div class=""choice-option-text""> Press ""2."" </div></div><div class=""choice-option""><img src=""images/furniture_choice3.png"" class=""choice-option-img"" stage=""instructions"" position=""2"" ><div class=""choice-option-text""> Press ""3."" </div></div></div>","","0","instructions","","","","","","","","","","","","","",""
"learning-instructions","79","417149","0.0-9.0-1.0-0.3","1858","1","2","""event"",""trial"",""time""
""fullscreenenter"",""1"",""2447""
","
","
","""event"",""trial"",""time""
""fullscreenenter"",""1"",""2447""
","
","","","","","","595.5","<p> If the furniture belongs in the building you chose, the building owner will likely be very happy! </p><div style='float: center;'><img src='images/check.png' width = '200' height = '200'></img>","","0","instructions","","","","","","","","","","","","","",""
"learning-instructions","80","423663","0.0-9.0-1.0-0.4","1858","1","2","""event"",""trial"",""time""
""fullscreenenter"",""1"",""2447""
","
","
","""event"",""trial"",""time""
""fullscreenenter"",""1"",""2447""
","
","","","","","","526.6000000014901","<p> But, if the furniture does not belong in the building you chose, the owner will likely be mad. </p><div style='float: center;'><img src='images/x.png' width = '200' height = '200'></img>","","0","instructions","","","","","","","","","","","","","",""
"learning-instructions","81","435443","0.0-9.0-1.0-0.5","1858","1","2","""event"",""trial"",""time""
""fullscreenenter"",""1"",""2447""
","
","
","""event"",""trial"",""time""
""fullscreenenter"",""1"",""2447""
","
","","","","","","569.5999999996275","<p> Importantly, each piece of furniture belongs in one of the three buildings. </p><p> If you choose the correct building for the piece of furniture, you will be more likely to make the building owner happy! </p>","","0","instructions","","","","","","","","","","","","","",""
"learning-instructions","82","447481","0.0-9.0-1.0-0.6","1858","1","2","""event"",""trial"",""time""
""fullscreenenter"",""1"",""2447""
","
","
","""event"",""trial"",""time""
""fullscreenenter"",""1"",""2447""
","
","","","","","","527.2999999988824","<p> However, even if you choose the best building for the furniture, the owner may still be mad sometimes. </p><p> Similarly, even if you choose the <i>wrong</i> building, the owner may still be happy.","","0","instructions","","","","","","","","","","","","","",""
"learning-instructions","83","461252","0.0-9.0-1.0-0.7","1858","1","2","""event"",""trial"",""time""
""fullscreenenter"",""1"",""2447""
","
","
","""event"",""trial"",""time""
""fullscreenenter"",""1"",""2447""
","
","","","","","","529","<p> Try to choose the best building for each piece of furniture, because you will <b> WIN </b> 1 point each time a building owner is happy and <b>LOSE</b>  1 point each time a building owner is mad. </p><p> Your bonus payment will depend on your total number of points.","","0","instructions","","","","","","","","","","","","","",""
"learning-instructions","84","470703","0.0-9.0-1.0-0.8","1858","1","2","""event"",""trial"",""time""
""fullscreenenter"",""1"",""2447""
","
","
","""event"",""trial"",""time""
""fullscreenenter"",""1"",""2447""
","
","","","","","","488.7999999988824","<p> The position of each building will change throughout the round. </p><p> The building's position <i> does not </i> influence how likely the owner is to be happy or mad. </p>","","0","instructions","","","","","","","","","","","","","",""
"learning-instructions","85","480469","0.0-9.0-1.0-0.9","1858","1","2","""event"",""trial"",""time""
""fullscreenenter"",""1"",""2447""
","
","
","""event"",""trial"",""time""
""fullscreenenter"",""1"",""2447""
","
","","","","","","473.1000000014901","<p> You will have 4 seconds to make each choice. Try to respond before time runs out! </p><p> You will lose 1 point each time you do not make a response. </p>","","0","instructions","","","","","","","","","","","","","",""
"html-keyboard-response","86","481075","0.0-9.0-2.0-0.0","1858","1","2","""event"",""trial"",""time""
""fullscreenenter"",""1"",""2447""
","
","
","""event"",""trial"",""time""
""fullscreenenter"",""1"",""2447""
","
","","","","","","null","<div style=""font-size:60px;"">+</div>","null","","fixation","","","","","","","","","","","","","",""
"learning-trial","87","485081","0.0-9.0-2.0-1.0","1858","1","2","""event"",""trial"",""time""
""fullscreenenter"",""1"",""2447""
","
","
","""event"",""trial"",""time""
""fullscreenenter"",""1"",""2447""
","
","","","","","","945","images/chair2.png","","","learning","images/furniture_choice2.png","images/furniture_choice3.png","images/furniture_choice1.png","[1,2,0]","0","2","1","images/furniture_choice2.png","-1","furniture","","chair","1","0"
"html-keyboard-response","88","485585","0.0-9.0-2.0-0.1","1858","1","2","""event"",""trial"",""time""
""fullscreenenter"",""1"",""2447""
","
","
","""event"",""trial"",""time""
""fullscreenenter"",""1"",""2447""
","
","","","","","","null","<div style=""font-size:60px;"">+</div>","null","","fixation","","","","","","","","","","","","","",""
"learning-trial","89","489591","0.0-9.0-2.0-1.1","1858","1","2","""event"",""trial"",""time""
""fullscreenenter"",""1"",""2447""
","
","
","""event"",""trial"",""time""
""fullscreenenter"",""1"",""2447""
","
","","","","","","1486","images/bed4.png","","","learning","images/furniture_choice2.png","images/furniture_choice1.png","images/furniture_choice3.png","[1,0,2]","2","2","2","images/furniture_choice1.png","-1","furniture","","bed","1","0"
"html-keyboard-response","90","490096","0.0-9.0-2.0-0.2","1858","1","2","""event"",""trial"",""time""
""fullscreenenter"",""1"",""2447""
","
","
","""event"",""trial"",""time""
""fullscreenenter"",""1"",""2447""
","
","","","","","","null","<div style=""font-size:60px;"">+</div>","null","","fixation","","","","","","","","","","","","","",""
"learning-trial","91","494098","0.0-9.0-2.0-1.2","1858","1","2","""event"",""trial"",""time""
""fullscreenenter"",""1"",""2447""
","
","
","""event"",""trial"",""time""
""fullscreenenter"",""1"",""2447""
","
","","","","","","1386.5","images/bed3.png","","","learning","images/furniture_choice2.png","images/furniture_choice1.png","images/furniture_choice3.png","[1,0,2]","2","2","1","images/furniture_choice2.png","1","furniture","","bed","1","0"
"html-keyboard-response","92","494599","0.0-9.0-2.0-0.3","1858","1","2","""event"",""trial"",""time""
""fullscreenenter"",""1"",""2447""
","
","
","""event"",""trial"",""time""
""fullscreenenter"",""1"",""2447""
","
","","","","","","null","<div style=""font-size:60px;"">+</div>","null","","fixation","","","","","","","","","","","","","",""
"learning-trial","93","498600","0.0-9.0-2.0-1.3","1858","1","2","""event"",""trial"",""time""
""fullscreenenter"",""1"",""2447""
","
","
","""event"",""trial"",""time""
""fullscreenenter"",""1"",""2447""
","
","","","","","","1496","images/bed5.png","","","learning","images/furniture_choice1.png","images/furniture_choice2.png","images/furniture_choice3.png","[0,1,2]","2","2","1","images/furniture_choice1.png","1","furniture","","bed","1","0"
"html-keyboard-response","94","499101","0.0-9.0-2.0-0.4","1858","1","2","""event"",""trial"",""time""
""fullscreenenter"",""1"",""2447""
","
","
","""event"",""trial"",""time""
""fullscreenenter"",""1"",""2447""
","
","","","","","","null","<div style=""font-size:60px;"">+</div>","null","","fixation","","","","","","","","","","","","","",""
"learning-trial","95","503104","0.0-9.0-2.0-1.4","1858","1","2","""event"",""trial"",""time""
""fullscreenenter"",""1"",""2447""
","
","
","""event"",""trial"",""time""
""fullscreenenter"",""1"",""2447""
","
","","","","","","1167.5","images/chair2.png","","","learning","images/furniture_choice2.png","images/furniture_choice1.png","images/furniture_choice3.png","[1,0,2]","0","1","3","images/furniture_choice3.png","-1","furniture","","chair","1","0"
"html-keyboard-response","96","503604","0.0-9.0-2.0-0.5","1858","1","2","""event"",""trial"",""time""
""fullscreenenter"",""1"",""2447""
","
","
","""event"",""trial"",""time""
""fullscreenenter"",""1"",""2447""
","
","","","","","","null","<div style=""font-size:60px;"">+</div>","null","","fixation","","","","","","","","","","","","","",""
"learning-trial","97","507609","0.0-9.0-2.0-1.5","1858","1","2","""event"",""trial"",""time""
""fullscreenenter"",""1"",""2447""
","
","
","""event"",""trial"",""time""
""fullscreenenter"",""1"",""2447""
","
","","","","","","1299.7000000011176","images/sofa1.png","","","learning","images/furniture_choice2.png","images/furniture_choice3.png","images/furniture_choice1.png","[1,2,0]","1","0","1","images/furniture_choice2.png","1","furniture","","sofa","1","0"
"html-keyboard-response","98","508114","0.0-9.0-2.0-0.6","1858","1","2","""event"",""trial"",""time""
""fullscreenenter"",""1"",""2447""
","
","
","""event"",""trial"",""time""
""fullscreenenter"",""1"",""2447""
","
","","","","","","null","<div style=""font-size:60px;"">+</div>","null","","fixation","","","","","","","","","","","","","",""
"learning-trial","99","512119","0.0-9.0-2.0-1.6","1858","1","2","""event"",""trial"",""time""
""fullscreenenter"",""1"",""2447""
","
","
","""event"",""trial"",""time""
""fullscreenenter"",""1"",""2447""
","
","","","","","","1650.7999999988824","images/sofa5.png","","","learning","images/furniture_choice1.png","images/furniture_choice3.png","images/furniture_choice2.png","[0,2,1]","1","2","2","images/furniture_choice3.png","1","furniture","","sofa","1","0"
"html-keyboard-response","100","512624","0.0-9.0-2.0-0.7","1858","1","2","""event"",""trial"",""time""
""fullscreenenter"",""1"",""2447""
","
","
","""event"",""trial"",""time""
""fullscreenenter"",""1"",""2447""
","
","","","","","","null","<div style=""font-size:60px;"">+</div>","null","","fixation","","","","","","","","","","","","","",""
"learning-trial","101","516631","0.0-9.0-2.0-1.7","1858","1","2","""event"",""trial"",""time""
""fullscreenenter"",""1"",""2447""
","
","
","""event"",""trial"",""time""
""fullscreenenter"",""1"",""2447""
","
","","","","","","1752.6000000014901","images/bed5.png","","","learning","images/furniture_choice2.png","images/furniture_choice1.png","images/furniture_choice3.png","[1,0,2]","2","2","2","images/furniture_choice1.png","-1","furniture","","bed","1","0"
"html-keyboard-response","102","517136","0.0-9.0-2.0-0.8","1858","1","2","""event"",""trial"",""time""
""fullscreenenter"",""1"",""2447""
","
","
","""event"",""trial"",""time""
""fullscreenenter"",""1"",""2447""
","
","","","","","","null","<div style=""font-size:60px;"">+</div>","null","","fixation","","","","","","","","","","","","","",""
"learning-trial","103","521142","0.0-9.0-2.0-1.8","1858","1","2","""event"",""trial"",""time""
""fullscreenenter"",""1"",""2447""
","
","
","""event"",""trial"",""time""
""fullscreenenter"",""1"",""2447""
","
","","","","","","1369.800000000745","images/sofa2.png","","","learning","images/furniture_choice2.png","images/furniture_choice3.png","images/furniture_choice1.png","[1,2,0]","1","0","1","images/furniture_choice2.png","1","furniture","","sofa","1","0"
"html-keyboard-response","104","521647","0.0-9.0-2.0-0.9","1858","1","2","""event"",""trial"",""time""
""fullscreenenter"",""1"",""2447""
","
","
","""event"",""trial"",""time""
""fullscreenenter"",""1"",""2447""
","
","","","","","","null","<div style=""font-size:60px;"">+</div>","null","","fixation","","","","","","","","","","","","","",""
"learning-trial","105","525652","0.0-9.0-2.0-1.9","1858","1","2","""event"",""trial"",""time""
""fullscreenenter"",""1"",""2447""
","
","
","""event"",""trial"",""time""
""fullscreenenter"",""1"",""2447""
","
","","","","","","1494.7999999988824","images/chair5.png","","","learning","images/furniture_choice2.png","images/furniture_choice1.png","images/furniture_choice3.png","[1,0,2]","0","1","3","images/furniture_choice3.png","-1","furniture","","chair","1","0"
"html-keyboard-response","106","526157","0.0-9.0-2.0-0.10","1858","1","2","""event"",""trial"",""time""
""fullscreenenter"",""1"",""2447""
","
","
","""event"",""trial"",""time""
""fullscreenenter"",""1"",""2447""
","
","","","","","","null","<div style=""font-size:60px;"">+</div>","null","","fixation","","","","","","","","","","","","","",""
"learning-trial","107","530163","0.0-9.0-2.0-1.10","1858","1","2","""event"",""trial"",""time""
""fullscreenenter"",""1"",""2447""
","
","
","""event"",""trial"",""time""
""fullscreenenter"",""1"",""2447""
","
","","","","","","1484.7999999988824","images/bed5.png","","","learning","images/furniture_choice2.png","images/furniture_choice1.png","images/furniture_choice3.png","[1,0,2]","2","2","1","images/furniture_choice2.png","-1","furniture","","bed","1","0"
"html-keyboard-response","108","530668","0.0-9.0-2.0-0.11","1858","1","2","""event"",""trial"",""time""
""fullscreenenter"",""1"",""2447""
","
","
","""event"",""trial"",""time""
""fullscreenenter"",""1"",""2447""
","
","","","","","","null","<div style=""font-size:60px;"">+</div>","null","","fixation","","","","","","","","","","","","","",""
"learning-trial","109","534673","0.0-9.0-2.0-1.11","1858","1","2","""event"",""trial"",""time""
""fullscreenenter"",""1"",""2447""
","
","
","""event"",""trial"",""time""
""fullscreenenter"",""1"",""2447""
","
","","","","","","979.6999999992549","images/bed5.png","","","learning","images/furniture_choice2.png","images/furniture_choice3.png","images/furniture_choice1.png","[1,2,0]","2","1","2","images/furniture_choice3.png","1","furniture","","bed","1","0"
"html-keyboard-response","110","535178","0.0-9.0-2.0-0.12","1858","1","2","""event"",""trial"",""time""
""fullscreenenter"",""1"",""2447""
","
","
","""event"",""trial"",""time""
""fullscreenenter"",""1"",""2447""
","
","","","","","","null","<div style=""font-size:60px;"">+</div>","null","","fixation","","","","","","","","","","","","","",""
"learning-trial","111","539184","0.0-9.0-2.0-1.12","1858","1","2","""event"",""trial"",""time""
""fullscreenenter"",""1"",""2447""
","
","
","""event"",""trial"",""time""
""fullscreenenter"",""1"",""2447""
","
","","","","","","1183","images/chair5.png","","","learning","images/furniture_choice3.png","images/furniture_choice1.png","images/furniture_choice2.png","[2,0,1]","0","1","2","images/furniture_choice1.png","1","furniture","","chair","1","0"
"html-keyboard-response","112","539689","0.0-9.0-2.0-0.13","1858","1","2","""event"",""trial"",""time""
""fullscreenenter"",""1"",""2447""
","
","
","""event"",""trial"",""time""
""fullscreenenter"",""1"",""2447""
","
","","","","","","null","<div style=""font-size:60px;"">+</div>","null","","fixation","","","","","","","","","","","","","",""
"learning-trial","113","543694","0.0-9.0-2.0-1.13","1858","1","2","""event"",""trial"",""time""
""fullscreenenter"",""1"",""2447""
","
","
","""event"",""trial"",""time""
""fullscreenenter"",""1"",""2447""
","
","","","","","","1656.7999999988824","images/sofa1.png","","","learning","images/furniture_choice2.png","images/furniture_choice1.png","images/furniture_choice3.png","[1,0,2]","1","0","3","images/furniture_choice3.png","-1","furniture","","sofa","1","0"
"html-keyboard-response","114","544195","0.0-9.0-2.0-0.14","1858","1","2","""event"",""trial"",""time""
""fullscreenenter"",""1"",""2447""
","
","
","""event"",""trial"",""time""
""fullscreenenter"",""1"",""2447""
","
","","","","","","null","<div style=""font-size:60px;"">+</div>","null","","fixation","","","","","","","","","","","","","",""
"learning-trial","115","548198","0.0-9.0-2.0-1.14","1858","1","2","""event"",""trial"",""time""
""fullscreenenter"",""1"",""2447""
","
","
","""event"",""trial"",""time""
""fullscreenenter"",""1"",""2447""
","
","","","","","","1121.9000000003725","images/chair4.png","","","learning","images/furniture_choice1.png","images/furniture_choice2.png","images/furniture_choice3.png","[0,1,2]","0","0","1","images/furniture_choice1.png","1","furniture","","chair","1","0"
"html-keyboard-response","116","548701","0.0-9.0-2.0-0.15","1858","1","2","""event"",""trial"",""time""
""fullscreenenter"",""1"",""2447""
","
","
","""event"",""trial"",""time""
""fullscreenenter"",""1"",""2447""
","
","","","","","","null","<div style=""font-size:60px;"">+</div>","null","","fixation","","","","","","","","","","","","","",""
"learning-trial","117","552703","0.0-9.0-2.0-1.15","1858","1","2","""event"",""trial"",""time""
""fullscreenenter"",""1"",""2447""
","
","
","""event"",""trial"",""time""
""fullscreenenter"",""1"",""2447""
","
","","","","","","2264.300000000745","images/bed4.png","","","learning","images/furniture_choice2.png","images/furniture_choice3.png","images/furniture_choice1.png","[1,2,0]","2","1","1","images/furniture_choice2.png","-1","furniture","","bed","1","0"
"html-keyboard-response","118","553206","0.0-9.0-2.0-0.16","1858","1","2","""event"",""trial"",""time""
""fullscreenenter"",""1"",""2447""
","
","
","""event"",""trial"",""time""
""fullscreenenter"",""1"",""2447""
","
","","","","","","null","<div style=""font-size:60px;"">+</div>","null","","fixation","","","","","","","","","","","","","",""
"learning-trial","119","557208","0.0-9.0-2.0-1.16","1858","1","2","""event"",""trial"",""time""
""fullscreenenter"",""1"",""2447""
","
","
","""event"",""trial"",""time""
""fullscreenenter"",""1"",""2447""
","
","","","","","","2067.89999999851","images/sofa2.png","","","learning","images/furniture_choice3.png","images/furniture_choice2.png","images/furniture_choice1.png","[2,1,0]","1","1","1","images/furniture_choice3.png","-1","furniture","","sofa","1","0"
"html-keyboard-response","120","557712","0.0-9.0-2.0-0.17","1858","1","2","""event"",""trial"",""time""
""fullscreenenter"",""1"",""2447""
","
","
","""event"",""trial"",""time""
""fullscreenenter"",""1"",""2447""
","
","","","","","","null","<div style=""font-size:60px;"">+</div>","null","","fixation","","","","","","","","","","","","","",""
"learning-trial","121","561718","0.0-9.0-2.0-1.17","1858","1","2","""event"",""trial"",""time""
""fullscreenenter"",""1"",""2447""
","
","
","""event"",""trial"",""time""
""fullscreenenter"",""1"",""2447""
","
","","","","","","1083.0999999996275","images/sofa1.png","","","learning","images/furniture_choice2.png","images/furniture_choice3.png","images/furniture_choice1.png","[1,2,0]","1","0","2","images/furniture_choice3.png","-1","furniture","","sofa","1","0"
"html-keyboard-response","122","562223","0.0-9.0-2.0-0.18","1858","1","2","""event"",""trial"",""time""
""fullscreenenter"",""1"",""2447""
","
","
","""event"",""trial"",""time""
""fullscreenenter"",""1"",""2447""
","
","","","","","","null","<div style=""font-size:60px;"">+</div>","null","","fixation","","","","","","","","","","","","","",""
"learning-trial","123","566229","0.0-9.0-2.0-1.18","1858","1","2","""event"",""trial"",""time""
""fullscreenenter"",""1"",""2447""
","
","
","""event"",""trial"",""time""
""fullscreenenter"",""1"",""2447""
","
","","","","","","1150.699999999255","images/sofa2.png","","","learning","images/furniture_choice3.png","images/furniture_choice2.png","images/furniture_choice1.png","[2,1,0]","1","1","3","images/furniture_choice1.png","-1","furniture","","sofa","1","0"
"html-keyboard-response","124","566734","0.0-9.0-2.0-0.19","1858","1","2","""event"",""trial"",""time""
""fullscreenenter"",""1"",""2447""
","
","
","""event"",""trial"",""time""
""fullscreenenter"",""1"",""2447""
","
","","","","","","null","<div style=""font-size:60px;"">+</div>","null","","fixation","","","","","","","","","","","","","",""
"learning-trial","125","570739","0.0-9.0-2.0-1.19","1858","1","2","""event"",""trial"",""time""
""fullscreenenter"",""1"",""2447""
","
","
","""event"",""trial"",""time""
""fullscreenenter"",""1"",""2447""
","
","","","","","","1208.5","images/chair4.png","","","learning","images/furniture_choice2.png","images/furniture_choice3.png","images/furniture_choice1.png","[1,2,0]","0","2","3","images/furniture_choice1.png","1","furniture","","chair","1","0"
"html-keyboard-response","126","571244","0.0-9.0-2.0-0.20","1858","1","2","""event"",""trial"",""time""
""fullscreenenter"",""1"",""2447""
","
","
","""event"",""trial"",""time""
""fullscreenenter"",""1"",""2447""
","
","","","","","","null","<div style=""font-size:60px;"">+</div>","null","","fixation","","","","","","","","","","","","","",""
"learning-trial","127","575250","0.0-9.0-2.0-1.20","1858","1","2","""event"",""trial"",""time""
""fullscreenenter"",""1"",""2447""
","
","
","""event"",""trial"",""time""
""fullscreenenter"",""1"",""2447""
","
","","","","","","1738.2999999988824","images/bed5.png","","","learning","images/furniture_choice1.png","images/furniture_choice3.png","images/furniture_choice2.png","[0,2,1]","2","1","2","images/furniture_choice3.png","1","furniture","","bed","1","0"
"html-keyboard-response","128","575755","0.0-9.0-2.0-0.21","1858","1","2","""event"",""trial"",""time""
""fullscreenenter"",""1"",""2447""
","
","
","""event"",""trial"",""time""
""fullscreenenter"",""1"",""2447""
","
","","","","","","null","<div style=""font-size:60px;"">+</div>","null","","fixation","","","","","","","","","","","","","",""
"learning-trial","129","579760","0.0-9.0-2.0-1.21","1858","1","2","""event"",""trial"",""time""
""fullscreenenter"",""1"",""2447""
","
","
","""event"",""trial"",""time""
""fullscreenenter"",""1"",""2447""
","
","","","","","","1964.9000000003725","images/bed3.png","","","learning","images/furniture_choice3.png","images/furniture_choice1.png","images/furniture_choice2.png","[2,0,1]","2","0","3","images/furniture_choice2.png","-1","furniture","","bed","1","0"
"html-keyboard-response","130","580265","0.0-9.0-2.0-0.22","1858","1","2","""event"",""trial"",""time""
""fullscreenenter"",""1"",""2447""
","
","
","""event"",""trial"",""time""
""fullscreenenter"",""1"",""2447""
","
","","","","","","null","<div style=""font-size:60px;"">+</div>","null","","fixation","","","","","","","","","","","","","",""
"learning-trial","131","584271","0.0-9.0-2.0-1.22","1858","1","2","""event"",""trial"",""time""
""fullscreenenter"",""1"",""2447""
","
","
","""event"",""trial"",""time""
""fullscreenenter"",""1"",""2447""
","
","","","","","","1313.5","images/bed3.png","","","learning","images/furniture_choice3.png","images/furniture_choice2.png","images/furniture_choice1.png","[2,1,0]","2","0","3","images/furniture_choice1.png","-1","furniture","","bed","1","0"
"html-keyboard-response","132","584776","0.0-9.0-2.0-0.23","1858","1","2","""event"",""trial"",""time""
""fullscreenenter"",""1"",""2447""
","
","
","""event"",""trial"",""time""
""fullscreenenter"",""1"",""2447""
","
","","","","","","null","<div style=""font-size:60px;"">+</div>","null","","fixation","","","","","","","","","","","","","",""
"learning-trial","133","588781","0.0-9.0-2.0-1.23","1858","1","2","""event"",""trial"",""time""
""fullscreenenter"",""1"",""2447""
","
","
","""event"",""trial"",""time""
""fullscreenenter"",""1"",""2447""
","
","","","","","","987.8999999985099","images/sofa5.png","","","learning","images/furniture_choice3.png","images/furniture_choice1.png","images/furniture_choice2.png","[2,0,1]","1","2","2","images/furniture_choice1.png","-1","furniture","","sofa","1","0"
"html-keyboard-response","134","589286","0.0-9.0-2.0-0.24","1858","1","2","""event"",""trial"",""time""
""fullscreenenter"",""1"",""2447""
","
","
","""event"",""trial"",""time""
""fullscreenenter"",""1"",""2447""
","
","","","","","","null","<div style=""font-size:60px;"">+</div>","null","","fixation","","","","","","","","","","","","","",""
"learning-trial","135","593292","0.0-9.0-2.0-1.24","1858","1","2","""event"",""trial"",""time""
""fullscreenenter"",""1"",""2447""
","
","
","""event"",""trial"",""time""
""fullscreenenter"",""1"",""2447""
","
","","","","","","1438.800000000745","images/bed5.png","","","learning","images/furniture_choice3.png","images/furniture_choice1.png","images/furniture_choice2.png","[2,0,1]","2","0","1","images/furniture_choice3.png","1","furniture","","bed","1","0"
"html-keyboard-response","136","593796","0.0-9.0-2.0-0.25","1858","1","2","""event"",""trial"",""time""
""fullscreenenter"",""1"",""2447""
","
","
","""event"",""trial"",""time""
""fullscreenenter"",""1"",""2447""
","
","","","","","","null","<div style=""font-size:60px;"">+</div>","null","","fixation","","","","","","","","","","","","","",""
"learning-trial","137","597798","0.0-9.0-2.0-1.25","1858","1","2","""event"",""trial"",""time""
""fullscreenenter"",""1"",""2447""
","
","
","""event"",""trial"",""time""
""fullscreenenter"",""1"",""2447""
","
","","","","","","2363.300000000745","images/sofa2.png","","","learning","images/furniture_choice3.png","images/furniture_choice1.png","images/furniture_choice2.png","[2,0,1]","1","2","1","images/furniture_choice3.png","-1","furniture","","sofa","1","0"
"html-keyboard-response","138","598300","0.0-9.0-2.0-0.26","1858","1","2","""event"",""trial"",""time""
""fullscreenenter"",""1"",""2447""
","
","
","""event"",""trial"",""time""
""fullscreenenter"",""1"",""2447""
","
","","","","","","null","<div style=""font-size:60px;"">+</div>","null","","fixation","","","","","","","","","","","","","",""
"learning-trial","139","602304","0.0-9.0-2.0-1.26","1858","1","2","""event"",""trial"",""time""
""fullscreenenter"",""1"",""2447""
","
","
","""event"",""trial"",""time""
""fullscreenenter"",""1"",""2447""
","
","","","","","","1324.4000000003725","images/sofa1.png","","","learning","images/furniture_choice1.png","images/furniture_choice3.png","images/furniture_choice2.png","[0,2,1]","1","2","2","images/furniture_choice3.png","-1","furniture","","sofa","1","0"
"html-keyboard-response","140","602806","0.0-9.0-2.0-0.27","1858","1","2","""event"",""trial"",""time""
""fullscreenenter"",""1"",""2447""
","
","
","""event"",""trial"",""time""
""fullscreenenter"",""1"",""2447""
","
","","","","","","null","<div style=""font-size:60px;"">+</div>","null","","fixation","","","","","","","","","","","","","",""
"learning-trial","141","606811","0.0-9.0-2.0-1.27","1858","1","2","""event"",""trial"",""time""
""fullscreenenter"",""1"",""2447""
","
","
","""event"",""trial"",""time""
""fullscreenenter"",""1"",""2447""
","
","","","","","","1341.5999999996275","images/chair5.png","","","learning","images/furniture_choice2.png","images/furniture_choice1.png","images/furniture_choice3.png","[1,0,2]","0","1","2","images/furniture_choice1.png","1","furniture","","chair","1","0"
"html-keyboard-response","142","607316","0.0-9.0-2.0-0.28","1858","1","2","""event"",""trial"",""time""
""fullscreenenter"",""1"",""2447""
","
","
","""event"",""trial"",""time""
""fullscreenenter"",""1"",""2447""
","
","","","","","","null","<div style=""font-size:60px;"">+</div>","null","","fixation","","","","","","","","","","","","","",""
"learning-trial","143","611322","0.0-9.0-2.0-1.28","1858","1","2","""event"",""trial"",""time""
""fullscreenenter"",""1"",""2447""
","
","
","""event"",""trial"",""time""
""fullscreenenter"",""1"",""2447""
","
","","","","","","1804","images/sofa5.png","","","learning","images/furniture_choice3.png","images/furniture_choice2.png","images/furniture_choice1.png","[2,1,0]","1","1","3","images/furniture_choice1.png","-1","furniture","","sofa","1","0"
"html-keyboard-response","144","611827","0.0-9.0-2.0-0.29","1858","1","2","""event"",""trial"",""time""
""fullscreenenter"",""1"",""2447""
","
","
","""event"",""trial"",""time""
""fullscreenenter"",""1"",""2447""
","
","","","","","","null","<div style=""font-size:60px;"">+</div>","null","","fixation","","","","","","","","","","","","","",""
"learning-trial","145","615832","0.0-9.0-2.0-1.29","1858","1","2","""event"",""trial"",""time""
""fullscreenenter"",""1"",""2447""
","
","
","""event"",""trial"",""time""
""fullscreenenter"",""1"",""2447""
","
","","","","","","1062.5","images/chair2.png","","","learning","images/furniture_choice2.png","images/furniture_choice1.png","images/furniture_choice3.png","[1,0,2]","0","1","2","images/furniture_choice1.png","1","furniture","","chair","1","0"
"html-keyboard-response","146","616337","0.0-9.0-2.0-0.30","1858","1","2","""event"",""trial"",""time""
""fullscreenenter"",""1"",""2447""
","
","
","""event"",""trial"",""time""
""fullscreenenter"",""1"",""2447""
","
","","","","","","null","<div style=""font-size:60px;"">+</div>","null","","fixation","","","","","","","","","","","","","",""
"learning-trial","147","620343","0.0-9.0-2.0-1.30","1858","1","2","""event"",""trial"",""time""
""fullscreenenter"",""1"",""2447""
","
","
","""event"",""trial"",""time""
""fullscreenenter"",""1"",""2447""
","
","","","","","","1446.199999999255","images/sofa1.png","","","learning","images/furniture_choice3.png","images/furniture_choice1.png","images/furniture_choice2.png","[2,0,1]","1","2","3","images/furniture_choice2.png","1","furniture","","sofa","1","0"
"html-keyboard-response","148","620848","0.0-9.0-2.0-0.31","1858","1","2","""event"",""trial"",""time""
""fullscreenenter"",""1"",""2447""
","
","
","""event"",""trial"",""time""
""fullscreenenter"",""1"",""2447""
","
","","","","","","null","<div style=""font-size:60px;"">+</div>","null","","fixation","","","","","","","","","","","","","",""
"learning-trial","149","624853","0.0-9.0-2.0-1.31","1858","1","2","""event"",""trial"",""time""
""fullscreenenter"",""1"",""2447""
","
","
","""event"",""trial"",""time""
""fullscreenenter"",""1"",""2447""
","
","","","","","","1345.7999999988824","images/sofa5.png","","","learning","images/furniture_choice1.png","images/furniture_choice3.png","images/furniture_choice2.png","[0,2,1]","1","2","1","images/furniture_choice1.png","-1","furniture","","sofa","1","0"
"html-keyboard-response","150","625358","0.0-9.0-2.0-0.32","1858","1","2","""event"",""trial"",""time""
""fullscreenenter"",""1"",""2447""
","
","
","""event"",""trial"",""time""
""fullscreenenter"",""1"",""2447""
","
","","","","","","null","<div style=""font-size:60px;"">+</div>","null","","fixation","","","","","","","","","","","","","",""
"learning-trial","151","629364","0.0-9.0-2.0-1.32","1858","1","2","""event"",""trial"",""time""
""fullscreenenter"",""1"",""2447""
","
","
","""event"",""trial"",""time""
""fullscreenenter"",""1"",""2447""
","
","","","","","","1482.5","images/chair5.png","","","learning","images/furniture_choice3.png","images/furniture_choice2.png","images/furniture_choice1.png","[2,1,0]","0","2","3","images/furniture_choice1.png","1","furniture","","chair","1","0"
"html-keyboard-response","152","629869","0.0-9.0-2.0-0.33","1858","1","2","""event"",""trial"",""time""
""fullscreenenter"",""1"",""2447""
","
","
","""event"",""trial"",""time""
""fullscreenenter"",""1"",""2447""
","
","","","","","","null","<div style=""font-size:60px;"">+</div>","null","","fixation","","","","","","","","","","","","","",""
"learning-trial","153","633874","0.0-9.0-2.0-1.33","1858","1","2","""event"",""trial"",""time""
""fullscreenenter"",""1"",""2447""
","
","
","""event"",""trial"",""time""
""fullscreenenter"",""1"",""2447""
","
","","","","","","1314.2999999988824","images/sofa2.png","","","learning","images/furniture_choice3.png","images/furniture_choice2.png","images/furniture_choice1.png","[2,1,0]","1","1","2","images/furniture_choice2.png","1","furniture","","sofa","1","0"
"html-keyboard-response","154","634379","0.0-9.0-2.0-0.34","1858","1","2","""event"",""trial"",""time""
""fullscreenenter"",""1"",""2447""
","
","
","""event"",""trial"",""time""
""fullscreenenter"",""1"",""2447""
","
","","","","","","null","<div style=""font-size:60px;"">+</div>","null","","fixation","","","","","","","","","","","","","",""
"learning-trial","155","638384","0.0-9.0-2.0-1.34","1858","1","2","""event"",""trial"",""time""
""fullscreenenter"",""1"",""2447""
","
","
","""event"",""trial"",""time""
""fullscreenenter"",""1"",""2447""
","
","","","","","","1282.199999999255","images/chair5.png","","","learning","images/furniture_choice1.png","images/furniture_choice2.png","images/furniture_choice3.png","[0,1,2]","0","0","2","images/furniture_choice2.png","-1","furniture","","chair","1","0"
"html-keyboard-response","156","638889","0.0-9.0-2.0-0.35","1858","1","2","""event"",""trial"",""time""
""fullscreenenter"",""1"",""2447""
","
","
","""event"",""trial"",""time""
""fullscreenenter"",""1"",""2447""
","
","","","","","","null","<div style=""font-size:60px;"">+</div>","null","","fixation","","","","","","","","","","","","","",""
"learning-trial","157","642895","0.0-9.0-2.0-1.35","1858","1","2","""event"",""trial"",""time""
""fullscreenenter"",""1"",""2447""
","
","
","""event"",""trial"",""time""
""fullscreenenter"",""1"",""2447""
","
","","","","","","1125.4000000003725","images/chair2.png","","","learning","images/furniture_choice2.png","images/furniture_choice3.png","images/furniture_choice1.png","[1,2,0]","0","2","3","images/furniture_choice1.png","1","furniture","","chair","1","0"
"html-keyboard-response","158","643396","0.0-9.0-2.0-0.36","1858","1","2","""event"",""trial"",""time""
""fullscreenenter"",""1"",""2447""
","
","
","""event"",""trial"",""time""
""fullscreenenter"",""1"",""2447""
","
","","","","","","null","<div style=""font-size:60px;"">+</div>","null","","fixation","","","","","","","","","","","","","",""
"learning-trial","159","647399","0.0-9.0-2.0-1.36","1858","1","2","""event"",""trial"",""time""
""fullscreenenter"",""1"",""2447""
","
","
","""event"",""trial"",""time""
""fullscreenenter"",""1"",""2447""
","
","","","","","","871.4000000003725","images/chair5.png","","","learning","images/furniture_choice2.png","images/furniture_choice1.png","images/furniture_choice3.png","[1,0,2]","0","1","2","images/furniture_choice1.png","1","furniture","","chair","1","0"
"html-keyboard-response","160","647902","0.0-9.0-2.0-0.37","1858","1","2","""event"",""trial"",""time""
""fullscreenenter"",""1"",""2447""
","
","
","""event"",""trial"",""time""
""fullscreenenter"",""1"",""2447""
","
","","","","","","null","<div style=""font-size:60px;"">+</div>","null","","fixation","","","","","","","","","","","","","",""
"learning-trial","161","651904","0.0-9.0-2.0-1.37","1858","1","2","""event"",""trial"",""time""
""fullscreenenter"",""1"",""2447""
","
","
","""event"",""trial"",""time""
""fullscreenenter"",""1"",""2447""
","
","","","","","","1946.5","images/sofa2.png","","","learning","images/furniture_choice1.png","images/furniture_choice2.png","images/furniture_choice3.png","[0,1,2]","1","1","2","images/furniture_choice2.png","1","furniture","","sofa","1","0"
"html-keyboard-response","162","652408","0.0-9.0-2.0-0.38","1858","1","2","""event"",""trial"",""time""
""fullscreenenter"",""1"",""2447""
","
","
","""event"",""trial"",""time""
""fullscreenenter"",""1"",""2447""
","
","","","","","","null","<div style=""font-size:60px;"">+</div>","null","","fixation","","","","","","","","","","","","","",""
"learning-trial","163","656415","0.0-9.0-2.0-1.38","1858","1","2","""event"",""trial"",""time""
""fullscreenenter"",""1"",""2447""
","
","
","""event"",""trial"",""time""
""fullscreenenter"",""1"",""2447""
","
","","","","","","1310","images/chair4.png","","","learning","images/furniture_choice2.png","images/furniture_choice1.png","images/furniture_choice3.png","[1,0,2]","0","1","2","images/furniture_choice1.png","1","furniture","","chair","1","0"
"html-keyboard-response","164","656920","0.0-9.0-2.0-0.39","1858","1","2","""event"",""trial"",""time""
""fullscreenenter"",""1"",""2447""
","
","
","""event"",""trial"",""time""
""fullscreenenter"",""1"",""2447""
","
","","","","","","null","<div style=""font-size:60px;"">+</div>","null","","fixation","","","","","","","","","","","","","",""
"learning-trial","165","660925","0.0-9.0-2.0-1.39","1858","1","2","""event"",""trial"",""time""
""fullscreenenter"",""1"",""2447""
","
","
","""event"",""trial"",""time""
""fullscreenenter"",""1"",""2447""
","
","","","","","","1073.800000000745","images/chair4.png","","","learning","images/furniture_choice3.png","images/furniture_choice2.png","images/furniture_choice1.png","[2,1,0]","0","2","3","images/furniture_choice1.png","-1","furniture","","chair","1","0"
"html-keyboard-response","166","661430","0.0-9.0-2.0-0.40","1858","1","2","""event"",""trial"",""time""
""fullscreenenter"",""1"",""2447""
","
","
","""event"",""trial"",""time""
""fullscreenenter"",""1"",""2447""
","
","","","","","","null","<div style=""font-size:60px;"">+</div>","null","","fixation","","","","","","","","","","","","","",""
"learning-trial","167","665436","0.0-9.0-2.0-1.40","1858","1","2","""event"",""trial"",""time""
""fullscreenenter"",""1"",""2447""
","
","
","""event"",""trial"",""time""
""fullscreenenter"",""1"",""2447""
","
","","","","","","1761.9000000003725","images/bed3.png","","","learning","images/furniture_choice2.png","images/furniture_choice1.png","images/furniture_choice3.png","[1,0,2]","2","2","1","images/furniture_choice2.png","-1","furniture","","bed","1","0"
"html-keyboard-response","168","665940","0.0-9.0-2.0-0.41","1858","1","2","""event"",""trial"",""time""
""fullscreenenter"",""1"",""2447""
","
","
","""event"",""trial"",""time""
""fullscreenenter"",""1"",""2447""
","
","","","","","","null","<div style=""font-size:60px;"">+</div>","null","","fixation","","","","","","","","","","","","","",""
"learning-trial","169","669943","0.0-9.0-2.0-1.41","1858","1","2","""event"",""trial"",""time""
""fullscreenenter"",""1"",""2447""
","
","
","""event"",""trial"",""time""
""fullscreenenter"",""1"",""2447""
","
","","","","","","2764.0999999996275","images/bed4.png","","","learning","images/furniture_choice3.png","images/furniture_choice1.png","images/furniture_choice2.png","[2,0,1]","2","0","3","images/furniture_choice2.png","-1","furniture","","bed","1","0"
"html-keyboard-response","170","670445","0.0-9.0-2.0-0.42","1858","1","2","""event"",""trial"",""time""
""fullscreenenter"",""1"",""2447""
","
","
","""event"",""trial"",""time""
""fullscreenenter"",""1"",""2447""
","
","","","","","","null","<div style=""font-size:60px;"">+</div>","null","","fixation","","","","","","","","","","","","","",""
"learning-trial","171","674451","0.0-9.0-2.0-1.42","1858","1","2","""event"",""trial"",""time""
""fullscreenenter"",""1"",""2447""
","
","
","""event"",""trial"",""time""
""fullscreenenter"",""1"",""2447""
","
","","","","","","1510.5999999996275","images/sofa1.png","","","learning","images/furniture_choice3.png","images/furniture_choice1.png","images/furniture_choice2.png","[2,0,1]","1","2","2","images/furniture_choice1.png","-1","furniture","","sofa","1","0"
"html-keyboard-response","172","674956","0.0-9.0-2.0-0.43","1858","1","2","""event"",""trial"",""time""
""fullscreenenter"",""1"",""2447""
","
","
","""event"",""trial"",""time""
""fullscreenenter"",""1"",""2447""
","
","","","","","","null","<div style=""font-size:60px;"">+</div>","null","","fixation","","","","","","","","","","","","","",""
"learning-trial","173","678961","0.0-9.0-2.0-1.43","1858","1","2","""event"",""trial"",""time""
""fullscreenenter"",""1"",""2447""
","
","
","""event"",""trial"",""time""
""fullscreenenter"",""1"",""2447""
","
","","","","","","1635.800000000745","images/sofa2.png","","","learning","images/furniture_choice3.png","images/furniture_choice1.png","images/furniture_choice2.png","[2,0,1]","1","2","2","images/furniture_choice1.png","-1","furniture","","sofa","1","0"
"html-keyboard-response","174","679466","0.0-9.0-2.0-0.44","1858","1","2","""event"",""trial"",""time""
""fullscreenenter"",""1"",""2447""
","
","
","""event"",""trial"",""time""
""fullscreenenter"",""1"",""2447""
","
","","","","","","null","<div style=""font-size:60px;"">+</div>","null","","fixation","","","","","","","","","","","","","",""
"learning-trial","175","683471","0.0-9.0-2.0-1.44","1858","1","2","""event"",""trial"",""time""
""fullscreenenter"",""1"",""2447""
","
","
","""event"",""trial"",""time""
""fullscreenenter"",""1"",""2447""
","
","","","","","","1164.300000000745","images/sofa2.png","","","learning","images/furniture_choice3.png","images/furniture_choice1.png","images/furniture_choice2.png","[2,0,1]","1","2","3","images/furniture_choice2.png","-1","furniture","","sofa","1","0"
"html-keyboard-response","176","683976","0.0-9.0-2.0-0.45","1858","1","2","""event"",""trial"",""time""
""fullscreenenter"",""1"",""2447""
","
","
","""event"",""trial"",""time""
""fullscreenenter"",""1"",""2447""
","
","","","","","","null","<div style=""font-size:60px;"">+</div>","null","","fixation","","","","","","","","","","","","","",""
"learning-trial","177","687982","0.0-9.0-2.0-1.45","1858","1","2","""event"",""trial"",""time""
""fullscreenenter"",""1"",""2447""
","
","
","""event"",""trial"",""time""
""fullscreenenter"",""1"",""2447""
","
","","","","","","1469.2000000011176","images/bed4.png","","","learning","images/furniture_choice2.png","images/furniture_choice3.png","images/furniture_choice1.png","[1,2,0]","2","1","2","images/furniture_choice3.png","1","furniture","","bed","1","0"
"html-keyboard-response","178","688487","0.0-9.0-2.0-0.46","1858","1","2","""event"",""trial"",""time""
""fullscreenenter"",""1"",""2447""
","
","
","""event"",""trial"",""time""
""fullscreenenter"",""1"",""2447""
","
","","","","","","null","<div style=""font-size:60px;"">+</div>","null","","fixation","","","","","","","","","","","","","",""
"learning-trial","179","692489","0.0-9.0-2.0-1.46","1858","1","2","""event"",""trial"",""time""
""fullscreenenter"",""1"",""2447""
","
","
","""event"",""trial"",""time""
""fullscreenenter"",""1"",""2447""
","
","","","","","","2280.5","images/bed5.png","","","learning","images/furniture_choice2.png","images/furniture_choice1.png","images/furniture_choice3.png","[1,0,2]","2","2","1","images/furniture_choice2.png","-1","furniture","","bed","1","0"
"html-keyboard-response","180","692992","0.0-9.0-2.0-0.47","1858","1","2","""event"",""trial"",""time""
""fullscreenenter"",""1"",""2447""
","
","
","""event"",""trial"",""time""
""fullscreenenter"",""1"",""2447""
","
","","","","","","null","<div style=""font-size:60px;"">+</div>","null","","fixation","","","","","","","","","","","","","",""
"learning-trial","181","696994","0.0-9.0-2.0-1.47","1858","1","2","""event"",""trial"",""time""
""fullscreenenter"",""1"",""2447""
","
","
","""event"",""trial"",""time""
""fullscreenenter"",""1"",""2447""
","
","","","","","","1094.5","images/sofa1.png","","","learning","images/furniture_choice3.png","images/furniture_choice2.png","images/furniture_choice1.png","[2,1,0]","1","1","1","images/furniture_choice3.png","-1","furniture","","sofa","1","0"
"html-keyboard-response","182","697496","0.0-9.0-2.0-0.48","1858","1","2","""event"",""trial"",""time""
""fullscreenenter"",""1"",""2447""
","
","
","""event"",""trial"",""time""
""fullscreenenter"",""1"",""2447""
","
","","","","","","null","<div style=""font-size:60px;"">+</div>","null","","fixation","","","","","","","","","","","","","",""
"learning-trial","183","701498","0.0-9.0-2.0-1.48","1858","1","2","""event"",""trial"",""time""
""fullscreenenter"",""1"",""2447""
","
","
","""event"",""trial"",""time""
""fullscreenenter"",""1"",""2447""
","
","","","","","","1090.7000000011176","images/chair2.png","","","learning","images/furniture_choice1.png","images/furniture_choice2.png","images/furniture_choice3.png","[0,1,2]","0","0","1","images/furniture_choice1.png","1","furniture","","chair","1","0"
"html-keyboard-response","184","702000","0.0-9.0-2.0-0.49","1858","1","2","""event"",""trial"",""time""
""fullscreenenter"",""1"",""2447""
","
","
","""event"",""trial"",""time""
""fullscreenenter"",""1"",""2447""
","
","","","","","","null","<div style=""font-size:60px;"">+</div>","null","","fixation","","","","","","","","","","","","","",""
"learning-trial","185","706002","0.0-9.0-2.0-1.49","1858","1","2","""event"",""trial"",""time""
""fullscreenenter"",""1"",""2447""
","
","
","""event"",""trial"",""time""
""fullscreenenter"",""1"",""2447""
","
","","","","","","1076.1000000014901","images/chair4.png","","","learning","images/furniture_choice1.png","images/furniture_choice2.png","images/furniture_choice3.png","[0,1,2]","0","0","1","images/furniture_choice1.png","-1","furniture","","chair","1","0"
"html-keyboard-response","186","706505","0.0-9.0-2.0-0.50","1858","1","2","""event"",""trial"",""time""
""fullscreenenter"",""1"",""2447""
","
","
","""event"",""trial"",""time""
""fullscreenenter"",""1"",""2447""
","
","","","","","","null","<div style=""font-size:60px;"">+</div>","null","","fixation","","","","","","","","","","","","","",""
"learning-trial","187","710510","0.0-9.0-2.0-1.50","1858","1","2","""event"",""trial"",""time""
""fullscreenenter"",""1"",""2447""
","
","
","""event"",""trial"",""time""
""fullscreenenter"",""1"",""2447""
","
","","","","","","1565.7999999988824","images/bed4.png","","","learning","images/furniture_choice2.png","images/furniture_choice1.png","images/furniture_choice3.png","[1,0,2]","2","2","2","images/furniture_choice1.png","-1","furniture","","bed","1","0"
"html-keyboard-response","188","711016","0.0-9.0-2.0-0.51","1858","1","2","""event"",""trial"",""time""
""fullscreenenter"",""1"",""2447""
","
","
","""event"",""trial"",""time""
""fullscreenenter"",""1"",""2447""
","
","","","","","","null","<div style=""font-size:60px;"">+</div>","null","","fixation","","","","","","","","","","","","","",""
"learning-trial","189","715021","0.0-9.0-2.0-1.51","1858","1","2","""event"",""trial"",""time""
""fullscreenenter"",""1"",""2447""
","
","
","""event"",""trial"",""time""
""fullscreenenter"",""1"",""2447""
","
","","","","","","1510.4000000003725","images/bed3.png","","","learning","images/furniture_choice1.png","images/furniture_choice2.png","images/furniture_choice3.png","[0,1,2]","2","2","1","images/furniture_choice1.png","-1","furniture","","bed","1","0"
"html-keyboard-response","190","715526","0.0-9.0-2.0-0.52","1858","1","2","""event"",""trial"",""time""
""fullscreenenter"",""1"",""2447""
","
","
","""event"",""trial"",""time""
""fullscreenenter"",""1"",""2447""
","
","","","","","","null","<div style=""font-size:60px;"">+</div>","null","","fixation","","","","","","","","","","","","","",""
"learning-trial","191","719532","0.0-9.0-2.0-1.52","1858","1","2","""event"",""trial"",""time""
""fullscreenenter"",""1"",""2447""
","
","
","""event"",""trial"",""time""
""fullscreenenter"",""1"",""2447""
","
","","","","","","949","images/chair2.png","","","learning","images/furniture_choice3.png","images/furniture_choice1.png","images/furniture_choice2.png","[2,0,1]","0","1","2","images/furniture_choice1.png","-1","furniture","","chair","1","0"
"html-keyboard-response","192","720037","0.0-9.0-2.0-0.53","1858","1","2","""event"",""trial"",""time""
""fullscreenenter"",""1"",""2447""
","
","
","""event"",""trial"",""time""
""fullscreenenter"",""1"",""2447""
","
","","","","","","null","<div style=""font-size:60px;"">+</div>","null","","fixation","","","","","","","","","","","","","",""
"learning-trial","193","724042","0.0-9.0-2.0-1.53","1858","1","2","""event"",""trial"",""time""
""fullscreenenter"",""1"",""2447""
","
","
","""event"",""trial"",""time""
""fullscreenenter"",""1"",""2447""
","
","","","","","","1366","images/chair4.png","","","learning","images/furniture_choice3.png","images/furniture_choice1.png","images/furniture_choice2.png","[2,0,1]","0","1","2","images/furniture_choice1.png","-1","furniture","","chair","1","0"
"html-keyboard-response","194","724547","0.0-9.0-2.0-0.54","1858","1","2","""event"",""trial"",""time""
""fullscreenenter"",""1"",""2447""
","
","
","""event"",""trial"",""time""
""fullscreenenter"",""1"",""2447""
","
","","","","","","null","<div style=""font-size:60px;"">+</div>","null","","fixation","","","","","","","","","","","","","",""
"learning-trial","195","728553","0.0-9.0-2.0-1.54","1858","1","2","""event"",""trial"",""time""
""fullscreenenter"",""1"",""2447""
","
","
","""event"",""trial"",""time""
""fullscreenenter"",""1"",""2447""
","
","","","","","","1401.3999999985099","images/bed5.png","","","learning","images/furniture_choice2.png","images/furniture_choice1.png","images/furniture_choice3.png","[1,0,2]","2","2","2","images/furniture_choice1.png","-1","furniture","","bed","1","0"
"html-keyboard-response","196","729058","0.0-9.0-2.0-0.55","1858","1","2","""event"",""trial"",""time""
""fullscreenenter"",""1"",""2447""
","
","
","""event"",""trial"",""time""
""fullscreenenter"",""1"",""2447""
","
","","","","","","null","<div style=""font-size:60px;"">+</div>","null","","fixation","","","","","","","","","","","","","",""
"learning-trial","197","733063","0.0-9.0-2.0-1.55","1858","1","2","""event"",""trial"",""time""
""fullscreenenter"",""1"",""2447""
","
","
","""event"",""trial"",""time""
""fullscreenenter"",""1"",""2447""
","
","","","","","","1154.5999999996275","images/bed3.png","","","learning","images/furniture_choice3.png","images/furniture_choice2.png","images/furniture_choice1.png","[2,1,0]","2","0","1","images/furniture_choice3.png","1","furniture","","bed","1","0"
"html-keyboard-response","198","733568","0.0-9.0-2.0-0.56","1858","1","2","""event"",""trial"",""time""
""fullscreenenter"",""1"",""2447""
","
","
","""event"",""trial"",""time""
""fullscreenenter"",""1"",""2447""
","
","","","","","","null","<div style=""font-size:60px;"">+</div>","null","","fixation","","","","","","","","","","","","","",""
"learning-trial","199","737574","0.0-9.0-2.0-1.56","1858","1","2","""event"",""trial"",""time""
""fullscreenenter"",""1"",""2447""
","
","
","""event"",""trial"",""time""
""fullscreenenter"",""1"",""2447""
","
","","","","","","1009.3000000007451","images/chair5.png","","","learning","images/furniture_choice3.png","images/furniture_choice2.png","images/furniture_choice1.png","[2,1,0]","0","2","3","images/furniture_choice1.png","-1","furniture","","chair","1","0"
"html-keyboard-response","200","738079","0.0-9.0-2.0-0.57","1858","1","2","""event"",""trial"",""time""
""fullscreenenter"",""1"",""2447""
","
","
","""event"",""trial"",""time""
""fullscreenenter"",""1"",""2447""
","
","","","","","","null","<div style=""font-size:60px;"">+</div>","null","","fixation","","","","","","","","","","","","","",""
"learning-trial","201","742084","0.0-9.0-2.0-1.57","1858","1","2","""event"",""trial"",""time""
""fullscreenenter"",""1"",""2447""
","
","
","""event"",""trial"",""time""
""fullscreenenter"",""1"",""2447""
","
","","","","","","1843.0999999996275","images/chair4.png","","","learning","images/furniture_choice2.png","images/furniture_choice3.png","images/furniture_choice1.png","[1,2,0]","0","2","3","images/furniture_choice1.png","1","furniture","","chair","1","0"
"html-keyboard-response","202","742589","0.0-9.0-2.0-0.58","1858","1","2","""event"",""trial"",""time""
""fullscreenenter"",""1"",""2447""
","
","
","""event"",""trial"",""time""
""fullscreenenter"",""1"",""2447""
","
","","","","","","null","<div style=""font-size:60px;"">+</div>","null","","fixation","","","","","","","","","","","","","",""
"learning-trial","203","746595","0.0-9.0-2.0-1.58","1858","1","2","""event"",""trial"",""time""
""fullscreenenter"",""1"",""2447""
","
","
","""event"",""trial"",""time""
""fullscreenenter"",""1"",""2447""
","
","","","","","","1889.4000000003725","images/bed4.png","","","learning","images/furniture_choice3.png","images/furniture_choice2.png","images/furniture_choice1.png","[2,1,0]","2","0","2","images/furniture_choice2.png","-1","furniture","","bed","1","0"
"html-keyboard-response","204","747096","0.0-9.0-2.0-0.59","1858","1","2","""event"",""trial"",""time""
""fullscreenenter"",""1"",""2447""
","
","
","""event"",""trial"",""time""
""fullscreenenter"",""1"",""2447""
","
","","","","","","null","<div style=""font-size:60px;"">+</div>","null","","fixation","","","","","","","","","","","","","",""
"learning-trial","205","751099","0.0-9.0-2.0-1.59","1858","1","2","""event"",""trial"",""time""
""fullscreenenter"",""1"",""2447""
","
","
","""event"",""trial"",""time""
""fullscreenenter"",""1"",""2447""
","
","","","","","","982.9000000003725","images/sofa5.png","","","learning","images/furniture_choice1.png","images/furniture_choice2.png","images/furniture_choice3.png","[0,1,2]","1","1","3","images/furniture_choice3.png","-1","furniture","","sofa","1","0"
"html-keyboard-response","206","751602","0.0-9.0-2.0-0.60","1858","1","2","""event"",""trial"",""time""
""fullscreenenter"",""1"",""2447""
","
","
","""event"",""trial"",""time""
""fullscreenenter"",""1"",""2447""
","
","","","","","","null","<div style=""font-size:60px;"">+</div>","null","","fixation","","","","","","","","","","","","","",""
"learning-trial","207","755604","0.0-9.0-2.0-1.60","1858","1","2","""event"",""trial"",""time""
""fullscreenenter"",""1"",""2447""
","
","
","""event"",""trial"",""time""
""fullscreenenter"",""1"",""2447""
","
","","","","","","944.1000000014901","images/sofa5.png","","","learning","images/furniture_choice1.png","images/furniture_choice3.png","images/furniture_choice2.png","[0,2,1]","1","2","3","images/furniture_choice2.png","1","furniture","","sofa","1","0"
"html-keyboard-response","208","756108","0.0-9.0-2.0-0.61","1858","1","2","""event"",""trial"",""time""
""fullscreenenter"",""1"",""2447""
","
","
","""event"",""trial"",""time""
""fullscreenenter"",""1"",""2447""
","
","","","","","","null","<div style=""font-size:60px;"">+</div>","null","","fixation","","","","","","","","","","","","","",""
"learning-trial","209","760114","0.0-9.0-2.0-1.61","1858","1","2","""event"",""trial"",""time""
""fullscreenenter"",""1"",""2447""
","
","
","""event"",""trial"",""time""
""fullscreenenter"",""1"",""2447""
","
","","","","","","914.7000000011176","images/chair4.png","","","learning","images/furniture_choice3.png","images/furniture_choice1.png","images/furniture_choice2.png","[2,0,1]","0","1","2","images/furniture_choice1.png","1","furniture","","chair","1","0"
"html-keyboard-response","210","760619","0.0-9.0-2.0-0.62","1858","1","2","""event"",""trial"",""time""
""fullscreenenter"",""1"",""2447""
","
","
","""event"",""trial"",""time""
""fullscreenenter"",""1"",""2447""
","
","","","","","","null","<div style=""font-size:60px;"">+</div>","null","","fixation","","","","","","","","","","","","","",""
"learning-trial","211","764625","0.0-9.0-2.0-1.62","1858","1","2","""event"",""trial"",""time""
""fullscreenenter"",""1"",""2447""
","
","
","""event"",""trial"",""time""
""fullscreenenter"",""1"",""2447""
","
","","","","","","1725.5","images/bed3.png","","","learning","images/furniture_choice2.png","images/furniture_choice1.png","images/furniture_choice3.png","[1,0,2]","2","2","3","images/furniture_choice3.png","1","furniture","","bed","1","0"
"html-keyboard-response","212","765130","0.0-9.0-2.0-0.63","1858","1","2","""event"",""trial"",""time""
""fullscreenenter"",""1"",""2447""
","
","
","""event"",""trial"",""time""
""fullscreenenter"",""1"",""2447""
","
","","","","","","null","<div style=""font-size:60px;"">+</div>","null","","fixation","","","","","","","","","","","","","",""
"learning-trial","213","769135","0.0-9.0-2.0-1.63","1858","1","2","""event"",""trial"",""time""
""fullscreenenter"",""1"",""2447""
","
","
","""event"",""trial"",""time""
""fullscreenenter"",""1"",""2447""
","
","","","","","","1310.4000000003725","images/sofa5.png","","","learning","images/furniture_choice2.png","images/furniture_choice3.png","images/furniture_choice1.png","[1,2,0]","1","0","1","images/furniture_choice2.png","1","furniture","","sofa","1","0"
"html-keyboard-response","214","769640","0.0-9.0-2.0-0.64","1858","1","2","""event"",""trial"",""time""
""fullscreenenter"",""1"",""2447""
","
","
","""event"",""trial"",""time""
""fullscreenenter"",""1"",""2447""
","
","","","","","","null","<div style=""font-size:60px;"">+</div>","null","","fixation","","","","","","","","","","","","","",""
"learning-trial","215","773645","0.0-9.0-2.0-1.64","1858","1","2","""event"",""trial"",""time""
""fullscreenenter"",""1"",""2447""
","
","
","""event"",""trial"",""time""
""fullscreenenter"",""1"",""2447""
","
","","","","","","883.8000000007451","images/chair5.png","","","learning","images/furniture_choice3.png","images/furniture_choice1.png","images/furniture_choice2.png","[2,0,1]","0","1","2","images/furniture_choice1.png","1","furniture","","chair","1","0"
"html-keyboard-response","216","774151","0.0-9.0-2.0-0.65","1858","1","2","""event"",""trial"",""time""
""fullscreenenter"",""1"",""2447""
","
","
","""event"",""trial"",""time""
""fullscreenenter"",""1"",""2447""
","
","","","","","","null","<div style=""font-size:60px;"">+</div>","null","","fixation","","","","","","","","","","","","","",""
"learning-trial","217","778156","0.0-9.0-2.0-1.65","1858","1","2","""event"",""trial"",""time""
""fullscreenenter"",""1"",""2447""
","
","
","""event"",""trial"",""time""
""fullscreenenter"",""1"",""2447""
","
","","","","","","2190.0999999996275","images/sofa1.png","","","learning","images/furniture_choice1.png","images/furniture_choice3.png","images/furniture_choice2.png","[0,2,1]","1","2","2","images/furniture_choice3.png","-1","furniture","","sofa","1","0"
"html-keyboard-response","218","778661","0.0-9.0-2.0-0.66","1858","1","2","""event"",""trial"",""time""
""fullscreenenter"",""1"",""2447""
","
","
","""event"",""trial"",""time""
""fullscreenenter"",""1"",""2447""
","
","","","","","","null","<div style=""font-size:60px;"">+</div>","null","","fixation","","","","","","","","","","","","","",""
"learning-trial","219","782667","0.0-9.0-2.0-1.66","1858","1","2","""event"",""trial"",""time""
""fullscreenenter"",""1"",""2447""
","
","
","""event"",""trial"",""time""
""fullscreenenter"",""1"",""2447""
","
","","","","","","1707.699999999255","images/bed3.png","","","learning","images/furniture_choice3.png","images/furniture_choice2.png","images/furniture_choice1.png","[2,1,0]","2","0","3","images/furniture_choice1.png","-1","furniture","","bed","1","0"
"html-keyboard-response","220","783171","0.0-9.0-2.0-0.67","1858","1","2","""event"",""trial"",""time""
""fullscreenenter"",""1"",""2447""
","
","
","""event"",""trial"",""time""
""fullscreenenter"",""1"",""2447""
","
","","","","","","null","<div style=""font-size:60px;"">+</div>","null","","fixation","","","","","","","","","","","","","",""
"learning-trial","221","787177","0.0-9.0-2.0-1.67","1858","1","2","""event"",""trial"",""time""
""fullscreenenter"",""1"",""2447""
","
","
","""event"",""trial"",""time""
""fullscreenenter"",""1"",""2447""
","
","","","","","","1123.0999999996275","images/chair2.png","","","learning","images/furniture_choice1.png","images/furniture_choice2.png","images/furniture_choice3.png","[0,1,2]","0","0","1","images/furniture_choice1.png","1","furniture","","chair","1","0"
"html-keyboard-response","222","787682","0.0-9.0-2.0-0.68","1858","1","2","""event"",""trial"",""time""
""fullscreenenter"",""1"",""2447""
","
","
","""event"",""trial"",""time""
""fullscreenenter"",""1"",""2447""
","
","","","","","","null","<div style=""font-size:60px;"">+</div>","null","","fixation","","","","","","","","","","","","","",""
"learning-trial","223","791687","0.0-9.0-2.0-1.68","1858","1","2","""event"",""trial"",""time""
""fullscreenenter"",""1"",""2447""
","
","
","""event"",""trial"",""time""
""fullscreenenter"",""1"",""2447""
","
","","","","","","932.9000000003725","images/chair2.png","","","learning","images/furniture_choice3.png","images/furniture_choice1.png","images/furniture_choice2.png","[2,0,1]","0","1","2","images/furniture_choice1.png","1","furniture","","chair","1","0"
"html-keyboard-response","224","792192","0.0-9.0-2.0-0.69","1858","1","2","""event"",""trial"",""time""
""fullscreenenter"",""1"",""2447""
","
","
","""event"",""trial"",""time""
""fullscreenenter"",""1"",""2447""
","
","","","","","","null","<div style=""font-size:60px;"">+</div>","null","","fixation","","","","","","","","","","","","","",""
"learning-trial","225","796195","0.0-9.0-2.0-1.69","1858","1","2","""event"",""trial"",""time""
""fullscreenenter"",""1"",""2447""
","
","
","""event"",""trial"",""time""
""fullscreenenter"",""1"",""2447""
","
","","","","","","1643.5999999996275","images/bed4.png","","","learning","images/furniture_choice3.png","images/furniture_choice2.png","images/furniture_choice1.png","[2,1,0]","2","0","2","images/furniture_choice2.png","1","furniture","","bed","1","0"
"html-keyboard-response","226","796697","0.0-9.0-2.0-0.70","1858","1","2","""event"",""trial"",""time""
""fullscreenenter"",""1"",""2447""
","
","
","""event"",""trial"",""time""
""fullscreenenter"",""1"",""2447""
","
","","","","","","null","<div style=""font-size:60px;"">+</div>","null","","fixation","","","","","","","","","","","","","",""
"learning-trial","227","800701","0.0-9.0-2.0-1.70","1858","1","2","""event"",""trial"",""time""
""fullscreenenter"",""1"",""2447""
","
","
","""event"",""trial"",""time""
""fullscreenenter"",""1"",""2447""
","
","","","","","","2494.199999999255","images/sofa5.png","","","learning","images/furniture_choice1.png","images/furniture_choice3.png","images/furniture_choice2.png","[0,2,1]","1","2","2","images/furniture_choice3.png","-1","furniture","","sofa","1","0"
"html-keyboard-response","228","801202","0.0-9.0-2.0-0.71","1858","1","2","""event"",""trial"",""time""
""fullscreenenter"",""1"",""2447""
","
","
","""event"",""trial"",""time""
""fullscreenenter"",""1"",""2447""
","
","","","","","","null","<div style=""font-size:60px;"">+</div>","null","","fixation","","","","","","","","","","","","","",""
"learning-trial","229","805206","0.0-9.0-2.0-1.71","1858","1","2","""event"",""trial"",""time""
""fullscreenenter"",""1"",""2447""
","
","
","""event"",""trial"",""time""
""fullscreenenter"",""1"",""2447""
","
","","","","","","1544.7000000011176","images/bed4.png","","","learning","images/furniture_choice3.png","images/furniture_choice1.png","images/furniture_choice2.png","[2,0,1]","2","0","1","images/furniture_choice3.png","1","furniture","","bed","1","0"
"html-button-response","230","809532","0.0-9.0-3.0","1858","1","2","""event"",""trial"",""time""
""fullscreenenter"",""1"",""2447""
","
","
","""event"",""trial"",""time""
""fullscreenenter"",""1"",""2447""
","
","","","","","","4324.9000000003725","<p> You have completed the round! <p> In this round, you earned -6 points! </p>","0","","break","","","","","","","","","","","","","",""
"html-button-response","231","811118","0.0-10.0","1858","1","2","""event"",""trial"",""time""
""fullscreenenter"",""1"",""2447""
","
","
","""event"",""trial"",""time""
""fullscreenenter"",""1"",""2447""
","
","","","","","","1585.800000000745","<p> Now it's time to play another round. </p>","0","","transition_screen","","","","","","","","","","","","","",""
"preload","232","817348","0.0-11.0-0.0","1858","1","2","""event"",""trial"",""time""
""fullscreenenter"",""1"",""2447""
","
","
","""event"",""trial"",""time""
""fullscreenenter"",""1"",""2447""
","
","true","false","[]","[]","[]","","","","","","","","","","","","","","","","","","",""
"learning-instructions","233","827319","0.0-11.0-1.0-0.0","1858","1","2","""event"",""trial"",""time""
""fullscreenenter"",""1"",""2447""
","
","
","""event"",""trial"",""time""
""fullscreenenter"",""1"",""2447""
","
","","","","","","1590.0999999996275","<p> Your goal in this round is to return farm animals to the barns where they live. </p><p>  Different animals wandered away from different barns! </p></div>","","0","instructions","","","","","","","","","","","","","",""
"learning-instructions","234","837276","0.0-11.0-1.0-0.1","1858","1","2","""event"",""trial"",""time""
""fullscreenenter"",""1"",""2447""
","
","
","""event"",""trial"",""time""
""fullscreenenter"",""1"",""2447""
","
","","","","","","1330.7000000011176","<p> On each turn, you will see a picture of a farm animal and three different barns.  </p><p> You need to select the barn where each animal lives.  </p>","","0","instructions","","","","","","","","","","","","","",""
"learning-instructions","235","846637","0.0-11.0-1.0-0.2","1858","1","2","""event"",""trial"",""time""
""fullscreenenter"",""1"",""2447""
","
","
","""event"",""trial"",""time""
""fullscreenenter"",""1"",""2447""
","
