"trial_type","trial_index","time_elapsed","internal_node_id","subject_id","condition","task_version","interactions","blur_events","focus_events","fullscreenenter_events","fullscreenexit_events","success","timeout","failed_images","failed_audio","failed_video","rt","stimulus","response","button_pressed","task_part","left_choice","middle_choice","right_choice","choice_positions","correct_response","correct_position","key_press","option_selected","points","task_block","correct","stim_cat","block_condition","block_number"
"pavlovia","0","4","0.0-0.0","1718","2","2","""event"",""trial"",""time""
""fullscreenenter"",""1"",""2820""
","
","
","""event"",""trial"",""time""
""fullscreenenter"",""1"",""2820""
","
","","","","","","","","","","","","","","","","","","","","","","","",""
"fullscreen","1","3787","0.0-1.0","1718","2","2","""event"",""trial"",""time""
""fullscreenenter"",""1"",""2820""
","
","
","""event"",""trial"",""time""
""fullscreenenter"",""1"",""2820""
","
","true","","","","","","","","","","","","","","","","","","","","","","",""
"preload","2","6007","0.0-2.0","1718","2","2","""event"",""trial"",""time""
""fullscreenenter"",""1"",""2820""
","
","
","""event"",""trial"",""time""
""fullscreenenter"",""1"",""2820""
","
","true","false","[]","[]","[]","","","","","","","","","","","","","","","","","","",""
"audio-keyboard-response","3","7462","0.0-3.0","1718","2","2","""event"",""trial"",""time""
""fullscreenenter"",""1"",""2820""
","
","
","""event"",""trial"",""time""
""fullscreenenter"",""1"",""2820""
","
","","","","","","1451.2471655328798","audio/beep_loop.wav"," ","","","","","","","","","","","","","","","",""
"audio-button-response","4","11548","0.0-4.0","1718","2","2","""event"",""trial"",""time""
""fullscreenenter"",""1"",""2820""
","
","
","""event"",""trial"",""time""
""fullscreenenter"",""1"",""2820""
","
","","","","","","4081","audio/shark.wav","4","","","","","","","","","","","","","","","",""
"audio-button-response","5","14546","0.0-5.0","1718","2","2","""event"",""trial"",""time""
""fullscreenenter"",""1"",""2820""
","
","
","""event"",""trial"",""time""
""fullscreenenter"",""1"",""2820""
","
","","","","","","1997","audio/turtle.wav","1","","","","","","","","","","","","","","","",""
"preload","6","17535","0.0-6.0","1718","2","2","""event"",""trial"",""time""
""fullscreenenter"",""1"",""2820""
","
","
","""event"",""trial"",""time""
""fullscreenenter"",""1"",""2820""
","
","true","false","[]","[]","[]","","","","","","","","","","","","","","","","","","",""
"html-keyboard-response","7","22374","0.0-7.0","1718","2","2","""event"",""trial"",""time""
""fullscreenenter"",""1"",""2820""
","
","
","""event"",""trial"",""time""
""fullscreenenter"",""1"",""2820""
","
","","","","","","4836.899999999907","Welcome to the experiment. Press any key to begin and to advance the instructions.","arrowright","","","","","","","","","","","","","","","",""
"learning-instructions","8","31079","0.0-8.0-0.0-0.0","1718","2","2","""event"",""trial"",""time""
""fullscreenenter"",""1"",""2820""
","
","
","""event"",""trial"",""time""
""fullscreenenter"",""1"",""2820""
","
","","","","","","957.1000000000931","<p> Welcome! Today you are going to play 6 different rounds of a decision-making game. </p><p> Use the mouse to click next to continue. </p>","","0","instructions","","","","","","","","","","","","","",""
"learning-instructions","9","34490","0.0-8.0-0.0-0.1","1718","2","2","""event"",""trial"",""time""
""fullscreenenter"",""1"",""2820""
","
","
","""event"",""trial"",""time""
""fullscreenenter"",""1"",""2820""
","
","","","","","","403.09999999962747","<p> You will start with a practice round to learn the rules. </p>","","0","instructions","","","","","","","","","","","","","",""
"learning-instructions","10","42915","0.0-8.0-0.0-0.2","1718","2","2","""event"",""trial"",""time""
""fullscreenenter"",""1"",""2820""
","
","
","""event"",""trial"",""time""
""fullscreenenter"",""1"",""2820""
","
","","","","","","683.8999999999069","<p> Your goal in this round is to deliver sports equipment to three different parks. </p><p> You will need to deliver many types of equipment. </p></div>","","0","instructions","","","","","","","","","","","","","",""
"learning-instructions","11","51806","0.0-8.0-0.0-0.3","1718","2","2","""event"",""trial"",""time""
""fullscreenenter"",""1"",""2820""
","
","
","""event"",""trial"",""time""
""fullscreenenter"",""1"",""2820""
","
","","","","","","402.6999999997206","<p> On each turn, you will see one piece of sports equipment and three different parks.  </p><p> You need to select which park to deliver the equipment to.  </p>","","0","instructions","","","","","","","","","","","","","",""
"learning-instructions","12","66987","0.0-8.0-0.0-0.4","1718","2","2","""event"",""trial"",""time""
""fullscreenenter"",""1"",""2820""
","
","
","""event"",""trial"",""time""
""fullscreenenter"",""1"",""2820""
","
","","","","","","1899.9000000003725","<p> You can select the park on the left by pressing the '1' key on your keyboard. <br>You can select the park in the middle by pressing the '2' key on your keyboard. <br>You can select the park on the right by pressing the '3' key on your keyboard.  </p><br><div class=""choice-instructions-grid""> <div class=""choice-option""><img src=""images/park1.png"" class=""choice-option-img"" stage=""instructions"" position=""0"" ><div class=""choice-option-text""> Press ""1."" </div></div><div class=""choice-option""><img src=""images/park2.png"" class=""choice-option-img"" stage=""instructions"" position=""1"" ><div class=""choice-option-text""> Press ""2."" </div></div><div class=""choice-option""><img src=""images/park3.png"" class=""choice-option-img"" stage=""instructions"" position=""2"" ><div class=""choice-option-text""> Press ""3."" </div></div></div>","","0","instructions","","","","","","","","","","","","","",""
"learning-instructions","13","73462","0.0-8.0-0.0-0.5","1718","2","2","""event"",""trial"",""time""
""fullscreenenter"",""1"",""2820""
","
","
","""event"",""trial"",""time""
""fullscreenenter"",""1"",""2820""
","
","","","","","","1096.2000000001863","<p> If the kids in the park you chose like the equipment, they will be very happy! </p><div style='float: center;'><img src='images/check.png' width = '200' height = '200'></img>","","0","instructions","","","","","","","","","","","","","",""
"learning-instructions","14","79664","0.0-8.0-0.0-0.6","1718","2","2","""event"",""trial"",""time""
""fullscreenenter"",""1"",""2820""
","
","
","""event"",""trial"",""time""
""fullscreenenter"",""1"",""2820""
","
","","","","","","610.8999999999069","<p> But, if the kids in the park you chose do not like the equipment, they will be sad. </p><div style='float: center;'><img src='images/x.png' width = '200' height = '200'></img>","","0","instructions","","","","","","","","","","","","","",""
"learning-instructions","15","86570","0.0-8.0-0.0-0.7","1718","2","2","""event"",""trial"",""time""
""fullscreenenter"",""1"",""2820""
","
","
","""event"",""trial"",""time""
""fullscreenenter"",""1"",""2820""
","
","","","","","","474.8000000002794","<p> Importantly, the kids in each park like some pieces of sports equipment more than others. </p>","","0","instructions","","","","","","","","","","","","","",""
"learning-instructions","16","93194","0.0-8.0-0.0-0.8","1718","2","2","""event"",""trial"",""time""
""fullscreenenter"",""1"",""2820""
","
","
","""event"",""trial"",""time""
""fullscreenenter"",""1"",""2820""
","
","","","","","","574.3999999999069","<p> If you choose the best park for each piece of equipment, the kids there will usually be happy. </p>","","0","instructions","","","","","","","","","","","","","",""
"learning-instructions","17","100285","0.0-8.0-0.0-0.9","1718","2","2","""event"",""trial"",""time""
""fullscreenenter"",""1"",""2820""
","
","
","""event"",""trial"",""time""
""fullscreenenter"",""1"",""2820""
","
","","","","","","443.79999999981374","<p> However, even if you choose the best park for the equipment, the kids may sometimes be sad. </p>","","0","instructions","","","","","","","","","","","","","",""
"learning-instructions","18","107873","0.0-8.0-0.0-0.10","1718","2","2","""event"",""trial"",""time""
""fullscreenenter"",""1"",""2820""
","
","
","""event"",""trial"",""time""
""fullscreenenter"",""1"",""2820""
","
","","","","","","363.09999999962747","<p> Similarly, even if you choose the <i>wrong</i> park for the equipment, the kids may still be happy sometimes.","","0","instructions","","","","","","","","","","","","","",""
"learning-instructions","19","113664","0.0-8.0-0.0-0.11","1718","2","2","""event"",""trial"",""time""
""fullscreenenter"",""1"",""2820""
","
","
","""event"",""trial"",""time""
""fullscreenenter"",""1"",""2820""
","
","","","","","","737.3000000002794","<p> For example, the best park for this soccer ball is this one.<div style='float: center;'><img src='images/i1.png' width = '500' height = '268'></img>","","0","instructions","","","","","","","","","","","","","",""
"learning-instructions","20","120018","0.0-8.0-0.0-0.12","1718","2","2","""event"",""trial"",""time""
""fullscreenenter"",""1"",""2820""
","
","
","""event"",""trial"",""time""
""fullscreenenter"",""1"",""2820""
","
","","","","","","1066.3999999999069","<p> Let's see what happens if you choose this park for the soccer ball five times.","","0","instructions","","","","","","","","","","","","","",""
"learning-instructions","21","123736","0.0-8.0-0.0-0.13","1718","2","2","""event"",""trial"",""time""
""fullscreenenter"",""1"",""2820""
","
","
","""event"",""trial"",""time""
""fullscreenenter"",""1"",""2820""
","
","","","","","","1550.6999999997206","<p> The kids are happy.<div style='float: left;'><img src='images/i2.png' width = '640' height = '360'></img>","","0","instructions","","","","","","","","","","","","","",""
"learning-instructions","22","126444","0.0-8.0-0.0-0.14","1718","2","2","""event"",""trial"",""time""
""fullscreenenter"",""1"",""2820""
","
","
","""event"",""trial"",""time""
""fullscreenenter"",""1"",""2820""
","
","","","","","","543.2999999998137","<p> The kids are happy.<div style='float: left;'><img src='images/i3.png' width = '640' height = '360'></img>","","0","instructions","","","","","","","","","","","","","",""
"learning-instructions","23","129080","0.0-8.0-0.0-0.15","1718","2","2","""event"",""trial"",""time""
""fullscreenenter"",""1"",""2820""
","
","
","""event"",""trial"",""time""
""fullscreenenter"",""1"",""2820""
","
","","","","","","473.5","<p> The kids are happy.<div style='float: left;'><img src='images/i4.png' width = '640' height = '360'></img>","","0","instructions","","","","","","","","","","","","","",""
"learning-instructions","24","131789","0.0-8.0-0.0-0.16","1718","2","2","""event"",""trial"",""time""
""fullscreenenter"",""1"",""2820""
","
","
","""event"",""trial"",""time""
""fullscreenenter"",""1"",""2820""
","
","","","","","","506.5","<p> The kids are sad.<div style='float: left;'><img src='images/i5.png' width = '640' height = '360'></img>","","0","instructions","","","","","","","","","","","","","",""
"learning-instructions","25","134855","0.0-8.0-0.0-0.17","1718","2","2","""event"",""trial"",""time""
""fullscreenenter"",""1"",""2820""
","
","
","""event"",""trial"",""time""
""fullscreenenter"",""1"",""2820""
","
","","","","","","901.7999999998137","<p> The kids are happy.<div style='float: left;'><img src='images/i6.png' width = '640' height = '360'></img>","","0","instructions","","","","","","","","","","","","","",""
"learning-instructions","26","142755","0.0-8.0-0.0-0.18","1718","2","2","""event"",""trial"",""time""
""fullscreenenter"",""1"",""2820""
","
","
","""event"",""trial"",""time""
""fullscreenenter"",""1"",""2820""
","
","","","","","","634.2000000001863","<p> As you can see, selecting that park for the soccer ball made the kids happy most of the time, but not all the time.","","0","instructions","","","","","","","","","","","","","",""
"learning-instructions","27","149208","0.0-8.0-0.0-0.19","1718","2","2","""event"",""trial"",""time""
""fullscreenenter"",""1"",""2820""
","
","
","""event"",""trial"",""time""
""fullscreenenter"",""1"",""2820""
","
","","","","","","451.60000000009313","<p> Now let's see what happens if you choose a DIFFERENT park for the soccer ball 5 times.","","0","instructions","","","","","","","","","","","","","",""
"learning-instructions","28","151688","0.0-8.0-0.0-0.20","1718","2","2","""event"",""trial"",""time""
""fullscreenenter"",""1"",""2820""
","
","
","""event"",""trial"",""time""
""fullscreenenter"",""1"",""2820""
","
","","","","","","273.5","<p> The kids are sad.<div style='float: left;'><img src='images/i7.png' width = '640' height = '360'></img>","","0","instructions","","","","","","","","","","","","","",""
"learning-instructions","29","154017","0.0-8.0-0.0-0.21","1718","2","2","""event"",""trial"",""time""
""fullscreenenter"",""1"",""2820""
","
","
","""event"",""trial"",""time""
""fullscreenenter"",""1"",""2820""
","
","","","","","","123.29999999981374","<p> The kids are sad.<div style='float: left;'><img src='images/i8.png' width = '640' height = '360'></img>","","0","instructions","","","","","","","","","","","","","",""
"learning-instructions","30","156700","0.0-8.0-0.0-0.22","1718","2","2","""event"",""trial"",""time""
""fullscreenenter"",""1"",""2820""
","
","
","""event"",""trial"",""time""
""fullscreenenter"",""1"",""2820""
","
","","","","","","519","<p> The kids are happy.<div style='float: left;'><img src='images/i9.png' width = '640' height = '360'></img>","","0","instructions","","","","","","","","","","","","","",""
"learning-instructions","31","159076","0.0-8.0-0.0-0.23","1718","2","2","""event"",""trial"",""time""
""fullscreenenter"",""1"",""2820""
","
","
","""event"",""trial"",""time""
""fullscreenenter"",""1"",""2820""
","
","","","","","","172.79999999981374","<p> The kids are sad.<div style='float: left;'><img src='images/i10.png' width = '640' height = '360'></img>","","0","instructions","","","","","","","","","","","","","",""
"learning-instructions","32","162155","0.0-8.0-0.0-0.24","1718","2","2","""event"",""trial"",""time""
""fullscreenenter"",""1"",""2820""
","
","
","""event"",""trial"",""time""
""fullscreenenter"",""1"",""2820""
","
","","","","","","871.5","<p> The kids are sad.<div style='float: left;'><img src='images/i11.png' width = '640' height = '360'></img>","","0","instructions","","","","","","","","","","","","","",""
"learning-instructions","33","170775","0.0-8.0-0.0-0.25","1718","2","2","""event"",""trial"",""time""
""fullscreenenter"",""1"",""2820""
","
","
","""event"",""trial"",""time""
""fullscreenenter"",""1"",""2820""
","
","","","","","","499.89999999990687","<p> As you can see, selecting the wrong park for the soccer ball made the kids sad most of the time, but not all the time.","","0","instructions","","","","","","","","","","","","","",""
"learning-instructions","34","180478","0.0-8.0-0.0-0.26","1718","2","2","""event"",""trial"",""time""
""fullscreenenter"",""1"",""2820""
","
","
","""event"",""trial"",""time""
""fullscreenenter"",""1"",""2820""
","
","","","","","","588.7999999998137","<p> The different pieces of equipment belong in different parks. You need to try to learn which is the best park for each piece of equipment.","","0","instructions","","","","","","","","","","","","","",""
"learning-instructions","35","197323","0.0-8.0-0.0-0.27","1718","2","2","""event"",""trial"",""time""
""fullscreenenter"",""1"",""2820""
","
","
","""event"",""trial"",""time""
""fullscreenenter"",""1"",""2820""
","
","","","","","","460","<p> Try to choose the best park for each piece of equipment, because you will <b> WIN </b> 1 point for each time you make the kids happy and <b>LOSE</b> 1 point for each time you make them sad. </p><p> Remember, if you make the best choice, you will win 1 point most of the time, but not all the time. </p>","","0","instructions","","","","","","","","","","","","","",""
"learning-instructions","36","203405","0.0-8.0-0.0-0.28","1718","2","2","""event"",""trial"",""time""
""fullscreenenter"",""1"",""2820""
","
","
","""event"",""trial"",""time""
""fullscreenenter"",""1"",""2820""
","
","","","","","","603","<p> This is just a practice round, but in the real game, your bonus payment will depend on your total number of points.","","0","instructions","","","","","","","","","","","","","",""
"learning-instructions","37","218565","0.0-8.0-0.0-0.29","1718","2","2","""event"",""trial"",""time""
""fullscreenenter"",""1"",""2820""
","
","
","""event"",""trial"",""time""
""fullscreenenter"",""1"",""2820""
","
","","","","","","4832.100000000093","<p> The position where each park appears will change throughout the game. </p><p> The position where the park appears <i> does not </i> influence how likely the kids are to be happy or sad. </p>","","0","instructions","","","","","","","","","","","","","",""
"learning-instructions","38","230056","0.0-8.0-0.0-0.30","1718","2","2","""event"",""trial"",""time""
""fullscreenenter"",""1"",""2820""
","
","
","""event"",""trial"",""time""
""fullscreenenter"",""1"",""2820""
","
","","","","","","805.6000000000931","<p> You will have 4 seconds to make each choice. Try to respond before time runs out! </p><p> You will lose 1 point each time you do not make a response. </p>","","0","instructions","","","","","","","","","","","","","",""
"learning-instructions","39","237613","0.0-8.0-0.0-0.31","1718","2","2","""event"",""trial"",""time""
""fullscreenenter"",""1"",""2820""
","
","
","""event"",""trial"",""time""
""fullscreenenter"",""1"",""2820""
","
","","","","","","769.1999999997206","<p> Remember, you should use the 1, 2, and 3 keys to select the park for each piece of equipment. </p><br><div class=""choice-instructions-grid""> <div class=""choice-option""><img src=""images/park1.png"" class=""choice-option-img"" stage=""instructions"" position=""0"" ><div class=""choice-option-text""> Press ""1."" </div></div><div class=""choice-option""><img src=""images/park2.png"" class=""choice-option-img"" stage=""instructions"" position=""1"" ><div class=""choice-option-text""> Press ""2."" </div></div><div class=""choice-option""><img src=""images/park3.png"" class=""choice-option-img"" stage=""instructions"" position=""2"" ><div class=""choice-option-text""> Press ""3."" </div></div></div>","","0","instructions","","","","","","","","","","","","","",""
"html-button-response","40","238992","0.0-8.0-1.0","1718","2","2","""event"",""trial"",""time""
""fullscreenenter"",""1"",""2820""
","
","
","""event"",""trial"",""time""
""fullscreenenter"",""1"",""2820""
","
","","","","","","1277.1000000000931","<p> Ready to practice? </p>","0","","","","","","","","","","","","","","","",""
"html-keyboard-response","41","239599","0.0-8.0-2.0-0.0","1718","2","2","""event"",""trial"",""time""
""fullscreenenter"",""1"",""2820""
","
","
","""event"",""trial"",""time""
""fullscreenenter"",""1"",""2820""
","
","","","","","","null","<div style=""font-size:60px;"">+</div>","null","","fixation","","","","","","","","","","","","","",""
"learning-trial","42","243606","0.0-8.0-2.0-1.0","1718","2","2","""event"",""trial"",""time""
""fullscreenenter"",""1"",""2820""
","
","
","""event"",""trial"",""time""
""fullscreenenter"",""1"",""2820""
","
","","","","","","1891","images/ball3.png","","","practice","images/park1.png","images/park3.png","images/park2.png","[0,2,1]","2","1","1","images/park1.png","-1","practice","","","",""
"html-keyboard-response","43","244110","0.0-8.0-2.0-0.1","1718","2","2","""event"",""trial"",""time""
""fullscreenenter"",""1"",""2820""
","
","
","""event"",""trial"",""time""
""fullscreenenter"",""1"",""2820""
","
","","","","","","null","<div style=""font-size:60px;"">+</div>","null","","fixation","","","","","","","","","","","","","",""
"learning-trial","44","248116","0.0-8.0-2.0-1.1","1718","2","2","""event"",""trial"",""time""
""fullscreenenter"",""1"",""2820""
","
","
","""event"",""trial"",""time""
""fullscreenenter"",""1"",""2820""
","
","","","","","","2132","images/racket3.png","","","practice","images/park2.png","images/park1.png","images/park3.png","[1,0,2]","0","1","1","images/park2.png","-1","practice","","","",""
"html-keyboard-response","45","248621","0.0-8.0-2.0-0.2","1718","2","2","""event"",""trial"",""time""
""fullscreenenter"",""1"",""2820""
","
","
","""event"",""trial"",""time""
""fullscreenenter"",""1"",""2820""
","
","","","","","","null","<div style=""font-size:60px;"">+</div>","null","","fixation","","","","","","","","","","","","","",""
"learning-trial","46","252625","0.0-8.0-2.0-1.2","1718","2","2","""event"",""trial"",""time""
""fullscreenenter"",""1"",""2820""
","
","
","""event"",""trial"",""time""
""fullscreenenter"",""1"",""2820""
","
","","","","","","1600.6000000000931","images/racket4.png","","","practice","images/park3.png","images/park1.png","images/park2.png","[2,0,1]","0","1","3","images/park2.png","-1","practice","","","",""
"html-keyboard-response","47","253126","0.0-8.0-2.0-0.3","1718","2","2","""event"",""trial"",""time""
""fullscreenenter"",""1"",""2820""
","
","
","""event"",""trial"",""time""
""fullscreenenter"",""1"",""2820""
","
","","","","","","null","<div style=""font-size:60px;"">+</div>","null","","fixation","","","","","","","","","","","","","",""
"learning-trial","48","257132","0.0-8.0-2.0-1.3","1718","2","2","""event"",""trial"",""time""
""fullscreenenter"",""1"",""2820""
","
","
","""event"",""trial"",""time""
""fullscreenenter"",""1"",""2820""
","
","","","","","","1762.2999999998137","images/racket1.png","","","practice","images/park3.png","images/park2.png","images/park1.png","[2,1,0]","1","1","2","images/park2.png","1","practice","","","",""
"html-keyboard-response","49","257637","0.0-8.0-2.0-0.4","1718","2","2","""event"",""trial"",""time""
""fullscreenenter"",""1"",""2820""
","
","
","""event"",""trial"",""time""
""fullscreenenter"",""1"",""2820""
","
","","","","","","null","<div style=""font-size:60px;"">+</div>","null","","fixation","","","","","","","","","","","","","",""
"learning-trial","50","261642","0.0-8.0-2.0-1.4","1718","2","2","""event"",""trial"",""time""
""fullscreenenter"",""1"",""2820""
","
","
","""event"",""trial"",""time""
""fullscreenenter"",""1"",""2820""
","
","","","","","","1647.4000000003725","images/racket3.png","","","practice","images/park3.png","images/park2.png","images/park1.png","[2,1,0]","0","2","3","images/park1.png","1","practice","","","",""
"html-keyboard-response","51","262147","0.0-8.0-2.0-0.5","1718","2","2","""event"",""trial"",""time""
""fullscreenenter"",""1"",""2820""
","
","
","""event"",""trial"",""time""
""fullscreenenter"",""1"",""2820""
","
","","","","","","null","<div style=""font-size:60px;"">+</div>","null","","fixation","","","","","","","","","","","","","",""
"learning-trial","52","266153","0.0-8.0-2.0-1.5","1718","2","2","""event"",""trial"",""time""
""fullscreenenter"",""1"",""2820""
","
","
","""event"",""trial"",""time""
""fullscreenenter"",""1"",""2820""
","
","","","","","","2213.399999999907","images/racket1.png","","","practice","images/park3.png","images/park1.png","images/park2.png","[2,0,1]","1","2","3","images/park2.png","1","practice","","","",""
"html-keyboard-response","53","266658","0.0-8.0-2.0-0.6","1718","2","2","""event"",""trial"",""time""
""fullscreenenter"",""1"",""2820""
","
","
","""event"",""trial"",""time""
""fullscreenenter"",""1"",""2820""
","
","","","","","","null","<div style=""font-size:60px;"">+</div>","null","","fixation","","","","","","","","","","","","","",""
"learning-trial","54","270665","0.0-8.0-2.0-1.6","1718","2","2","""event"",""trial"",""time""
""fullscreenenter"",""1"",""2820""
","
","
","""event"",""trial"",""time""
""fullscreenenter"",""1"",""2820""
","
","","","","","","1183","images/ball4.png","","","practice","images/park1.png","images/park3.png","images/park2.png","[0,2,1]","1","2","1","images/park1.png","-1","practice","","","",""
"html-keyboard-response","55","271170","0.0-8.0-2.0-0.7","1718","2","2","""event"",""trial"",""time""
""fullscreenenter"",""1"",""2820""
","
","
","""event"",""trial"",""time""
""fullscreenenter"",""1"",""2820""
","
","","","","","","null","<div style=""font-size:60px;"">+</div>","null","","fixation","","","","","","","","","","","","","",""
"learning-trial","56","275175","0.0-8.0-2.0-1.7","1718","2","2","""event"",""trial"",""time""
""fullscreenenter"",""1"",""2820""
","
","
","""event"",""trial"",""time""
""fullscreenenter"",""1"",""2820""
","
","","","","","","1474.7999999998137","images/ball4.png","","","practice","images/park3.png","images/park2.png","images/park1.png","[2,1,0]","1","1","2","images/park2.png","1","practice","","","",""
"html-keyboard-response","57","275680","0.0-8.0-2.0-0.8","1718","2","2","""event"",""trial"",""time""
""fullscreenenter"",""1"",""2820""
","
","
","""event"",""trial"",""time""
""fullscreenenter"",""1"",""2820""
","
","","","","","","null","<div style=""font-size:60px;"">+</div>","null","","fixation","","","","","","","","","","","","","",""
"learning-trial","58","279686","0.0-8.0-2.0-1.8","1718","2","2","""event"",""trial"",""time""
""fullscreenenter"",""1"",""2820""
","
","
","""event"",""trial"",""time""
""fullscreenenter"",""1"",""2820""
","
","","","","","","1666.8999999999069","images/ball3.png","","","practice","images/park2.png","images/park3.png","images/park1.png","[1,2,0]","2","1","3","images/park1.png","-1","practice","","","",""
"html-keyboard-response","59","280191","0.0-8.0-2.0-0.9","1718","2","2","""event"",""trial"",""time""
""fullscreenenter"",""1"",""2820""
","
","
","""event"",""trial"",""time""
""fullscreenenter"",""1"",""2820""
","
","","","","","","null","<div style=""font-size:60px;"">+</div>","null","","fixation","","","","","","","","","","","","","",""
"learning-trial","60","284197","0.0-8.0-2.0-1.9","1718","2","2","""event"",""trial"",""time""
""fullscreenenter"",""1"",""2820""
","
","
","""event"",""trial"",""time""
""fullscreenenter"",""1"",""2820""
","
","","","","","","1524.7999999998137","images/racket4.png","","","practice","images/park1.png","images/park3.png","images/park2.png","[0,2,1]","0","0","1","images/park1.png","1","practice","","","",""
"html-keyboard-response","61","284701","0.0-8.0-2.0-0.10","1718","2","2","""event"",""trial"",""time""
""fullscreenenter"",""1"",""2820""
","
","
","""event"",""trial"",""time""
""fullscreenenter"",""1"",""2820""
","
","","","","","","null","<div style=""font-size:60px;"">+</div>","null","","fixation","","","","","","","","","","","","","",""
"learning-trial","62","288707","0.0-8.0-2.0-1.10","1718","2","2","""event"",""trial"",""time""
""fullscreenenter"",""1"",""2820""
","
","
","""event"",""trial"",""time""
""fullscreenenter"",""1"",""2820""
","
","","","","","","1593.2000000001863","images/ball2.png","","","practice","images/park1.png","images/park2.png","images/park3.png","[0,1,2]","2","2","2","images/park2.png","-1","practice","","","",""
"html-keyboard-response","63","289212","0.0-8.0-2.0-0.11","1718","2","2","""event"",""trial"",""time""
""fullscreenenter"",""1"",""2820""
","
","
","""event"",""trial"",""time""
""fullscreenenter"",""1"",""2820""
","
","","","","","","null","<div style=""font-size:60px;"">+</div>","null","","fixation","","","","","","","","","","","","","",""
"learning-trial","64","293218","0.0-8.0-2.0-1.11","1718","2","2","""event"",""trial"",""time""
""fullscreenenter"",""1"",""2820""
","
","
","""event"",""trial"",""time""
""fullscreenenter"",""1"",""2820""
","
","","","","","","1257.6000000000931","images/ball2.png","","","practice","images/park1.png","images/park2.png","images/park3.png","[0,1,2]","2","2","3","images/park3.png","1","practice","","","",""
"html-button-response","65","294676","0.0-8.0-3.0","1718","2","2","""event"",""trial"",""time""
""fullscreenenter"",""1"",""2820""
","
","
","""event"",""trial"",""time""
""fullscreenenter"",""1"",""2820""
","
","","","","","","1455.2999999998137","<p> You earned 0 points in the practice round! </p>","0","","break","","","","","","","","","","","","","",""
"learning-instructions","66","303848","0.0-8.0-4.0-0.0","1718","2","2","""event"",""trial"",""time""
""fullscreenenter"",""1"",""2820""
","
","
","""event"",""trial"",""time""
""fullscreenenter"",""1"",""2820""
","
","","","","","","1392","<p> It's almost time to start the real game. </p><p> Before you start, we're going to ask you a few questions about how the game works. </p>","","0","instructions","","","","","","","","","","","","","",""
"preload","67","304944","0.0-8.0-5.0","1718","2","2","""event"",""trial"",""time""
""fullscreenenter"",""1"",""2820""
","
","
","""event"",""trial"",""time""
""fullscreenenter"",""1"",""2820""
","
","true","false","[]","[]","[]","","","","","","","","","","","","","","","","","","",""
"comp-q","68","312061","0.0-8.0-6.0-0.0","1718","2","2","""event"",""trial"",""time""
""fullscreenenter"",""1"",""2820""
","
","
","""event"",""trial"",""time""
""fullscreenenter"",""1"",""2820""
","
","","","","","","1664.3999999999069","<p> <b> True or False? </b> </p><p> If you choose the best option, you will always earn 1 point. </p>","","1","comp_question","","","","","","","","","","","true","","",""
"comp-q","69","318405","0.0-8.0-6.0-1.0","1718","2","2","""event"",""trial"",""time""
""fullscreenenter"",""1"",""2820""
","
","
","""event"",""trial"",""time""
""fullscreenenter"",""1"",""2820""
","
","","","","","","688.3999999999069","<p><b> That's right! </b> Sometimes you will lose 1 point, even if you choose the best option. </p>","","0","comp_answer","","","","","","","","","","","","","",""
"comp-q","70","323598","0.0-8.0-6.0-0.1","1718","2","2","""event"",""trial"",""time""
""fullscreenenter"",""1"",""2820""
","
","
","""event"",""trial"",""time""
""fullscreenenter"",""1"",""2820""
","
","","","","","","563.7000000001863","<p> <b> True or False? </b> </p><p> You will have as much time as you want to make each choice. </p>","","1","comp_question","","","","","","","","","","","true","","",""
"comp-q","71","329350","0.0-8.0-6.0-1.1","1718","2","2","""event"",""trial"",""time""
""fullscreenenter"",""1"",""2820""
","
","
","""event"",""trial"",""time""
""fullscreenenter"",""1"",""2820""
","
","","","","","","934.6999999997206","<p> <b> That's right! </b> You will only have 4 seconds to make each choice. </p>","","0","comp_answer","","","","","","","","","","","","","",""
"comp-q","72","336617","0.0-8.0-6.0-0.2","1718","2","2","""event"",""trial"",""time""
""fullscreenenter"",""1"",""2820""
","
","
","""event"",""trial"",""time""
""fullscreenenter"",""1"",""2820""
","
","","","","","","1112.8000000002794","<p> <b> True or False? </b> </p><p> You should use the '1', '2', and '3' keys to make your choices. </p>","","0","comp_question","","","","","","","","","","","true","","",""
"comp-q","73","342618","0.0-8.0-6.0-1.2","1718","2","2","""event"",""trial"",""time""
""fullscreenenter"",""1"",""2820""
","
","
","""event"",""trial"",""time""
""fullscreenenter"",""1"",""2820""
","
","","","","","","1152","<p> <b> That's right! </b> You should use the '1', '2', and '3' keys to make each choice. </p>","","0","comp_answer","","","","","","","","","","","","","",""
"learning-instructions","74","352469","0.0-8.0-7.0-0.0","1718","2","2","""event"",""trial"",""time""
""fullscreenenter"",""1"",""2820""
","
","
","""event"",""trial"",""time""
""fullscreenenter"",""1"",""2820""
","
","","","","","","1366.3999999999069","<p> It's now time to start the real game. </p>Do your best, because the points you earn in the next rounds will influence your bonus payment. </p>","","0","instructions","","","","","","","","","","","","","",""
"preload","75","353662","0.0-9.0-0.0","1718","2","2","""event"",""trial"",""time""
""fullscreenenter"",""1"",""2820""
","
","
","""event"",""trial"",""time""
""fullscreenenter"",""1"",""2820""
","
","true","false","[]","[]","[]","","","","","","","","","","","","","","","","","","",""
"learning-instructions","76","361445","0.0-9.0-1.0-0.0","1718","2","2","""event"",""trial"",""time""
""fullscreenenter"",""1"",""2820""
","
","
","""event"",""trial"",""time""
""fullscreenenter"",""1"",""2820""
","
","","","","","","950.1999999997206","<p> Your goal in this round is to grow a beautiful garden by watering plants. </p><p> You will need to water many different plants. </p></div>","","0","instructions","","","","","","","","","","","","","",""
"learning-instructions","77","375448","0.0-9.0-1.0-0.1","1718","2","2","""event"",""trial"",""time""
""fullscreenenter"",""1"",""2820""
","
","
","""event"",""trial"",""time""
""fullscreenenter"",""1"",""2820""
","
","","","","","","718.2000000001863","<p> On each turn, you will see a picture of one of your plants and three different watering cans.  </p><p> Each watering can has a different mixture of water and fertilizer.  </p><p> You need to select which watering can to use for each plant. </p>","","0","instructions","","","","","","","","","","","","","",""
"learning-instructions","78","386899","0.0-9.0-1.0-0.2","1718","2","2","""event"",""trial"",""time""
""fullscreenenter"",""1"",""2820""
","
","
","""event"",""trial"",""time""
""fullscreenenter"",""1"",""2820""
","
","","","","","","3710.5","<p> You can select the watering can on the left by pressing 1, the watering can in the middle by pressing 2, and the watering can on the right by pressing 3. </p><br><div class=""choice-instructions-grid""> <div class=""choice-option""><img src=""images/plants_choice1.png"" class=""choice-option-img"" stage=""instructions"" position=""0"" ><div class=""choice-option-text""> Press ""1."" </div></div><div class=""choice-option""><img src=""images/plants_choice2.png"" class=""choice-option-img"" stage=""instructions"" position=""1"" ><div class=""choice-option-text""> Press ""2."" </div></div><div class=""choice-option""><img src=""images/plants_choice3.png"" class=""choice-option-img"" stage=""instructions"" position=""2"" ><div class=""choice-option-text""> Press ""3."" </div></div></div>","","0","instructions","","","","","","","","","","","","","",""
"learning-instructions","79","392145","0.0-9.0-1.0-0.3","1718","2","2","""event"",""trial"",""time""
""fullscreenenter"",""1"",""2820""
","
","
","""event"",""trial"",""time""
""fullscreenenter"",""1"",""2820""
","
","","","","","","1079.6999999997206","<p> If the watering can you chose works for the plant, it will grow! </p><div style='float: center;'><img src='images/check.png' width = '200' height = '200'></img>","","0","instructions","","","","","","","","","","","","","",""
"learning-instructions","80","397873","0.0-9.0-1.0-0.4","1718","2","2","""event"",""trial"",""time""
""fullscreenenter"",""1"",""2820""
","
","
","""event"",""trial"",""time""
""fullscreenenter"",""1"",""2820""
","
","","","","","","920.7999999998137","<p> But, if the watering can you chose does not work, your plant will droop. </p><div style='float: center;'><img src='images/x.png' width = '200' height = '200'></img>","","0","instructions","","","","","","","","","","","","","",""
"learning-instructions","81","408638","0.0-9.0-1.0-0.5","1718","2","2","""event"",""trial"",""time""
""fullscreenenter"",""1"",""2820""
","
","
","""event"",""trial"",""time""
""fullscreenenter"",""1"",""2820""
","
","","","","","","691","<p> Importantly, each plant has one fertilizer mixture that works best for it. </p><p> If you choose the watering can with the right fertilizer, the plant will be more likely to grow. </p>","","0","instructions","","","","","","","","","","","","","",""
"learning-instructions","82","419413","0.0-9.0-1.0-0.6","1718","2","2","""event"",""trial"",""time""
""fullscreenenter"",""1"",""2820""
","
","
","""event"",""trial"",""time""
""fullscreenenter"",""1"",""2820""
","
","","","","","","441.90000000037253","<p> However, even if you choose the best watering can for the plant, the plant may still droop. </p><p> Similarly, even if you choose the <i>wrong</i> watering can, the plant may still grow.","","0","instructions","","","","","","","","","","","","","",""
"learning-instructions","83","431604","0.0-9.0-1.0-0.7","1718","2","2","""event"",""trial"",""time""
""fullscreenenter"",""1"",""2820""
","
","
","""event"",""trial"",""time""
""fullscreenenter"",""1"",""2820""
","
","","","","","","332.70000000018626","<p> Try to choose the best watering can for each plant, because you will <b> WIN </b> 1 point each time a plant grows and <b>LOSE</b>  1 point each time a plant droops. </p><p> Your bonus payment will depend on your total number of points.","","0","instructions","","","","","","","","","","","","","",""
"learning-instructions","84","440952","0.0-9.0-1.0-0.8","1718","2","2","""event"",""trial"",""time""
""fullscreenenter"",""1"",""2820""
","
","
","""event"",""trial"",""time""
""fullscreenenter"",""1"",""2820""
","
","","","","","","1344.5","<p> The position of each watering can will change throughout the round. </p><p> The watering can's position <i> does not </i> influence how likely each plant is to droop or grow. </p>","","0","instructions","","","","","","","","","","","","","",""
"learning-instructions","85","450923","0.0-9.0-1.0-0.9","1718","2","2","""event"",""trial"",""time""
""fullscreenenter"",""1"",""2820""
","
","
","""event"",""trial"",""time""
""fullscreenenter"",""1"",""2820""
","
","","","","","","680","<p> You will have 4 seconds to make each choice. Try to respond before time runs out! </p><p> You will lose 1 point each time you do not make a response. </p>","","0","instructions","","","","","","","","","","","","","",""
"html-keyboard-response","86","451531","0.0-9.0-2.0-0.0","1718","2","2","""event"",""trial"",""time""
""fullscreenenter"",""1"",""2820""
","
","
","""event"",""trial"",""time""
""fullscreenenter"",""1"",""2820""
","
","","","","","","null","<div style=""font-size:60px;"">+</div>","null","","fixation","","","","","","","","","","","","","",""
"learning-trial","87","455537","0.0-9.0-2.0-1.0","1718","2","2","""event"",""trial"",""time""
""fullscreenenter"",""1"",""2820""
","
","
","""event"",""trial"",""time""
""fullscreenenter"",""1"",""2820""
","
","","","","","","2270.600000000093","images/bush2.png","","","learning","images/plants_choice1.png","images/plants_choice2.png","images/plants_choice3.png","[0,1,2]","0","0","1","images/plants_choice1.png","1","plants","","bush","2","0"
"html-keyboard-response","88","456041","0.0-9.0-2.0-0.1","1718","2","2","""event"",""trial"",""time""
""fullscreenenter"",""1"",""2820""
","
","
","""event"",""trial"",""time""
""fullscreenenter"",""1"",""2820""
","
","","","","","","null","<div style=""font-size:60px;"">+</div>","null","","fixation","","","","","","","","","","","","","",""
"learning-trial","89","460047","0.0-9.0-2.0-1.1","1718","2","2","""event"",""trial"",""time""
""fullscreenenter"",""1"",""2820""
","
","
","""event"",""trial"",""time""
""fullscreenenter"",""1"",""2820""
","
","","","","","","1855.8999999999069","images/cactus4.png","","","learning","images/plants_choice1.png","images/plants_choice3.png","images/plants_choice2.png","[0,2,1]","1","2","3","images/plants_choice2.png","1","plants","","cactus","2","0"
"html-keyboard-response","90","460552","0.0-9.0-2.0-0.2","1718","2","2","""event"",""trial"",""time""
""fullscreenenter"",""1"",""2820""
","
","
","""event"",""trial"",""time""
""fullscreenenter"",""1"",""2820""
","
","","","","","","null","<div style=""font-size:60px;"">+</div>","null","","fixation","","","","","","","","","","","","","",""
"learning-trial","91","464558","0.0-9.0-2.0-1.2","1718","2","2","""event"",""trial"",""time""
""fullscreenenter"",""1"",""2820""
","
","
","""event"",""trial"",""time""
""fullscreenenter"",""1"",""2820""
","
","","","","","","1511.2999999998137","images/cactus2.png","","","learning","images/plants_choice2.png","images/plants_choice1.png","images/plants_choice3.png","[1,0,2]","0","1","2","images/plants_choice1.png","1","plants","","cactus","2","0"
"html-keyboard-response","92","465063","0.0-9.0-2.0-0.3","1718","2","2","""event"",""trial"",""time""
""fullscreenenter"",""1"",""2820""
","
","
","""event"",""trial"",""time""
""fullscreenenter"",""1"",""2820""
","
","","","","","","null","<div style=""font-size:60px;"">+</div>","null","","fixation","","","","","","","","","","","","","",""
"learning-trial","93","469068","0.0-9.0-2.0-1.3","1718","2","2","""event"",""trial"",""time""
""fullscreenenter"",""1"",""2820""
","
","
","""event"",""trial"",""time""
""fullscreenenter"",""1"",""2820""
","
","","","","","","2523.2999999998137","images/cactus4.png","","","learning","images/plants_choice2.png","images/plants_choice1.png","images/plants_choice3.png","[1,0,2]","1","0","1","images/plants_choice2.png","1","plants","","cactus","2","0"
"html-keyboard-response","94","469573","0.0-9.0-2.0-0.4","1718","2","2","""event"",""trial"",""time""
""fullscreenenter"",""1"",""2820""
","
","
","""event"",""trial"",""time""
""fullscreenenter"",""1"",""2820""
","
","","","","","","null","<div style=""font-size:60px;"">+</div>","null","","fixation","","","","","","","","","","","","","",""
"learning-trial","95","473579","0.0-9.0-2.0-1.4","1718","2","2","""event"",""trial"",""time""
""fullscreenenter"",""1"",""2820""
","
","
","""event"",""trial"",""time""
""fullscreenenter"",""1"",""2820""
","
","","","","","","1570","images/tree4.png","","","learning","images/plants_choice1.png","images/plants_choice2.png","images/plants_choice3.png","[0,1,2]","0","0","1","images/plants_choice1.png","-1","plants","","tree","2","0"
"html-keyboard-response","96","474084","0.0-9.0-2.0-0.5","1718","2","2","""event"",""trial"",""time""
""fullscreenenter"",""1"",""2820""
","
","
","""event"",""trial"",""time""
""fullscreenenter"",""1"",""2820""
","
","","","","","","null","<div style=""font-size:60px;"">+</div>","null","","fixation","","","","","","","","","","","","","",""
"learning-trial","97","478090","0.0-9.0-2.0-1.5","1718","2","2","""event"",""trial"",""time""
""fullscreenenter"",""1"",""2820""
","
","
","""event"",""trial"",""time""
""fullscreenenter"",""1"",""2820""
","
","","","","","","3437.7999999998137","images/bush3.png","","","learning","images/plants_choice1.png","images/plants_choice2.png","images/plants_choice3.png","[0,1,2]","1","1","2","images/plants_choice2.png","1","plants","","bush","2","0"
"html-keyboard-response","98","478595","0.0-9.0-2.0-0.6","1718","2","2","""event"",""trial"",""time""
""fullscreenenter"",""1"",""2820""
","
","
","""event"",""trial"",""time""
""fullscreenenter"",""1"",""2820""
","
","","","","","","null","<div style=""font-size:60px;"">+</div>","null","","fixation","","","","","","","","","","","","","",""
"learning-trial","99","482601","0.0-9.0-2.0-1.6","1718","2","2","""event"",""trial"",""time""
""fullscreenenter"",""1"",""2820""
","
","
","""event"",""trial"",""time""
""fullscreenenter"",""1"",""2820""
","
","","","","","","1711.4000000003725","images/bush4.png","","","learning","images/plants_choice1.png","images/plants_choice3.png","images/plants_choice2.png","[0,2,1]","2","1","1","images/plants_choice1.png","-1","plants","","bush","2","0"
"html-keyboard-response","100","483106","0.0-9.0-2.0-0.7","1718","2","2","""event"",""trial"",""time""
""fullscreenenter"",""1"",""2820""
","
","
","""event"",""trial"",""time""
""fullscreenenter"",""1"",""2820""
","
","","","","","","null","<div style=""font-size:60px;"">+</div>","null","","fixation","","","","","","","","","","","","","",""
"learning-trial","101","487112","0.0-9.0-2.0-1.7","1718","2","2","""event"",""trial"",""time""
""fullscreenenter"",""1"",""2820""
","
","
","""event"",""trial"",""time""
""fullscreenenter"",""1"",""2820""
","
","","","","","","1229.6000000000931","images/cactus5.png","","","learning","images/plants_choice1.png","images/plants_choice2.png","images/plants_choice3.png","[0,1,2]","2","2","2","images/plants_choice2.png","-1","plants","","cactus","2","0"
"html-keyboard-response","102","487617","0.0-9.0-2.0-0.8","1718","2","2","""event"",""trial"",""time""
""fullscreenenter"",""1"",""2820""
","
","
","""event"",""trial"",""time""
""fullscreenenter"",""1"",""2820""
","
","","","","","","null","<div style=""font-size:60px;"">+</div>","null","","fixation","","","","","","","","","","","","","",""
"learning-trial","103","491623","0.0-9.0-2.0-1.8","1718","2","2","""event"",""trial"",""time""
""fullscreenenter"",""1"",""2820""
","
","
","""event"",""trial"",""time""
""fullscreenenter"",""1"",""2820""
","
","","","","","","1849.2999999998137","images/tree4.png","","","learning","images/plants_choice1.png","images/plants_choice3.png","images/plants_choice2.png","[0,2,1]","0","0","3","images/plants_choice2.png","-1","plants","","tree","2","0"
"html-keyboard-response","104","492127","0.0-9.0-2.0-0.9","1718","2","2","""event"",""trial"",""time""
""fullscreenenter"",""1"",""2820""
","
","
","""event"",""trial"",""time""
""fullscreenenter"",""1"",""2820""
","
","","","","","","null","<div style=""font-size:60px;"">+</div>","null","","fixation","","","","","","","","","","","","","",""
"learning-trial","105","496133","0.0-9.0-2.0-1.9","1718","2","2","""event"",""trial"",""time""
""fullscreenenter"",""1"",""2820""
","
","
","""event"",""trial"",""time""
""fullscreenenter"",""1"",""2820""
","
","","","","","","1460.5","images/cactus4.png","","","learning","images/plants_choice1.png","images/plants_choice3.png","images/plants_choice2.png","[0,2,1]","1","2","3","images/plants_choice2.png","1","plants","","cactus","2","0"
"html-keyboard-response","106","496638","0.0-9.0-2.0-0.10","1718","2","2","""event"",""trial"",""time""
""fullscreenenter"",""1"",""2820""
","
","
","""event"",""trial"",""time""
""fullscreenenter"",""1"",""2820""
","
","","","","","","null","<div style=""font-size:60px;"">+</div>","null","","fixation","","","","","","","","","","","","","",""
"learning-trial","107","500644","0.0-9.0-2.0-1.10","1718","2","2","""event"",""trial"",""time""
""fullscreenenter"",""1"",""2820""
","
","
","""event"",""trial"",""time""
""fullscreenenter"",""1"",""2820""
","
","","","","","","1591.1000000000931","images/cactus4.png","","","learning","images/plants_choice3.png","images/plants_choice2.png","images/plants_choice1.png","[2,1,0]","1","1","2","images/plants_choice2.png","1","plants","","cactus","2","0"
"html-keyboard-response","108","501149","0.0-9.0-2.0-0.11","1718","2","2","""event"",""trial"",""time""
""fullscreenenter"",""1"",""2820""
","
","
","""event"",""trial"",""time""
""fullscreenenter"",""1"",""2820""
","
","","","","","","null","<div style=""font-size:60px;"">+</div>","null","","fixation","","","","","","","","","","","","","",""
"learning-trial","109","505154","0.0-9.0-2.0-1.11","1718","2","2","""event"",""trial"",""time""
""fullscreenenter"",""1"",""2820""
","
","
","""event"",""trial"",""time""
""fullscreenenter"",""1"",""2820""
","
","","","","","","1909","images/tree3.png","","","learning","images/plants_choice1.png","images/plants_choice3.png","images/plants_choice2.png","[0,2,1]","1","2","1","images/plants_choice1.png","-1","plants","","tree","2","0"
"html-keyboard-response","110","505659","0.0-9.0-2.0-0.12","1718","2","2","""event"",""trial"",""time""
""fullscreenenter"",""1"",""2820""
","
","
","""event"",""trial"",""time""
""fullscreenenter"",""1"",""2820""
","
","","","","","","null","<div style=""font-size:60px;"">+</div>","null","","fixation","","","","","","","","","","","","","",""
"learning-trial","111","509665","0.0-9.0-2.0-1.12","1718","2","2","""event"",""trial"",""time""
""fullscreenenter"",""1"",""2820""
","
","
","""event"",""trial"",""time""
""fullscreenenter"",""1"",""2820""
","
","","","","","","1283.8999999999069","images/tree3.png","","","learning","images/plants_choice2.png","images/plants_choice3.png","images/plants_choice1.png","[1,2,0]","1","0","2","images/plants_choice3.png","1","plants","","tree","2","0"
"html-keyboard-response","112","510170","0.0-9.0-2.0-0.13","1718","2","2","""event"",""trial"",""time""
""fullscreenenter"",""1"",""2820""
","
","
","""event"",""trial"",""time""
""fullscreenenter"",""1"",""2820""
","
","","","","","","null","<div style=""font-size:60px;"">+</div>","null","","fixation","","","","","","","","","","","","","",""
"learning-trial","113","514176","0.0-9.0-2.0-1.13","1718","2","2","""event"",""trial"",""time""
""fullscreenenter"",""1"",""2820""
","
","
","""event"",""trial"",""time""
""fullscreenenter"",""1"",""2820""
","
","","","","","","1308.3999999999069","images/bush2.png","","","learning","images/plants_choice1.png","images/plants_choice2.png","images/plants_choice3.png","[0,1,2]","0","0","1","images/plants_choice1.png","-1","plants","","bush","2","0"
"html-keyboard-response","114","514680","0.0-9.0-2.0-0.14","1718","2","2","""event"",""trial"",""time""
""fullscreenenter"",""1"",""2820""
","
","
","""event"",""trial"",""time""
""fullscreenenter"",""1"",""2820""
","
","","","","","","null","<div style=""font-size:60px;"">+</div>","null","","fixation","","","","","","","","","","","","","",""
"learning-trial","115","518689","0.0-9.0-2.0-1.14","1718","2","2","""event"",""trial"",""time""
""fullscreenenter"",""1"",""2820""
","
","
","""event"",""trial"",""time""
""fullscreenenter"",""1"",""2820""
","
","","","","","","1460.8999999999069","images/cactus5.png","","","learning","images/plants_choice1.png","images/plants_choice2.png","images/plants_choice3.png","[0,1,2]","2","2","3","images/plants_choice3.png","1","plants","","cactus","2","0"
"html-keyboard-response","116","519195","0.0-9.0-2.0-0.15","1718","2","2","""event"",""trial"",""time""
""fullscreenenter"",""1"",""2820""
","
","
","""event"",""trial"",""time""
""fullscreenenter"",""1"",""2820""
","
","","","","","","null","<div style=""font-size:60px;"">+</div>","null","","fixation","","","","","","","","","","","","","",""
"learning-trial","117","523207","0.0-9.0-2.0-1.15","1718","2","2","""event"",""trial"",""time""
""fullscreenenter"",""1"",""2820""
","
","
","""event"",""trial"",""time""
""fullscreenenter"",""1"",""2820""
","
","","","","","","1989.0999999996275","images/bush2.png","","","learning","images/plants_choice1.png","images/plants_choice2.png","images/plants_choice3.png","[0,1,2]","0","0","1","images/plants_choice1.png","1","plants","","bush","2","0"
"html-keyboard-response","118","523713","0.0-9.0-2.0-0.16","1718","2","2","""event"",""trial"",""time""
""fullscreenenter"",""1"",""2820""
","
","
","""event"",""trial"",""time""
""fullscreenenter"",""1"",""2820""
","
","","","","","","null","<div style=""font-size:60px;"">+</div>","null","","fixation","","","","","","","","","","","","","",""
"learning-trial","119","527723","0.0-9.0-2.0-1.16","1718","2","2","""event"",""trial"",""time""
""fullscreenenter"",""1"",""2820""
","
","
","""event"",""trial"",""time""
""fullscreenenter"",""1"",""2820""
","
","","","","","","1527.3999999999069","images/tree3.png","","","learning","images/plants_choice2.png","images/plants_choice3.png","images/plants_choice1.png","[1,2,0]","1","0","2","images/plants_choice3.png","-1","plants","","tree","2","0"
"html-keyboard-response","120","528228","0.0-9.0-2.0-0.17","1718","2","2","""event"",""trial"",""time""
""fullscreenenter"",""1"",""2820""
","
","
","""event"",""trial"",""time""
""fullscreenenter"",""1"",""2820""
","
","","","","","","null","<div style=""font-size:60px;"">+</div>","null","","fixation","","","","","","","","","","","","","",""
"learning-trial","121","532238","0.0-9.0-2.0-1.17","1718","2","2","""event"",""trial"",""time""
""fullscreenenter"",""1"",""2820""
","
","
","""event"",""trial"",""time""
""fullscreenenter"",""1"",""2820""
","
","","","","","","1942.6000000000931","images/bush3.png","","","learning","images/plants_choice2.png","images/plants_choice3.png","images/plants_choice1.png","[1,2,0]","1","0","1","images/plants_choice2.png","1","plants","","bush","2","0"
"html-keyboard-response","122","532743","0.0-9.0-2.0-0.18","1718","2","2","""event"",""trial"",""time""
""fullscreenenter"",""1"",""2820""
","
","
","""event"",""trial"",""time""
""fullscreenenter"",""1"",""2820""
","
","","","","","","null","<div style=""font-size:60px;"">+</div>","null","","fixation","","","","","","","","","","","","","",""
"learning-trial","123","536752","0.0-9.0-2.0-1.18","1718","2","2","""event"",""trial"",""time""
""fullscreenenter"",""1"",""2820""
","
","
","""event"",""trial"",""time""
""fullscreenenter"",""1"",""2820""
","
","","","","","","1656.1000000000931","images/bush3.png","","","learning","images/plants_choice3.png","images/plants_choice2.png","images/plants_choice1.png","[2,1,0]","1","1","3","images/plants_choice1.png","-1","plants","","bush","2","0"
"html-keyboard-response","124","537257","0.0-9.0-2.0-0.19","1718","2","2","""event"",""trial"",""time""
""fullscreenenter"",""1"",""2820""
","
","
","""event"",""trial"",""time""
""fullscreenenter"",""1"",""2820""
","
","","","","","","null","<div style=""font-size:60px;"">+</div>","null","","fixation","","","","","","","","","","","","","",""
"learning-trial","125","541265","0.0-9.0-2.0-1.19","1718","2","2","""event"",""trial"",""time""
""fullscreenenter"",""1"",""2820""
","
","
","""event"",""trial"",""time""
""fullscreenenter"",""1"",""2820""
","
","","","","","","3062.899999999907","images/tree5.png","","","learning","images/plants_choice1.png","images/plants_choice3.png","images/plants_choice2.png","[0,2,1]","2","1","1","images/plants_choice1.png","-1","plants","","tree","2","0"
"html-keyboard-response","126","541770","0.0-9.0-2.0-0.20","1718","2","2","""event"",""trial"",""time""
""fullscreenenter"",""1"",""2820""
","
","
","""event"",""trial"",""time""
""fullscreenenter"",""1"",""2820""
","
","","","","","","null","<div style=""font-size:60px;"">+</div>","null","","fixation","","","","","","","","","","","","","",""
"learning-trial","127","545777","0.0-9.0-2.0-1.20","1718","2","2","""event"",""trial"",""time""
""fullscreenenter"",""1"",""2820""
","
","
","""event"",""trial"",""time""
""fullscreenenter"",""1"",""2820""
","
","","","","","","1758.6000000000931","images/bush4.png","","","learning","images/plants_choice3.png","images/plants_choice2.png","images/plants_choice1.png","[2,1,0]","2","0","2","images/plants_choice2.png","-1","plants","","bush","2","0"
"html-keyboard-response","128","546282","0.0-9.0-2.0-0.21","1718","2","2","""event"",""trial"",""time""
""fullscreenenter"",""1"",""2820""
","
","
","""event"",""trial"",""time""
""fullscreenenter"",""1"",""2820""
","
","","","","","","null","<div style=""font-size:60px;"">+</div>","null","","fixation","","","","","","","","","","","","","",""
"learning-trial","129","550289","0.0-9.0-2.0-1.21","1718","2","2","""event"",""trial"",""time""
""fullscreenenter"",""1"",""2820""
","
","
","""event"",""trial"",""time""
""fullscreenenter"",""1"",""2820""
","
","","","","","","1297.4000000003725","images/bush4.png","","","learning","images/plants_choice2.png","images/plants_choice1.png","images/plants_choice3.png","[1,0,2]","2","2","3","images/plants_choice3.png","1","plants","","bush","2","0"
"html-keyboard-response","130","550794","0.0-9.0-2.0-0.22","1718","2","2","""event"",""trial"",""time""
""fullscreenenter"",""1"",""2820""
","
","
","""event"",""trial"",""time""
""fullscreenenter"",""1"",""2820""
","
","","","","","","null","<div style=""font-size:60px;"">+</div>","null","","fixation","","","","","","","","","","","","","",""
"learning-trial","131","554801","0.0-9.0-2.0-1.22","1718","2","2","""event"",""trial"",""time""
""fullscreenenter"",""1"",""2820""
","
","
","""event"",""trial"",""time""
""fullscreenenter"",""1"",""2820""
","
","","","","","","1040.7999999998137","images/cactus4.png","","","learning","images/plants_choice3.png","images/plants_choice1.png","images/plants_choice2.png","[2,0,1]","1","2","3","images/plants_choice2.png","1","plants","","cactus","2","0"
"html-keyboard-response","132","555306","0.0-9.0-2.0-0.23","1718","2","2","""event"",""trial"",""time""
""fullscreenenter"",""1"",""2820""
","
","
","""event"",""trial"",""time""
""fullscreenenter"",""1"",""2820""
","
","","","","","","null","<div style=""font-size:60px;"">+</div>","null","","fixation","","","","","","","","","","","","","",""
"learning-trial","133","559312","0.0-9.0-2.0-1.23","1718","2","2","""event"",""trial"",""time""
""fullscreenenter"",""1"",""2820""
","
","
","""event"",""trial"",""time""
""fullscreenenter"",""1"",""2820""
","
","","","","","","1208.3000000002794","images/tree3.png","","","learning","images/plants_choice1.png","images/plants_choice3.png","images/plants_choice2.png","[0,2,1]","1","2","2","images/plants_choice3.png","-1","plants","","tree","2","0"
"html-keyboard-response","134","559817","0.0-9.0-2.0-0.24","1718","2","2","""event"",""trial"",""time""
""fullscreenenter"",""1"",""2820""
","
","
","""event"",""trial"",""time""
""fullscreenenter"",""1"",""2820""
","
","","","","","","null","<div style=""font-size:60px;"">+</div>","null","","fixation","","","","","","","","","","","","","",""
"learning-trial","135","563824","0.0-9.0-2.0-1.24","1718","2","2","""event"",""trial"",""time""
""fullscreenenter"",""1"",""2820""
","
","
","""event"",""trial"",""time""
""fullscreenenter"",""1"",""2820""
","
","","","","","","3320.7999999998137","images/cactus5.png","","","learning","images/plants_choice3.png","images/plants_choice2.png","images/plants_choice1.png","[2,1,0]","2","0","1","images/plants_choice3.png","1","plants","","cactus","2","0"
"html-keyboard-response","136","564328","0.0-9.0-2.0-0.25","1718","2","2","""event"",""trial"",""time""
""fullscreenenter"",""1"",""2820""
","
","
","""event"",""trial"",""time""
""fullscreenenter"",""1"",""2820""
","
","","","","","","null","<div style=""font-size:60px;"">+</div>","null","","fixation","","","","","","","","","","","","","",""
"learning-trial","137","568335","0.0-9.0-2.0-1.25","1718","2","2","""event"",""trial"",""time""
""fullscreenenter"",""1"",""2820""
","
","
","""event"",""trial"",""time""
""fullscreenenter"",""1"",""2820""
","
","","","","","","2066.399999999907","images/tree4.png","","","learning","images/plants_choice1.png","images/plants_choice2.png","images/plants_choice3.png","[0,1,2]","0","0","3","images/plants_choice3.png","-1","plants","","tree","2","0"
"html-keyboard-response","138","568839","0.0-9.0-2.0-0.26","1718","2","2","""event"",""trial"",""time""
""fullscreenenter"",""1"",""2820""
","
","
","""event"",""trial"",""time""
""fullscreenenter"",""1"",""2820""
","
","","","","","","null","<div style=""font-size:60px;"">+</div>","null","","fixation","","","","","","","","","","","","","",""
"learning-trial","139","572845","0.0-9.0-2.0-1.26","1718","2","2","""event"",""trial"",""time""
""fullscreenenter"",""1"",""2820""
","
","
","""event"",""trial"",""time""
""fullscreenenter"",""1"",""2820""
","
","","","","","","2768.3000000002794","images/bush4.png","","","learning","images/plants_choice1.png","images/plants_choice3.png","images/plants_choice2.png","[0,2,1]","2","1","2","images/plants_choice3.png","1","plants","","bush","2","0"
"html-keyboard-response","140","573350","0.0-9.0-2.0-0.27","1718","2","2","""event"",""trial"",""time""
""fullscreenenter"",""1"",""2820""
","
","
","""event"",""trial"",""time""
""fullscreenenter"",""1"",""2820""
","
","","","","","","null","<div style=""font-size:60px;"">+</div>","null","","fixation","","","","","","","","","","","","","",""
"learning-trial","141","577356","0.0-9.0-2.0-1.27","1718","2","2","""event"",""trial"",""time""
""fullscreenenter"",""1"",""2820""
","
","
","""event"",""trial"",""time""
""fullscreenenter"",""1"",""2820""
","
","","","","","","840.7000000001863","images/bush2.png","","","learning","images/plants_choice1.png","images/plants_choice2.png","images/plants_choice3.png","[0,1,2]","0","0","1","images/plants_choice1.png","1","plants","","bush","2","0"
"html-keyboard-response","142","577861","0.0-9.0-2.0-0.28","1718","2","2","""event"",""trial"",""time""
""fullscreenenter"",""1"",""2820""
","
","
","""event"",""trial"",""time""
""fullscreenenter"",""1"",""2820""
","
","","","","","","null","<div style=""font-size:60px;"">+</div>","null","","fixation","","","","","","","","","","","","","",""
"learning-trial","143","581867","0.0-9.0-2.0-1.28","1718","2","2","""event"",""trial"",""time""
""fullscreenenter"",""1"",""2820""
","
","
","""event"",""trial"",""time""
""fullscreenenter"",""1"",""2820""
","
","","","","","","2650","images/cactus5.png","","","learning","images/plants_choice3.png","images/plants_choice1.png","images/plants_choice2.png","[2,0,1]","2","0","1","images/plants_choice3.png","1","plants","","cactus","2","0"
"html-keyboard-response","144","582372","0.0-9.0-2.0-0.29","1718","2","2","""event"",""trial"",""time""
""fullscreenenter"",""1"",""2820""
","
","
","""event"",""trial"",""time""
""fullscreenenter"",""1"",""2820""
","
","","","","","","null","<div style=""font-size:60px;"">+</div>","null","","fixation","","","","","","","","","","","","","",""
"learning-trial","145","586378","0.0-9.0-2.0-1.29","1718","2","2","""event"",""trial"",""time""
""fullscreenenter"",""1"",""2820""
","
","
","""event"",""trial"",""time""
""fullscreenenter"",""1"",""2820""
","
","","","","","","565.3000000002794","images/cactus5.png","","","learning","images/plants_choice3.png","images/plants_choice1.png","images/plants_choice2.png","[2,0,1]","2","0","1","images/plants_choice3.png","1","plants","","cactus","2","0"
"html-keyboard-response","146","586883","0.0-9.0-2.0-0.30","1718","2","2","""event"",""trial"",""time""
""fullscreenenter"",""1"",""2820""
","
","
","""event"",""trial"",""time""
""fullscreenenter"",""1"",""2820""
","
","","","","","","null","<div style=""font-size:60px;"">+</div>","null","","fixation","","","","","","","","","","","","","",""
"learning-trial","147","590889","0.0-9.0-2.0-1.30","1718","2","2","""event"",""trial"",""time""
""fullscreenenter"",""1"",""2820""
","
","
","""event"",""trial"",""time""
""fullscreenenter"",""1"",""2820""
","
","","","","","","1826","images/tree4.png","","","learning","images/plants_choice2.png","images/plants_choice3.png","images/plants_choice1.png","[1,2,0]","0","2","1","images/plants_choice2.png","-1","plants","","tree","2","0"
"html-keyboard-response","148","591393","0.0-9.0-2.0-0.31","1718","2","2","""event"",""trial"",""time""
""fullscreenenter"",""1"",""2820""
","
","
","""event"",""trial"",""time""
""fullscreenenter"",""1"",""2820""
","
","","","","","","null","<div style=""font-size:60px;"">+</div>","null","","fixation","","","","","","","","","","","","","",""
"learning-trial","149","595399","0.0-9.0-2.0-1.31","1718","2","2","""event"",""trial"",""time""
""fullscreenenter"",""1"",""2820""
","
","
","""event"",""trial"",""time""
""fullscreenenter"",""1"",""2820""
","
","","","","","","1439.9000000003725","images/bush4.png","","","learning","images/plants_choice2.png","images/plants_choice3.png","images/plants_choice1.png","[1,2,0]","2","1","2","images/plants_choice3.png","1","plants","","bush","2","0"
"html-keyboard-response","150","595904","0.0-9.0-2.0-0.32","1718","2","2","""event"",""trial"",""time""
""fullscreenenter"",""1"",""2820""
","
","
","""event"",""trial"",""time""
""fullscreenenter"",""1"",""2820""
","
","","","","","","null","<div style=""font-size:60px;"">+</div>","null","","fixation","","","","","","","","","","","","","",""
"learning-trial","151","599910","0.0-9.0-2.0-1.32","1718","2","2","""event"",""trial"",""time""
""fullscreenenter"",""1"",""2820""
","
","
","""event"",""trial"",""time""
""fullscreenenter"",""1"",""2820""
","
","","","","","","795.8999999999069","images/tree3.png","","","learning","images/plants_choice1.png","images/plants_choice3.png","images/plants_choice2.png","[0,2,1]","1","2","2","images/plants_choice3.png","-1","plants","","tree","2","0"
"html-keyboard-response","152","600415","0.0-9.0-2.0-0.33","1718","2","2","""event"",""trial"",""time""
""fullscreenenter"",""1"",""2820""
","
","
","""event"",""trial"",""time""
""fullscreenenter"",""1"",""2820""
","
","","","","","","null","<div style=""font-size:60px;"">+</div>","null","","fixation","","","","","","","","","","","","","",""
"learning-trial","153","604421","0.0-9.0-2.0-1.33","1718","2","2","""event"",""trial"",""time""
""fullscreenenter"",""1"",""2820""
","
","
","""event"",""trial"",""time""
""fullscreenenter"",""1"",""2820""
","
","","","","","","null","images/tree5.png","","","learning","images/plants_choice2.png","images/plants_choice1.png","images/plants_choice3.png","[1,0,2]","2","2","null","null","-1","plants","","tree","2","0"
"html-keyboard-response","154","604925","0.0-9.0-2.0-0.34","1718","2","2","""event"",""trial"",""time""
""fullscreenenter"",""1"",""2820""
","
","
","""event"",""trial"",""time""
""fullscreenenter"",""1"",""2820""
","
","","","","","","null","<div style=""font-size:60px;"">+</div>","null","","fixation","","","","","","","","","","","","","",""
"learning-trial","155","608931","0.0-9.0-2.0-1.34","1718","2","2","""event"",""trial"",""time""
""fullscreenenter"",""1"",""2820""
","
","
","""event"",""trial"",""time""
""fullscreenenter"",""1"",""2820""
","
","","","","","","1279.7999999998137","images/cactus2.png","","","learning","images/plants_choice1.png","images/plants_choice3.png","images/plants_choice2.png","[0,2,1]","0","0","1","images/plants_choice1.png","1","plants","","cactus","2","0"
"html-keyboard-response","156","609436","0.0-9.0-2.0-0.35","1718","2","2","""event"",""trial"",""time""
""fullscreenenter"",""1"",""2820""
","
","
","""event"",""trial"",""time""
""fullscreenenter"",""1"",""2820""
","
","","","","","","null","<div style=""font-size:60px;"">+</div>","null","","fixation","","","","","","","","","","","","","",""
"learning-trial","157","613442","0.0-9.0-2.0-1.35","1718","2","2","""event"",""trial"",""time""
""fullscreenenter"",""1"",""2820""
","
","
","""event"",""trial"",""time""
""fullscreenenter"",""1"",""2820""
","
","","","","","","2059.1999999997206","images/bush3.png","","","learning","images/plants_choice1.png","images/plants_choice2.png","images/plants_choice3.png","[0,1,2]","1","1","2","images/plants_choice2.png","1","plants","","bush","2","0"
"html-keyboard-response","158","613947","0.0-9.0-2.0-0.36","1718","2","2","""event"",""trial"",""time""
""fullscreenenter"",""1"",""2820""
","
","
","""event"",""trial"",""time""
""fullscreenenter"",""1"",""2820""
","
","","","","","","null","<div style=""font-size:60px;"">+</div>","null","","fixation","","","","","","","","","","","","","",""
"learning-trial","159","617952","0.0-9.0-2.0-1.36","1718","2","2","""event"",""trial"",""time""
""fullscreenenter"",""1"",""2820""
","
","
","""event"",""trial"",""time""
""fullscreenenter"",""1"",""2820""
","
","","","","","","1383.5","images/tree3.png","","","learning","images/plants_choice3.png","images/plants_choice2.png","images/plants_choice1.png","[2,1,0]","1","1","3","images/plants_choice1.png","-1","plants","","tree","2","0"
"html-keyboard-response","160","618457","0.0-9.0-2.0-0.37","1718","2","2","""event"",""trial"",""time""
""fullscreenenter"",""1"",""2820""
","
","
","""event"",""trial"",""time""
""fullscreenenter"",""1"",""2820""
","
","","","","","","null","<div style=""font-size:60px;"">+</div>","null","","fixation","","","","","","","","","","","","","",""
"learning-trial","161","622463","0.0-9.0-2.0-1.37","1718","2","2","""event"",""trial"",""time""
""fullscreenenter"",""1"",""2820""
","
","
","""event"",""trial"",""time""
""fullscreenenter"",""1"",""2820""
","
","","","","","","642.7999999998137","images/tree3.png","","","learning","images/plants_choice1.png","images/plants_choice3.png","images/plants_choice2.png","[0,2,1]","1","2","2","images/plants_choice3.png","-1","plants","","tree","2","0"
"html-keyboard-response","162","622968","0.0-9.0-2.0-0.38","1718","2","2","""event"",""trial"",""time""
""fullscreenenter"",""1"",""2820""
","
","
","""event"",""trial"",""time""
""fullscreenenter"",""1"",""2820""
","
","","","","","","null","<div style=""font-size:60px;"">+</div>","null","","fixation","","","","","","","","","","","","","",""
"learning-trial","163","626974","0.0-9.0-2.0-1.38","1718","2","2","""event"",""trial"",""time""
""fullscreenenter"",""1"",""2820""
","
","
","""event"",""trial"",""time""
""fullscreenenter"",""1"",""2820""
","
","","","","","","1790.3000000002794","images/cactus2.png","","","learning","images/plants_choice2.png","images/plants_choice3.png","images/plants_choice1.png","[1,2,0]","0","2","3","images/plants_choice1.png","1","plants","","cactus","2","0"
"html-keyboard-response","164","627479","0.0-9.0-2.0-0.39","1718","2","2","""event"",""trial"",""time""
""fullscreenenter"",""1"",""2820""
","
","
","""event"",""trial"",""time""
""fullscreenenter"",""1"",""2820""
","
","","","","","","null","<div style=""font-size:60px;"">+</div>","null","","fixation","","","","","","","","","","","","","",""
"learning-trial","165","631484","0.0-9.0-2.0-1.39","1718","2","2","""event"",""trial"",""time""
""fullscreenenter"",""1"",""2820""
","
","
","""event"",""trial"",""time""
""fullscreenenter"",""1"",""2820""
","
","","","","","","1576.6999999997206","images/tree4.png","","","learning","images/plants_choice3.png","images/plants_choice2.png","images/plants_choice1.png","[2,1,0]","0","2","2","images/plants_choice2.png","-1","plants","","tree","2","0"
"html-keyboard-response","166","631989","0.0-9.0-2.0-0.40","1718","2","2","""event"",""trial"",""time""
""fullscreenenter"",""1"",""2820""
","
","
","""event"",""trial"",""time""
""fullscreenenter"",""1"",""2820""
","
","","","","","","null","<div style=""font-size:60px;"">+</div>","null","","fixation","","","","","","","","","","","","","",""
"learning-trial","167","635995","0.0-9.0-2.0-1.40","1718","2","2","""event"",""trial"",""time""
""fullscreenenter"",""1"",""2820""
","
","
","""event"",""trial"",""time""
""fullscreenenter"",""1"",""2820""
","
","","","","","","1597.3999999999069","images/cactus2.png","","","learning","images/plants_choice2.png","images/plants_choice1.png","images/plants_choice3.png","[1,0,2]","0","1","1","images/plants_choice2.png","1","plants","","cactus","2","0"
"html-keyboard-response","168","636500","0.0-9.0-2.0-0.41","1718","2","2","""event"",""trial"",""time""
""fullscreenenter"",""1"",""2820""
","
","
","""event"",""trial"",""time""
""fullscreenenter"",""1"",""2820""
","
","","","","","","null","<div style=""font-size:60px;"">+</div>","null","","fixation","","","","","","","","","","","","","",""
"learning-trial","169","640506","0.0-9.0-2.0-1.41","1718","2","2","""event"",""trial"",""time""
""fullscreenenter"",""1"",""2820""
","
","
","""event"",""trial"",""time""
""fullscreenenter"",""1"",""2820""
","
","","","","","","1231.3999999999069","images/bush4.png","","","learning","images/plants_choice3.png","images/plants_choice2.png","images/plants_choice1.png","[2,1,0]","2","0","1","images/plants_choice3.png","1","plants","","bush","2","0"
"html-keyboard-response","170","641010","0.0-9.0-2.0-0.42","1718","2","2","""event"",""trial"",""time""
""fullscreenenter"",""1"",""2820""
","
","
","""event"",""trial"",""time""
""fullscreenenter"",""1"",""2820""
","
","","","","","","null","<div style=""font-size:60px;"">+</div>","null","","fixation","","","","","","","","","","","","","",""
"learning-trial","171","645016","0.0-9.0-2.0-1.42","1718","2","2","""event"",""trial"",""time""
""fullscreenenter"",""1"",""2820""
","
","
","""event"",""trial"",""time""
""fullscreenenter"",""1"",""2820""
","
","","","","","","1406.6999999997206","images/cactus4.png","","","learning","images/plants_choice1.png","images/plants_choice3.png","images/plants_choice2.png","[0,2,1]","1","2","3","images/plants_choice2.png","1","plants","","cactus","2","0"
"html-keyboard-response","172","645521","0.0-9.0-2.0-0.43","1718","2","2","""event"",""trial"",""time""
""fullscreenenter"",""1"",""2820""
","
","
","""event"",""trial"",""time""
""fullscreenenter"",""1"",""2820""
","
","","","","","","null","<div style=""font-size:60px;"">+</div>","null","","fixation","","","","","","","","","","","","","",""
"learning-trial","173","649527","0.0-9.0-2.0-1.43","1718","2","2","""event"",""trial"",""time""
""fullscreenenter"",""1"",""2820""
","
","
","""event"",""trial"",""time""
""fullscreenenter"",""1"",""2820""
","
","","","","","","2043.7999999998137","images/tree5.png","","","learning","images/plants_choice2.png","images/plants_choice3.png","images/plants_choice1.png","[1,2,0]","2","1","2","images/plants_choice3.png","1","plants","","tree","2","0"
"html-keyboard-response","174","650032","0.0-9.0-2.0-0.44","1718","2","2","""event"",""trial"",""time""
""fullscreenenter"",""1"",""2820""
","
","
","""event"",""trial"",""time""
""fullscreenenter"",""1"",""2820""
","
","","","","","","null","<div style=""font-size:60px;"">+</div>","null","","fixation","","","","","","","","","","","","","",""
"learning-trial","175","654037","0.0-9.0-2.0-1.44","1718","2","2","""event"",""trial"",""time""
""fullscreenenter"",""1"",""2820""
","
","
","""event"",""trial"",""time""
""fullscreenenter"",""1"",""2820""
","
","","","","","","2112.399999999907","images/bush2.png","","","learning","images/plants_choice3.png","images/plants_choice1.png","images/plants_choice2.png","[2,0,1]","0","1","2","images/plants_choice1.png","-1","plants","","bush","2","0"
"html-keyboard-response","176","654542","0.0-9.0-2.0-0.45","1718","2","2","""event"",""trial"",""time""
""fullscreenenter"",""1"",""2820""
","
","
","""event"",""trial"",""time""
""fullscreenenter"",""1"",""2820""
","
","","","","","","null","<div style=""font-size:60px;"">+</div>","null","","fixation","","","","","","","","","","","","","",""
"learning-trial","177","658548","0.0-9.0-2.0-1.45","1718","2","2","""event"",""trial"",""time""
""fullscreenenter"",""1"",""2820""
","
","
","""event"",""trial"",""time""
""fullscreenenter"",""1"",""2820""
","
","","","","","","1873.2000000001863","images/tree3.png","","","learning","images/plants_choice1.png","images/plants_choice2.png","images/plants_choice3.png","[0,1,2]","1","1","3","images/plants_choice3.png","-1","plants","","tree","2","0"
"html-keyboard-response","178","659053","0.0-9.0-2.0-0.46","1718","2","2","""event"",""trial"",""time""
""fullscreenenter"",""1"",""2820""
","
","
","""event"",""trial"",""time""
""fullscreenenter"",""1"",""2820""
","
","","","","","","null","<div style=""font-size:60px;"">+</div>","null","","fixation","","","","","","","","","","","","","",""
"learning-trial","179","663059","0.0-9.0-2.0-1.46","1718","2","2","""event"",""trial"",""time""
""fullscreenenter"",""1"",""2820""
","
","
","""event"",""trial"",""time""
""fullscreenenter"",""1"",""2820""
","
","","","","","","1403.1000000000931","images/bush2.png","","","learning","images/plants_choice2.png","images/plants_choice3.png","images/plants_choice1.png","[1,2,0]","0","2","1","images/plants_choice2.png","-1","plants","","bush","2","0"
"html-keyboard-response","180","663564","0.0-9.0-2.0-0.47","1718","2","2","""event"",""trial"",""time""
""fullscreenenter"",""1"",""2820""
","
","
","""event"",""trial"",""time""
""fullscreenenter"",""1"",""2820""
","
","","","","","","null","<div style=""font-size:60px;"">+</div>","null","","fixation","","","","","","","","","","","","","",""
"learning-trial","181","667569","0.0-9.0-2.0-1.47","1718","2","2","""event"",""trial"",""time""
""fullscreenenter"",""1"",""2820""
","
","
","""event"",""trial"",""time""
""fullscreenenter"",""1"",""2820""
","
","","","","","","1163.7000000001863","images/tree5.png","","","learning","images/plants_choice2.png","images/plants_choice3.png","images/plants_choice1.png","[1,2,0]","2","1","2","images/plants_choice3.png","1","plants","","tree","2","0"
"html-keyboard-response","182","668074","0.0-9.0-2.0-0.48","1718","2","2","""event"",""trial"",""time""
""fullscreenenter"",""1"",""2820""
","
","
","""event"",""trial"",""time""
""fullscreenenter"",""1"",""2820""
","
","","","","","","null","<div style=""font-size:60px;"">+</div>","null","","fixation","","","","","","","","","","","","","",""
"learning-trial","183","672080","0.0-9.0-2.0-1.48","1718","2","2","""event"",""trial"",""time""
""fullscreenenter"",""1"",""2820""
","
","
","""event"",""trial"",""time""
""fullscreenenter"",""1"",""2820""
","
","","","","","","1211.6000000000931","images/tree4.png","","","learning","images/plants_choice1.png","images/plants_choice3.png","images/plants_choice2.png","[0,2,1]","0","0","1","images/plants_choice1.png","1","plants","","tree","2","0"
"html-keyboard-response","184","672585","0.0-9.0-2.0-0.49","1718","2","2","""event"",""trial"",""time""
""fullscreenenter"",""1"",""2820""
","
","
","""event"",""trial"",""time""
""fullscreenenter"",""1"",""2820""
","
","","","","","","null","<div style=""font-size:60px;"">+</div>","null","","fixation","","","","","","","","","","","","","",""
"learning-trial","185","676590","0.0-9.0-2.0-1.49","1718","2","2","""event"",""trial"",""time""
""fullscreenenter"",""1"",""2820""
","
","
","""event"",""trial"",""time""
""fullscreenenter"",""1"",""2820""
","
","","","","","","1142.3999999999069","images/cactus5.png","","","learning","images/plants_choice1.png","images/plants_choice3.png","images/plants_choice2.png","[0,2,1]","2","1","3","images/plants_choice2.png","-1","plants","","cactus","2","0"
"html-keyboard-response","186","677095","0.0-9.0-2.0-0.50","1718","2","2","""event"",""trial"",""time""
""fullscreenenter"",""1"",""2820""
","
","
","""event"",""trial"",""time""
""fullscreenenter"",""1"",""2820""
","
","","","","","","null","<div style=""font-size:60px;"">+</div>","null","","fixation","","","","","","","","","","","","","",""
"learning-trial","187","681101","0.0-9.0-2.0-1.50","1718","2","2","""event"",""trial"",""time""
""fullscreenenter"",""1"",""2820""
","
","
","""event"",""trial"",""time""
""fullscreenenter"",""1"",""2820""
","
","","","","","","1754.2999999998137","images/cactus2.png","","","learning","images/plants_choice2.png","images/plants_choice1.png","images/plants_choice3.png","[1,0,2]","0","1","1","images/plants_choice2.png","-1","plants","","cactus","2","0"
"html-keyboard-response","188","681606","0.0-9.0-2.0-0.51","1718","2","2","""event"",""trial"",""time""
""fullscreenenter"",""1"",""2820""
","
","
","""event"",""trial"",""time""
""fullscreenenter"",""1"",""2820""
","
","","","","","","null","<div style=""font-size:60px;"">+</div>","null","","fixation","","","","","","","","","","","","","",""
"learning-trial","189","685612","0.0-9.0-2.0-1.51","1718","2","2","""event"",""trial"",""time""
""fullscreenenter"",""1"",""2820""
","
","
","""event"",""trial"",""time""
""fullscreenenter"",""1"",""2820""
","
","","","","","","1288.5","images/tree5.png","","","learning","images/plants_choice3.png","images/plants_choice2.png","images/plants_choice1.png","[2,1,0]","2","0","1","images/plants_choice3.png","1","plants","","tree","2","0"
"html-keyboard-response","190","686117","0.0-9.0-2.0-0.52","1718","2","2","""event"",""trial"",""time""
""fullscreenenter"",""1"",""2820""
","
","
","""event"",""trial"",""time""
""fullscreenenter"",""1"",""2820""
","
","","","","","","null","<div style=""font-size:60px;"">+</div>","null","","fixation","","","","","","","","","","","","","",""
"learning-trial","191","690122","0.0-9.0-2.0-1.52","1718","2","2","""event"",""trial"",""time""
""fullscreenenter"",""1"",""2820""
","
","
","""event"",""trial"",""time""
""fullscreenenter"",""1"",""2820""
","
","","","","","","1780.8999999999069","images/bush4.png","","","learning","images/plants_choice3.png","images/plants_choice2.png","images/plants_choice1.png","[2,1,0]","2","0","1","images/plants_choice3.png","-1","plants","","bush","2","0"
"html-keyboard-response","192","690627","0.0-9.0-2.0-0.53","1718","2","2","""event"",""trial"",""time""
""fullscreenenter"",""1"",""2820""
","
","
","""event"",""trial"",""time""
""fullscreenenter"",""1"",""2820""
","
","","","","","","null","<div style=""font-size:60px;"">+</div>","null","","fixation","","","","","","","","","","","","","",""
"learning-trial","193","694633","0.0-9.0-2.0-1.53","1718","2","2","""event"",""trial"",""time""
""fullscreenenter"",""1"",""2820""
","
","
","""event"",""trial"",""time""
""fullscreenenter"",""1"",""2820""
","
","","","","","","2186.600000000093","images/tree4.png","","","learning","images/plants_choice2.png","images/plants_choice1.png","images/plants_choice3.png","[1,0,2]","0","1","2","images/plants_choice1.png","-1","plants","","tree","2","0"
"html-keyboard-response","194","695138","0.0-9.0-2.0-0.54","1718","2","2","""event"",""trial"",""time""
""fullscreenenter"",""1"",""2820""
","
","
","""event"",""trial"",""time""
""fullscreenenter"",""1"",""2820""
","
","","","","","","null","<div style=""font-size:60px;"">+</div>","null","","fixation","","","","","","","","","","","","","",""
"learning-trial","195","699144","0.0-9.0-2.0-1.54","1718","2","2","""event"",""trial"",""time""
""fullscreenenter"",""1"",""2820""
","
","
","""event"",""trial"",""time""
""fullscreenenter"",""1"",""2820""
","
","","","","","","964.1000000000931","images/tree4.png","","","learning","images/plants_choice2.png","images/plants_choice1.png","images/plants_choice3.png","[1,0,2]","0","1","2","images/plants_choice1.png","1","plants","","tree","2","0"
"html-keyboard-response","196","699648","0.0-9.0-2.0-0.55","1718","2","2","""event"",""trial"",""time""
""fullscreenenter"",""1"",""2820""
","
","
","""event"",""trial"",""time""
""fullscreenenter"",""1"",""2820""
","
","","","","","","null","<div style=""font-size:60px;"">+</div>","null","","fixation","","","","","","","","","","","","","",""
"learning-trial","197","703654","0.0-9.0-2.0-1.55","1718","2","2","""event"",""trial"",""time""
""fullscreenenter"",""1"",""2820""
","
","
","""event"",""trial"",""time""
""fullscreenenter"",""1"",""2820""
","
","","","","","","1332.3999999999069","images/bush3.png","","","learning","images/plants_choice2.png","images/plants_choice3.png","images/plants_choice1.png","[1,2,0]","1","0","3","images/plants_choice1.png","-1","plants","","bush","2","0"
"html-keyboard-response","198","704159","0.0-9.0-2.0-0.56","1718","2","2","""event"",""trial"",""time""
""fullscreenenter"",""1"",""2820""
","
","
","""event"",""trial"",""time""
""fullscreenenter"",""1"",""2820""
","
","","","","","","null","<div style=""font-size:60px;"">+</div>","null","","fixation","","","","","","","","","","","","","",""
"learning-trial","199","708165","0.0-9.0-2.0-1.56","1718","2","2","""event"",""trial"",""time""
""fullscreenenter"",""1"",""2820""
","
","
","""event"",""trial"",""time""
""fullscreenenter"",""1"",""2820""
","
","","","","","","1453","images/bush2.png","","","learning","images/plants_choice3.png","images/plants_choice2.png","images/plants_choice1.png","[2,1,0]","0","2","1","images/plants_choice3.png","-1","plants","","bush","2","0"
"html-keyboard-response","200","708670","0.0-9.0-2.0-0.57","1718","2","2","""event"",""trial"",""time""
""fullscreenenter"",""1"",""2820""
","
","
","""event"",""trial"",""time""
""fullscreenenter"",""1"",""2820""
","
","","","","","","null","<div style=""font-size:60px;"">+</div>","null","","fixation","","","","","","","","","","","","","",""
"learning-trial","201","712675","0.0-9.0-2.0-1.57","1718","2","2","""event"",""trial"",""time""
""fullscreenenter"",""1"",""2820""
","
","
","""event"",""trial"",""time""
""fullscreenenter"",""1"",""2820""
","
","","","","","","1734.5","images/cactus2.png","","","learning","images/plants_choice3.png","images/plants_choice1.png","images/plants_choice2.png","[2,0,1]","0","1","1","images/plants_choice3.png","-1","plants","","cactus","2","0"
"html-keyboard-response","202","713180","0.0-9.0-2.0-0.58","1718","2","2","""event"",""trial"",""time""
""fullscreenenter"",""1"",""2820""
","
","
","""event"",""trial"",""time""
""fullscreenenter"",""1"",""2820""
","
","","","","","","null","<div style=""font-size:60px;"">+</div>","null","","fixation","","","","","","","","","","","","","",""
"learning-trial","203","717186","0.0-9.0-2.0-1.58","1718","2","2","""event"",""trial"",""time""
""fullscreenenter"",""1"",""2820""
","
","
","""event"",""trial"",""time""
""fullscreenenter"",""1"",""2820""
","
","","","","","","2387","images/cactus5.png","","","learning","images/plants_choice2.png","images/plants_choice3.png","images/plants_choice1.png","[1,2,0]","2","1","2","images/plants_choice3.png","1","plants","","cactus","2","0"
"html-keyboard-response","204","717691","0.0-9.0-2.0-0.59","1718","2","2","""event"",""trial"",""time""
""fullscreenenter"",""1"",""2820""
","
","
","""event"",""trial"",""time""
""fullscreenenter"",""1"",""2820""
","
","","","","","","null","<div style=""font-size:60px;"">+</div>","null","","fixation","","","","","","","","","","","","","",""
"learning-trial","205","721696","0.0-9.0-2.0-1.59","1718","2","2","""event"",""trial"",""time""
""fullscreenenter"",""1"",""2820""
","
","
","""event"",""trial"",""time""
""fullscreenenter"",""1"",""2820""
","
","","","","","","1020.6999999997206","images/tree5.png","","","learning","images/plants_choice1.png","images/plants_choice2.png","images/plants_choice3.png","[0,1,2]","2","2","3","images/plants_choice3.png","1","plants","","tree","2","0"
"html-keyboard-response","206","722202","0.0-9.0-2.0-0.60","1718","2","2","""event"",""trial"",""time""
""fullscreenenter"",""1"",""2820""
","
","
","""event"",""trial"",""time""
""fullscreenenter"",""1"",""2820""
","
","","","","","","null","<div style=""font-size:60px;"">+</div>","null","","fixation","","","","","","","","","","","","","",""
"learning-trial","207","726207","0.0-9.0-2.0-1.60","1718","2","2","""event"",""trial"",""time""
""fullscreenenter"",""1"",""2820""
","
","
","""event"",""trial"",""time""
""fullscreenenter"",""1"",""2820""
","
","","","","","","1387.2999999998137","images/bush3.png","","","learning","images/plants_choice2.png","images/plants_choice3.png","images/plants_choice1.png","[1,2,0]","1","0","1","images/plants_choice2.png","-1","plants","","bush","2","0"
"html-keyboard-response","208","726712","0.0-9.0-2.0-0.61","1718","2","2","""event"",""trial"",""time""
""fullscreenenter"",""1"",""2820""
","
","
","""event"",""trial"",""time""
""fullscreenenter"",""1"",""2820""
","
","","","","","","null","<div style=""font-size:60px;"">+</div>","null","","fixation","","","","","","","","","","","","","",""
"learning-trial","209","730718","0.0-9.0-2.0-1.61","1718","2","2","""event"",""trial"",""time""
""fullscreenenter"",""1"",""2820""
","
","
","""event"",""trial"",""time""
""fullscreenenter"",""1"",""2820""
","
","","","","","","1196.3999999999069","images/bush2.png","","","learning","images/plants_choice1.png","images/plants_choice3.png","images/plants_choice2.png","[0,2,1]","0","0","2","images/plants_choice3.png","-1","plants","","bush","2","0"
"html-keyboard-response","210","731223","0.0-9.0-2.0-0.62","1718","2","2","""event"",""trial"",""time""
""fullscreenenter"",""1"",""2820""
","
","
","""event"",""trial"",""time""
""fullscreenenter"",""1"",""2820""
","
","","","","","","null","<div style=""font-size:60px;"">+</div>","null","","fixation","","","","","","","","","","","","","",""
"learning-trial","211","735228","0.0-9.0-2.0-1.62","1718","2","2","""event"",""trial"",""time""
""fullscreenenter"",""1"",""2820""
","
","
","""event"",""trial"",""time""
""fullscreenenter"",""1"",""2820""
","
","","","","","","1730.8999999999069","images/cactus2.png","","","learning","images/plants_choice1.png","images/plants_choice3.png","images/plants_choice2.png","[0,2,1]","0","0","1","images/plants_choice1.png","1","plants","","cactus","2","0"
"html-keyboard-response","212","735733","0.0-9.0-2.0-0.63","1718","2","2","""event"",""trial"",""time""
""fullscreenenter"",""1"",""2820""
","
","
","""event"",""trial"",""time""
""fullscreenenter"",""1"",""2820""
","
","","","","","","null","<div style=""font-size:60px;"">+</div>","null","","fixation","","","","","","","","","","","","","",""
"learning-trial","213","739739","0.0-9.0-2.0-1.63","1718","2","2","""event"",""trial"",""time""
""fullscreenenter"",""1"",""2820""
","
","
","""event"",""trial"",""time""
""fullscreenenter"",""1"",""2820""
","
","","","","","","1567","images/bush3.png","","","learning","images/plants_choice3.png","images/plants_choice2.png","images/plants_choice1.png","[2,1,0]","1","1","3","images/plants_choice1.png","-1","plants","","bush","2","0"
"html-keyboard-response","214","740244","0.0-9.0-2.0-0.64","1718","2","2","""event"",""trial"",""time""
""fullscreenenter"",""1"",""2820""
","
","
","""event"",""trial"",""time""
""fullscreenenter"",""1"",""2820""
","
","","","","","","null","<div style=""font-size:60px;"">+</div>","null","","fixation","","","","","","","","","","","","","",""
"learning-trial","215","744250","0.0-9.0-2.0-1.64","1718","2","2","""event"",""trial"",""time""
""fullscreenenter"",""1"",""2820""
","
","
","""event"",""trial"",""time""
""fullscreenenter"",""1"",""2820""
","
","","","","","","799.6000000000931","images/bush3.png","","","learning","images/plants_choice2.png","images/plants_choice3.png","images/plants_choice1.png","[1,2,0]","1","0","2","images/plants_choice3.png","-1","plants","","bush","2","0"
"html-keyboard-response","216","744755","0.0-9.0-2.0-0.65","1718","2","2","""event"",""trial"",""time""
""fullscreenenter"",""1"",""2820""
","
","
","""event"",""trial"",""time""
""fullscreenenter"",""1"",""2820""
","
","","","","","","null","<div style=""font-size:60px;"">+</div>","null","","fixation","","","","","","","","","","","","","",""
"learning-trial","217","748760","0.0-9.0-2.0-1.65","1718","2","2","""event"",""trial"",""time""
""fullscreenenter"",""1"",""2820""
","
","
","""event"",""trial"",""time""
""fullscreenenter"",""1"",""2820""
","
","","","","","","1085.1999999997206","images/cactus4.png","","","learning","images/plants_choice3.png","images/plants_choice2.png","images/plants_choice1.png","[2,1,0]","1","1","2","images/plants_choice2.png","1","plants","","cactus","2","0"
"html-keyboard-response","218","749265","0.0-9.0-2.0-0.66","1718","2","2","""event"",""trial"",""time""
""fullscreenenter"",""1"",""2820""
","
","
","""event"",""trial"",""time""
""fullscreenenter"",""1"",""2820""
","
","","","","","","null","<div style=""font-size:60px;"">+</div>","null","","fixation","","","","","","","","","","","","","",""
"learning-trial","219","753271","0.0-9.0-2.0-1.66","1718","2","2","""event"",""trial"",""time""
""fullscreenenter"",""1"",""2820""
","
","
","""event"",""trial"",""time""
""fullscreenenter"",""1"",""2820""
","
","","","","","","1327.2999999998137","images/cactus5.png","","","learning","images/plants_choice1.png","images/plants_choice3.png","images/plants_choice2.png","[0,2,1]","2","1","2","images/plants_choice3.png","1","plants","","cactus","2","0"
"html-keyboard-response","220","753776","0.0-9.0-2.0-0.67","1718","2","2","""event"",""trial"",""time""
""fullscreenenter"",""1"",""2820""
","
","
","""event"",""trial"",""time""
""fullscreenenter"",""1"",""2820""
","
","","","","","","null","<div style=""font-size:60px;"">+</div>","null","","fixation","","","","","","","","","","","","","",""
"learning-trial","221","757781","0.0-9.0-2.0-1.67","1718","2","2","""event"",""trial"",""time""
""fullscreenenter"",""1"",""2820""
","
","
","""event"",""trial"",""time""
""fullscreenenter"",""1"",""2820""
","
","","","","","","1004.2999999998137","images/tree5.png","","","learning","images/plants_choice1.png","images/plants_choice2.png","images/plants_choice3.png","[0,1,2]","2","2","3","images/plants_choice3.png","1","plants","","tree","2","0"
"html-keyboard-response","222","758286","0.0-9.0-2.0-0.68","1718","2","2","""event"",""trial"",""time""
""fullscreenenter"",""1"",""2820""
","
","
","""event"",""trial"",""time""
""fullscreenenter"",""1"",""2820""
","
","","","","","","null","<div style=""font-size:60px;"">+</div>","null","","fixation","","","","","","","","","","","","","",""
"learning-trial","223","762292","0.0-9.0-2.0-1.68","1718","2","2","""event"",""trial"",""time""
""fullscreenenter"",""1"",""2820""
","
","
","""event"",""trial"",""time""
""fullscreenenter"",""1"",""2820""
","
","","","","","","1279.2000000001863","images/tree5.png","","","learning","images/plants_choice2.png","images/plants_choice3.png","images/plants_choice1.png","[1,2,0]","2","1","2","images/plants_choice3.png","1","plants","","tree","2","0"
"html-keyboard-response","224","762797","0.0-9.0-2.0-0.69","1718","2","2","""event"",""trial"",""time""
""fullscreenenter"",""1"",""2820""
","
","
","""event"",""trial"",""time""
""fullscreenenter"",""1"",""2820""
","
","","","","","","null","<div style=""font-size:60px;"">+</div>","null","","fixation","","","","","","","","","","","","","",""
"learning-trial","225","766803","0.0-9.0-2.0-1.69","1718","2","2","""event"",""trial"",""time""
""fullscreenenter"",""1"",""2820""
","
","
","""event"",""trial"",""time""
""fullscreenenter"",""1"",""2820""
","
","","","","","","970.6000000000931","images/cactus4.png","","","learning","images/plants_choice3.png","images/plants_choice1.png","images/plants_choice2.png","[2,0,1]","1","2","3","images/plants_choice2.png","1","plants","","cactus","2","0"
"html-keyboard-response","226","767308","0.0-9.0-2.0-0.70","1718","2","2","""event"",""trial"",""time""
""fullscreenenter"",""1"",""2820""
","
","
","""event"",""trial"",""time""
""fullscreenenter"",""1"",""2820""
","
","","","","","","null","<div style=""font-size:60px;"">+</div>","null","","fixation","","","","","","","","","","","","","",""
"learning-trial","227","771313","0.0-9.0-2.0-1.70","1718","2","2","""event"",""trial"",""time""
""fullscreenenter"",""1"",""2820""
","
","
","""event"",""trial"",""time""
""fullscreenenter"",""1"",""2820""
","
","","","","","","1280.3000000002794","images/bush4.png","","","learning","images/plants_choice1.png","images/plants_choice2.png","images/plants_choice3.png","[0,1,2]","2","2","1","images/plants_choice1.png","-1","plants","","bush","2","0"
"html-keyboard-response","228","771818","0.0-9.0-2.0-0.71","1718","2","2","""event"",""trial"",""time""
""fullscreenenter"",""1"",""2820""
","
","
","""event"",""trial"",""time""
""fullscreenenter"",""1"",""2820""
","
","","","","","","null","<div style=""font-size:60px;"">+</div>","null","","fixation","","","","","","","","","","","","","",""
"learning-trial","229","775824","0.0-9.0-2.0-1.71","1718","2","2","""event"",""trial"",""time""
""fullscreenenter"",""1"",""2820""
","
","
","""event"",""trial"",""time""
""fullscreenenter"",""1"",""2820""
","
","","","","","","1527.7000000001863","images/cactus2.png","","","learning","images/plants_choice2.png","images/plants_choice3.png","images/plants_choice1.png","[1,2,0]","0","2","3","images/plants_choice1.png","-1","plants","","cactus","2","0"
"html-button-response","230","779265","0.0-9.0-3.0","1718","2","2","""event"",""trial"",""time""
""fullscreenenter"",""1"",""2820""
","
","
","""event"",""trial"",""time""
""fullscreenenter"",""1"",""2820""
","
","","","","","","3439.7999999998137","<p> You have completed the round! <p> In this round, you earned 4 points! </p>","0","","break","","","","","","","","","","","","","",""
"html-button-response","231","781266","0.0-10.0","1718","2","2","""event"",""trial"",""time""
""fullscreenenter"",""1"",""2820""
","
","
","""event"",""trial"",""time""
""fullscreenenter"",""1"",""2820""
","
","","","","","","1998.8999999999069","<p> Now it's time to play another round. </p>","0","","transition_screen","","","","","","","","","","","","","",""
"preload","232","782654","0.0-11.0-0.0","1718","2","2","""event"",""trial"",""time""
""fullscreenenter"",""1"",""2820""
","
","
","""event"",""trial"",""time""
""fullscreenenter"",""1"",""2820""
","
","true","false","[]","[]","[]","","","","","","","","","","","","","","","","","","",""
"learning-instructions","233","792950","0.0-11.0-1.0-0.0","1718","2","2","""event"",""trial"",""time""
""fullscreenenter"",""1"",""2820""
","
","
","""event"",""trial"",""time""
""fullscreenenter"",""1"",""2820""
","
","","","","","","1855.2999999998137","<p> Your goal in this round is to travel the world by putting fuel into different vehicles. </p><p> To travel, you will need to put fuel into many different vehicles. </p></div>","","0","instructions","","","","","","","","","","","","","",""
"learning-instructions","234","802605","0.0-11.0-1.0-0.1","1718","2","2","""event"",""trial"",""time""
""fullscreenenter"",""1"",""2820""
","
","
","""event"",""trial"",""time""
""fullscreenenter"",""1"",""2820""
","
","","","","","","874.3999999999069","<p> On each turn, you will see a picture of one of your vehicles and three different types of fuel.  </p><p> You need to select which kind of fuel to use.  </p>","","0","instructions","","","","","","","","","","","","","",""
"learning-instructions","235","820104","0.0-11.0-1.0-0.2","1718","2","2","""event"",""trial"",""time""
""fullscreenenter"",""1"",""2820""
","
","
","""event"",""trial"",""time""
""fullscreenenter"",""1"",""2820""
","
","","","","","","10635","<p> You can select the fuel on the left by pressing 1, the fuel in the middle by pressing 2, and the fuel on the right by pressing 3. </p><br><div class=""choice-instructions-grid""> <div class=""choice-option""><img src=""images/vehicles_choice1.png"" class=""choice-option-img"" stage=""instructions"" position=""0"" ><div class=""choice-option-text""> Press ""1."" </div></div><div class=""choice-option""><img src=""images/vehicles_choice2.png"" class=""choice-option-img"" stage=""instructions"" position=""1"" ><div class=""choice-option-text""> Press ""2."" </div></div><div class=""choice-option""><img src=""images/vehicles_choice3.png"" class=""choice-option-img"" stage=""instructions"" position=""2"" ><div class=""choice-option-text""> Press ""3."" </div></div></div>","","0","instructions","","","","","","","","","","","","","",""
"learning-instructions","236","825981","0.0-11.0-1.0-0.3","1718","2","2","""event"",""trial"",""time""
""fullscreenenter"",""1"",""2820""
","
","
