"trial_type","trial_index","time_elapsed","internal_node_id","subject_id","condition","task_version","interactions","blur_events","focus_events","fullscreenenter_events","fullscreenexit_events","success","timeout","failed_images","failed_audio","failed_video","rt","stimulus","response","button_pressed","task_part","left_choice","middle_choice","right_choice","choice_positions","correct_response","correct_position","key_press","option_selected","points","task_block","correct","stim_cat","block_condition","block_number"
"pavlovia","0","4","0.0-0.0","1627","2","2","""event"",""trial"",""time""
""fullscreenenter"",""1"",""290932""
","
","
","""event"",""trial"",""time""
""fullscreenenter"",""1"",""290932""
","
","","","","","","","","","","","","","","","","","","","","","","","",""
"fullscreen","1","291925","0.0-1.0","1627","2","2","""event"",""trial"",""time""
""fullscreenenter"",""1"",""290932""
","
","
","""event"",""trial"",""time""
""fullscreenenter"",""1"",""290932""
","
","true","","","","","","","","","","","","","","","","","","","","","","",""
"preload","2","296567","0.0-2.0","1627","2","2","""event"",""trial"",""time""
""fullscreenenter"",""1"",""290932""
","
","
","""event"",""trial"",""time""
""fullscreenenter"",""1"",""290932""
","
","true","false","[]","[]","[]","","","","","","","","","","","","","","","","","","",""
"audio-keyboard-response","3","301094","0.0-3.0","1627","2","2","""event"",""trial"",""time""
""fullscreenenter"",""1"",""290932""
","
","
","""event"",""trial"",""time""
""fullscreenenter"",""1"",""290932""
","
","","","","","","4520","audio/beep_loop.wav","audiovolumedown","","","","","","","","","","","","","","","",""
"audio-button-response","4","303403","0.0-4.0","1627","2","2","""event"",""trial"",""time""
""fullscreenenter"",""1"",""290932""
","
","
","""event"",""trial"",""time""
""fullscreenenter"",""1"",""290932""
","
","","","","","","2301","audio/shark.wav","4","","","","","","","","","","","","","","","",""
"audio-button-response","5","305726","0.0-5.0","1627","2","2","""event"",""trial"",""time""
""fullscreenenter"",""1"",""290932""
","
","
","""event"",""trial"",""time""
""fullscreenenter"",""1"",""290932""
","
","","","","","","1301","audio/turtle.wav","1","","","","","","","","","","","","","","","",""
"preload","6","320597","0.0-6.0","1627","2","2","""event"",""trial"",""time""
""fullscreenenter"",""1"",""290932""
","
","
","""event"",""trial"",""time""
""fullscreenenter"",""1"",""290932""
","
","true","false","[]","[]","[]","","","","","","","","","","","","","","","","","","",""
"html-keyboard-response","7","421507","0.0-7.0","1627","2","2","""event"",""trial"",""time""
""fullscreenenter"",""1"",""290932""
","
","
","""event"",""trial"",""time""
""fullscreenenter"",""1"",""290932""
","
","","","","","","100907.79999999702","Welcome to the experiment. Press any key to begin and to advance the instructions.","enter","","","","","","","","","","","","","","","",""
"learning-instructions","8","432318","0.0-8.0-0.0-0.0","1627","2","2","""event"",""trial"",""time""
""fullscreenenter"",""1"",""290932""
","
","
","""event"",""trial"",""time""
""fullscreenenter"",""1"",""290932""
","
","","","","","","1943.2999999970198","<p> Welcome! Today you are going to play 6 different rounds of a decision-making game. </p><p> Use the mouse to click next to continue. </p>","","0","instructions","","","","","","","","","","","","","",""
"learning-instructions","9","437371","0.0-8.0-0.0-0.1","1627","2","2","""event"",""trial"",""time""
""fullscreenenter"",""1"",""290932""
","
","
","""event"",""trial"",""time""
""fullscreenenter"",""1"",""290932""
","
","","","","","","2054.7000000029802","<p> You will start with a practice round to learn the rules. </p>","","0","instructions","","","","","","","","","","","","","",""
"learning-instructions","10","446851","0.0-8.0-0.0-0.2","1627","2","2","""event"",""trial"",""time""
""fullscreenenter"",""1"",""290932""
","
","
","""event"",""trial"",""time""
""fullscreenenter"",""1"",""290932""
","
","","","","","","1735.2000000029802","<p> Your goal in this round is to deliver sports equipment to three different parks. </p><p> You will need to deliver many types of equipment. </p></div>","","0","instructions","","","","","","","","","","","","","",""
"learning-instructions","11","456315","0.0-8.0-0.0-0.3","1627","2","2","""event"",""trial"",""time""
""fullscreenenter"",""1"",""290932""
","
","
","""event"",""trial"",""time""
""fullscreenenter"",""1"",""290932""
","
","","","","","","978.5","<p> On each turn, you will see one piece of sports equipment and three different parks.  </p><p> You need to select which park to deliver the equipment to.  </p>","","0","instructions","","","","","","","","","","","","","",""
"learning-instructions","12","471123","0.0-8.0-0.0-0.4","1627","2","2","""event"",""trial"",""time""
""fullscreenenter"",""1"",""290932""
","
","
","""event"",""trial"",""time""
""fullscreenenter"",""1"",""290932""
","
","","","","","","1525.4000000059605","<p> You can select the park on the left by pressing the '1' key on your keyboard. <br>You can select the park in the middle by pressing the '2' key on your keyboard. <br>You can select the park on the right by pressing the '3' key on your keyboard.  </p><br><div class=""choice-instructions-grid""> <div class=""choice-option""><img src=""images/park1.png"" class=""choice-option-img"" stage=""instructions"" position=""0"" ><div class=""choice-option-text""> Press ""1."" </div></div><div class=""choice-option""><img src=""images/park2.png"" class=""choice-option-img"" stage=""instructions"" position=""1"" ><div class=""choice-option-text""> Press ""2."" </div></div><div class=""choice-option""><img src=""images/park3.png"" class=""choice-option-img"" stage=""instructions"" position=""2"" ><div class=""choice-option-text""> Press ""3."" </div></div></div>","","0","instructions","","","","","","","","","","","","","",""
"learning-instructions","13","477926","0.0-8.0-0.0-0.5","1627","2","2","""event"",""trial"",""time""
""fullscreenenter"",""1"",""290932""
","
","
","""event"",""trial"",""time""
""fullscreenenter"",""1"",""290932""
","
","","","","","","1409.3999999910593","<p> If the kids in the park you chose like the equipment, they will be very happy! </p><div style='float: center;'><img src='images/check.png' width = '200' height = '200'></img>","","0","instructions","","","","","","","","","","","","","",""
"learning-instructions","14","484522","0.0-8.0-0.0-0.6","1627","2","2","""event"",""trial"",""time""
""fullscreenenter"",""1"",""290932""
","
","
","""event"",""trial"",""time""
""fullscreenenter"",""1"",""290932""
","
","","","","","","996.1000000089407","<p> But, if the kids in the park you chose do not like the equipment, they will be sad. </p><div style='float: center;'><img src='images/x.png' width = '200' height = '200'></img>","","0","instructions","","","","","","","","","","","","","",""
"learning-instructions","15","492345","0.0-8.0-0.0-0.7","1627","2","2","""event"",""trial"",""time""
""fullscreenenter"",""1"",""290932""
","
","
","""event"",""trial"",""time""
""fullscreenenter"",""1"",""290932""
","
","","","","","","1379.2000000029802","<p> Importantly, the kids in each park like some pieces of sports equipment more than others. </p>","","0","instructions","","","","","","","","","","","","","",""
"learning-instructions","16","499875","0.0-8.0-0.0-0.8","1627","2","2","""event"",""trial"",""time""
""fullscreenenter"",""1"",""290932""
","
","
","""event"",""trial"",""time""
""fullscreenenter"",""1"",""290932""
","
","","","","","","1478","<p> If you choose the best park for each piece of equipment, the kids there will usually be happy. </p>","","0","instructions","","","","","","","","","","","","","",""
"learning-instructions","17","508132","0.0-8.0-0.0-0.9","1627","2","2","""event"",""trial"",""time""
""fullscreenenter"",""1"",""290932""
","
","
","""event"",""trial"",""time""
""fullscreenenter"",""1"",""290932""
","
","","","","","","1615.2999999970198","<p> However, even if you choose the best park for the equipment, the kids may sometimes be sad. </p>","","0","instructions","","","","","","","","","","","","","",""
"learning-instructions","18","516144","0.0-8.0-0.0-0.10","1627","2","2","""event"",""trial"",""time""
""fullscreenenter"",""1"",""290932""
","
","
","""event"",""trial"",""time""
""fullscreenenter"",""1"",""290932""
","
","","","","","","767.7999999970198","<p> Similarly, even if you choose the <i>wrong</i> park for the equipment, the kids may still be happy sometimes.","","0","instructions","","","","","","","","","","","","","",""
"learning-instructions","19","522423","0.0-8.0-0.0-0.11","1627","2","2","""event"",""trial"",""time""
""fullscreenenter"",""1"",""290932""
","
","
","""event"",""trial"",""time""
""fullscreenenter"",""1"",""290932""
","
","","","","","","1226.2999999970198","<p> For example, the best park for this soccer ball is this one.<div style='float: center;'><img src='images/i1.png' width = '500' height = '268'></img>","","0","instructions","","","","","","","","","","","","","",""
"learning-instructions","20","529286","0.0-8.0-0.0-0.12","1627","2","2","""event"",""trial"",""time""
""fullscreenenter"",""1"",""290932""
","
","
","""event"",""trial"",""time""
""fullscreenenter"",""1"",""290932""
","
","","","","","","1560.300000011921","<p> Let's see what happens if you choose this park for the soccer ball five times.","","0","instructions","","","","","","","","","","","","","",""
"learning-instructions","21","532569","0.0-8.0-0.0-0.13","1627","2","2","""event"",""trial"",""time""
""fullscreenenter"",""1"",""290932""
","
","
","""event"",""trial"",""time""
""fullscreenenter"",""1"",""290932""
","
","","","","","","1112.2000000029802","<p> The kids are happy.<div style='float: left;'><img src='images/i2.png' width = '640' height = '360'></img>","","0","instructions","","","","","","","","","","","","","",""
"learning-instructions","22","535215","0.0-8.0-0.0-0.14","1627","2","2","""event"",""trial"",""time""
""fullscreenenter"",""1"",""290932""
","
","
","""event"",""trial"",""time""
""fullscreenenter"",""1"",""290932""
","
","","","","","","479","<p> The kids are happy.<div style='float: left;'><img src='images/i3.png' width = '640' height = '360'></img>","","0","instructions","","","","","","","","","","","","","",""
"learning-instructions","23","538135","0.0-8.0-0.0-0.15","1627","2","2","""event"",""trial"",""time""
""fullscreenenter"",""1"",""290932""
","
","
","""event"",""trial"",""time""
""fullscreenenter"",""1"",""290932""
","
","","","","","","757.2999999970198","<p> The kids are happy.<div style='float: left;'><img src='images/i4.png' width = '640' height = '360'></img>","","0","instructions","","","","","","","","","","","","","",""
"learning-instructions","24","540833","0.0-8.0-0.0-0.16","1627","2","2","""event"",""trial"",""time""
""fullscreenenter"",""1"",""290932""
","
","
","""event"",""trial"",""time""
""fullscreenenter"",""1"",""290932""
","
","","","","","","485.8999999910593","<p> The kids are sad.<div style='float: left;'><img src='images/i5.png' width = '640' height = '360'></img>","","0","instructions","","","","","","","","","","","","","",""
"learning-instructions","25","543882","0.0-8.0-0.0-0.17","1627","2","2","""event"",""trial"",""time""
""fullscreenenter"",""1"",""290932""
","
","
","""event"",""trial"",""time""
""fullscreenenter"",""1"",""290932""
","
","","","","","","875.3999999910593","<p> The kids are happy.<div style='float: left;'><img src='images/i6.png' width = '640' height = '360'></img>","","0","instructions","","","","","","","","","","","","","",""
"learning-instructions","26","552143","0.0-8.0-0.0-0.18","1627","2","2","""event"",""trial"",""time""
""fullscreenenter"",""1"",""290932""
","
","
","""event"",""trial"",""time""
""fullscreenenter"",""1"",""290932""
","
","","","","","","997.1999999880791","<p> As you can see, selecting that park for the soccer ball made the kids happy most of the time, but not all the time.","","0","instructions","","","","","","","","","","","","","",""
"learning-instructions","27","558644","0.0-8.0-0.0-0.19","1627","2","2","""event"",""trial"",""time""
""fullscreenenter"",""1"",""290932""
","
","
","""event"",""trial"",""time""
""fullscreenenter"",""1"",""290932""
","
","","","","","","488.29999999701977","<p> Now let's see what happens if you choose a DIFFERENT park for the soccer ball 5 times.","","0","instructions","","","","","","","","","","","","","",""
"learning-instructions","28","561413","0.0-8.0-0.0-0.20","1627","2","2","""event"",""trial"",""time""
""fullscreenenter"",""1"",""290932""
","
","
","""event"",""trial"",""time""
""fullscreenenter"",""1"",""290932""
","
","","","","","","556.8999999910593","<p> The kids are sad.<div style='float: left;'><img src='images/i7.png' width = '640' height = '360'></img>","","0","instructions","","","","","","","","","","","","","",""
"learning-instructions","29","583411","0.0-8.0-0.0-0.21","1627","2","2","""event"",""trial"",""time""
""fullscreenenter"",""1"",""290932""
","
","
","""event"",""trial"",""time""
""fullscreenenter"",""1"",""290932""
","
","","","","","","19794.70000000298","<p> The kids are sad.<div style='float: left;'><img src='images/i8.png' width = '640' height = '360'></img>","","0","instructions","","","","","","","","","","","","","",""
"learning-instructions","30","586039","0.0-8.0-0.0-0.22","1627","2","2","""event"",""trial"",""time""
""fullscreenenter"",""1"",""290932""
","
","
","""event"",""trial"",""time""
""fullscreenenter"",""1"",""290932""
","
","","","","","","462","<p> The kids are happy.<div style='float: left;'><img src='images/i9.png' width = '640' height = '360'></img>","","0","instructions","","","","","","","","","","","","","",""
"learning-instructions","31","588657","0.0-8.0-0.0-0.23","1627","2","2","""event"",""trial"",""time""
""fullscreenenter"",""1"",""290932""
","
","
","""event"",""trial"",""time""
""fullscreenenter"",""1"",""290932""
","
","","","","","","411","<p> The kids are sad.<div style='float: left;'><img src='images/i10.png' width = '640' height = '360'></img>","","0","instructions","","","","","","","","","","","","","",""
"learning-instructions","32","592592","0.0-8.0-0.0-0.24","1627","2","2","""event"",""trial"",""time""
""fullscreenenter"",""1"",""290932""
","
","
","""event"",""trial"",""time""
""fullscreenenter"",""1"",""290932""
","
","","","","","","1725.300000011921","<p> The kids are sad.<div style='float: left;'><img src='images/i11.png' width = '640' height = '360'></img>","","0","instructions","","","","","","","","","","","","","",""
"learning-instructions","33","604762","0.0-8.0-0.0-0.25","1627","2","2","""event"",""trial"",""time""
""fullscreenenter"",""1"",""290932""
","
","
","""event"",""trial"",""time""
""fullscreenenter"",""1"",""290932""
","
","","","","","","4046.2999999970198","<p> As you can see, selecting the wrong park for the soccer ball made the kids sad most of the time, but not all the time.","","0","instructions","","","","","","","","","","","","","",""
"learning-instructions","34","617265","0.0-8.0-0.0-0.26","1627","2","2","""event"",""trial"",""time""
""fullscreenenter"",""1"",""290932""
","
","
","""event"",""trial"",""time""
""fullscreenenter"",""1"",""290932""
","
","","","","","","3379","<p> The different pieces of equipment belong in different parks. You need to try to learn which is the best park for each piece of equipment.","","0","instructions","","","","","","","","","","","","","",""
"learning-instructions","35","637011","0.0-8.0-0.0-0.27","1627","2","2","""event"",""trial"",""time""
""fullscreenenter"",""1"",""290932""
","
","
","""event"",""trial"",""time""
""fullscreenenter"",""1"",""290932""
","
","","","","","","3365.9000000059605","<p> Try to choose the best park for each piece of equipment, because you will <b> WIN </b> 1 point for each time you make the kids happy and <b>LOSE</b> 1 point for each time you make them sad. </p><p> Remember, if you make the best choice, you will win 1 point most of the time, but not all the time. </p>","","0","instructions","","","","","","","","","","","","","",""
"learning-instructions","36","644309","0.0-8.0-0.0-0.28","1627","2","2","""event"",""trial"",""time""
""fullscreenenter"",""1"",""290932""
","
","
","""event"",""trial"",""time""
""fullscreenenter"",""1"",""290932""
","
","","","","","","1812.9000000059605","<p> This is just a practice round, but in the real game, your bonus payment will depend on your total number of points.","","0","instructions","","","","","","","","","","","","","",""
"learning-instructions","37","656952","0.0-8.0-0.0-0.29","1627","2","2","""event"",""trial"",""time""
""fullscreenenter"",""1"",""290932""
","
","
","""event"",""trial"",""time""
""fullscreenenter"",""1"",""290932""
","
","","","","","","2317.2000000029802","<p> The position where each park appears will change throughout the game. </p><p> The position where the park appears <i> does not </i> influence how likely the kids are to be happy or sad. </p>","","0","instructions","","","","","","","","","","","","","",""
"learning-instructions","38","669011","0.0-8.0-0.0-0.30","1627","2","2","""event"",""trial"",""time""
""fullscreenenter"",""1"",""290932""
","
","
","""event"",""trial"",""time""
""fullscreenenter"",""1"",""290932""
","
","","","","","","1415.0999999940395","<p> You will have 4 seconds to make each choice. Try to respond before time runs out! </p><p> You will lose 1 point each time you do not make a response. </p>","","0","instructions","","","","","","","","","","","","","",""
"learning-instructions","39","816504","0.0-8.0-0.0-0.31","1627","2","2","""event"",""trial"",""time""
""fullscreenenter"",""1"",""290932""
","
","
","""event"",""trial"",""time""
""fullscreenenter"",""1"",""290932""
","
","","","","","","140709.29999999702","<p> Remember, you should use the 1, 2, and 3 keys to select the park for each piece of equipment. </p><br><div class=""choice-instructions-grid""> <div class=""choice-option""><img src=""images/park1.png"" class=""choice-option-img"" stage=""instructions"" position=""0"" ><div class=""choice-option-text""> Press ""1."" </div></div><div class=""choice-option""><img src=""images/park2.png"" class=""choice-option-img"" stage=""instructions"" position=""1"" ><div class=""choice-option-text""> Press ""2."" </div></div><div class=""choice-option""><img src=""images/park3.png"" class=""choice-option-img"" stage=""instructions"" position=""2"" ><div class=""choice-option-text""> Press ""3."" </div></div></div>","","0","instructions","","","","","","","","","","","","","",""
"html-button-response","40","819058","0.0-8.0-1.0","1627","2","2","""event"",""trial"",""time""
""fullscreenenter"",""1"",""290932""
","
","
","""event"",""trial"",""time""
""fullscreenenter"",""1"",""290932""
","
","","","","","","2431.6000000089407","<p> Ready to practice? </p>","0","","","","","","","","","","","","","","","",""
"html-keyboard-response","41","819661","0.0-8.0-2.0-0.0","1627","2","2","""event"",""trial"",""time""
""fullscreenenter"",""1"",""290932""
","
","
","""event"",""trial"",""time""
""fullscreenenter"",""1"",""290932""
","
","","","","","","null","<div style=""font-size:60px;"">+</div>","null","","fixation","","","","","","","","","","","","","",""
"learning-trial","42","823669","0.0-8.0-2.0-1.0","1627","2","2","""event"",""trial"",""time""
""fullscreenenter"",""1"",""290932""
","
","
","""event"",""trial"",""time""
""fullscreenenter"",""1"",""290932""
","
","","","","","","2424.2999999970198","images/ball2.png","","","practice","images/park1.png","images/park2.png","images/park3.png","[0,1,2]","2","2","1","images/park1.png","-1","practice","","","",""
"html-keyboard-response","43","824171","0.0-8.0-2.0-0.1","1627","2","2","""event"",""trial"",""time""
""fullscreenenter"",""1"",""290932""
","
","
","""event"",""trial"",""time""
""fullscreenenter"",""1"",""290932""
","
","","","","","","null","<div style=""font-size:60px;"">+</div>","null","","fixation","","","","","","","","","","","","","",""
"learning-trial","44","828176","0.0-8.0-2.0-1.1","1627","2","2","""event"",""trial"",""time""
""fullscreenenter"",""1"",""290932""
","
","
","""event"",""trial"",""time""
""fullscreenenter"",""1"",""290932""
","
","","","","","","861.0999999940395","images/ball3.png","","","practice","images/park3.png","images/park1.png","images/park2.png","[2,0,1]","1","2","2","images/park1.png","-1","practice","","","",""
"html-keyboard-response","45","828678","0.0-8.0-2.0-0.2","1627","2","2","""event"",""trial"",""time""
""fullscreenenter"",""1"",""290932""
","
","
","""event"",""trial"",""time""
""fullscreenenter"",""1"",""290932""
","
","","","","","","null","<div style=""font-size:60px;"">+</div>","null","","fixation","","","","","","","","","","","","","",""
"learning-trial","46","832687","0.0-8.0-2.0-1.2","1627","2","2","""event"",""trial"",""time""
""fullscreenenter"",""1"",""290932""
","
","
","""event"",""trial"",""time""
""fullscreenenter"",""1"",""290932""
","
","","","","","","896.5","images/racket1.png","","","practice","images/park3.png","images/park2.png","images/park1.png","[2,1,0]","0","2","2","images/park2.png","-1","practice","","","",""
"html-keyboard-response","47","833189","0.0-8.0-2.0-0.3","1627","2","2","""event"",""trial"",""time""
""fullscreenenter"",""1"",""290932""
","
","
","""event"",""trial"",""time""
""fullscreenenter"",""1"",""290932""
","
","","","","","","null","<div style=""font-size:60px;"">+</div>","null","","fixation","","","","","","","","","","","","","",""
"learning-trial","48","837192","0.0-8.0-2.0-1.3","1627","2","2","""event"",""trial"",""time""
""fullscreenenter"",""1"",""290932""
","
","
","""event"",""trial"",""time""
""fullscreenenter"",""1"",""290932""
","
","","","","","","2005.0999999940395","images/ball2.png","","","practice","images/park2.png","images/park1.png","images/park3.png","[1,0,2]","2","2","1","images/park2.png","-1","practice","","","",""
"html-keyboard-response","49","837694","0.0-8.0-2.0-0.4","1627","2","2","""event"",""trial"",""time""
""fullscreenenter"",""1"",""290932""
","
","
","""event"",""trial"",""time""
""fullscreenenter"",""1"",""290932""
","
","","","","","","null","<div style=""font-size:60px;"">+</div>","null","","fixation","","","","","","","","","","","","","",""
"learning-trial","50","841700","0.0-8.0-2.0-1.4","1627","2","2","""event"",""trial"",""time""
""fullscreenenter"",""1"",""290932""
","
","
","""event"",""trial"",""time""
""fullscreenenter"",""1"",""290932""
","
","","","","","","2533.5","images/racket1.png","","","practice","images/park2.png","images/park3.png","images/park1.png","[1,2,0]","0","2","1","images/park2.png","-1","practice","","","",""
"html-keyboard-response","51","842202","0.0-8.0-2.0-0.5","1627","2","2","""event"",""trial"",""time""
""fullscreenenter"",""1"",""290932""
","
","
","""event"",""trial"",""time""
""fullscreenenter"",""1"",""290932""
","
","","","","","","null","<div style=""font-size:60px;"">+</div>","null","","fixation","","","","","","","","","","","","","",""
"learning-trial","52","846208","0.0-8.0-2.0-1.5","1627","2","2","""event"",""trial"",""time""
""fullscreenenter"",""1"",""290932""
","
","
","""event"",""trial"",""time""
""fullscreenenter"",""1"",""290932""
","
","","","","","","1777.2000000029802","images/racket3.png","","","practice","images/park1.png","images/park3.png","images/park2.png","[0,2,1]","1","2","1","images/park1.png","-1","practice","","","",""
"html-keyboard-response","53","846709","0.0-8.0-2.0-0.6","1627","2","2","""event"",""trial"",""time""
""fullscreenenter"",""1"",""290932""
","
","
","""event"",""trial"",""time""
""fullscreenenter"",""1"",""290932""
","
","","","","","","null","<div style=""font-size:60px;"">+</div>","null","","fixation","","","","","","","","","","","","","",""
"learning-trial","54","850717","0.0-8.0-2.0-1.6","1627","2","2","""event"",""trial"",""time""
""fullscreenenter"",""1"",""290932""
","
","
","""event"",""trial"",""time""
""fullscreenenter"",""1"",""290932""
","
","","","","","","1919.9000000059605","images/racket2.png","","","practice","images/park1.png","images/park2.png","images/park3.png","[0,1,2]","2","2","3","images/park3.png","1","practice","","","",""
"html-keyboard-response","55","851219","0.0-8.0-2.0-0.7","1627","2","2","""event"",""trial"",""time""
""fullscreenenter"",""1"",""290932""
","
","
","""event"",""trial"",""time""
""fullscreenenter"",""1"",""290932""
","
","","","","","","null","<div style=""font-size:60px;"">+</div>","null","","fixation","","","","","","","","","","","","","",""
"learning-trial","56","855225","0.0-8.0-2.0-1.7","1627","2","2","""event"",""trial"",""time""
""fullscreenenter"",""1"",""290932""
","
","
","""event"",""trial"",""time""
""fullscreenenter"",""1"",""290932""
","
","","","","","","2473","images/racket4.png","","","practice","images/park2.png","images/park3.png","images/park1.png","[1,2,0]","0","2","1","images/park2.png","-1","practice","","","",""
"html-keyboard-response","57","855727","0.0-8.0-2.0-0.8","1627","2","2","""event"",""trial"",""time""
""fullscreenenter"",""1"",""290932""
","
","
","""event"",""trial"",""time""
""fullscreenenter"",""1"",""290932""
","
","","","","","","null","<div style=""font-size:60px;"">+</div>","null","","fixation","","","","","","","","","","","","","",""
"learning-trial","58","859744","0.0-8.0-2.0-1.8","1627","2","2","""event"",""trial"",""time""
""fullscreenenter"",""1"",""290932""
","
","
","""event"",""trial"",""time""
""fullscreenenter"",""1"",""290932""
","
","","","","","","2827.5","images/racket3.png","","","practice","images/park1.png","images/park3.png","images/park2.png","[0,2,1]","1","2","2","images/park3.png","-1","practice","","","",""
"html-keyboard-response","59","860246","0.0-8.0-2.0-0.9","1627","2","2","""event"",""trial"",""time""
""fullscreenenter"",""1"",""290932""
","
","
","""event"",""trial"",""time""
""fullscreenenter"",""1"",""290932""
","
","","","","","","null","<div style=""font-size:60px;"">+</div>","null","","fixation","","","","","","","","","","","","","",""
"learning-trial","60","864254","0.0-8.0-2.0-1.9","1627","2","2","""event"",""trial"",""time""
""fullscreenenter"",""1"",""290932""
","
","
","""event"",""trial"",""time""
""fullscreenenter"",""1"",""290932""
","
","","","","","","2416.6000000089407","images/racket2.png","","","practice","images/park2.png","images/park3.png","images/park1.png","[1,2,0]","2","1","2","images/park3.png","1","practice","","","",""
"html-keyboard-response","61","864756","0.0-8.0-2.0-0.10","1627","2","2","""event"",""trial"",""time""
""fullscreenenter"",""1"",""290932""
","
","
","""event"",""trial"",""time""
""fullscreenenter"",""1"",""290932""
","
","","","","","","null","<div style=""font-size:60px;"">+</div>","null","","fixation","","","","","","","","","","","","","",""
"learning-trial","62","868761","0.0-8.0-2.0-1.10","1627","2","2","""event"",""trial"",""time""
""fullscreenenter"",""1"",""290932""
","
","
","""event"",""trial"",""time""
""fullscreenenter"",""1"",""290932""
","
","","","","","","2916.6000000089407","images/ball3.png","","","practice","images/park2.png","images/park3.png","images/park1.png","[1,2,0]","1","0","1","images/park2.png","1","practice","","","",""
"html-keyboard-response","63","869265","0.0-8.0-2.0-0.11","1627","2","2","""event"",""trial"",""time""
""fullscreenenter"",""1"",""290932""
","
","
","""event"",""trial"",""time""
""fullscreenenter"",""1"",""290932""
","
","","","","","","null","<div style=""font-size:60px;"">+</div>","null","","fixation","","","","","","","","","","","","","",""
"learning-trial","64","873271","0.0-8.0-2.0-1.11","1627","2","2","""event"",""trial"",""time""
""fullscreenenter"",""1"",""290932""
","
","
","""event"",""trial"",""time""
""fullscreenenter"",""1"",""290932""
","
","","","","","","2539.5999999940395","images/racket4.png","","","practice","images/park3.png","images/park2.png","images/park1.png","[2,1,0]","0","2","2","images/park2.png","-1","practice","","","",""
"html-button-response","65","875086","0.0-8.0-3.0","1627","2","2","""event"",""trial"",""time""
""fullscreenenter"",""1"",""290932""
","
","
","""event"",""trial"",""time""
""fullscreenenter"",""1"",""290932""
","
","","","","","","1810.9000000059605","<p> You earned -6 points in the practice round! </p>","0","","break","","","","","","","","","","","","","",""
"learning-instructions","66","885713","0.0-8.0-4.0-0.0","1627","2","2","""event"",""trial"",""time""
""fullscreenenter"",""1"",""290932""
","
","
","""event"",""trial"",""time""
""fullscreenenter"",""1"",""290932""
","
","","","","","","1757.7999999970198","<p> It's almost time to start the real game. </p><p> Before you start, we're going to ask you a few questions about how the game works. </p>","","0","instructions","","","","","","","","","","","","","",""
"preload","67","887509","0.0-8.0-5.0","1627","2","2","""event"",""trial"",""time""
""fullscreenenter"",""1"",""290932""
","
","
","""event"",""trial"",""time""
""fullscreenenter"",""1"",""290932""
","
","true","false","[]","[]","[]","","","","","","","","","","","","","","","","","","",""
"comp-q","68","893858","0.0-8.0-6.0-0.0","1627","2","2","""event"",""trial"",""time""
""fullscreenenter"",""1"",""290932""
","
","
","""event"",""trial"",""time""
""fullscreenenter"",""1"",""290932""
","
","","","","","","901.3999999910593","<p> <b> True or False? </b> </p><p> If you choose the best option, you will always earn 1 point. </p>","","1","comp_question","","","","","","","","","","","true","","",""
"comp-q","69","906007","0.0-8.0-6.0-1.0","1627","2","2","""event"",""trial"",""time""
""fullscreenenter"",""1"",""290932""
","
","
","""event"",""trial"",""time""
""fullscreenenter"",""1"",""290932""
","
","","","","","","6481.29999999702","<p><b> That's right! </b> Sometimes you will lose 1 point, even if you choose the best option. </p>","","0","comp_answer","","","","","","","","","","","","","",""
"comp-q","70","912056","0.0-8.0-6.0-0.1","1627","2","2","""event"",""trial"",""time""
""fullscreenenter"",""1"",""290932""
","
","
","""event"",""trial"",""time""
""fullscreenenter"",""1"",""290932""
","
","","","","","","1410.4000000059605","<p> <b> True or False? </b> </p><p> You will have as much time as you want to make each choice. </p>","","1","comp_question","","","","","","","","","","","true","","",""
"comp-q","71","919226","0.0-8.0-6.0-1.1","1627","2","2","""event"",""trial"",""time""
""fullscreenenter"",""1"",""290932""
","
","
","""event"",""trial"",""time""
""fullscreenenter"",""1"",""290932""
","
","","","","","","2340.5999999940395","<p> <b> That's right! </b> You will only have 4 seconds to make each choice. </p>","","0","comp_answer","","","","","","","","","","","","","",""
"comp-q","72","926096","0.0-8.0-6.0-0.2","1627","2","2","""event"",""trial"",""time""
""fullscreenenter"",""1"",""290932""
","
","
","""event"",""trial"",""time""
""fullscreenenter"",""1"",""290932""
","
","","","","","","701.2000000029802","<p> <b> True or False? </b> </p><p> You should use the '1', '2', and '3' keys to make your choices. </p>","","0","comp_question","","","","","","","","","","","true","","",""
"comp-q","73","934812","0.0-8.0-6.0-1.2","1627","2","2","""event"",""trial"",""time""
""fullscreenenter"",""1"",""290932""
","
","
","""event"",""trial"",""time""
""fullscreenenter"",""1"",""290932""
","
","","","","","","3877.4000000059605","<p> <b> That's right! </b> You should use the '1', '2', and '3' keys to make each choice. </p>","","0","comp_answer","","","","","","","","","","","","","",""
"learning-instructions","74","947512","0.0-8.0-7.0-0.0","1627","2","2","""event"",""trial"",""time""
""fullscreenenter"",""1"",""290932""
","
","
","""event"",""trial"",""time""
""fullscreenenter"",""1"",""290932""
","
","","","","","","4197.399999991059","<p> It's now time to start the real game. </p>Do your best, because the points you earn in the next rounds will influence your bonus payment. </p>","","0","instructions","","","","","","","","","","","","","",""
"preload","75","948970","0.0-9.0-0.0","1627","2","2","""event"",""trial"",""time""
""fullscreenenter"",""1"",""290932""
","
","
","""event"",""trial"",""time""
""fullscreenenter"",""1"",""290932""
","
","true","false","[]","[]","[]","","","","","","","","","","","","","","","","","","",""
"learning-instructions","76","958340","0.0-9.0-1.0-0.0","1627","2","2","""event"",""trial"",""time""
""fullscreenenter"",""1"",""290932""
","
","
","""event"",""trial"",""time""
""fullscreenenter"",""1"",""290932""
","
","","","","","","1586","<p> Your goal in this round is to deliver furniture to three different buildings. </p><p> You will need to deliver many pieces of furniture. </p></div>","","0","instructions","","","","","","","","","","","","","",""
"learning-instructions","77","966830","0.0-9.0-1.0-0.1","1627","2","2","""event"",""trial"",""time""
""fullscreenenter"",""1"",""290932""
","
","
","""event"",""trial"",""time""
""fullscreenenter"",""1"",""290932""
","
","","","","","","1055","<p> On each turn, you will see a picture of a furniture item and three different buildings.  </p><p> You need to select the building that you want to deliver the furniture to.  </p>","","0","instructions","","","","","","","","","","","","","",""
"learning-instructions","78","976383","0.0-9.0-1.0-0.2","1627","2","2","""event"",""trial"",""time""
""fullscreenenter"",""1"",""290932""
","
","
","""event"",""trial"",""time""
""fullscreenenter"",""1"",""290932""
","
","","","","","","1246.8999999910593","<p> You can select the building on the left by pressing 1, the building in the middle by pressing 2, and the building on the right by pressing 3.  </p><br><div class=""choice-instructions-grid""> <div class=""choice-option""><img src=""images/furniture_choice1.png"" class=""choice-option-img"" stage=""instructions"" position=""0"" ><div class=""choice-option-text""> Press ""1."" </div></div><div class=""choice-option""><img src=""images/furniture_choice2.png"" class=""choice-option-img"" stage=""instructions"" position=""1"" ><div class=""choice-option-text""> Press ""2."" </div></div><div class=""choice-option""><img src=""images/furniture_choice3.png"" class=""choice-option-img"" stage=""instructions"" position=""2"" ><div class=""choice-option-text""> Press ""3."" </div></div></div>","","0","instructions","","","","","","","","","","","","","",""
"learning-instructions","79","984286","0.0-9.0-1.0-0.3","1627","2","2","""event"",""trial"",""time""
""fullscreenenter"",""1"",""290932""
","
","
","""event"",""trial"",""time""
""fullscreenenter"",""1"",""290932""
","
","","","","","","1880.9000000059605","<p> If the furniture belongs in the building you chose, the building owner will likely be very happy! </p><div style='float: center;'><img src='images/check.png' width = '200' height = '200'></img>","","0","instructions","","","","","","","","","","","","","",""
"learning-instructions","80","992359","0.0-9.0-1.0-0.4","1627","2","2","""event"",""trial"",""time""
""fullscreenenter"",""1"",""290932""
","
","
","""event"",""trial"",""time""
""fullscreenenter"",""1"",""290932""
","
","","","","","","2084.2000000029802","<p> But, if the furniture does not belong in the building you chose, the owner will likely be mad. </p><div style='float: center;'><img src='images/x.png' width = '200' height = '200'></img>","","0","instructions","","","","","","","","","","","","","",""
"learning-instructions","81","1005480","0.0-9.0-1.0-0.5","1627","2","2","""event"",""trial"",""time""
""fullscreenenter"",""1"",""290932""
","
","
","""event"",""trial"",""time""
""fullscreenenter"",""1"",""290932""
","
","","","","","","1904.6000000089407","<p> Importantly, each piece of furniture belongs in one of the three buildings. </p><p> If you choose the correct building for the piece of furniture, you will be more likely to make the building owner happy! </p>","","0","instructions","","","","","","","","","","","","","",""
"learning-instructions","82","1018092","0.0-9.0-1.0-0.6","1627","2","2","""event"",""trial"",""time""
""fullscreenenter"",""1"",""290932""
","
","
","""event"",""trial"",""time""
""fullscreenenter"",""1"",""290932""
","
","","","","","","1096.3999999910593","<p> However, even if you choose the best building for the furniture, the owner may still be mad sometimes. </p><p> Similarly, even if you choose the <i>wrong</i> building, the owner may still be happy.","","0","instructions","","","","","","","","","","","","","",""
"learning-instructions","83","1032591","0.0-9.0-1.0-0.7","1627","2","2","""event"",""trial"",""time""
""fullscreenenter"",""1"",""290932""
","
","
","""event"",""trial"",""time""
""fullscreenenter"",""1"",""290932""
","
","","","","","","1256.2000000029802","<p> Try to choose the best building for each piece of furniture, because you will <b> WIN </b> 1 point each time a building owner is happy and <b>LOSE</b>  1 point each time a building owner is mad. </p><p> Your bonus payment will depend on your total number of points.","","0","instructions","","","","","","","","","","","","","",""
"learning-instructions","84","1042457","0.0-9.0-1.0-0.8","1627","2","2","""event"",""trial"",""time""
""fullscreenenter"",""1"",""290932""
","
","
","""event"",""trial"",""time""
""fullscreenenter"",""1"",""290932""
","
","","","","","","891.7000000029802","<p> The position of each building will change throughout the round. </p><p> The building's position <i> does not </i> influence how likely the owner is to be happy or mad. </p>","","0","instructions","","","","","","","","","","","","","",""
"learning-instructions","85","1053969","0.0-9.0-1.0-0.9","1627","2","2","""event"",""trial"",""time""
""fullscreenenter"",""1"",""290932""
","
","
","""event"",""trial"",""time""
""fullscreenenter"",""1"",""290932""
","
","","","","","","2215.7999999970198","<p> You will have 4 seconds to make each choice. Try to respond before time runs out! </p><p> You will lose 1 point each time you do not make a response. </p>","","0","instructions","","","","","","","","","","","","","",""
"html-keyboard-response","86","1054594","0.0-9.0-2.0-0.0","1627","2","2","""event"",""trial"",""time""
""fullscreenenter"",""1"",""290932""
","
","
","""event"",""trial"",""time""
""fullscreenenter"",""1"",""290932""
","
","","","","","","null","<div style=""font-size:60px;"">+</div>","null","","fixation","","","","","","","","","","","","","",""
"learning-trial","87","1058609","0.0-9.0-2.0-1.0","1627","2","2","""event"",""trial"",""time""
""fullscreenenter"",""1"",""290932""
","
","
","""event"",""trial"",""time""
""fullscreenenter"",""1"",""290932""
","
","","","","","","2822.5999999940395","images/sofa2.png","","","learning","images/furniture_choice3.png","images/furniture_choice1.png","images/furniture_choice2.png","[2,0,1]","0","1","2","images/furniture_choice1.png","1","furniture","","sofa","2","0"
"html-keyboard-response","88","1059125","0.0-9.0-2.0-0.1","1627","2","2","""event"",""trial"",""time""
""fullscreenenter"",""1"",""290932""
","
","
","""event"",""trial"",""time""
""fullscreenenter"",""1"",""290932""
","
","","","","","","null","<div style=""font-size:60px;"">+</div>","null","","fixation","","","","","","","","","","","","","",""
"learning-trial","89","1063135","0.0-9.0-2.0-1.1","1627","2","2","""event"",""trial"",""time""
""fullscreenenter"",""1"",""290932""
","
","
","""event"",""trial"",""time""
""fullscreenenter"",""1"",""290932""
","
","","","","","","2016.7000000029802","images/table2.png","","","learning","images/furniture_choice3.png","images/furniture_choice1.png","images/furniture_choice2.png","[2,0,1]","0","1","3","images/furniture_choice2.png","-1","furniture","","table","2","0"
"html-keyboard-response","90","1063647","0.0-9.0-2.0-0.2","1627","2","2","""event"",""trial"",""time""
""fullscreenenter"",""1"",""290932""
","
","
","""event"",""trial"",""time""
""fullscreenenter"",""1"",""290932""
","
","","","","","","null","<div style=""font-size:60px;"">+</div>","null","","fixation","","","","","","","","","","","","","",""
"learning-trial","91","1067653","0.0-9.0-2.0-1.2","1627","2","2","""event"",""trial"",""time""
""fullscreenenter"",""1"",""290932""
","
","
","""event"",""trial"",""time""
""fullscreenenter"",""1"",""290932""
","
","","","","","","2228.2999999970198","images/table5.png","","","learning","images/furniture_choice2.png","images/furniture_choice1.png","images/furniture_choice3.png","[1,0,2]","1","0","1","images/furniture_choice2.png","1","furniture","","table","2","0"
"html-keyboard-response","92","1068166","0.0-9.0-2.0-0.3","1627","2","2","""event"",""trial"",""time""
""fullscreenenter"",""1"",""290932""
","
","
","""event"",""trial"",""time""
""fullscreenenter"",""1"",""290932""
","
","","","","","","null","<div style=""font-size:60px;"">+</div>","null","","fixation","","","","","","","","","","","","","",""
"learning-trial","93","1072184","0.0-9.0-2.0-1.3","1627","2","2","""event"",""trial"",""time""
""fullscreenenter"",""1"",""290932""
","
","
","""event"",""trial"",""time""
""fullscreenenter"",""1"",""290932""
","
","","","","","","1895.6000000089407","images/table5.png","","","learning","images/furniture_choice3.png","images/furniture_choice2.png","images/furniture_choice1.png","[2,1,0]","1","1","2","images/furniture_choice2.png","1","furniture","","table","2","0"
"html-keyboard-response","94","1072686","0.0-9.0-2.0-0.4","1627","2","2","""event"",""trial"",""time""
""fullscreenenter"",""1"",""290932""
","
","
","""event"",""trial"",""time""
""fullscreenenter"",""1"",""290932""
","
","","","","","","null","<div style=""font-size:60px;"">+</div>","null","","fixation","","","","","","","","","","","","","",""
"learning-trial","95","1076707","0.0-9.0-2.0-1.4","1627","2","2","""event"",""trial"",""time""
""fullscreenenter"",""1"",""290932""
","
","
","""event"",""trial"",""time""
""fullscreenenter"",""1"",""290932""
","
","","","","","","2332.5999999940395","images/sofa4.png","","","learning","images/furniture_choice3.png","images/furniture_choice1.png","images/furniture_choice2.png","[2,0,1]","1","2","1","images/furniture_choice3.png","-1","furniture","","sofa","2","0"
"html-keyboard-response","96","1077216","0.0-9.0-2.0-0.5","1627","2","2","""event"",""trial"",""time""
""fullscreenenter"",""1"",""290932""
","
","
","""event"",""trial"",""time""
""fullscreenenter"",""1"",""290932""
","
","","","","","","null","<div style=""font-size:60px;"">+</div>","null","","fixation","","","","","","","","","","","","","",""
"learning-trial","97","1081225","0.0-9.0-2.0-1.5","1627","2","2","""event"",""trial"",""time""
""fullscreenenter"",""1"",""290932""
","
","
","""event"",""trial"",""time""
""fullscreenenter"",""1"",""290932""
","
","","","","","","2503.2000000029802","images/table2.png","","","learning","images/furniture_choice3.png","images/furniture_choice2.png","images/furniture_choice1.png","[2,1,0]","0","2","1","images/furniture_choice3.png","-1","furniture","","table","2","0"
"html-keyboard-response","98","1081739","0.0-9.0-2.0-0.6","1627","2","2","""event"",""trial"",""time""
""fullscreenenter"",""1"",""290932""
","
","
","""event"",""trial"",""time""
""fullscreenenter"",""1"",""290932""
","
","","","","","","null","<div style=""font-size:60px;"">+</div>","null","","fixation","","","","","","","","","","","","","",""
"learning-trial","99","1085746","0.0-9.0-2.0-1.6","1627","2","2","""event"",""trial"",""time""
""fullscreenenter"",""1"",""290932""
","
","
","""event"",""trial"",""time""
""fullscreenenter"",""1"",""290932""
","
","","","","","","1569.4000000059605","images/sofa2.png","","","learning","images/furniture_choice3.png","images/furniture_choice1.png","images/furniture_choice2.png","[2,0,1]","0","1","2","images/furniture_choice1.png","1","furniture","","sofa","2","0"
"html-keyboard-response","100","1086247","0.0-9.0-2.0-0.7","1627","2","2","""event"",""trial"",""time""
""fullscreenenter"",""1"",""290932""
","
","
","""event"",""trial"",""time""
""fullscreenenter"",""1"",""290932""
","
","","","","","","null","<div style=""font-size:60px;"">+</div>","null","","fixation","","","","","","","","","","","","","",""
"learning-trial","101","1090253","0.0-9.0-2.0-1.7","1627","2","2","""event"",""trial"",""time""
""fullscreenenter"",""1"",""290932""
","
","
","""event"",""trial"",""time""
""fullscreenenter"",""1"",""290932""
","
","","","","","","1656.2000000029802","images/table4.png","","","learning","images/furniture_choice1.png","images/furniture_choice3.png","images/furniture_choice2.png","[0,2,1]","2","1","3","images/furniture_choice2.png","-1","furniture","","table","2","0"
"html-keyboard-response","102","1090755","0.0-9.0-2.0-0.8","1627","2","2","""event"",""trial"",""time""
""fullscreenenter"",""1"",""290932""
","
","
","""event"",""trial"",""time""
""fullscreenenter"",""1"",""290932""
","
","","","","","","null","<div style=""font-size:60px;"">+</div>","null","","fixation","","","","","","","","","","","","","",""
"learning-trial","103","1094761","0.0-9.0-2.0-1.8","1627","2","2","""event"",""trial"",""time""
""fullscreenenter"",""1"",""290932""
","
","
","""event"",""trial"",""time""
""fullscreenenter"",""1"",""290932""
","
","","","","","","1679.2999999970198","images/sofa5.png","","","learning","images/furniture_choice1.png","images/furniture_choice2.png","images/furniture_choice3.png","[0,1,2]","2","2","3","images/furniture_choice3.png","-1","furniture","","sofa","2","0"
"html-keyboard-response","104","1095263","0.0-9.0-2.0-0.9","1627","2","2","""event"",""trial"",""time""
""fullscreenenter"",""1"",""290932""
","
","
","""event"",""trial"",""time""
""fullscreenenter"",""1"",""290932""
","
","","","","","","null","<div style=""font-size:60px;"">+</div>","null","","fixation","","","","","","","","","","","","","",""
"learning-trial","105","1099270","0.0-9.0-2.0-1.9","1627","2","2","""event"",""trial"",""time""
""fullscreenenter"",""1"",""290932""
","
","
","""event"",""trial"",""time""
""fullscreenenter"",""1"",""290932""
","
","","","","","","2307.7000000029802","images/table2.png","","","learning","images/furniture_choice3.png","images/furniture_choice2.png","images/furniture_choice1.png","[2,1,0]","0","2","3","images/furniture_choice1.png","1","furniture","","table","2","0"
"html-keyboard-response","106","1099772","0.0-9.0-2.0-0.10","1627","2","2","""event"",""trial"",""time""
""fullscreenenter"",""1"",""290932""
","
","
","""event"",""trial"",""time""
""fullscreenenter"",""1"",""290932""
","
","","","","","","null","<div style=""font-size:60px;"">+</div>","null","","fixation","","","","","","","","","","","","","",""
"learning-trial","107","1103779","0.0-9.0-2.0-1.10","1627","2","2","""event"",""trial"",""time""
""fullscreenenter"",""1"",""290932""
","
","
","""event"",""trial"",""time""
""fullscreenenter"",""1"",""290932""
","
","","","","","","2414.6000000089407","images/chair3.png","","","learning","images/furniture_choice1.png","images/furniture_choice2.png","images/furniture_choice3.png","[0,1,2]","1","1","1","images/furniture_choice1.png","-1","furniture","","chair","2","0"
"html-keyboard-response","108","1104282","0.0-9.0-2.0-0.11","1627","2","2","""event"",""trial"",""time""
""fullscreenenter"",""1"",""290932""
","
","
","""event"",""trial"",""time""
""fullscreenenter"",""1"",""290932""
","
","","","","","","null","<div style=""font-size:60px;"">+</div>","null","","fixation","","","","","","","","","","","","","",""
"learning-trial","109","1108288","0.0-9.0-2.0-1.11","1627","2","2","""event"",""trial"",""time""
""fullscreenenter"",""1"",""290932""
","
","
","""event"",""trial"",""time""
""fullscreenenter"",""1"",""290932""
","
","","","","","","1984.300000011921","images/chair1.png","","","learning","images/furniture_choice3.png","images/furniture_choice1.png","images/furniture_choice2.png","[2,0,1]","2","0","2","images/furniture_choice1.png","-1","furniture","","chair","2","0"
"html-keyboard-response","110","1108798","0.0-9.0-2.0-0.12","1627","2","2","""event"",""trial"",""time""
""fullscreenenter"",""1"",""290932""
","
","
","""event"",""trial"",""time""
""fullscreenenter"",""1"",""290932""
","
","","","","","","null","<div style=""font-size:60px;"">+</div>","null","","fixation","","","","","","","","","","","","","",""
"learning-trial","111","1112804","0.0-9.0-2.0-1.12","1627","2","2","""event"",""trial"",""time""
""fullscreenenter"",""1"",""290932""
","
","
","""event"",""trial"",""time""
""fullscreenenter"",""1"",""290932""
","
","","","","","","1414.9000000059605","images/sofa2.png","","","learning","images/furniture_choice1.png","images/furniture_choice2.png","images/furniture_choice3.png","[0,1,2]","0","0","1","images/furniture_choice1.png","-1","furniture","","sofa","2","0"
"html-keyboard-response","112","1113306","0.0-9.0-2.0-0.13","1627","2","2","""event"",""trial"",""time""
""fullscreenenter"",""1"",""290932""
","
","
","""event"",""trial"",""time""
""fullscreenenter"",""1"",""290932""
","
","","","","","","null","<div style=""font-size:60px;"">+</div>","null","","fixation","","","","","","","","","","","","","",""
"learning-trial","113","1117311","0.0-9.0-2.0-1.13","1627","2","2","""event"",""trial"",""time""
""fullscreenenter"",""1"",""290932""
","
","
","""event"",""trial"",""time""
""fullscreenenter"",""1"",""290932""
","
","","","","","","2342.5","images/chair3.png","","","learning","images/furniture_choice2.png","images/furniture_choice1.png","images/furniture_choice3.png","[1,0,2]","1","0","3","images/furniture_choice3.png","-1","furniture","","chair","2","0"
"html-keyboard-response","114","1117813","0.0-9.0-2.0-0.14","1627","2","2","""event"",""trial"",""time""
""fullscreenenter"",""1"",""290932""
","
","
","""event"",""trial"",""time""
""fullscreenenter"",""1"",""290932""
","
","","","","","","null","<div style=""font-size:60px;"">+</div>","null","","fixation","","","","","","","","","","","","","",""
"learning-trial","115","1121819","0.0-9.0-2.0-1.14","1627","2","2","""event"",""trial"",""time""
""fullscreenenter"",""1"",""290932""
","
","
","""event"",""trial"",""time""
""fullscreenenter"",""1"",""290932""
","
","","","","","","1390.5","images/sofa2.png","","","learning","images/furniture_choice1.png","images/furniture_choice2.png","images/furniture_choice3.png","[0,1,2]","0","0","1","images/furniture_choice1.png","1","furniture","","sofa","2","0"
"html-keyboard-response","116","1122322","0.0-9.0-2.0-0.15","1627","2","2","""event"",""trial"",""time""
""fullscreenenter"",""1"",""290932""
","
","
","""event"",""trial"",""time""
""fullscreenenter"",""1"",""290932""
","
","","","","","","null","<div style=""font-size:60px;"">+</div>","null","","fixation","","","","","","","","","","","","","",""
"learning-trial","117","1126330","0.0-9.0-2.0-1.15","1627","2","2","""event"",""trial"",""time""
""fullscreenenter"",""1"",""290932""
","
","
","""event"",""trial"",""time""
""fullscreenenter"",""1"",""290932""
","
","","","","","","1736.199999988079","images/sofa4.png","","","learning","images/furniture_choice3.png","images/furniture_choice1.png","images/furniture_choice2.png","[2,0,1]","1","2","2","images/furniture_choice1.png","-1","furniture","","sofa","2","0"
"html-keyboard-response","118","1126831","0.0-9.0-2.0-0.16","1627","2","2","""event"",""trial"",""time""
""fullscreenenter"",""1"",""290932""
","
","
","""event"",""trial"",""time""
""fullscreenenter"",""1"",""290932""
","
","","","","","","null","<div style=""font-size:60px;"">+</div>","null","","fixation","","","","","","","","","","","","","",""
"learning-trial","119","1130837","0.0-9.0-2.0-1.16","1627","2","2","""event"",""trial"",""time""
""fullscreenenter"",""1"",""290932""
","
","
","""event"",""trial"",""time""
""fullscreenenter"",""1"",""290932""
","
","","","","","","2088.7999999970198","images/chair1.png","","","learning","images/furniture_choice3.png","images/furniture_choice2.png","images/furniture_choice1.png","[2,1,0]","2","0","2","images/furniture_choice2.png","-1","furniture","","chair","2","0"
"html-keyboard-response","120","1131340","0.0-9.0-2.0-0.17","1627","2","2","""event"",""trial"",""time""
""fullscreenenter"",""1"",""290932""
","
","
","""event"",""trial"",""time""
""fullscreenenter"",""1"",""290932""
","
","","","","","","null","<div style=""font-size:60px;"">+</div>","null","","fixation","","","","","","","","","","","","","",""
"learning-trial","121","1135345","0.0-9.0-2.0-1.17","1627","2","2","""event"",""trial"",""time""
""fullscreenenter"",""1"",""290932""
","
","
","""event"",""trial"",""time""
""fullscreenenter"",""1"",""290932""
","
","","","","","","2358.9000000059605","images/chair3.png","","","learning","images/furniture_choice2.png","images/furniture_choice3.png","images/furniture_choice1.png","[1,2,0]","1","0","2","images/furniture_choice3.png","-1","furniture","","chair","2","0"
"html-keyboard-response","122","1135848","0.0-9.0-2.0-0.18","1627","2","2","""event"",""trial"",""time""
""fullscreenenter"",""1"",""290932""
","
","
","""event"",""trial"",""time""
""fullscreenenter"",""1"",""290932""
","
","","","","","","null","<div style=""font-size:60px;"">+</div>","null","","fixation","","","","","","","","","","","","","",""
"learning-trial","123","1139854","0.0-9.0-2.0-1.18","1627","2","2","""event"",""trial"",""time""
""fullscreenenter"",""1"",""290932""
","
","
","""event"",""trial"",""time""
""fullscreenenter"",""1"",""290932""
","
","","","","","","2774.7999999970198","images/table4.png","","","learning","images/furniture_choice1.png","images/furniture_choice3.png","images/furniture_choice2.png","[0,2,1]","2","1","3","images/furniture_choice2.png","-1","furniture","","table","2","0"
"html-keyboard-response","124","1140357","0.0-9.0-2.0-0.19","1627","2","2","""event"",""trial"",""time""
""fullscreenenter"",""1"",""290932""
","
","
","""event"",""trial"",""time""
""fullscreenenter"",""1"",""290932""
","
","","","","","","null","<div style=""font-size:60px;"">+</div>","null","","fixation","","","","","","","","","","","","","",""
"learning-trial","125","1144363","0.0-9.0-2.0-1.19","1627","2","2","""event"",""trial"",""time""
""fullscreenenter"",""1"",""290932""
","
","
","""event"",""trial"",""time""
""fullscreenenter"",""1"",""290932""
","
","","","","","","2292.7000000029802","images/chair1.png","","","learning","images/furniture_choice1.png","images/furniture_choice2.png","images/furniture_choice3.png","[0,1,2]","2","2","2","images/furniture_choice2.png","-1","furniture","","chair","2","0"
"html-keyboard-response","126","1144866","0.0-9.0-2.0-0.20","1627","2","2","""event"",""trial"",""time""
""fullscreenenter"",""1"",""290932""
","
","
","""event"",""trial"",""time""
""fullscreenenter"",""1"",""290932""
","
","","","","","","null","<div style=""font-size:60px;"">+</div>","null","","fixation","","","","","","","","","","","","","",""
"learning-trial","127","1148871","0.0-9.0-2.0-1.20","1627","2","2","""event"",""trial"",""time""
""fullscreenenter"",""1"",""290932""
","
","
","""event"",""trial"",""time""
""fullscreenenter"",""1"",""290932""
","
","","","","","","1531.7000000029802","images/chair3.png","","","learning","images/furniture_choice2.png","images/furniture_choice3.png","images/furniture_choice1.png","[1,2,0]","1","0","3","images/furniture_choice1.png","1","furniture","","chair","2","0"
"html-keyboard-response","128","1149373","0.0-9.0-2.0-0.21","1627","2","2","""event"",""trial"",""time""
""fullscreenenter"",""1"",""290932""
","
","
","""event"",""trial"",""time""
""fullscreenenter"",""1"",""290932""
","
","","","","","","null","<div style=""font-size:60px;"">+</div>","null","","fixation","","","","","","","","","","","","","",""
"learning-trial","129","1153378","0.0-9.0-2.0-1.21","1627","2","2","""event"",""trial"",""time""
""fullscreenenter"",""1"",""290932""
","
","
","""event"",""trial"",""time""
""fullscreenenter"",""1"",""290932""
","
","","","","","","1366.1000000089407","images/sofa4.png","","","learning","images/furniture_choice2.png","images/furniture_choice1.png","images/furniture_choice3.png","[1,0,2]","1","0","2","images/furniture_choice1.png","-1","furniture","","sofa","2","0"
"html-keyboard-response","130","1153880","0.0-9.0-2.0-0.22","1627","2","2","""event"",""trial"",""time""
""fullscreenenter"",""1"",""290932""
","
","
","""event"",""trial"",""time""
""fullscreenenter"",""1"",""290932""
","
","","","","","","null","<div style=""font-size:60px;"">+</div>","null","","fixation","","","","","","","","","","","","","",""
"learning-trial","131","1157887","0.0-9.0-2.0-1.22","1627","2","2","""event"",""trial"",""time""
""fullscreenenter"",""1"",""290932""
","
","
","""event"",""trial"",""time""
""fullscreenenter"",""1"",""290932""
","
","","","","","","1714.7999999970198","images/sofa5.png","","","learning","images/furniture_choice2.png","images/furniture_choice3.png","images/furniture_choice1.png","[1,2,0]","2","1","1","images/furniture_choice2.png","-1","furniture","","sofa","2","0"
"html-keyboard-response","132","1158388","0.0-9.0-2.0-0.23","1627","2","2","""event"",""trial"",""time""
""fullscreenenter"",""1"",""290932""
","
","
","""event"",""trial"",""time""
""fullscreenenter"",""1"",""290932""
","
","","","","","","null","<div style=""font-size:60px;"">+</div>","null","","fixation","","","","","","","","","","","","","",""
"learning-trial","133","1162393","0.0-9.0-2.0-1.23","1627","2","2","""event"",""trial"",""time""
""fullscreenenter"",""1"",""290932""
","
","
","""event"",""trial"",""time""
""fullscreenenter"",""1"",""290932""
","
","","","","","","3577.7000000029802","images/table5.png","","","learning","images/furniture_choice3.png","images/furniture_choice1.png","images/furniture_choice2.png","[2,0,1]","1","2","1","images/furniture_choice3.png","-1","furniture","","table","2","0"
"html-keyboard-response","134","1162895","0.0-9.0-2.0-0.24","1627","2","2","""event"",""trial"",""time""
""fullscreenenter"",""1"",""290932""
","
","
","""event"",""trial"",""time""
""fullscreenenter"",""1"",""290932""
","
","","","","","","null","<div style=""font-size:60px;"">+</div>","null","","fixation","","","","","","","","","","","","","",""
"learning-trial","135","1166905","0.0-9.0-2.0-1.24","1627","2","2","""event"",""trial"",""time""
""fullscreenenter"",""1"",""290932""
","
","
","""event"",""trial"",""time""
""fullscreenenter"",""1"",""290932""
","
","","","","","","2675.2000000029802","images/chair1.png","","","learning","images/furniture_choice1.png","images/furniture_choice3.png","images/furniture_choice2.png","[0,2,1]","2","1","3","images/furniture_choice2.png","1","furniture","","chair","2","0"
"html-keyboard-response","136","1167407","0.0-9.0-2.0-0.25","1627","2","2","""event"",""trial"",""time""
""fullscreenenter"",""1"",""290932""
","
","
","""event"",""trial"",""time""
""fullscreenenter"",""1"",""290932""
","
","","","","","","null","<div style=""font-size:60px;"">+</div>","null","","fixation","","","","","","","","","","","","","",""
"learning-trial","137","1171411","0.0-9.0-2.0-1.25","1627","2","2","""event"",""trial"",""time""
""fullscreenenter"",""1"",""290932""
","
","
","""event"",""trial"",""time""
""fullscreenenter"",""1"",""290932""
","
","","","","","","1605","images/table4.png","","","learning","images/furniture_choice2.png","images/furniture_choice1.png","images/furniture_choice3.png","[1,0,2]","2","2","3","images/furniture_choice3.png","1","furniture","","table","2","0"
"html-keyboard-response","138","1171913","0.0-9.0-2.0-0.26","1627","2","2","""event"",""trial"",""time""
""fullscreenenter"",""1"",""290932""
","
","
","""event"",""trial"",""time""
""fullscreenenter"",""1"",""290932""
","
","","","","","","null","<div style=""font-size:60px;"">+</div>","null","","fixation","","","","","","","","","","","","","",""
"learning-trial","139","1175918","0.0-9.0-2.0-1.26","1627","2","2","""event"",""trial"",""time""
""fullscreenenter"",""1"",""290932""
","
","
","""event"",""trial"",""time""
""fullscreenenter"",""1"",""290932""
","
","","","","","","1358.7000000029802","images/sofa2.png","","","learning","images/furniture_choice1.png","images/furniture_choice3.png","images/furniture_choice2.png","[0,2,1]","0","0","1","images/furniture_choice1.png","1","furniture","","sofa","2","0"
"html-keyboard-response","140","1176420","0.0-9.0-2.0-0.27","1627","2","2","""event"",""trial"",""time""
""fullscreenenter"",""1"",""290932""
","
","
","""event"",""trial"",""time""
""fullscreenenter"",""1"",""290932""
","
","","","","","","null","<div style=""font-size:60px;"">+</div>","null","","fixation","","","","","","","","","","","","","",""
"learning-trial","141","1180426","0.0-9.0-2.0-1.27","1627","2","2","""event"",""trial"",""time""
""fullscreenenter"",""1"",""290932""
","
","
","""event"",""trial"",""time""
""fullscreenenter"",""1"",""290932""
","
","","","","","","3372.2999999970198","images/table5.png","","","learning","images/furniture_choice1.png","images/furniture_choice2.png","images/furniture_choice3.png","[0,1,2]","1","1","3","images/furniture_choice3.png","-1","furniture","","table","2","0"
"html-keyboard-response","142","1180928","0.0-9.0-2.0-0.28","1627","2","2","""event"",""trial"",""time""
""fullscreenenter"",""1"",""290932""
","
","
","""event"",""trial"",""time""
""fullscreenenter"",""1"",""290932""
","
","","","","","","null","<div style=""font-size:60px;"">+</div>","null","","fixation","","","","","","","","","","","","","",""
"learning-trial","143","1184931","0.0-9.0-2.0-1.28","1627","2","2","""event"",""trial"",""time""
""fullscreenenter"",""1"",""290932""
","
","
","""event"",""trial"",""time""
""fullscreenenter"",""1"",""290932""
","
","","","","","","1809.4000000059605","images/table2.png","","","learning","images/furniture_choice1.png","images/furniture_choice3.png","images/furniture_choice2.png","[0,2,1]","0","0","2","images/furniture_choice3.png","1","furniture","","table","2","0"
"html-keyboard-response","144","1185434","0.0-9.0-2.0-0.29","1627","2","2","""event"",""trial"",""time""
""fullscreenenter"",""1"",""290932""
","
","
","""event"",""trial"",""time""
""fullscreenenter"",""1"",""290932""
","
","","","","","","null","<div style=""font-size:60px;"">+</div>","null","","fixation","","","","","","","","","","","","","",""
"learning-trial","145","1189439","0.0-9.0-2.0-1.29","1627","2","2","""event"",""trial"",""time""
""fullscreenenter"",""1"",""290932""
","
","
","""event"",""trial"",""time""
""fullscreenenter"",""1"",""290932""
","
","","","","","","1422.300000011921","images/sofa2.png","","","learning","images/furniture_choice2.png","images/furniture_choice1.png","images/furniture_choice3.png","[1,0,2]","0","1","2","images/furniture_choice1.png","1","furniture","","sofa","2","0"
"html-keyboard-response","146","1189941","0.0-9.0-2.0-0.30","1627","2","2","""event"",""trial"",""time""
""fullscreenenter"",""1"",""290932""
","
","
","""event"",""trial"",""time""
""fullscreenenter"",""1"",""290932""
","
","","","","","","null","<div style=""font-size:60px;"">+</div>","null","","fixation","","","","","","","","","","","","","",""
"learning-trial","147","1193947","0.0-9.0-2.0-1.30","1627","2","2","""event"",""trial"",""time""
""fullscreenenter"",""1"",""290932""
","
","
","""event"",""trial"",""time""
""fullscreenenter"",""1"",""290932""
","
","","","","","","2042.3999999910593","images/chair1.png","","","learning","images/furniture_choice2.png","images/furniture_choice3.png","images/furniture_choice1.png","[1,2,0]","2","1","2","images/furniture_choice3.png","1","furniture","","chair","2","0"
"html-keyboard-response","148","1194450","0.0-9.0-2.0-0.31","1627","2","2","""event"",""trial"",""time""
""fullscreenenter"",""1"",""290932""
","
","
","""event"",""trial"",""time""
""fullscreenenter"",""1"",""290932""
","
","","","","","","null","<div style=""font-size:60px;"">+</div>","null","","fixation","","","","","","","","","","","","","",""
"learning-trial","149","1198455","0.0-9.0-2.0-1.31","1627","2","2","""event"",""trial"",""time""
""fullscreenenter"",""1"",""290932""
","
","
","""event"",""trial"",""time""
""fullscreenenter"",""1"",""290932""
","
","","","","","","1955.6000000089407","images/table2.png","","","learning","images/furniture_choice1.png","images/furniture_choice2.png","images/furniture_choice3.png","[0,1,2]","0","0","3","images/furniture_choice3.png","-1","furniture","","table","2","0"
"html-keyboard-response","150","1198958","0.0-9.0-2.0-0.32","1627","2","2","""event"",""trial"",""time""
""fullscreenenter"",""1"",""290932""
","
","
","""event"",""trial"",""time""
""fullscreenenter"",""1"",""290932""
","
","","","","","","null","<div style=""font-size:60px;"">+</div>","null","","fixation","","","","","","","","","","","","","",""
"learning-trial","151","1202963","0.0-9.0-2.0-1.32","1627","2","2","""event"",""trial"",""time""
""fullscreenenter"",""1"",""290932""
","
","
","""event"",""trial"",""time""
""fullscreenenter"",""1"",""290932""
","
","","","","","","1448.2000000029802","images/sofa4.png","","","learning","images/furniture_choice2.png","images/furniture_choice1.png","images/furniture_choice3.png","[1,0,2]","1","0","2","images/furniture_choice1.png","-1","furniture","","sofa","2","0"
"html-keyboard-response","152","1203465","0.0-9.0-2.0-0.33","1627","2","2","""event"",""trial"",""time""
""fullscreenenter"",""1"",""290932""
","
","
","""event"",""trial"",""time""
""fullscreenenter"",""1"",""290932""
","
","","","","","","null","<div style=""font-size:60px;"">+</div>","null","","fixation","","","","","","","","","","","","","",""
"learning-trial","153","1207472","0.0-9.0-2.0-1.33","1627","2","2","""event"",""trial"",""time""
""fullscreenenter"",""1"",""290932""
","
","
","""event"",""trial"",""time""
""fullscreenenter"",""1"",""290932""
","
","","","","","","2270","images/chair1.png","","","learning","images/furniture_choice2.png","images/furniture_choice3.png","images/furniture_choice1.png","[1,2,0]","2","1","2","images/furniture_choice3.png","1","furniture","","chair","2","0"
"html-keyboard-response","154","1207975","0.0-9.0-2.0-0.34","1627","2","2","""event"",""trial"",""time""
""fullscreenenter"",""1"",""290932""
","
","
","""event"",""trial"",""time""
""fullscreenenter"",""1"",""290932""
","
","","","","","","null","<div style=""font-size:60px;"">+</div>","null","","fixation","","","","","","","","","","","","","",""
"learning-trial","155","1211980","0.0-9.0-2.0-1.34","1627","2","2","""event"",""trial"",""time""
""fullscreenenter"",""1"",""290932""
","
","
","""event"",""trial"",""time""
""fullscreenenter"",""1"",""290932""
","
","","","","","","1614.9000000059605","images/sofa5.png","","","learning","images/furniture_choice2.png","images/furniture_choice1.png","images/furniture_choice3.png","[1,0,2]","2","2","1","images/furniture_choice2.png","-1","furniture","","sofa","2","0"
"html-keyboard-response","156","1212482","0.0-9.0-2.0-0.35","1627","2","2","""event"",""trial"",""time""
""fullscreenenter"",""1"",""290932""
","
","
","""event"",""trial"",""time""
""fullscreenenter"",""1"",""290932""
","
","","","","","","null","<div style=""font-size:60px;"">+</div>","null","","fixation","","","","","","","","","","","","","",""
"learning-trial","157","1216488","0.0-9.0-2.0-1.35","1627","2","2","""event"",""trial"",""time""
""fullscreenenter"",""1"",""290932""
","
","
","""event"",""trial"",""time""
""fullscreenenter"",""1"",""290932""
","
","","","","","","1584.2000000029802","images/chair1.png","","","learning","images/furniture_choice1.png","images/furniture_choice2.png","images/furniture_choice3.png","[0,1,2]","2","2","3","images/furniture_choice3.png","-1","furniture","","chair","2","0"
"html-keyboard-response","158","1216991","0.0-9.0-2.0-0.36","1627","2","2","""event"",""trial"",""time""
""fullscreenenter"",""1"",""290932""
","
","
","""event"",""trial"",""time""
""fullscreenenter"",""1"",""290932""
","
","","","","","","null","<div style=""font-size:60px;"">+</div>","null","","fixation","","","","","","","","","","","","","",""
"learning-trial","159","1221002","0.0-9.0-2.0-1.36","1627","2","2","""event"",""trial"",""time""
""fullscreenenter"",""1"",""290932""
","
","
","""event"",""trial"",""time""
""fullscreenenter"",""1"",""290932""
","
","","","","","","1480","images/sofa5.png","","","learning","images/furniture_choice3.png","images/furniture_choice1.png","images/furniture_choice2.png","[2,0,1]","2","0","1","images/furniture_choice3.png","1","furniture","","sofa","2","0"
"html-keyboard-response","160","1221508","0.0-9.0-2.0-0.37","1627","2","2","""event"",""trial"",""time""
""fullscreenenter"",""1"",""290932""
","
","
","""event"",""trial"",""time""
""fullscreenenter"",""1"",""290932""
","
","","","","","","null","<div style=""font-size:60px;"">+</div>","null","","fixation","","","","","","","","","","","","","",""
"learning-trial","161","1225513","0.0-9.0-2.0-1.37","1627","2","2","""event"",""trial"",""time""
""fullscreenenter"",""1"",""290932""
","
","
","""event"",""trial"",""time""
""fullscreenenter"",""1"",""290932""
","
","","","","","","1589.5999999940395","images/table2.png","","","learning","images/furniture_choice1.png","images/furniture_choice2.png","images/furniture_choice3.png","[0,1,2]","0","0","2","images/furniture_choice2.png","-1","furniture","","table","2","0"
"html-keyboard-response","162","1226016","0.0-9.0-2.0-0.38","1627","2","2","""event"",""trial"",""time""
""fullscreenenter"",""1"",""290932""
","
","
","""event"",""trial"",""time""
""fullscreenenter"",""1"",""290932""
","
","","","","","","null","<div style=""font-size:60px;"">+</div>","null","","fixation","","","","","","","","","","","","","",""
"learning-trial","163","1230022","0.0-9.0-2.0-1.38","1627","2","2","""event"",""trial"",""time""
""fullscreenenter"",""1"",""290932""
","
","
","""event"",""trial"",""time""
""fullscreenenter"",""1"",""290932""
","
","","","","","","1405.1000000089407","images/sofa4.png","","","learning","images/furniture_choice2.png","images/furniture_choice1.png","images/furniture_choice3.png","[1,0,2]","1","0","2","images/furniture_choice1.png","-1","furniture","","sofa","2","0"
"html-keyboard-response","164","1230525","0.0-9.0-2.0-0.39","1627","2","2","""event"",""trial"",""time""
""fullscreenenter"",""1"",""290932""
","
","
","""event"",""trial"",""time""
""fullscreenenter"",""1"",""290932""
","
","","","","","","null","<div style=""font-size:60px;"">+</div>","null","","fixation","","","","","","","","","","","","","",""
"learning-trial","165","1234530","0.0-9.0-2.0-1.39","1627","2","2","""event"",""trial"",""time""
""fullscreenenter"",""1"",""290932""
","
","
","""event"",""trial"",""time""
""fullscreenenter"",""1"",""290932""
","
","","","","","","1489.2000000029802","images/table4.png","","","learning","images/furniture_choice3.png","images/furniture_choice2.png","images/furniture_choice1.png","[2,1,0]","2","0","1","images/furniture_choice3.png","-1","furniture","","table","2","0"
"html-keyboard-response","166","1235032","0.0-9.0-2.0-0.40","1627","2","2","""event"",""trial"",""time""
""fullscreenenter"",""1"",""290932""
","
","
","""event"",""trial"",""time""
""fullscreenenter"",""1"",""290932""
","
","","","","","","null","<div style=""font-size:60px;"">+</div>","null","","fixation","","","","","","","","","","","","","",""
"learning-trial","167","1239038","0.0-9.0-2.0-1.40","1627","2","2","""event"",""trial"",""time""
""fullscreenenter"",""1"",""290932""
","
","
","""event"",""trial"",""time""
""fullscreenenter"",""1"",""290932""
","
","","","","","","1420.300000011921","images/chair5.png","","","learning","images/furniture_choice3.png","images/furniture_choice2.png","images/furniture_choice1.png","[2,1,0]","0","2","1","images/furniture_choice3.png","-1","furniture","","chair","2","0"
"html-keyboard-response","168","1239540","0.0-9.0-2.0-0.41","1627","2","2","""event"",""trial"",""time""
""fullscreenenter"",""1"",""290932""
","
","
","""event"",""trial"",""time""
""fullscreenenter"",""1"",""290932""
","
","","","","","","null","<div style=""font-size:60px;"">+</div>","null","","fixation","","","","","","","","","","","","","",""
"learning-trial","169","1243545","0.0-9.0-2.0-1.41","1627","2","2","""event"",""trial"",""time""
""fullscreenenter"",""1"",""290932""
","
","
","""event"",""trial"",""time""
""fullscreenenter"",""1"",""290932""
","
","","","","","","1055.0999999940395","images/sofa2.png","","","learning","images/furniture_choice3.png","images/furniture_choice1.png","images/furniture_choice2.png","[2,0,1]","0","1","2","images/furniture_choice1.png","1","furniture","","sofa","2","0"
"html-keyboard-response","170","1244049","0.0-9.0-2.0-0.42","1627","2","2","""event"",""trial"",""time""
""fullscreenenter"",""1"",""290932""
","
","
","""event"",""trial"",""time""
""fullscreenenter"",""1"",""290932""
","
","","","","","","null","<div style=""font-size:60px;"">+</div>","null","","fixation","","","","","","","","","","","","","",""
"learning-trial","171","1248053","0.0-9.0-2.0-1.42","1627","2","2","""event"",""trial"",""time""
""fullscreenenter"",""1"",""290932""
","
","
","""event"",""trial"",""time""
""fullscreenenter"",""1"",""290932""
","
","","","","","","1589.9000000059605","images/table2.png","","","learning","images/furniture_choice3.png","images/furniture_choice2.png","images/furniture_choice1.png","[2,1,0]","0","2","3","images/furniture_choice1.png","1","furniture","","table","2","0"
"html-keyboard-response","172","1248569","0.0-9.0-2.0-0.43","1627","2","2","""event"",""trial"",""time""
""fullscreenenter"",""1"",""290932""
","
","
","""event"",""trial"",""time""
""fullscreenenter"",""1"",""290932""
","
","","","","","","null","<div style=""font-size:60px;"">+</div>","null","","fixation","","","","","","","","","","","","","",""
"learning-trial","173","1252575","0.0-9.0-2.0-1.43","1627","2","2","""event"",""trial"",""time""
""fullscreenenter"",""1"",""290932""
","
","
","""event"",""trial"",""time""
""fullscreenenter"",""1"",""290932""
","
","","","","","","1579.5999999940395","images/table5.png","","","learning","images/furniture_choice2.png","images/furniture_choice1.png","images/furniture_choice3.png","[1,0,2]","1","0","3","images/furniture_choice3.png","-1","furniture","","table","2","0"
"html-keyboard-response","174","1253078","0.0-9.0-2.0-0.44","1627","2","2","""event"",""trial"",""time""
""fullscreenenter"",""1"",""290932""
","
","
","""event"",""trial"",""time""
""fullscreenenter"",""1"",""290932""
","
","","","","","","null","<div style=""font-size:60px;"">+</div>","null","","fixation","","","","","","","","","","","","","",""
"learning-trial","175","1257097","0.0-9.0-2.0-1.44","1627","2","2","""event"",""trial"",""time""
""fullscreenenter"",""1"",""290932""
","
","
","""event"",""trial"",""time""
""fullscreenenter"",""1"",""290932""
","
","","","","","","1384.8999999910593","images/table5.png","","","learning","images/furniture_choice1.png","images/furniture_choice3.png","images/furniture_choice2.png","[0,2,1]","1","2","2","images/furniture_choice3.png","-1","furniture","","table","2","0"
"html-keyboard-response","176","1257599","0.0-9.0-2.0-0.45","1627","2","2","""event"",""trial"",""time""
""fullscreenenter"",""1"",""290932""
","
","
","""event"",""trial"",""time""
""fullscreenenter"",""1"",""290932""
","
","","","","","","null","<div style=""font-size:60px;"">+</div>","null","","fixation","","","","","","","","","","","","","",""
"learning-trial","177","1261608","0.0-9.0-2.0-1.45","1627","2","2","""event"",""trial"",""time""
""fullscreenenter"",""1"",""290932""
","
","
","""event"",""trial"",""time""
""fullscreenenter"",""1"",""290932""
","
","","","","","","1219.7999999970198","images/chair5.png","","","learning","images/furniture_choice2.png","images/furniture_choice3.png","images/furniture_choice1.png","[1,2,0]","0","2","3","images/furniture_choice1.png","1","furniture","","chair","2","0"
"html-keyboard-response","178","1262110","0.0-9.0-2.0-0.46","1627","2","2","""event"",""trial"",""time""
""fullscreenenter"",""1"",""290932""
","
","
","""event"",""trial"",""time""
""fullscreenenter"",""1"",""290932""
","
","","","","","","null","<div style=""font-size:60px;"">+</div>","null","","fixation","","","","","","","","","","","","","",""
"learning-trial","179","1266117","0.0-9.0-2.0-1.46","1627","2","2","""event"",""trial"",""time""
""fullscreenenter"",""1"",""290932""
","
","
","""event"",""trial"",""time""
""fullscreenenter"",""1"",""290932""
","
","","","","","","1952","images/chair3.png","","","learning","images/furniture_choice1.png","images/furniture_choice3.png","images/furniture_choice2.png","[0,2,1]","1","2","2","images/furniture_choice3.png","-1","furniture","","chair","2","0"
"html-keyboard-response","180","1266619","0.0-9.0-2.0-0.47","1627","2","2","""event"",""trial"",""time""
""fullscreenenter"",""1"",""290932""
","
","
","""event"",""trial"",""time""
""fullscreenenter"",""1"",""290932""
","
","","","","","","null","<div style=""font-size:60px;"">+</div>","null","","fixation","","","","","","","","","","","","","",""
"learning-trial","181","1270627","0.0-9.0-2.0-1.47","1627","2","2","""event"",""trial"",""time""
""fullscreenenter"",""1"",""290932""
","
","
","""event"",""trial"",""time""
""fullscreenenter"",""1"",""290932""
","
","","","","","","1347.2000000029802","images/chair5.png","","","learning","images/furniture_choice3.png","images/furniture_choice1.png","images/furniture_choice2.png","[2,0,1]","0","1","1","images/furniture_choice3.png","-1","furniture","","chair","2","0"
"html-keyboard-response","182","1271130","0.0-9.0-2.0-0.48","1627","2","2","""event"",""trial"",""time""
""fullscreenenter"",""1"",""290932""
","
","
","""event"",""trial"",""time""
""fullscreenenter"",""1"",""290932""
","
","","","","","","null","<div style=""font-size:60px;"">+</div>","null","","fixation","","","","","","","","","","","","","",""
"learning-trial","183","1275135","0.0-9.0-2.0-1.48","1627","2","2","""event"",""trial"",""time""
""fullscreenenter"",""1"",""290932""
","
","
","""event"",""trial"",""time""
""fullscreenenter"",""1"",""290932""
","
","","","","","","1084.7999999970198","images/table4.png","","","learning","images/furniture_choice1.png","images/furniture_choice3.png","images/furniture_choice2.png","[0,2,1]","2","1","3","images/furniture_choice2.png","-1","furniture","","table","2","0"
"html-keyboard-response","184","1275638","0.0-9.0-2.0-0.49","1627","2","2","""event"",""trial"",""time""
""fullscreenenter"",""1"",""290932""
","
","
","""event"",""trial"",""time""
""fullscreenenter"",""1"",""290932""
","
","","","","","","null","<div style=""font-size:60px;"">+</div>","null","","fixation","","","","","","","","","","","","","",""
"learning-trial","185","1279643","0.0-9.0-2.0-1.49","1627","2","2","""event"",""trial"",""time""
""fullscreenenter"",""1"",""290932""
","
","
","""event"",""trial"",""time""
""fullscreenenter"",""1"",""290932""
","
","","","","","","1507.5999999940395","images/table2.png","","","learning","images/furniture_choice2.png","images/furniture_choice3.png","images/furniture_choice1.png","[1,2,0]","0","2","1","images/furniture_choice2.png","-1","furniture","","table","2","0"
"html-keyboard-response","186","1280146","0.0-9.0-2.0-0.50","1627","2","2","""event"",""trial"",""time""
""fullscreenenter"",""1"",""290932""
","
","
","""event"",""trial"",""time""
""fullscreenenter"",""1"",""290932""
","
","","","","","","null","<div style=""font-size:60px;"">+</div>","null","","fixation","","","","","","","","","","","","","",""
"learning-trial","187","1284153","0.0-9.0-2.0-1.50","1627","2","2","""event"",""trial"",""time""
""fullscreenenter"",""1"",""290932""
","
","
","""event"",""trial"",""time""
""fullscreenenter"",""1"",""290932""
","
","","","","","","1272.1000000089407","images/chair5.png","","","learning","images/furniture_choice1.png","images/furniture_choice3.png","images/furniture_choice2.png","[0,2,1]","0","0","3","images/furniture_choice2.png","-1","furniture","","chair","2","0"
"html-keyboard-response","188","1284662","0.0-9.0-2.0-0.51","1627","2","2","""event"",""trial"",""time""
""fullscreenenter"",""1"",""290932""
","
","
","""event"",""trial"",""time""
""fullscreenenter"",""1"",""290932""
","
","","","","","","null","<div style=""font-size:60px;"">+</div>","null","","fixation","","","","","","","","","","","","","",""
"learning-trial","189","1288667","0.0-9.0-2.0-1.51","1627","2","2","""event"",""trial"",""time""
""fullscreenenter"",""1"",""290932""
","
","
","""event"",""trial"",""time""
""fullscreenenter"",""1"",""290932""
","
","","","","","","1843.7000000029802","images/table4.png","","","learning","images/furniture_choice2.png","images/furniture_choice1.png","images/furniture_choice3.png","[1,0,2]","2","2","1","images/furniture_choice2.png","-1","furniture","","table","2","0"
"html-keyboard-response","190","1289169","0.0-9.0-2.0-0.52","1627","2","2","""event"",""trial"",""time""
""fullscreenenter"",""1"",""290932""
","
","
","""event"",""trial"",""time""
""fullscreenenter"",""1"",""290932""
","
","","","","","","null","<div style=""font-size:60px;"">+</div>","null","","fixation","","","","","","","","","","","","","",""
"learning-trial","191","1293176","0.0-9.0-2.0-1.52","1627","2","2","""event"",""trial"",""time""
""fullscreenenter"",""1"",""290932""
","
","
","""event"",""trial"",""time""
""fullscreenenter"",""1"",""290932""
","
","","","","","","1387.5","images/sofa5.png","","","learning","images/furniture_choice2.png","images/furniture_choice3.png","images/furniture_choice1.png","[1,2,0]","2","1","2","images/furniture_choice3.png","1","furniture","","sofa","2","0"
"html-keyboard-response","192","1293679","0.0-9.0-2.0-0.53","1627","2","2","""event"",""trial"",""time""
""fullscreenenter"",""1"",""290932""
","
","
","""event"",""trial"",""time""
""fullscreenenter"",""1"",""290932""
","
","","","","","","null","<div style=""font-size:60px;"">+</div>","null","","fixation","","","","","","","","","","","","","",""
"learning-trial","193","1297683","0.0-9.0-2.0-1.53","1627","2","2","""event"",""trial"",""time""
""fullscreenenter"",""1"",""290932""
","
","
","""event"",""trial"",""time""
""fullscreenenter"",""1"",""290932""
","
","","","","","","1414.9000000059605","images/chair5.png","","","learning","images/furniture_choice2.png","images/furniture_choice3.png","images/furniture_choice1.png","[1,2,0]","0","2","3","images/furniture_choice1.png","1","furniture","","chair","2","0"
"html-keyboard-response","194","1298197","0.0-9.0-2.0-0.54","1627","2","2","""event"",""trial"",""time""
""fullscreenenter"",""1"",""290932""
","
","
","""event"",""trial"",""time""
""fullscreenenter"",""1"",""290932""
","
","","","","","","null","<div style=""font-size:60px;"">+</div>","null","","fixation","","","","","","","","","","","","","",""
"learning-trial","195","1302203","0.0-9.0-2.0-1.54","1627","2","2","""event"",""trial"",""time""
""fullscreenenter"",""1"",""290932""
","
","
","""event"",""trial"",""time""
""fullscreenenter"",""1"",""290932""
","
","","","","","","1923.7000000029802","images/chair1.png","","","learning","images/furniture_choice3.png","images/furniture_choice2.png","images/furniture_choice1.png","[2,1,0]","2","0","2","images/furniture_choice2.png","-1","furniture","","chair","2","0"
"html-keyboard-response","196","1302712","0.0-9.0-2.0-0.55","1627","2","2","""event"",""trial"",""time""
""fullscreenenter"",""1"",""290932""
","
","
","""event"",""trial"",""time""
""fullscreenenter"",""1"",""290932""
","
","","","","","","null","<div style=""font-size:60px;"">+</div>","null","","fixation","","","","","","","","","","","","","",""
"learning-trial","197","1306718","0.0-9.0-2.0-1.55","1627","2","2","""event"",""trial"",""time""
""fullscreenenter"",""1"",""290932""
","
","
","""event"",""trial"",""time""
""fullscreenenter"",""1"",""290932""
","
","","","","","","2132.0999999940395","images/chair5.png","","","learning","images/furniture_choice2.png","images/furniture_choice3.png","images/furniture_choice1.png","[1,2,0]","0","2","2","images/furniture_choice3.png","-1","furniture","","chair","2","0"
"html-keyboard-response","198","1307220","0.0-9.0-2.0-0.56","1627","2","2","""event"",""trial"",""time""
""fullscreenenter"",""1"",""290932""
","
","
","""event"",""trial"",""time""
""fullscreenenter"",""1"",""290932""
","
","","","","","","null","<div style=""font-size:60px;"">+</div>","null","","fixation","","","","","","","","","","","","","",""
"learning-trial","199","1311227","0.0-9.0-2.0-1.56","1627","2","2","""event"",""trial"",""time""
""fullscreenenter"",""1"",""290932""
","
","
","""event"",""trial"",""time""
""fullscreenenter"",""1"",""290932""
","
","","","","","","1284.0999999940395","images/chair5.png","","","learning","images/furniture_choice3.png","images/furniture_choice2.png","images/furniture_choice1.png","[2,1,0]","0","2","3","images/furniture_choice1.png","-1","furniture","","chair","2","0"
"html-keyboard-response","200","1311729","0.0-9.0-2.0-0.57","1627","2","2","""event"",""trial"",""time""
""fullscreenenter"",""1"",""290932""
","
","
","""event"",""trial"",""time""
""fullscreenenter"",""1"",""290932""
","
","","","","","","null","<div style=""font-size:60px;"">+</div>","null","","fixation","","","","","","","","","","","","","",""
"learning-trial","201","1315735","0.0-9.0-2.0-1.57","1627","2","2","""event"",""trial"",""time""
""fullscreenenter"",""1"",""290932""
","
","
","""event"",""trial"",""time""
""fullscreenenter"",""1"",""290932""
","
","","","","","","1207.5999999940395","images/sofa2.png","","","learning","images/furniture_choice1.png","images/furniture_choice2.png","images/furniture_choice3.png","[0,1,2]","0","0","1","images/furniture_choice1.png","1","furniture","","sofa","2","0"
"html-keyboard-response","202","1316238","0.0-9.0-2.0-0.58","1627","2","2","""event"",""trial"",""time""
""fullscreenenter"",""1"",""290932""
","
","
","""event"",""trial"",""time""
""fullscreenenter"",""1"",""290932""
","
","","","","","","null","<div style=""font-size:60px;"">+</div>","null","","fixation","","","","","","","","","","","","","",""
"learning-trial","203","1320243","0.0-9.0-2.0-1.58","1627","2","2","""event"",""trial"",""time""
""fullscreenenter"",""1"",""290932""
","
","
","""event"",""trial"",""time""
""fullscreenenter"",""1"",""290932""
","
","","","","","","1933.7999999970198","images/sofa5.png","","","learning","images/furniture_choice2.png","images/furniture_choice1.png","images/furniture_choice3.png","[1,0,2]","2","2","3","images/furniture_choice3.png","1","furniture","","sofa","2","0"
"html-keyboard-response","204","1320745","0.0-9.0-2.0-0.59","1627","2","2","""event"",""trial"",""time""
""fullscreenenter"",""1"",""290932""
","
","
","""event"",""trial"",""time""
""fullscreenenter"",""1"",""290932""
","
","","","","","","null","<div style=""font-size:60px;"">+</div>","null","","fixation","","","","","","","","","","","","","",""
"learning-trial","205","1324751","0.0-9.0-2.0-1.59","1627","2","2","""event"",""trial"",""time""
""fullscreenenter"",""1"",""290932""
","
","
","""event"",""trial"",""time""
""fullscreenenter"",""1"",""290932""
","
","","","","","","1873.5","images/chair3.png","","","learning","images/furniture_choice3.png","images/furniture_choice1.png","images/furniture_choice2.png","[2,0,1]","1","2","2","images/furniture_choice1.png","-1","furniture","","chair","2","0"
"html-keyboard-response","206","1325254","0.0-9.0-2.0-0.60","1627","2","2","""event"",""trial"",""time""
""fullscreenenter"",""1"",""290932""
","
","
","""event"",""trial"",""time""
""fullscreenenter"",""1"",""290932""
","
","","","","","","null","<div style=""font-size:60px;"">+</div>","null","","fixation","","","","","","","","","","","","","",""
"learning-trial","207","1329260","0.0-9.0-2.0-1.60","1627","2","2","""event"",""trial"",""time""
""fullscreenenter"",""1"",""290932""
","
","
","""event"",""trial"",""time""
""fullscreenenter"",""1"",""290932""
","
","","","","","","1943.7999999970198","images/table4.png","","","learning","images/furniture_choice1.png","images/furniture_choice3.png","images/furniture_choice2.png","[0,2,1]","2","1","1","images/furniture_choice1.png","-1","furniture","","table","2","0"
"html-keyboard-response","208","1329763","0.0-9.0-2.0-0.61","1627","2","2","""event"",""trial"",""time""
""fullscreenenter"",""1"",""290932""
","
","
","""event"",""trial"",""time""
""fullscreenenter"",""1"",""290932""
","
","","","","","","null","<div style=""font-size:60px;"">+</div>","null","","fixation","","","","","","","","","","","","","",""
"learning-trial","209","1333771","0.0-9.0-2.0-1.61","1627","2","2","""event"",""trial"",""time""
""fullscreenenter"",""1"",""290932""
","
","
","""event"",""trial"",""time""
""fullscreenenter"",""1"",""290932""
","
","","","","","","1596.8999999910593","images/sofa5.png","","","learning","images/furniture_choice2.png","images/furniture_choice3.png","images/furniture_choice1.png","[1,2,0]","2","1","2","images/furniture_choice3.png","1","furniture","","sofa","2","0"
"html-keyboard-response","210","1334274","0.0-9.0-2.0-0.62","1627","2","2","""event"",""trial"",""time""
""fullscreenenter"",""1"",""290932""
","
","
","""event"",""trial"",""time""
""fullscreenenter"",""1"",""290932""
","
","","","","","","null","<div style=""font-size:60px;"">+</div>","null","","fixation","","","","","","","","","","","","","",""
"learning-trial","211","1338279","0.0-9.0-2.0-1.62","1627","2","2","""event"",""trial"",""time""
""fullscreenenter"",""1"",""290932""
","
","
","""event"",""trial"",""time""
""fullscreenenter"",""1"",""290932""
","
","","","","","","2662.5999999940395","images/chair3.png","","","learning","images/furniture_choice2.png","images/furniture_choice1.png","images/furniture_choice3.png","[1,0,2]","1","0","3","images/furniture_choice3.png","-1","furniture","","chair","2","0"
"html-keyboard-response","212","1338781","0.0-9.0-2.0-0.63","1627","2","2","""event"",""trial"",""time""
""fullscreenenter"",""1"",""290932""
","
","
","""event"",""trial"",""time""
""fullscreenenter"",""1"",""290932""
","
","","","","","","null","<div style=""font-size:60px;"">+</div>","null","","fixation","","","","","","","","","","","","","",""
"learning-trial","213","1342787","0.0-9.0-2.0-1.63","1627","2","2","""event"",""trial"",""time""
""fullscreenenter"",""1"",""290932""
","
","
","""event"",""trial"",""time""
""fullscreenenter"",""1"",""290932""
","
","","","","","","1197.0999999940395","images/chair3.png","","","learning","images/furniture_choice3.png","images/furniture_choice2.png","images/furniture_choice1.png","[2,1,0]","1","1","2","images/furniture_choice2.png","1","furniture","","chair","2","0"
"html-keyboard-response","214","1343289","0.0-9.0-2.0-0.64","1627","2","2","""event"",""trial"",""time""
""fullscreenenter"",""1"",""290932""
","
","
","""event"",""trial"",""time""
""fullscreenenter"",""1"",""290932""
","
","","","","","","null","<div style=""font-size:60px;"">+</div>","null","","fixation","","","","","","","","","","","","","",""
"learning-trial","215","1347296","0.0-9.0-2.0-1.64","1627","2","2","""event"",""trial"",""time""
""fullscreenenter"",""1"",""290932""
","
","
","""event"",""trial"",""time""
""fullscreenenter"",""1"",""290932""
","
","","","","","","1741.5","images/sofa4.png","","","learning","images/furniture_choice2.png","images/furniture_choice3.png","images/furniture_choice1.png","[1,2,0]","1","0","3","images/furniture_choice1.png","-1","furniture","","sofa","2","0"
"html-keyboard-response","216","1347798","0.0-9.0-2.0-0.65","1627","2","2","""event"",""trial"",""time""
""fullscreenenter"",""1"",""290932""
","
","
","""event"",""trial"",""time""
""fullscreenenter"",""1"",""290932""
","
","","","","","","null","<div style=""font-size:60px;"">+</div>","null","","fixation","","","","","","","","","","","","","",""
"learning-trial","217","1351806","0.0-9.0-2.0-1.65","1627","2","2","""event"",""trial"",""time""
""fullscreenenter"",""1"",""290932""
","
","
","""event"",""trial"",""time""
""fullscreenenter"",""1"",""290932""
","
","","","","","","2053.2999999970198","images/table5.png","","","learning","images/furniture_choice1.png","images/furniture_choice2.png","images/furniture_choice3.png","[0,1,2]","1","1","3","images/furniture_choice3.png","-1","furniture","","table","2","0"
"html-keyboard-response","218","1352308","0.0-9.0-2.0-0.66","1627","2","2","""event"",""trial"",""time""
""fullscreenenter"",""1"",""290932""
","
","
","""event"",""trial"",""time""
""fullscreenenter"",""1"",""290932""
","
","","","","","","null","<div style=""font-size:60px;"">+</div>","null","","fixation","","","","","","","","","","","","","",""
"learning-trial","219","1356314","0.0-9.0-2.0-1.66","1627","2","2","""event"",""trial"",""time""
""fullscreenenter"",""1"",""290932""
","
","
","""event"",""trial"",""time""
""fullscreenenter"",""1"",""290932""
","
","","","","","","1396.9000000059605","images/sofa4.png","","","learning","images/furniture_choice1.png","images/furniture_choice2.png","images/furniture_choice3.png","[0,1,2]","1","1","2","images/furniture_choice2.png","1","furniture","","sofa","2","0"
"html-keyboard-response","220","1356817","0.0-9.0-2.0-0.67","1627","2","2","""event"",""trial"",""time""
""fullscreenenter"",""1"",""290932""
","
","
","""event"",""trial"",""time""
""fullscreenenter"",""1"",""290932""
","
","","","","","","null","<div style=""font-size:60px;"">+</div>","null","","fixation","","","","","","","","","","","","","",""
"learning-trial","221","1360822","0.0-9.0-2.0-1.67","1627","2","2","""event"",""trial"",""time""
""fullscreenenter"",""1"",""290932""
","
","
","""event"",""trial"",""time""
""fullscreenenter"",""1"",""290932""
","
","","","","","","1893.4000000059605","images/table5.png","","","learning","images/furniture_choice1.png","images/furniture_choice3.png","images/furniture_choice2.png","[0,2,1]","1","2","3","images/furniture_choice2.png","1","furniture","","table","2","0"
"html-keyboard-response","222","1361326","0.0-9.0-2.0-0.68","1627","2","2","""event"",""trial"",""time""
""fullscreenenter"",""1"",""290932""
","
","
","""event"",""trial"",""time""
""fullscreenenter"",""1"",""290932""
","
","","","","","","null","<div style=""font-size:60px;"">+</div>","null","","fixation","","","","","","","","","","","","","",""
"learning-trial","223","1365335","0.0-9.0-2.0-1.68","1627","2","2","""event"",""trial"",""time""
""fullscreenenter"",""1"",""290932""
","
","
","""event"",""trial"",""time""
""fullscreenenter"",""1"",""290932""
","
","","","","","","2052.4000000059605","images/sofa4.png","","","learning","images/furniture_choice3.png","images/furniture_choice1.png","images/furniture_choice2.png","[2,0,1]","1","2","3","images/furniture_choice2.png","1","furniture","","sofa","2","0"
"html-keyboard-response","224","1365838","0.0-9.0-2.0-0.69","1627","2","2","""event"",""trial"",""time""
""fullscreenenter"",""1"",""290932""
","
","
","""event"",""trial"",""time""
""fullscreenenter"",""1"",""290932""
","
","","","","","","null","<div style=""font-size:60px;"">+</div>","null","","fixation","","","","","","","","","","","","","",""
"learning-trial","225","1369844","0.0-9.0-2.0-1.69","1627","2","2","""event"",""trial"",""time""
""fullscreenenter"",""1"",""290932""
","
","
","""event"",""trial"",""time""
""fullscreenenter"",""1"",""290932""
","
","","","","","","1788.8999999910593","images/sofa5.png","","","learning","images/furniture_choice3.png","images/furniture_choice2.png","images/furniture_choice1.png","[2,1,0]","2","0","3","images/furniture_choice1.png","-1","furniture","","sofa","2","0"
"html-keyboard-response","226","1370346","0.0-9.0-2.0-0.70","1627","2","2","""event"",""trial"",""time""
""fullscreenenter"",""1"",""290932""
","
","
","""event"",""trial"",""time""
""fullscreenenter"",""1"",""290932""
","
","","","","","","null","<div style=""font-size:60px;"">+</div>","null","","fixation","","","","","","","","","","","","","",""
"learning-trial","227","1374351","0.0-9.0-2.0-1.70","1627","2","2","""event"",""trial"",""time""
""fullscreenenter"",""1"",""290932""
","
","
","""event"",""trial"",""time""
""fullscreenenter"",""1"",""290932""
","
","","","","","","1382.6000000089407","images/table4.png","","","learning","images/furniture_choice3.png","images/furniture_choice1.png","images/furniture_choice2.png","[2,0,1]","2","0","3","images/furniture_choice2.png","-1","furniture","","table","2","0"
"html-keyboard-response","228","1374854","0.0-9.0-2.0-0.71","1627","2","2","""event"",""trial"",""time""
""fullscreenenter"",""1"",""290932""
","
","
","""event"",""trial"",""time""
""fullscreenenter"",""1"",""290932""
","
","","","","","","null","<div style=""font-size:60px;"">+</div>","null","","fixation","","","","","","","","","","","","","",""
"learning-trial","229","1378859","0.0-9.0-2.0-1.71","1627","2","2","""event"",""trial"",""time""
""fullscreenenter"",""1"",""290932""
","
","
","""event"",""trial"",""time""
""fullscreenenter"",""1"",""290932""
","
","","","","","","1740.4000000059605","images/chair5.png","","","learning","images/furniture_choice1.png","images/furniture_choice3.png","images/furniture_choice2.png","[0,2,1]","0","0","1","images/furniture_choice1.png","1","furniture","","chair","2","0"
"html-button-response","230","1380947","0.0-9.0-3.0","1627","2","2","""event"",""trial"",""time""
""fullscreenenter"",""1"",""290932""
","
","
","""event"",""trial"",""time""
""fullscreenenter"",""1"",""290932""
","
","","","","","","2085","<p> You have completed the round! <p> In this round, you earned -16 points! </p>","0","","break","","","","","","","","","","","","","",""
"html-button-response","231","1382000","0.0-10.0","1627","2","2","""event"",""trial"",""time""
""fullscreenenter"",""1"",""290932""
","
","
","""event"",""trial"",""time""
""fullscreenenter"",""1"",""290932""
","
","","","","","","1050.7999999970198","<p> Now it's time to play another round. </p>","0","","transition_screen","","","","","","","","","","","","","",""
"preload","232","1383979","0.0-11.0-0.0","1627","2","2","""event"",""trial"",""time""
""fullscreenenter"",""1"",""290932""
","
","
","""event"",""trial"",""time""
