"trial_type","trial_index","time_elapsed","internal_node_id","subject_id","condition","task_version","interactions","blur_events","focus_events","fullscreenenter_events","fullscreenexit_events","success","timeout","failed_images","failed_audio","failed_video","rt","stimulus","response","button_pressed","task_part","left_choice","middle_choice","right_choice","choice_positions","correct_response","correct_position","key_press","option_selected","points","task_block","correct","stim_cat","block_condition","block_number"
"pavlovia","0","10","0.0-0.0","1529","1","2","""event"",""trial"",""time""
""fullscreenenter"",""1"",""4359""
","
","
","""event"",""trial"",""time""
""fullscreenenter"",""1"",""4359""
","
","","","","","","","","","","","","","","","","","","","","","","","",""
"fullscreen","1","5307","0.0-1.0","1529","1","2","""event"",""trial"",""time""
""fullscreenenter"",""1"",""4359""
","
","
","""event"",""trial"",""time""
""fullscreenenter"",""1"",""4359""
","
","true","","","","","","","","","","","","","","","","","","","","","","",""
"preload","2","10914","0.0-2.0","1529","1","2","""event"",""trial"",""time""
""fullscreenenter"",""1"",""4359""
","
","
","""event"",""trial"",""time""
""fullscreenenter"",""1"",""4359""
","
","true","false","[]","[]","[]","","","","","","","","","","","","","","","","","","",""
"audio-keyboard-response","3","14472","0.0-3.0","1529","1","2","""event"",""trial"",""time""
""fullscreenenter"",""1"",""4359""
","
","
","""event"",""trial"",""time""
""fullscreenenter"",""1"",""4359""
","
","","","","","","3559.9999999999995","audio/beep_loop.wav"," ","","","","","","","","","","","","","","","",""
"audio-button-response","4","17111","0.0-4.0","1529","1","2","""event"",""trial"",""time""
""fullscreenenter"",""1"",""4359""
","
","
","""event"",""trial"",""time""
""fullscreenenter"",""1"",""4359""
","
","","","","","","2640","audio/shark.wav","4","","","","","","","","","","","","","","","",""
"audio-button-response","5","19619","0.0-5.0","1529","1","2","""event"",""trial"",""time""
""fullscreenenter"",""1"",""4359""
","
","
","""event"",""trial"",""time""
""fullscreenenter"",""1"",""4359""
","
","","","","","","1499","audio/turtle.wav","1","","","","","","","","","","","","","","","",""
"preload","6","25415","0.0-6.0","1529","1","2","""event"",""trial"",""time""
""fullscreenenter"",""1"",""4359""
","
","
","""event"",""trial"",""time""
""fullscreenenter"",""1"",""4359""
","
","true","false","[]","[]","[]","","","","","","","","","","","","","","","","","","",""
"html-keyboard-response","7","28089","0.0-7.0","1529","1","2","""event"",""trial"",""time""
""fullscreenenter"",""1"",""4359""
","
","
","""event"",""trial"",""time""
""fullscreenenter"",""1"",""4359""
","
","","","","","","2672.5","Welcome to the experiment. Press any key to begin and to advance the instructions."," ","","","","","","","","","","","","","","","",""
"learning-instructions","8","38673","0.0-8.0-0.0-0.0","1529","1","2","""event"",""trial"",""time""
""fullscreenenter"",""1"",""4359""
","
","
","""event"",""trial"",""time""
""fullscreenenter"",""1"",""4359""
","
","","","","","","2834","<p> Welcome! Today you are going to play 6 different rounds of a decision-making game. </p><p> Use the mouse to click next to continue. </p>","","0","instructions","","","","","","","","","","","","","",""
"learning-instructions","9","43006","0.0-8.0-0.0-0.1","1529","1","2","""event"",""trial"",""time""
""fullscreenenter"",""1"",""4359""
","
","
","""event"",""trial"",""time""
""fullscreenenter"",""1"",""4359""
","
","","","","","","1327.1000000238419","<p> You will start with a practice round to learn the rules. </p>","","0","instructions","","","","","","","","","","","","","",""
"learning-instructions","10","51983","0.0-8.0-0.0-0.2","1529","1","2","""event"",""trial"",""time""
""fullscreenenter"",""1"",""4359""
","
","
","""event"",""trial"",""time""
""fullscreenenter"",""1"",""4359""
","
","","","","","","1224.8999999761581","<p> Your goal in this round is to deliver sports equipment to three different parks. </p><p> You will need to deliver many types of equipment. </p></div>","","0","instructions","","","","","","","","","","","","","",""
"learning-instructions","11","60928","0.0-8.0-0.0-0.3","1529","1","2","""event"",""trial"",""time""
""fullscreenenter"",""1"",""4359""
","
","
","""event"",""trial"",""time""
""fullscreenenter"",""1"",""4359""
","
","","","","","","460.10000002384186","<p> On each turn, you will see one piece of sports equipment and three different parks.  </p><p> You need to select which park to deliver the equipment to.  </p>","","0","instructions","","","","","","","","","","","","","",""
"learning-instructions","12","74819","0.0-8.0-0.0-0.4","1529","1","2","""event"",""trial"",""time""
""fullscreenenter"",""1"",""4359""
","
","
","""event"",""trial"",""time""
""fullscreenenter"",""1"",""4359""
","
","","","","","","599.5","<p> You can select the park on the left by pressing the '1' key on your keyboard. <br>You can select the park in the middle by pressing the '2' key on your keyboard. <br>You can select the park on the right by pressing the '3' key on your keyboard.  </p><br><div class=""choice-instructions-grid""> <div class=""choice-option""><img src=""images/park1.png"" class=""choice-option-img"" stage=""instructions"" position=""0"" ><div class=""choice-option-text""> Press ""1."" </div></div><div class=""choice-option""><img src=""images/park2.png"" class=""choice-option-img"" stage=""instructions"" position=""1"" ><div class=""choice-option-text""> Press ""2."" </div></div><div class=""choice-option""><img src=""images/park3.png"" class=""choice-option-img"" stage=""instructions"" position=""2"" ><div class=""choice-option-text""> Press ""3."" </div></div></div>","","0","instructions","","","","","","","","","","","","","",""
"learning-instructions","13","80684","0.0-8.0-0.0-0.5","1529","1","2","""event"",""trial"",""time""
""fullscreenenter"",""1"",""4359""
","
","
","""event"",""trial"",""time""
""fullscreenenter"",""1"",""4359""
","
","","","","","","484.10000002384186","<p> If the kids in the park you chose like the equipment, they will be very happy! </p><div style='float: center;'><img src='images/check.png' width = '200' height = '200'></img>","","0","instructions","","","","","","","","","","","","","",""
"learning-instructions","14","86831","0.0-8.0-0.0-0.6","1529","1","2","""event"",""trial"",""time""
""fullscreenenter"",""1"",""4359""
","
","
","""event"",""trial"",""time""
""fullscreenenter"",""1"",""4359""
","
","","","","","","541.5999999642372","<p> But, if the kids in the park you chose do not like the equipment, they will be sad. </p><div style='float: center;'><img src='images/x.png' width = '200' height = '200'></img>","","0","instructions","","","","","","","","","","","","","",""
"learning-instructions","15","93686","0.0-8.0-0.0-0.7","1529","1","2","""event"",""trial"",""time""
""fullscreenenter"",""1"",""4359""
","
","
","""event"",""trial"",""time""
""fullscreenenter"",""1"",""4359""
","
","","","","","","417.2000000476837","<p> Importantly, the kids in each park like some pieces of sports equipment more than others. </p>","","0","instructions","","","","","","","","","","","","","",""
"learning-instructions","16","100135","0.0-8.0-0.0-0.8","1529","1","2","""event"",""trial"",""time""
""fullscreenenter"",""1"",""4359""
","
","
","""event"",""trial"",""time""
""fullscreenenter"",""1"",""4359""
","
","","","","","","385.0999999642372","<p> If you choose the best park for each piece of equipment, the kids there will usually be happy. </p>","","0","instructions","","","","","","","","","","","","","",""
"learning-instructions","17","120312","0.0-8.0-0.0-0.9","1529","1","2","""event"",""trial"",""time""
""fullscreenenter"",""1"",""4359""
","
","
","""event"",""trial"",""time""
""fullscreenenter"",""1"",""4359""
","
","","","","","","13502.5","<p> However, even if you choose the best park for the equipment, the kids may sometimes be sad. </p>","","0","instructions","","","","","","","","","","","","","",""
"learning-instructions","18","129257","0.0-8.0-0.0-0.10","1529","1","2","""event"",""trial"",""time""
""fullscreenenter"",""1"",""4359""
","
","
","""event"",""trial"",""time""
""fullscreenenter"",""1"",""4359""
","
","","","","","","1579","<p> Similarly, even if you choose the <i>wrong</i> park for the equipment, the kids may still be happy sometimes.","","0","instructions","","","","","","","","","","","","","",""
"learning-instructions","19","136276","0.0-8.0-0.0-0.11","1529","1","2","""event"",""trial"",""time""
""fullscreenenter"",""1"",""4359""
","
","
","""event"",""trial"",""time""
""fullscreenenter"",""1"",""4359""
","
","","","","","","1966.800000011921","<p> For example, the best park for this soccer ball is this one.<div style='float: center;'><img src='images/i1.png' width = '500' height = '268'></img>","","0","instructions","","","","","","","","","","","","","",""
"learning-instructions","20","142019","0.0-8.0-0.0-0.12","1529","1","2","""event"",""trial"",""time""
""fullscreenenter"",""1"",""4359""
","
","
","""event"",""trial"",""time""
""fullscreenenter"",""1"",""4359""
","
","","","","","","450.4000000357628","<p> Let's see what happens if you choose this park for the soccer ball five times.","","0","instructions","","","","","","","","","","","","","",""
"learning-instructions","21","144994","0.0-8.0-0.0-0.13","1529","1","2","""event"",""trial"",""time""
""fullscreenenter"",""1"",""4359""
","
","
","""event"",""trial"",""time""
""fullscreenenter"",""1"",""4359""
","
","","","","","","794.2000000476837","<p> The kids are happy.<div style='float: left;'><img src='images/i2.png' width = '640' height = '360'></img>","","0","instructions","","","","","","","","","","","","","",""
"learning-instructions","22","147548","0.0-8.0-0.0-0.14","1529","1","2","""event"",""trial"",""time""
""fullscreenenter"",""1"",""4359""
","
","
","""event"",""trial"",""time""
""fullscreenenter"",""1"",""4359""
","
","","","","","","378.10000002384186","<p> The kids are happy.<div style='float: left;'><img src='images/i3.png' width = '640' height = '360'></img>","","0","instructions","","","","","","","","","","","","","",""
"learning-instructions","23","150079","0.0-8.0-0.0-0.15","1529","1","2","""event"",""trial"",""time""
""fullscreenenter"",""1"",""4359""
","
","
","""event"",""trial"",""time""
""fullscreenenter"",""1"",""4359""
","
","","","","","","359.5999999642372","<p> The kids are happy.<div style='float: left;'><img src='images/i4.png' width = '640' height = '360'></img>","","0","instructions","","","","","","","","","","","","","",""
"learning-instructions","24","152923","0.0-8.0-0.0-0.16","1529","1","2","""event"",""trial"",""time""
""fullscreenenter"",""1"",""4359""
","
","
","""event"",""trial"",""time""
""fullscreenenter"",""1"",""4359""
","
","","","","","","633.3999999761581","<p> The kids are sad.<div style='float: left;'><img src='images/i5.png' width = '640' height = '360'></img>","","0","instructions","","","","","","","","","","","","","",""
"learning-instructions","25","155517","0.0-8.0-0.0-0.17","1529","1","2","""event"",""trial"",""time""
""fullscreenenter"",""1"",""4359""
","
","
","""event"",""trial"",""time""
""fullscreenenter"",""1"",""4359""
","
","","","","","","427.30000001192093","<p> The kids are happy.<div style='float: left;'><img src='images/i6.png' width = '640' height = '360'></img>","","0","instructions","","","","","","","","","","","","","",""
"learning-instructions","26","163109","0.0-8.0-0.0-0.18","1529","1","2","""event"",""trial"",""time""
""fullscreenenter"",""1"",""4359""
","
","
","""event"",""trial"",""time""
""fullscreenenter"",""1"",""4359""
","
","","","","","","319.80000001192093","<p> As you can see, selecting that park for the soccer ball made the kids happy most of the time, but not all the time.","","0","instructions","","","","","","","","","","","","","",""
"learning-instructions","27","169307","0.0-8.0-0.0-0.19","1529","1","2","""event"",""trial"",""time""
""fullscreenenter"",""1"",""4359""
","
","
","""event"",""trial"",""time""
""fullscreenenter"",""1"",""4359""
","
","","","","","","187.30000001192093","<p> Now let's see what happens if you choose a DIFFERENT park for the soccer ball 5 times.","","0","instructions","","","","","","","","","","","","","",""
"learning-instructions","28","173352","0.0-8.0-0.0-0.20","1529","1","2","""event"",""trial"",""time""
""fullscreenenter"",""1"",""4359""
","
","
","""event"",""trial"",""time""
""fullscreenenter"",""1"",""4359""
","
","","","","","","1832.0999999642372","<p> The kids are sad.<div style='float: left;'><img src='images/i7.png' width = '640' height = '360'></img>","","0","instructions","","","","","","","","","","","","","",""
"learning-instructions","29","176068","0.0-8.0-0.0-0.21","1529","1","2","""event"",""trial"",""time""
""fullscreenenter"",""1"",""4359""
","
","
","""event"",""trial"",""time""
""fullscreenenter"",""1"",""4359""
","
","","","","","","508.30000001192093","<p> The kids are sad.<div style='float: left;'><img src='images/i8.png' width = '640' height = '360'></img>","","0","instructions","","","","","","","","","","","","","",""
"learning-instructions","30","178731","0.0-8.0-0.0-0.22","1529","1","2","""event"",""trial"",""time""
""fullscreenenter"",""1"",""4359""
","
","
","""event"",""trial"",""time""
""fullscreenenter"",""1"",""4359""
","
","","","","","","491.19999998807907","<p> The kids are happy.<div style='float: left;'><img src='images/i9.png' width = '640' height = '360'></img>","","0","instructions","","","","","","","","","","","","","",""
"learning-instructions","31","181934","0.0-8.0-0.0-0.23","1529","1","2","""event"",""trial"",""time""
""fullscreenenter"",""1"",""4359""
","
","
","""event"",""trial"",""time""
""fullscreenenter"",""1"",""4359""
","
","","","","","","983.8999999761581","<p> The kids are sad.<div style='float: left;'><img src='images/i10.png' width = '640' height = '360'></img>","","0","instructions","","","","","","","","","","","","","",""
"learning-instructions","32","184567","0.0-8.0-0.0-0.24","1529","1","2","""event"",""trial"",""time""
""fullscreenenter"",""1"",""4359""
","
","
","""event"",""trial"",""time""
""fullscreenenter"",""1"",""4359""
","
","","","","","","417.5","<p> The kids are sad.<div style='float: left;'><img src='images/i11.png' width = '640' height = '360'></img>","","0","instructions","","","","","","","","","","","","","",""
"learning-instructions","33","193999","0.0-8.0-0.0-0.25","1529","1","2","""event"",""trial"",""time""
""fullscreenenter"",""1"",""4359""
","
","
","""event"",""trial"",""time""
""fullscreenenter"",""1"",""4359""
","
","","","","","","1310.2000000476837","<p> As you can see, selecting the wrong park for the soccer ball made the kids sad most of the time, but not all the time.","","0","instructions","","","","","","","","","","","","","",""
"learning-instructions","34","203796","0.0-8.0-0.0-0.26","1529","1","2","""event"",""trial"",""time""
""fullscreenenter"",""1"",""4359""
","
","
","""event"",""trial"",""time""
""fullscreenenter"",""1"",""4359""
","
","","","","","","685.6000000238419","<p> The different pieces of equipment belong in different parks. You need to try to learn which is the best park for each piece of equipment.","","0","instructions","","","","","","","","","","","","","",""
"learning-instructions","35","220598","0.0-8.0-0.0-0.27","1529","1","2","""event"",""trial"",""time""
""fullscreenenter"",""1"",""4359""
","
","
","""event"",""trial"",""time""
""fullscreenenter"",""1"",""4359""
","
","","","","","","419.0999999642372","<p> Try to choose the best park for each piece of equipment, because you will <b> WIN </b> 1 point for each time you make the kids happy and <b>LOSE</b> 1 point for each time you make them sad. </p><p> Remember, if you make the best choice, you will win 1 point most of the time, but not all the time. </p>","","0","instructions","","","","","","","","","","","","","",""
"learning-instructions","36","226670","0.0-8.0-0.0-0.28","1529","1","2","""event"",""trial"",""time""
""fullscreenenter"",""1"",""4359""
","
","
","""event"",""trial"",""time""
""fullscreenenter"",""1"",""4359""
","
","","","","","","591.3999999761581","<p> This is just a practice round, but in the real game, your bonus payment will depend on your total number of points.","","0","instructions","","","","","","","","","","","","","",""
"learning-instructions","37","237358","0.0-8.0-0.0-0.29","1529","1","2","""event"",""trial"",""time""
""fullscreenenter"",""1"",""4359""
","
","
","""event"",""trial"",""time""
""fullscreenenter"",""1"",""4359""
","
","","","","","","359.39999997615814","<p> The position where each park appears will change throughout the game. </p><p> The position where the park appears <i> does not </i> influence how likely the kids are to be happy or sad. </p>","","0","instructions","","","","","","","","","","","","","",""
"learning-instructions","38","249374","0.0-8.0-0.0-0.30","1529","1","2","""event"",""trial"",""time""
""fullscreenenter"",""1"",""4359""
","
","
","""event"",""trial"",""time""
""fullscreenenter"",""1"",""4359""
","
","","","","","","534.2999999523163","<p> You will have 4 seconds to make each choice. Try to respond before time runs out! </p><p> You will lose 1 point each time you do not make a response. </p>","","0","instructions","","","","","","","","","","","","","",""
"learning-instructions","39","256531","0.0-8.0-0.0-0.31","1529","1","2","""event"",""trial"",""time""
""fullscreenenter"",""1"",""4359""
","
","
","""event"",""trial"",""time""
""fullscreenenter"",""1"",""4359""
","
","","","","","","360.10000002384186","<p> Remember, you should use the 1, 2, and 3 keys to select the park for each piece of equipment. </p><br><div class=""choice-instructions-grid""> <div class=""choice-option""><img src=""images/park1.png"" class=""choice-option-img"" stage=""instructions"" position=""0"" ><div class=""choice-option-text""> Press ""1."" </div></div><div class=""choice-option""><img src=""images/park2.png"" class=""choice-option-img"" stage=""instructions"" position=""1"" ><div class=""choice-option-text""> Press ""2."" </div></div><div class=""choice-option""><img src=""images/park3.png"" class=""choice-option-img"" stage=""instructions"" position=""2"" ><div class=""choice-option-text""> Press ""3."" </div></div></div>","","0","instructions","","","","","","","","","","","","","",""
"html-button-response","40","257984","0.0-8.0-1.0","1529","1","2","""event"",""trial"",""time""
""fullscreenenter"",""1"",""4359""
","
","
","""event"",""trial"",""time""
""fullscreenenter"",""1"",""4359""
","
","","","","","","1335.699999988079","<p> Ready to practice? </p>","0","","","","","","","","","","","","","","","",""
"html-keyboard-response","41","258599","0.0-8.0-2.0-0.0","1529","1","2","""event"",""trial"",""time""
""fullscreenenter"",""1"",""4359""
","
","
","""event"",""trial"",""time""
""fullscreenenter"",""1"",""4359""
","
","","","","","","null","<div style=""font-size:60px;"">+</div>","null","","fixation","","","","","","","","","","","","","",""
"learning-trial","42","262612","0.0-8.0-2.0-1.0","1529","1","2","""event"",""trial"",""time""
""fullscreenenter"",""1"",""4359""
","
","
","""event"",""trial"",""time""
""fullscreenenter"",""1"",""4359""
","
","","","","","","2429","images/ball4.png","","","practice","images/park2.png","images/park3.png","images/park1.png","[1,2,0]","2","1","1","images/park2.png","1","practice","","","",""
"html-keyboard-response","43","263122","0.0-8.0-2.0-0.1","1529","1","2","""event"",""trial"",""time""
""fullscreenenter"",""1"",""4359""
","
","
","""event"",""trial"",""time""
""fullscreenenter"",""1"",""4359""
","
","","","","","","null","<div style=""font-size:60px;"">+</div>","null","","fixation","","","","","","","","","","","","","",""
"learning-trial","44","267130","0.0-8.0-2.0-1.1","1529","1","2","""event"",""trial"",""time""
""fullscreenenter"",""1"",""4359""
","
","
","""event"",""trial"",""time""
""fullscreenenter"",""1"",""4359""
","
","","","","","","955.6999999880791","images/ball1.png","","","practice","images/park3.png","images/park1.png","images/park2.png","[2,0,1]","2","0","2","images/park1.png","-1","practice","","","",""
"html-keyboard-response","45","267642","0.0-8.0-2.0-0.2","1529","1","2","""event"",""trial"",""time""
""fullscreenenter"",""1"",""4359""
","
","
","""event"",""trial"",""time""
""fullscreenenter"",""1"",""4359""
","
","","","","","","null","<div style=""font-size:60px;"">+</div>","null","","fixation","","","","","","","","","","","","","",""
"learning-trial","46","271657","0.0-8.0-2.0-1.2","1529","1","2","""event"",""trial"",""time""
""fullscreenenter"",""1"",""4359""
","
","
","""event"",""trial"",""time""
""fullscreenenter"",""1"",""4359""
","
","","","","","","375.0999999642372","images/ball3.png","","","practice","images/park3.png","images/park1.png","images/park2.png","[2,0,1]","0","1","1","images/park3.png","-1","practice","","","",""
"html-keyboard-response","47","272168","0.0-8.0-2.0-0.3","1529","1","2","""event"",""trial"",""time""
""fullscreenenter"",""1"",""4359""
","
","
","""event"",""trial"",""time""
""fullscreenenter"",""1"",""4359""
","
","","","","","","null","<div style=""font-size:60px;"">+</div>","null","","fixation","","","","","","","","","","","","","",""
"learning-trial","48","276183","0.0-8.0-2.0-1.3","1529","1","2","""event"",""trial"",""time""
""fullscreenenter"",""1"",""4359""
","
","
","""event"",""trial"",""time""
""fullscreenenter"",""1"",""4359""
","
","","","","","","1695.3999999761581","images/ball2.png","","","practice","images/park1.png","images/park2.png","images/park3.png","[0,1,2]","0","0","3","images/park3.png","1","practice","","","",""
"html-keyboard-response","49","276696","0.0-8.0-2.0-0.4","1529","1","2","""event"",""trial"",""time""
""fullscreenenter"",""1"",""4359""
","
","
","""event"",""trial"",""time""
""fullscreenenter"",""1"",""4359""
","
","","","","","","null","<div style=""font-size:60px;"">+</div>","null","","fixation","","","","","","","","","","","","","",""
"learning-trial","50","280716","0.0-8.0-2.0-1.4","1529","1","2","""event"",""trial"",""time""
""fullscreenenter"",""1"",""4359""
","
","
","""event"",""trial"",""time""
""fullscreenenter"",""1"",""4359""
","
","","","","","","1632.7999999523163","images/racket2.png","","","practice","images/park2.png","images/park3.png","images/park1.png","[1,2,0]","1","0","2","images/park3.png","-1","practice","","","",""
"html-keyboard-response","51","281229","0.0-8.0-2.0-0.5","1529","1","2","""event"",""trial"",""time""
""fullscreenenter"",""1"",""4359""
","
","
","""event"",""trial"",""time""
""fullscreenenter"",""1"",""4359""
","
","","","","","","null","<div style=""font-size:60px;"">+</div>","null","","fixation","","","","","","","","","","","","","",""
"learning-trial","52","285242","0.0-8.0-2.0-1.5","1529","1","2","""event"",""trial"",""time""
""fullscreenenter"",""1"",""4359""
","
","
","""event"",""trial"",""time""
""fullscreenenter"",""1"",""4359""
","
","","","","","","1180.3999999761581","images/racket2.png","","","practice","images/park1.png","images/park3.png","images/park2.png","[0,2,1]","1","2","3","images/park2.png","1","practice","","","",""
"html-keyboard-response","53","285756","0.0-8.0-2.0-0.6","1529","1","2","""event"",""trial"",""time""
""fullscreenenter"",""1"",""4359""
","
","
","""event"",""trial"",""time""
""fullscreenenter"",""1"",""4359""
","
","","","","","","null","<div style=""font-size:60px;"">+</div>","null","","fixation","","","","","","","","","","","","","",""
"learning-trial","54","289762","0.0-8.0-2.0-1.6","1529","1","2","""event"",""trial"",""time""
""fullscreenenter"",""1"",""4359""
","
","
","""event"",""trial"",""time""
""fullscreenenter"",""1"",""4359""
","
","","","","","","1668.300000011921","images/racket3.png","","","practice","images/park3.png","images/park2.png","images/park1.png","[2,1,0]","1","1","1","images/park3.png","-1","practice","","","",""
"html-keyboard-response","55","290264","0.0-8.0-2.0-0.7","1529","1","2","""event"",""trial"",""time""
""fullscreenenter"",""1"",""4359""
","
","
","""event"",""trial"",""time""
""fullscreenenter"",""1"",""4359""
","
","","","","","","null","<div style=""font-size:60px;"">+</div>","null","","fixation","","","","","","","","","","","","","",""
"learning-trial","56","294269","0.0-8.0-2.0-1.7","1529","1","2","""event"",""trial"",""time""
""fullscreenenter"",""1"",""4359""
","
","
","""event"",""trial"",""time""
""fullscreenenter"",""1"",""4359""
","
","","","","","","1520.8999999761581","images/ball2.png","","","practice","images/park3.png","images/park1.png","images/park2.png","[2,0,1]","0","1","1","images/park3.png","-1","practice","","","",""
"html-keyboard-response","57","294771","0.0-8.0-2.0-0.8","1529","1","2","""event"",""trial"",""time""
""fullscreenenter"",""1"",""4359""
","
","
","""event"",""trial"",""time""
""fullscreenenter"",""1"",""4359""
","
","","","","","","null","<div style=""font-size:60px;"">+</div>","null","","fixation","","","","","","","","","","","","","",""
"learning-trial","58","298777","0.0-8.0-2.0-1.8","1529","1","2","""event"",""trial"",""time""
""fullscreenenter"",""1"",""4359""
","
","
","""event"",""trial"",""time""
""fullscreenenter"",""1"",""4359""
","
","","","","","","1946.9000000357628","images/ball1.png","","","practice","images/park1.png","images/park3.png","images/park2.png","[0,2,1]","2","1","3","images/park2.png","-1","practice","","","",""
"html-keyboard-response","59","299279","0.0-8.0-2.0-0.9","1529","1","2","""event"",""trial"",""time""
""fullscreenenter"",""1"",""4359""
","
","
","""event"",""trial"",""time""
""fullscreenenter"",""1"",""4359""
","
","","","","","","null","<div style=""font-size:60px;"">+</div>","null","","fixation","","","","","","","","","","","","","",""
"learning-trial","60","303286","0.0-8.0-2.0-1.9","1529","1","2","""event"",""trial"",""time""
""fullscreenenter"",""1"",""4359""
","
","
","""event"",""trial"",""time""
""fullscreenenter"",""1"",""4359""
","
","","","","","","2079.099999964237","images/ball3.png","","","practice","images/park3.png","images/park2.png","images/park1.png","[2,1,0]","0","2","3","images/park1.png","-1","practice","","","",""
"html-keyboard-response","61","303787","0.0-8.0-2.0-0.10","1529","1","2","""event"",""trial"",""time""
""fullscreenenter"",""1"",""4359""
","
","
","""event"",""trial"",""time""
""fullscreenenter"",""1"",""4359""
","
","","","","","","null","<div style=""font-size:60px;"">+</div>","null","","fixation","","","","","","","","","","","","","",""
"learning-trial","62","307792","0.0-8.0-2.0-1.10","1529","1","2","""event"",""trial"",""time""
""fullscreenenter"",""1"",""4359""
","
","
","""event"",""trial"",""time""
""fullscreenenter"",""1"",""4359""
","
","","","","","","1601.3999999761581","images/ball4.png","","","practice","images/park2.png","images/park3.png","images/park1.png","[1,2,0]","2","1","3","images/park1.png","-1","practice","","","",""
"html-keyboard-response","63","308295","0.0-8.0-2.0-0.11","1529","1","2","""event"",""trial"",""time""
""fullscreenenter"",""1"",""4359""
","
","
","""event"",""trial"",""time""
""fullscreenenter"",""1"",""4359""
","
","","","","","","null","<div style=""font-size:60px;"">+</div>","null","","fixation","","","","","","","","","","","","","",""
"learning-trial","64","312300","0.0-8.0-2.0-1.11","1529","1","2","""event"",""trial"",""time""
""fullscreenenter"",""1"",""4359""
","
","
","""event"",""trial"",""time""
""fullscreenenter"",""1"",""4359""
","
","","","","","","1094.800000011921","images/racket3.png","","","practice","images/park2.png","images/park3.png","images/park1.png","[1,2,0]","1","0","2","images/park3.png","-1","practice","","","",""
"html-button-response","65","315485","0.0-8.0-3.0","1529","1","2","""event"",""trial"",""time""
""fullscreenenter"",""1"",""4359""
","
","
","""event"",""trial"",""time""
""fullscreenenter"",""1"",""4359""
","
","","","","","","3179.5","<p> You earned -6 points in the practice round! </p>","0","","break","","","","","","","","","","","","","",""
"learning-instructions","66","324319","0.0-8.0-4.0-0.0","1529","1","2","""event"",""trial"",""time""
""fullscreenenter"",""1"",""4359""
","
","
","""event"",""trial"",""time""
""fullscreenenter"",""1"",""4359""
","
","","","","","","1100.6000000238419","<p> It's almost time to start the real game. </p><p> Before you start, we're going to ask you a few questions about how the game works. </p>","","0","instructions","","","","","","","","","","","","","",""
"preload","67","327293","0.0-8.0-5.0","1529","1","2","""event"",""trial"",""time""
""fullscreenenter"",""1"",""4359""
","
","
","""event"",""trial"",""time""
""fullscreenenter"",""1"",""4359""
","
","true","false","[]","[]","[]","","","","","","","","","","","","","","","","","","",""
"comp-q","68","334082","0.0-8.0-6.0-0.0","1529","1","2","""event"",""trial"",""time""
""fullscreenenter"",""1"",""4359""
","
","
","""event"",""trial"",""time""
""fullscreenenter"",""1"",""4359""
","
","","","","","","1343.4000000357628","<p> <b> True or False? </b> </p><p> If you choose the best option, you will always earn 1 point. </p>","","1","comp_question","","","","","","","","","","","true","","",""
"comp-q","69","344288","0.0-8.0-6.0-1.0","1529","1","2","""event"",""trial"",""time""
""fullscreenenter"",""1"",""4359""
","
","
","""event"",""trial"",""time""
""fullscreenenter"",""1"",""4359""
","
","","","","","","4539.599999964237","<p><b> That's right! </b> Sometimes you will lose 1 point, even if you choose the best option. </p>","","0","comp_answer","","","","","","","","","","","","","",""
"comp-q","70","349845","0.0-8.0-6.0-0.1","1529","1","2","""event"",""trial"",""time""
""fullscreenenter"",""1"",""4359""
","
","
","""event"",""trial"",""time""
""fullscreenenter"",""1"",""4359""
","
","","","","","","926.5","<p> <b> True or False? </b> </p><p> You will have as much time as you want to make each choice. </p>","","1","comp_question","","","","","","","","","","","true","","",""
"comp-q","71","356271","0.0-8.0-6.0-1.1","1529","1","2","""event"",""trial"",""time""
""fullscreenenter"",""1"",""4359""
","
","
","""event"",""trial"",""time""
""fullscreenenter"",""1"",""4359""
","
","","","","","","1602.7000000476837","<p> <b> That's right! </b> You will only have 4 seconds to make each choice. </p>","","0","comp_answer","","","","","","","","","","","","","",""
"comp-q","72","363162","0.0-8.0-6.0-0.2","1529","1","2","""event"",""trial"",""time""
""fullscreenenter"",""1"",""4359""
","
","
","""event"",""trial"",""time""
""fullscreenenter"",""1"",""4359""
","
","","","","","","722.8000000119209","<p> <b> True or False? </b> </p><p> You should use the '1', '2', and '3' keys to make your choices. </p>","","0","comp_question","","","","","","","","","","","true","","",""
"comp-q","73","369456","0.0-8.0-6.0-1.2","1529","1","2","""event"",""trial"",""time""
""fullscreenenter"",""1"",""4359""
","
","
","""event"",""trial"",""time""
""fullscreenenter"",""1"",""4359""
","
","","","","","","1447.800000011921","<p> <b> That's right! </b> You should use the '1', '2', and '3' keys to make each choice. </p>","","0","comp_answer","","","","","","","","","","","","","",""
"learning-instructions","74","379328","0.0-8.0-7.0-0.0","1529","1","2","""event"",""trial"",""time""
""fullscreenenter"",""1"",""4359""
","
","
","""event"",""trial"",""time""
""fullscreenenter"",""1"",""4359""
","
","","","","","","1369.800000011921","<p> It's now time to start the real game. </p>Do your best, because the points you earn in the next rounds will influence your bonus payment. </p>","","0","instructions","","","","","","","","","","","","","",""
"preload","75","383378","0.0-9.0-0.0","1529","1","2","""event"",""trial"",""time""
""fullscreenenter"",""1"",""4359""
","
","
","""event"",""trial"",""time""
""fullscreenenter"",""1"",""4359""
","
","true","false","[]","[]","[]","","","","","","","","","","","","","","","","","","",""
"learning-instructions","76","391985","0.0-9.0-1.0-0.0","1529","1","2","""event"",""trial"",""time""
""fullscreenenter"",""1"",""4359""
","
","
","""event"",""trial"",""time""
""fullscreenenter"",""1"",""4359""
","
","","","","","","816.1999999880791","<p> Your goal in this round is to deliver furniture to three different buildings. </p><p> You will need to deliver many pieces of furniture. </p></div>","","0","instructions","","","","","","","","","","","","","",""
"learning-instructions","77","400768","0.0-9.0-1.0-0.1","1529","1","2","""event"",""trial"",""time""
""fullscreenenter"",""1"",""4359""
","
","
","""event"",""trial"",""time""
""fullscreenenter"",""1"",""4359""
","
","","","","","","1340.199999988079","<p> On each turn, you will see a picture of a furniture item and three different buildings.  </p><p> You need to select the building that you want to deliver the furniture to.  </p>","","0","instructions","","","","","","","","","","","","","",""
"learning-instructions","78","409505","0.0-9.0-1.0-0.2","1529","1","2","""event"",""trial"",""time""
""fullscreenenter"",""1"",""4359""
","
","
","""event"",""trial"",""time""
""fullscreenenter"",""1"",""4359""
","
","","","","","","436.5","<p> You can select the building on the left by pressing 1, the building in the middle by pressing 2, and the building on the right by pressing 3.  </p><br><div class=""choice-instructions-grid""> <div class=""choice-option""><img src=""images/furniture_choice1.png"" class=""choice-option-img"" stage=""instructions"" position=""0"" ><div class=""choice-option-text""> Press ""1."" </div></div><div class=""choice-option""><img src=""images/furniture_choice2.png"" class=""choice-option-img"" stage=""instructions"" position=""1"" ><div class=""choice-option-text""> Press ""2."" </div></div><div class=""choice-option""><img src=""images/furniture_choice3.png"" class=""choice-option-img"" stage=""instructions"" position=""2"" ><div class=""choice-option-text""> Press ""3."" </div></div></div>","","0","instructions","","","","","","","","","","","","","",""
"learning-instructions","79","416686","0.0-9.0-1.0-0.3","1529","1","2","""event"",""trial"",""time""
""fullscreenenter"",""1"",""4359""
","
","
","""event"",""trial"",""time""
""fullscreenenter"",""1"",""4359""
","
","","","","","","1148.1000000238419","<p> If the furniture belongs in the building you chose, the building owner will likely be very happy! </p><div style='float: center;'><img src='images/check.png' width = '200' height = '200'></img>","","0","instructions","","","","","","","","","","","","","",""
"learning-instructions","80","423096","0.0-9.0-1.0-0.4","1529","1","2","""event"",""trial"",""time""
""fullscreenenter"",""1"",""4359""
","
","
","""event"",""trial"",""time""
""fullscreenenter"",""1"",""4359""
","
","","","","","","407.19999998807907","<p> But, if the furniture does not belong in the building you chose, the owner will likely be mad. </p><div style='float: center;'><img src='images/x.png' width = '200' height = '200'></img>","","0","instructions","","","","","","","","","","","","","",""
"learning-instructions","81","436367","0.0-9.0-1.0-0.5","1529","1","2","""event"",""trial"",""time""
""fullscreenenter"",""1"",""4359""
","
","
","""event"",""trial"",""time""
""fullscreenenter"",""1"",""4359""
","
","","","","","","2058.199999988079","<p> Importantly, each piece of furniture belongs in one of the three buildings. </p><p> If you choose the correct building for the piece of furniture, you will be more likely to make the building owner happy! </p>","","0","instructions","","","","","","","","","","","","","",""
"learning-instructions","82","448384","0.0-9.0-1.0-0.6","1529","1","2","""event"",""trial"",""time""
""fullscreenenter"",""1"",""4359""
","
","
","""event"",""trial"",""time""
""fullscreenenter"",""1"",""4359""
","
","","","","","","494.89999997615814","<p> However, even if you choose the best building for the furniture, the owner may still be mad sometimes. </p><p> Similarly, even if you choose the <i>wrong</i> building, the owner may still be happy.","","0","instructions","","","","","","","","","","","","","",""
"learning-instructions","83","461958","0.0-9.0-1.0-0.7","1529","1","2","""event"",""trial"",""time""
""fullscreenenter"",""1"",""4359""
","
","
","""event"",""trial"",""time""
""fullscreenenter"",""1"",""4359""
","
","","","","","","329.2000000476837","<p> Try to choose the best building for each piece of furniture, because you will <b> WIN </b> 1 point each time a building owner is happy and <b>LOSE</b>  1 point each time a building owner is mad. </p><p> Your bonus payment will depend on your total number of points.","","0","instructions","","","","","","","","","","","","","",""
"learning-instructions","84","471403","0.0-9.0-1.0-0.8","1529","1","2","""event"",""trial"",""time""
""fullscreenenter"",""1"",""4359""
","
","
","""event"",""trial"",""time""
""fullscreenenter"",""1"",""4359""
","
","","","","","","464.60000002384186","<p> The position of each building will change throughout the round. </p><p> The building's position <i> does not </i> influence how likely the owner is to be happy or mad. </p>","","0","instructions","","","","","","","","","","","","","",""
"learning-instructions","85","481053","0.0-9.0-1.0-0.9","1529","1","2","""event"",""trial"",""time""
""fullscreenenter"",""1"",""4359""
","
","
","""event"",""trial"",""time""
""fullscreenenter"",""1"",""4359""
","
","","","","","","344.60000002384186","<p> You will have 4 seconds to make each choice. Try to respond before time runs out! </p><p> You will lose 1 point each time you do not make a response. </p>","","0","instructions","","","","","","","","","","","","","",""
"html-keyboard-response","86","481667","0.0-9.0-2.0-0.0","1529","1","2","""event"",""trial"",""time""
""fullscreenenter"",""1"",""4359""
","
","
","""event"",""trial"",""time""
""fullscreenenter"",""1"",""4359""
","
","","","","","","null","<div style=""font-size:60px;"">+</div>","null","","fixation","","","","","","","","","","","","","",""
"learning-trial","87","485675","0.0-9.0-2.0-1.0","1529","1","2","""event"",""trial"",""time""
""fullscreenenter"",""1"",""4359""
","
","
","""event"",""trial"",""time""
""fullscreenenter"",""1"",""4359""
","
","","","","","","1388.5","images/table1.png","","","learning","images/furniture_choice3.png","images/furniture_choice2.png","images/furniture_choice1.png","[2,1,0]","0","2","3","images/furniture_choice1.png","1","furniture","","table","1","0"
"html-keyboard-response","88","486179","0.0-9.0-2.0-0.1","1529","1","2","""event"",""trial"",""time""
""fullscreenenter"",""1"",""4359""
","
","
","""event"",""trial"",""time""
""fullscreenenter"",""1"",""4359""
","
","","","","","","null","<div style=""font-size:60px;"">+</div>","null","","fixation","","","","","","","","","","","","","",""
"learning-trial","89","490197","0.0-9.0-2.0-1.1","1529","1","2","""event"",""trial"",""time""
""fullscreenenter"",""1"",""4359""
","
","
","""event"",""trial"",""time""
""fullscreenenter"",""1"",""4359""
","
","","","","","","1094.2999999523163","images/sofa4.png","","","learning","images/furniture_choice3.png","images/furniture_choice1.png","images/furniture_choice2.png","[2,0,1]","2","0","2","images/furniture_choice1.png","-1","furniture","","sofa","1","0"
"html-keyboard-response","90","490709","0.0-9.0-2.0-0.2","1529","1","2","""event"",""trial"",""time""
""fullscreenenter"",""1"",""4359""
","
","
","""event"",""trial"",""time""
""fullscreenenter"",""1"",""4359""
","
","","","","","","null","<div style=""font-size:60px;"">+</div>","null","","fixation","","","","","","","","","","","","","",""
"learning-trial","91","494730","0.0-9.0-2.0-1.2","1529","1","2","""event"",""trial"",""time""
""fullscreenenter"",""1"",""4359""
","
","
","""event"",""trial"",""time""
""fullscreenenter"",""1"",""4359""
","
","","","","","","2143.5","images/table3.png","","","learning","images/furniture_choice1.png","images/furniture_choice3.png","images/furniture_choice2.png","[0,2,1]","0","0","2","images/furniture_choice3.png","1","furniture","","table","1","0"
"html-keyboard-response","92","495232","0.0-9.0-2.0-0.3","1529","1","2","""event"",""trial"",""time""
""fullscreenenter"",""1"",""4359""
","
","
","""event"",""trial"",""time""
""fullscreenenter"",""1"",""4359""
","
","","","","","","null","<div style=""font-size:60px;"">+</div>","null","","fixation","","","","","","","","","","","","","",""
"learning-trial","93","499248","0.0-9.0-2.0-1.3","1529","1","2","""event"",""trial"",""time""
""fullscreenenter"",""1"",""4359""
","
","
","""event"",""trial"",""time""
""fullscreenenter"",""1"",""4359""
","
","","","","","","1591.199999988079","images/bed4.png","","","learning","images/furniture_choice2.png","images/furniture_choice1.png","images/furniture_choice3.png","[1,0,2]","1","0","3","images/furniture_choice3.png","-1","furniture","","bed","1","0"
"html-keyboard-response","94","499763","0.0-9.0-2.0-0.4","1529","1","2","""event"",""trial"",""time""
""fullscreenenter"",""1"",""4359""
","
","
","""event"",""trial"",""time""
""fullscreenenter"",""1"",""4359""
","
","","","","","","null","<div style=""font-size:60px;"">+</div>","null","","fixation","","","","","","","","","","","","","",""
"learning-trial","95","503781","0.0-9.0-2.0-1.4","1529","1","2","""event"",""trial"",""time""
""fullscreenenter"",""1"",""4359""
","
","
","""event"",""trial"",""time""
""fullscreenenter"",""1"",""4359""
","
","","","","","","1489.5999999642372","images/sofa3.png","","","learning","images/furniture_choice3.png","images/furniture_choice2.png","images/furniture_choice1.png","[2,1,0]","2","0","3","images/furniture_choice1.png","-1","furniture","","sofa","1","0"
"html-keyboard-response","96","504283","0.0-9.0-2.0-0.5","1529","1","2","""event"",""trial"",""time""
""fullscreenenter"",""1"",""4359""
","
","
","""event"",""trial"",""time""
""fullscreenenter"",""1"",""4359""
","
","","","","","","null","<div style=""font-size:60px;"">+</div>","null","","fixation","","","","","","","","","","","","","",""
"learning-trial","97","508289","0.0-9.0-2.0-1.5","1529","1","2","""event"",""trial"",""time""
""fullscreenenter"",""1"",""4359""
","
","
","""event"",""trial"",""time""
""fullscreenenter"",""1"",""4359""
","
","","","","","","1539.8999999761581","images/sofa4.png","","","learning","images/furniture_choice1.png","images/furniture_choice2.png","images/furniture_choice3.png","[0,1,2]","2","2","1","images/furniture_choice1.png","-1","furniture","","sofa","1","0"
"html-keyboard-response","98","508796","0.0-9.0-2.0-0.6","1529","1","2","""event"",""trial"",""time""
""fullscreenenter"",""1"",""4359""
","
","
","""event"",""trial"",""time""
""fullscreenenter"",""1"",""4359""
","
","","","","","","null","<div style=""font-size:60px;"">+</div>","null","","fixation","","","","","","","","","","","","","",""
"learning-trial","99","512801","0.0-9.0-2.0-1.6","1529","1","2","""event"",""trial"",""time""
""fullscreenenter"",""1"",""4359""
","
","
","""event"",""trial"",""time""
""fullscreenenter"",""1"",""4359""
","
","","","","","","2004.6000000238419","images/sofa3.png","","","learning","images/furniture_choice2.png","images/furniture_choice1.png","images/furniture_choice3.png","[1,0,2]","2","2","3","images/furniture_choice3.png","1","furniture","","sofa","1","0"
"html-keyboard-response","100","513303","0.0-9.0-2.0-0.7","1529","1","2","""event"",""trial"",""time""
""fullscreenenter"",""1"",""4359""
","
","
","""event"",""trial"",""time""
""fullscreenenter"",""1"",""4359""
","
","","","","","","null","<div style=""font-size:60px;"">+</div>","null","","fixation","","","","","","","","","","","","","",""
"learning-trial","101","517308","0.0-9.0-2.0-1.7","1529","1","2","""event"",""trial"",""time""
""fullscreenenter"",""1"",""4359""
","
","
","""event"",""trial"",""time""
""fullscreenenter"",""1"",""4359""
","
","","","","","","1966.300000011921","images/bed5.png","","","learning","images/furniture_choice2.png","images/furniture_choice3.png","images/furniture_choice1.png","[1,2,0]","1","0","1","images/furniture_choice2.png","1","furniture","","bed","1","0"
"html-keyboard-response","102","517810","0.0-9.0-2.0-0.8","1529","1","2","""event"",""trial"",""time""
""fullscreenenter"",""1"",""4359""
","
","
","""event"",""trial"",""time""
""fullscreenenter"",""1"",""4359""
","
","","","","","","null","<div style=""font-size:60px;"">+</div>","null","","fixation","","","","","","","","","","","","","",""
"learning-trial","103","521815","0.0-9.0-2.0-1.8","1529","1","2","""event"",""trial"",""time""
""fullscreenenter"",""1"",""4359""
","
","
","""event"",""trial"",""time""
""fullscreenenter"",""1"",""4359""
","
","","","","","","2124.699999988079","images/table3.png","","","learning","images/furniture_choice2.png","images/furniture_choice1.png","images/furniture_choice3.png","[1,0,2]","0","1","1","images/furniture_choice2.png","-1","furniture","","table","1","0"
"html-keyboard-response","104","522317","0.0-9.0-2.0-0.9","1529","1","2","""event"",""trial"",""time""
""fullscreenenter"",""1"",""4359""
","
","
","""event"",""trial"",""time""
""fullscreenenter"",""1"",""4359""
","
","","","","","","null","<div style=""font-size:60px;"">+</div>","null","","fixation","","","","","","","","","","","","","",""
"learning-trial","105","526322","0.0-9.0-2.0-1.9","1529","1","2","""event"",""trial"",""time""
""fullscreenenter"",""1"",""4359""
","
","
","""event"",""trial"",""time""
""fullscreenenter"",""1"",""4359""
","
","","","","","","1823.1000000238419","images/table1.png","","","learning","images/furniture_choice3.png","images/furniture_choice2.png","images/furniture_choice1.png","[2,1,0]","0","2","2","images/furniture_choice2.png","-1","furniture","","table","1","0"
"html-keyboard-response","106","526825","0.0-9.0-2.0-0.10","1529","1","2","""event"",""trial"",""time""
""fullscreenenter"",""1"",""4359""
","
","
","""event"",""trial"",""time""
""fullscreenenter"",""1"",""4359""
","
","","","","","","null","<div style=""font-size:60px;"">+</div>","null","","fixation","","","","","","","","","","","","","",""
"learning-trial","107","530831","0.0-9.0-2.0-1.10","1529","1","2","""event"",""trial"",""time""
""fullscreenenter"",""1"",""4359""
","
","
","""event"",""trial"",""time""
""fullscreenenter"",""1"",""4359""
","
","","","","","","1755.0999999642372","images/sofa4.png","","","learning","images/furniture_choice3.png","images/furniture_choice1.png","images/furniture_choice2.png","[2,0,1]","2","0","2","images/furniture_choice1.png","-1","furniture","","sofa","1","0"
"html-keyboard-response","108","531333","0.0-9.0-2.0-0.11","1529","1","2","""event"",""trial"",""time""
""fullscreenenter"",""1"",""4359""
","
","
","""event"",""trial"",""time""
""fullscreenenter"",""1"",""4359""
","
","","","","","","null","<div style=""font-size:60px;"">+</div>","null","","fixation","","","","","","","","","","","","","",""
"learning-trial","109","535338","0.0-9.0-2.0-1.11","1529","1","2","""event"",""trial"",""time""
""fullscreenenter"",""1"",""4359""
","
","
","""event"",""trial"",""time""
""fullscreenenter"",""1"",""4359""
","
","","","","","","2481.399999976158","images/sofa4.png","","","learning","images/furniture_choice2.png","images/furniture_choice1.png","images/furniture_choice3.png","[1,0,2]","2","2","1","images/furniture_choice2.png","-1","furniture","","sofa","1","0"
"html-keyboard-response","110","535840","0.0-9.0-2.0-0.12","1529","1","2","""event"",""trial"",""time""
""fullscreenenter"",""1"",""4359""
","
","
","""event"",""trial"",""time""
""fullscreenenter"",""1"",""4359""
","
","","","","","","null","<div style=""font-size:60px;"">+</div>","null","","fixation","","","","","","","","","","","","","",""
"learning-trial","111","539846","0.0-9.0-2.0-1.12","1529","1","2","""event"",""trial"",""time""
""fullscreenenter"",""1"",""4359""
","
","
","""event"",""trial"",""time""
""fullscreenenter"",""1"",""4359""
","
","","","","","","1841.6000000238419","images/sofa3.png","","","learning","images/furniture_choice3.png","images/furniture_choice2.png","images/furniture_choice1.png","[2,1,0]","2","0","3","images/furniture_choice1.png","-1","furniture","","sofa","1","0"
"html-keyboard-response","112","540347","0.0-9.0-2.0-0.13","1529","1","2","""event"",""trial"",""time""
""fullscreenenter"",""1"",""4359""
","
","
","""event"",""trial"",""time""
""fullscreenenter"",""1"",""4359""
","
","","","","","","null","<div style=""font-size:60px;"">+</div>","null","","fixation","","","","","","","","","","","","","",""
"learning-trial","113","544353","0.0-9.0-2.0-1.13","1529","1","2","""event"",""trial"",""time""
""fullscreenenter"",""1"",""4359""
","
","
","""event"",""trial"",""time""
""fullscreenenter"",""1"",""4359""
","
","","","","","","2726.600000023842","images/table2.png","","","learning","images/furniture_choice1.png","images/furniture_choice3.png","images/furniture_choice2.png","[0,2,1]","0","0","2","images/furniture_choice3.png","-1","furniture","","table","1","0"
"html-keyboard-response","114","544855","0.0-9.0-2.0-0.14","1529","1","2","""event"",""trial"",""time""
""fullscreenenter"",""1"",""4359""
","
","
","""event"",""trial"",""time""
""fullscreenenter"",""1"",""4359""
","
","","","","","","null","<div style=""font-size:60px;"">+</div>","null","","fixation","","","","","","","","","","","","","",""
"learning-trial","115","548861","0.0-9.0-2.0-1.14","1529","1","2","""event"",""trial"",""time""
""fullscreenenter"",""1"",""4359""
","
","
","""event"",""trial"",""time""
""fullscreenenter"",""1"",""4359""
","
","","","","","","2485.699999988079","images/sofa4.png","","","learning","images/furniture_choice2.png","images/furniture_choice3.png","images/furniture_choice1.png","[1,2,0]","2","1","1","images/furniture_choice2.png","-1","furniture","","sofa","1","0"
"html-keyboard-response","116","549363","0.0-9.0-2.0-0.15","1529","1","2","""event"",""trial"",""time""
""fullscreenenter"",""1"",""4359""
","
","
","""event"",""trial"",""time""
""fullscreenenter"",""1"",""4359""
","
","","","","","","null","<div style=""font-size:60px;"">+</div>","null","","fixation","","","","","","","","","","","","","",""
"learning-trial","117","553368","0.0-9.0-2.0-1.15","1529","1","2","""event"",""trial"",""time""
""fullscreenenter"",""1"",""4359""
","
","
","""event"",""trial"",""time""
""fullscreenenter"",""1"",""4359""
","
","","","","","","2195.800000011921","images/sofa2.png","","","learning","images/furniture_choice2.png","images/furniture_choice1.png","images/furniture_choice3.png","[1,0,2]","2","2","1","images/furniture_choice2.png","-1","furniture","","sofa","1","0"
"html-keyboard-response","118","553871","0.0-9.0-2.0-0.16","1529","1","2","""event"",""trial"",""time""
""fullscreenenter"",""1"",""4359""
","
","
","""event"",""trial"",""time""
""fullscreenenter"",""1"",""4359""
","
","","","","","","null","<div style=""font-size:60px;"">+</div>","null","","fixation","","","","","","","","","","","","","",""
"learning-trial","119","557875","0.0-9.0-2.0-1.16","1529","1","2","""event"",""trial"",""time""
""fullscreenenter"",""1"",""4359""
","
","
","""event"",""trial"",""time""
""fullscreenenter"",""1"",""4359""
","
","","","","","","1730.199999988079","images/bed2.png","","","learning","images/furniture_choice2.png","images/furniture_choice3.png","images/furniture_choice1.png","[1,2,0]","1","0","3","images/furniture_choice1.png","-1","furniture","","bed","1","0"
"html-keyboard-response","120","558378","0.0-9.0-2.0-0.17","1529","1","2","""event"",""trial"",""time""
""fullscreenenter"",""1"",""4359""
","
","
","""event"",""trial"",""time""
""fullscreenenter"",""1"",""4359""
","
","","","","","","null","<div style=""font-size:60px;"">+</div>","null","","fixation","","","","","","","","","","","","","",""
"learning-trial","121","562383","0.0-9.0-2.0-1.17","1529","1","2","""event"",""trial"",""time""
""fullscreenenter"",""1"",""4359""
","
","
","""event"",""trial"",""time""
""fullscreenenter"",""1"",""4359""
","
","","","","","","1288.5","images/sofa3.png","","","learning","images/furniture_choice3.png","images/furniture_choice2.png","images/furniture_choice1.png","[2,1,0]","2","0","2","images/furniture_choice2.png","-1","furniture","","sofa","1","0"
"html-keyboard-response","122","562885","0.0-9.0-2.0-0.18","1529","1","2","""event"",""trial"",""time""
""fullscreenenter"",""1"",""4359""
","
","
","""event"",""trial"",""time""
""fullscreenenter"",""1"",""4359""
","
","","","","","","null","<div style=""font-size:60px;"">+</div>","null","","fixation","","","","","","","","","","","","","",""
"learning-trial","123","566890","0.0-9.0-2.0-1.18","1529","1","2","""event"",""trial"",""time""
""fullscreenenter"",""1"",""4359""
","
","
","""event"",""trial"",""time""
""fullscreenenter"",""1"",""4359""
","
","","","","","","1218.6000000238419","images/bed5.png","","","learning","images/furniture_choice3.png","images/furniture_choice1.png","images/furniture_choice2.png","[2,0,1]","1","2","1","images/furniture_choice3.png","-1","furniture","","bed","1","0"
"html-keyboard-response","124","567392","0.0-9.0-2.0-0.19","1529","1","2","""event"",""trial"",""time""
""fullscreenenter"",""1"",""4359""
","
","
","""event"",""trial"",""time""
""fullscreenenter"",""1"",""4359""
","
","","","","","","null","<div style=""font-size:60px;"">+</div>","null","","fixation","","","","","","","","","","","","","",""
"learning-trial","125","571397","0.0-9.0-2.0-1.19","1529","1","2","""event"",""trial"",""time""
""fullscreenenter"",""1"",""4359""
","
","
","""event"",""trial"",""time""
""fullscreenenter"",""1"",""4359""
","
","","","","","","1098.5999999642372","images/sofa4.png","","","learning","images/furniture_choice3.png","images/furniture_choice1.png","images/furniture_choice2.png","[2,0,1]","2","0","2","images/furniture_choice1.png","-1","furniture","","sofa","1","0"
"html-keyboard-response","126","571899","0.0-9.0-2.0-0.20","1529","1","2","""event"",""trial"",""time""
""fullscreenenter"",""1"",""4359""
","
","
","""event"",""trial"",""time""
""fullscreenenter"",""1"",""4359""
","
","","","","","","null","<div style=""font-size:60px;"">+</div>","null","","fixation","","","","","","","","","","","","","",""
"learning-trial","127","575904","0.0-9.0-2.0-1.20","1529","1","2","""event"",""trial"",""time""
""fullscreenenter"",""1"",""4359""
","
","
","""event"",""trial"",""time""
""fullscreenenter"",""1"",""4359""
","
","","","","","","1486.2999999523163","images/sofa2.png","","","learning","images/furniture_choice2.png","images/furniture_choice3.png","images/furniture_choice1.png","[1,2,0]","2","1","2","images/furniture_choice3.png","1","furniture","","sofa","1","0"
"html-keyboard-response","128","576407","0.0-9.0-2.0-0.21","1529","1","2","""event"",""trial"",""time""
""fullscreenenter"",""1"",""4359""
","
","
","""event"",""trial"",""time""
""fullscreenenter"",""1"",""4359""
","
","","","","","","null","<div style=""font-size:60px;"">+</div>","null","","fixation","","","","","","","","","","","","","",""
"learning-trial","129","580412","0.0-9.0-2.0-1.21","1529","1","2","""event"",""trial"",""time""
""fullscreenenter"",""1"",""4359""
","
","
","""event"",""trial"",""time""
""fullscreenenter"",""1"",""4359""
","
","","","","","","1907.3999999761581","images/sofa2.png","","","learning","images/furniture_choice2.png","images/furniture_choice1.png","images/furniture_choice3.png","[1,0,2]","2","2","3","images/furniture_choice3.png","1","furniture","","sofa","1","0"
"html-keyboard-response","130","580914","0.0-9.0-2.0-0.22","1529","1","2","""event"",""trial"",""time""
""fullscreenenter"",""1"",""4359""
","
","
","""event"",""trial"",""time""
""fullscreenenter"",""1"",""4359""
","
","","","","","","null","<div style=""font-size:60px;"">+</div>","null","","fixation","","","","","","","","","","","","","",""
"learning-trial","131","584921","0.0-9.0-2.0-1.22","1529","1","2","""event"",""trial"",""time""
""fullscreenenter"",""1"",""4359""
","
","
","""event"",""trial"",""time""
""fullscreenenter"",""1"",""4359""
","
","","","","","","2315.100000023842","images/bed4.png","","","learning","images/furniture_choice1.png","images/furniture_choice3.png","images/furniture_choice2.png","[0,2,1]","1","2","1","images/furniture_choice1.png","-1","furniture","","bed","1","0"
"html-keyboard-response","132","585423","0.0-9.0-2.0-0.23","1529","1","2","""event"",""trial"",""time""
""fullscreenenter"",""1"",""4359""
","
","
","""event"",""trial"",""time""
""fullscreenenter"",""1"",""4359""
","
","","","","","","null","<div style=""font-size:60px;"">+</div>","null","","fixation","","","","","","","","","","","","","",""
"learning-trial","133","589431","0.0-9.0-2.0-1.23","1529","1","2","""event"",""trial"",""time""
""fullscreenenter"",""1"",""4359""
","
","
","""event"",""trial"",""time""
""fullscreenenter"",""1"",""4359""
","
","","","","","","1567.699999988079","images/table2.png","","","learning","images/furniture_choice2.png","images/furniture_choice3.png","images/furniture_choice1.png","[1,2,0]","0","2","1","images/furniture_choice2.png","-1","furniture","","table","1","0"
"html-keyboard-response","134","589934","0.0-9.0-2.0-0.24","1529","1","2","""event"",""trial"",""time""
""fullscreenenter"",""1"",""4359""
","
","
","""event"",""trial"",""time""
""fullscreenenter"",""1"",""4359""
","
","","","","","","null","<div style=""font-size:60px;"">+</div>","null","","fixation","","","","","","","","","","","","","",""
"learning-trial","135","593939","0.0-9.0-2.0-1.24","1529","1","2","""event"",""trial"",""time""
""fullscreenenter"",""1"",""4359""
","
","
","""event"",""trial"",""time""
""fullscreenenter"",""1"",""4359""
","
","","","","","","1712.4000000357628","images/table3.png","","","learning","images/furniture_choice2.png","images/furniture_choice3.png","images/furniture_choice1.png","[1,2,0]","0","2","1","images/furniture_choice2.png","-1","furniture","","table","1","0"
"html-keyboard-response","136","594441","0.0-9.0-2.0-0.25","1529","1","2","""event"",""trial"",""time""
""fullscreenenter"",""1"",""4359""
","
","
","""event"",""trial"",""time""
""fullscreenenter"",""1"",""4359""
","
","","","","","","null","<div style=""font-size:60px;"">+</div>","null","","fixation","","","","","","","","","","","","","",""
"learning-trial","137","598446","0.0-9.0-2.0-1.25","1529","1","2","""event"",""trial"",""time""
""fullscreenenter"",""1"",""4359""
","
","
","""event"",""trial"",""time""
""fullscreenenter"",""1"",""4359""
","
","","","","","","2517.199999988079","images/sofa2.png","","","learning","images/furniture_choice2.png","images/furniture_choice1.png","images/furniture_choice3.png","[1,0,2]","2","2","3","images/furniture_choice3.png","1","furniture","","sofa","1","0"
"html-keyboard-response","138","598949","0.0-9.0-2.0-0.26","1529","1","2","""event"",""trial"",""time""
""fullscreenenter"",""1"",""4359""
","
","
","""event"",""trial"",""time""
""fullscreenenter"",""1"",""4359""
","
","","","","","","null","<div style=""font-size:60px;"">+</div>","null","","fixation","","","","","","","","","","","","","",""
"learning-trial","139","602953","0.0-9.0-2.0-1.26","1529","1","2","""event"",""trial"",""time""
""fullscreenenter"",""1"",""4359""
","
","
","""event"",""trial"",""time""
""fullscreenenter"",""1"",""4359""
","
","","","","","","1634.1000000238419","images/table1.png","","","learning","images/furniture_choice1.png","images/furniture_choice2.png","images/furniture_choice3.png","[0,1,2]","0","0","1","images/furniture_choice1.png","1","furniture","","table","1","0"
"html-keyboard-response","140","603456","0.0-9.0-2.0-0.27","1529","1","2","""event"",""trial"",""time""
""fullscreenenter"",""1"",""4359""
","
","
","""event"",""trial"",""time""
""fullscreenenter"",""1"",""4359""
","
","","","","","","null","<div style=""font-size:60px;"">+</div>","null","","fixation","","","","","","","","","","","","","",""
"learning-trial","141","607461","0.0-9.0-2.0-1.27","1529","1","2","""event"",""trial"",""time""
""fullscreenenter"",""1"",""4359""
","
","
","""event"",""trial"",""time""
""fullscreenenter"",""1"",""4359""
","
","","","","","","2483.399999976158","images/table2.png","","","learning","images/furniture_choice1.png","images/furniture_choice2.png","images/furniture_choice3.png","[0,1,2]","0","0","3","images/furniture_choice3.png","-1","furniture","","table","1","0"
"html-keyboard-response","142","607962","0.0-9.0-2.0-0.28","1529","1","2","""event"",""trial"",""time""
""fullscreenenter"",""1"",""4359""
","
","
","""event"",""trial"",""time""
""fullscreenenter"",""1"",""4359""
","
","","","","","","null","<div style=""font-size:60px;"">+</div>","null","","fixation","","","","","","","","","","","","","",""
"learning-trial","143","611967","0.0-9.0-2.0-1.28","1529","1","2","""event"",""trial"",""time""
""fullscreenenter"",""1"",""4359""
","
","
","""event"",""trial"",""time""
""fullscreenenter"",""1"",""4359""
","
","","","","","","1369.300000011921","images/bed4.png","","","learning","images/furniture_choice1.png","images/furniture_choice3.png","images/furniture_choice2.png","[0,2,1]","1","2","1","images/furniture_choice1.png","1","furniture","","bed","1","0"
"html-keyboard-response","144","612469","0.0-9.0-2.0-0.29","1529","1","2","""event"",""trial"",""time""
""fullscreenenter"",""1"",""4359""
","
","
","""event"",""trial"",""time""
""fullscreenenter"",""1"",""4359""
","
","","","","","","null","<div style=""font-size:60px;"">+</div>","null","","fixation","","","","","","","","","","","","","",""
"learning-trial","145","616474","0.0-9.0-2.0-1.29","1529","1","2","""event"",""trial"",""time""
""fullscreenenter"",""1"",""4359""
","
","
","""event"",""trial"",""time""
""fullscreenenter"",""1"",""4359""
","
","","","","","","1186.300000011921","images/table3.png","","","learning","images/furniture_choice3.png","images/furniture_choice2.png","images/furniture_choice1.png","[2,1,0]","0","2","2","images/furniture_choice2.png","-1","furniture","","table","1","0"
"html-keyboard-response","146","616977","0.0-9.0-2.0-0.30","1529","1","2","""event"",""trial"",""time""
""fullscreenenter"",""1"",""4359""
","
","
","""event"",""trial"",""time""
""fullscreenenter"",""1"",""4359""
","
","","","","","","null","<div style=""font-size:60px;"">+</div>","null","","fixation","","","","","","","","","","","","","",""
"learning-trial","147","620982","0.0-9.0-2.0-1.30","1529","1","2","""event"",""trial"",""time""
""fullscreenenter"",""1"",""4359""
","
","
","""event"",""trial"",""time""
""fullscreenenter"",""1"",""4359""
","
","","","","","","2041.4000000357628","images/table3.png","","","learning","images/furniture_choice2.png","images/furniture_choice1.png","images/furniture_choice3.png","[1,0,2]","0","1","2","images/furniture_choice1.png","1","furniture","","table","1","0"
"html-keyboard-response","148","621485","0.0-9.0-2.0-0.31","1529","1","2","""event"",""trial"",""time""
""fullscreenenter"",""1"",""4359""
","
","
","""event"",""trial"",""time""
""fullscreenenter"",""1"",""4359""
","
","","","","","","null","<div style=""font-size:60px;"">+</div>","null","","fixation","","","","","","","","","","","","","",""
"learning-trial","149","625490","0.0-9.0-2.0-1.31","1529","1","2","""event"",""trial"",""time""
""fullscreenenter"",""1"",""4359""
","
","
","""event"",""trial"",""time""
""fullscreenenter"",""1"",""4359""
","
","","","","","","1680","images/bed4.png","","","learning","images/furniture_choice2.png","images/furniture_choice3.png","images/furniture_choice1.png","[1,2,0]","1","0","1","images/furniture_choice2.png","1","furniture","","bed","1","0"
"html-keyboard-response","150","625992","0.0-9.0-2.0-0.32","1529","1","2","""event"",""trial"",""time""
""fullscreenenter"",""1"",""4359""
","
","
","""event"",""trial"",""time""
""fullscreenenter"",""1"",""4359""
","
","","","","","","null","<div style=""font-size:60px;"">+</div>","null","","fixation","","","","","","","","","","","","","",""
"learning-trial","151","629997","0.0-9.0-2.0-1.32","1529","1","2","""event"",""trial"",""time""
""fullscreenenter"",""1"",""4359""
","
","
","""event"",""trial"",""time""
""fullscreenenter"",""1"",""4359""
","
","","","","","","1661.800000011921","images/table2.png","","","learning","images/furniture_choice3.png","images/furniture_choice1.png","images/furniture_choice2.png","[2,0,1]","0","1","2","images/furniture_choice1.png","1","furniture","","table","1","0"
"html-keyboard-response","152","630499","0.0-9.0-2.0-0.33","1529","1","2","""event"",""trial"",""time""
""fullscreenenter"",""1"",""4359""
","
","
","""event"",""trial"",""time""
""fullscreenenter"",""1"",""4359""
","
","","","","","","null","<div style=""font-size:60px;"">+</div>","null","","fixation","","","","","","","","","","","","","",""
"learning-trial","153","634503","0.0-9.0-2.0-1.33","1529","1","2","""event"",""trial"",""time""
""fullscreenenter"",""1"",""4359""
","
","
","""event"",""trial"",""time""
""fullscreenenter"",""1"",""4359""
","
","","","","","","1448.699999988079","images/table2.png","","","learning","images/furniture_choice2.png","images/furniture_choice1.png","images/furniture_choice3.png","[1,0,2]","0","1","2","images/furniture_choice1.png","1","furniture","","table","1","0"
"html-keyboard-response","154","635005","0.0-9.0-2.0-0.34","1529","1","2","""event"",""trial"",""time""
""fullscreenenter"",""1"",""4359""
","
","
","""event"",""trial"",""time""
""fullscreenenter"",""1"",""4359""
","
","","","","","","null","<div style=""font-size:60px;"">+</div>","null","","fixation","","","","","","","","","","","","","",""
"learning-trial","155","639010","0.0-9.0-2.0-1.34","1529","1","2","""event"",""trial"",""time""
""fullscreenenter"",""1"",""4359""
","
","
","""event"",""trial"",""time""
""fullscreenenter"",""1"",""4359""
","
","","","","","","1323","images/bed4.png","","","learning","images/furniture_choice2.png","images/furniture_choice1.png","images/furniture_choice3.png","[1,0,2]","1","0","1","images/furniture_choice2.png","1","furniture","","bed","1","0"
"html-keyboard-response","156","639512","0.0-9.0-2.0-0.35","1529","1","2","""event"",""trial"",""time""
""fullscreenenter"",""1"",""4359""
","
","
","""event"",""trial"",""time""
""fullscreenenter"",""1"",""4359""
","
","","","","","","null","<div style=""font-size:60px;"">+</div>","null","","fixation","","","","","","","","","","","","","",""
"learning-trial","157","643517","0.0-9.0-2.0-1.35","1529","1","2","""event"",""trial"",""time""
""fullscreenenter"",""1"",""4359""
","
","
","""event"",""trial"",""time""
""fullscreenenter"",""1"",""4359""
","
","","","","","","1114.800000011921","images/bed4.png","","","learning","images/furniture_choice3.png","images/furniture_choice2.png","images/furniture_choice1.png","[2,1,0]","1","1","2","images/furniture_choice2.png","-1","furniture","","bed","1","0"
"html-keyboard-response","158","644019","0.0-9.0-2.0-0.36","1529","1","2","""event"",""trial"",""time""
""fullscreenenter"",""1"",""4359""
","
","
","""event"",""trial"",""time""
""fullscreenenter"",""1"",""4359""
","
","","","","","","null","<div style=""font-size:60px;"">+</div>","null","","fixation","","","","","","","","","","","","","",""
"learning-trial","159","648024","0.0-9.0-2.0-1.36","1529","1","2","""event"",""trial"",""time""
""fullscreenenter"",""1"",""4359""
","
","
","""event"",""trial"",""time""
""fullscreenenter"",""1"",""4359""
","
","","","","","","1956.199999988079","images/bed5.png","","","learning","images/furniture_choice2.png","images/furniture_choice3.png","images/furniture_choice1.png","[1,2,0]","1","0","3","images/furniture_choice1.png","-1","furniture","","bed","1","0"
"html-keyboard-response","160","648525","0.0-9.0-2.0-0.37","1529","1","2","""event"",""trial"",""time""
""fullscreenenter"",""1"",""4359""
","
","
","""event"",""trial"",""time""
""fullscreenenter"",""1"",""4359""
","
","","","","","","null","<div style=""font-size:60px;"">+</div>","null","","fixation","","","","","","","","","","","","","",""
"learning-trial","161","652530","0.0-9.0-2.0-1.37","1529","1","2","""event"",""trial"",""time""
""fullscreenenter"",""1"",""4359""
","
","
","""event"",""trial"",""time""
""fullscreenenter"",""1"",""4359""
","
","","","","","","1990.2999999523163","images/table1.png","","","learning","images/furniture_choice3.png","images/furniture_choice1.png","images/furniture_choice2.png","[2,0,1]","0","1","1","images/furniture_choice3.png","-1","furniture","","table","1","0"
"html-keyboard-response","162","653031","0.0-9.0-2.0-0.38","1529","1","2","""event"",""trial"",""time""
""fullscreenenter"",""1"",""4359""
","
","
","""event"",""trial"",""time""
""fullscreenenter"",""1"",""4359""
","
","","","","","","null","<div style=""font-size:60px;"">+</div>","null","","fixation","","","","","","","","","","","","","",""
"learning-trial","163","657037","0.0-9.0-2.0-1.38","1529","1","2","""event"",""trial"",""time""
""fullscreenenter"",""1"",""4359""
","
","
","""event"",""trial"",""time""
""fullscreenenter"",""1"",""4359""
","
","","","","","","1097.199999988079","images/table3.png","","","learning","images/furniture_choice2.png","images/furniture_choice1.png","images/furniture_choice3.png","[1,0,2]","0","1","2","images/furniture_choice1.png","1","furniture","","table","1","0"
"html-keyboard-response","164","657538","0.0-9.0-2.0-0.39","1529","1","2","""event"",""trial"",""time""
""fullscreenenter"",""1"",""4359""
","
","
","""event"",""trial"",""time""
""fullscreenenter"",""1"",""4359""
","
","","","","","","null","<div style=""font-size:60px;"">+</div>","null","","fixation","","","","","","","","","","","","","",""
"learning-trial","165","661544","0.0-9.0-2.0-1.39","1529","1","2","""event"",""trial"",""time""
""fullscreenenter"",""1"",""4359""
","
","
","""event"",""trial"",""time""
""fullscreenenter"",""1"",""4359""
","
","","","","","","2348.899999976158","images/bed2.png","","","learning","images/furniture_choice2.png","images/furniture_choice1.png","images/furniture_choice3.png","[1,0,2]","1","0","3","images/furniture_choice3.png","1","furniture","","bed","1","0"
"html-keyboard-response","166","662046","0.0-9.0-2.0-0.40","1529","1","2","""event"",""trial"",""time""
""fullscreenenter"",""1"",""4359""
","
","
","""event"",""trial"",""time""
""fullscreenenter"",""1"",""4359""
","
","","","","","","null","<div style=""font-size:60px;"">+</div>","null","","fixation","","","","","","","","","","","","","",""
"learning-trial","167","666051","0.0-9.0-2.0-1.40","1529","1","2","""event"",""trial"",""time""
""fullscreenenter"",""1"",""4359""
","
","
","""event"",""trial"",""time""
""fullscreenenter"",""1"",""4359""
","
","","","","","","2575.2999999523163","images/sofa3.png","","","learning","images/furniture_choice3.png","images/furniture_choice1.png","images/furniture_choice2.png","[2,0,1]","2","0","1","images/furniture_choice3.png","1","furniture","","sofa","1","0"
"html-keyboard-response","168","666554","0.0-9.0-2.0-0.41","1529","1","2","""event"",""trial"",""time""
""fullscreenenter"",""1"",""4359""
","
","
","""event"",""trial"",""time""
""fullscreenenter"",""1"",""4359""
","
","","","","","","null","<div style=""font-size:60px;"">+</div>","null","","fixation","","","","","","","","","","","","","",""
"learning-trial","169","670556","0.0-9.0-2.0-1.41","1529","1","2","""event"",""trial"",""time""
""fullscreenenter"",""1"",""4359""
","
","
","""event"",""trial"",""time""
""fullscreenenter"",""1"",""4359""
","
","","","","","","1282.199999988079","images/sofa2.png","","","learning","images/furniture_choice1.png","images/furniture_choice2.png","images/furniture_choice3.png","[0,1,2]","2","2","2","images/furniture_choice2.png","-1","furniture","","sofa","1","0"
"html-keyboard-response","170","671066","0.0-9.0-2.0-0.42","1529","1","2","""event"",""trial"",""time""
""fullscreenenter"",""1"",""4359""
","
","
","""event"",""trial"",""time""
""fullscreenenter"",""1"",""4359""
","
","","","","","","null","<div style=""font-size:60px;"">+</div>","null","","fixation","","","","","","","","","","","","","",""
"learning-trial","171","675070","0.0-9.0-2.0-1.42","1529","1","2","""event"",""trial"",""time""
""fullscreenenter"",""1"",""4359""
","
","
","""event"",""trial"",""time""
""fullscreenenter"",""1"",""4359""
","
","","","","","","1601.5999999642372","images/sofa3.png","","","learning","images/furniture_choice1.png","images/furniture_choice2.png","images/furniture_choice3.png","[0,1,2]","2","2","1","images/furniture_choice1.png","-1","furniture","","sofa","1","0"
"html-keyboard-response","172","675572","0.0-9.0-2.0-0.43","1529","1","2","""event"",""trial"",""time""
""fullscreenenter"",""1"",""4359""
","
","
","""event"",""trial"",""time""
""fullscreenenter"",""1"",""4359""
","
","","","","","","null","<div style=""font-size:60px;"">+</div>","null","","fixation","","","","","","","","","","","","","",""
"learning-trial","173","679578","0.0-9.0-2.0-1.43","1529","1","2","""event"",""trial"",""time""
""fullscreenenter"",""1"",""4359""
","
","
","""event"",""trial"",""time""
""fullscreenenter"",""1"",""4359""
","
","","","","","","1398.199999988079","images/bed5.png","","","learning","images/furniture_choice3.png","images/furniture_choice2.png","images/furniture_choice1.png","[2,1,0]","1","1","2","images/furniture_choice2.png","1","furniture","","bed","1","0"
"html-keyboard-response","174","680093","0.0-9.0-2.0-0.44","1529","1","2","""event"",""trial"",""time""
""fullscreenenter"",""1"",""4359""
","
","
","""event"",""trial"",""time""
""fullscreenenter"",""1"",""4359""
","
","","","","","","null","<div style=""font-size:60px;"">+</div>","null","","fixation","","","","","","","","","","","","","",""
"learning-trial","175","684099","0.0-9.0-2.0-1.44","1529","1","2","""event"",""trial"",""time""
""fullscreenenter"",""1"",""4359""
","
","
","""event"",""trial"",""time""
""fullscreenenter"",""1"",""4359""
","
","","","","","","1280.800000011921","images/bed5.png","","","learning","images/furniture_choice3.png","images/furniture_choice1.png","images/furniture_choice2.png","[2,0,1]","1","2","3","images/furniture_choice2.png","-1","furniture","","bed","1","0"
"html-keyboard-response","176","684601","0.0-9.0-2.0-0.45","1529","1","2","""event"",""trial"",""time""
""fullscreenenter"",""1"",""4359""
","
","
","""event"",""trial"",""time""
""fullscreenenter"",""1"",""4359""
","
","","","","","","null","<div style=""font-size:60px;"">+</div>","null","","fixation","","","","","","","","","","","","","",""
"learning-trial","177","688606","0.0-9.0-2.0-1.45","1529","1","2","""event"",""trial"",""time""
""fullscreenenter"",""1"",""4359""
","
","
","""event"",""trial"",""time""
""fullscreenenter"",""1"",""4359""
","
","","","","","","1215.6000000238419","images/table1.png","","","learning","images/furniture_choice2.png","images/furniture_choice3.png","images/furniture_choice1.png","[1,2,0]","0","2","2","images/furniture_choice3.png","-1","furniture","","table","1","0"
"html-keyboard-response","178","689120","0.0-9.0-2.0-0.46","1529","1","2","""event"",""trial"",""time""
""fullscreenenter"",""1"",""4359""
","
","
","""event"",""trial"",""time""
""fullscreenenter"",""1"",""4359""
","
","","","","","","null","<div style=""font-size:60px;"">+</div>","null","","fixation","","","","","","","","","","","","","",""
"learning-trial","179","693124","0.0-9.0-2.0-1.46","1529","1","2","""event"",""trial"",""time""
""fullscreenenter"",""1"",""4359""
","
","
","""event"",""trial"",""time""
""fullscreenenter"",""1"",""4359""
","
","","","","","","2737","images/sofa3.png","","","learning","images/furniture_choice3.png","images/furniture_choice1.png","images/furniture_choice2.png","[2,0,1]","2","0","1","images/furniture_choice3.png","1","furniture","","sofa","1","0"
"html-keyboard-response","180","693627","0.0-9.0-2.0-0.47","1529","1","2","""event"",""trial"",""time""
""fullscreenenter"",""1"",""4359""
","
","
","""event"",""trial"",""time""
""fullscreenenter"",""1"",""4359""
","
","","","","","","null","<div style=""font-size:60px;"">+</div>","null","","fixation","","","","","","","","","","","","","",""
"learning-trial","181","697631","0.0-9.0-2.0-1.47","1529","1","2","""event"",""trial"",""time""
""fullscreenenter"",""1"",""4359""
","
","
","""event"",""trial"",""time""
""fullscreenenter"",""1"",""4359""
","
","","","","","","1339.1000000238419","images/table3.png","","","learning","images/furniture_choice2.png","images/furniture_choice3.png","images/furniture_choice1.png","[1,2,0]","0","2","3","images/furniture_choice1.png","1","furniture","","table","1","0"
"html-keyboard-response","182","698133","0.0-9.0-2.0-0.48","1529","1","2","""event"",""trial"",""time""
""fullscreenenter"",""1"",""4359""
","
","
","""event"",""trial"",""time""
""fullscreenenter"",""1"",""4359""
","
","","","","","","null","<div style=""font-size:60px;"">+</div>","null","","fixation","","","","","","","","","","","","","",""
"learning-trial","183","702138","0.0-9.0-2.0-1.48","1529","1","2","""event"",""trial"",""time""
""fullscreenenter"",""1"",""4359""
","
","
","""event"",""trial"",""time""
""fullscreenenter"",""1"",""4359""
","
","","","","","","2009.800000011921","images/bed2.png","","","learning","images/furniture_choice2.png","images/furniture_choice1.png","images/furniture_choice3.png","[1,0,2]","1","0","2","images/furniture_choice1.png","-1","furniture","","bed","1","0"
"html-keyboard-response","184","702639","0.0-9.0-2.0-0.49","1529","1","2","""event"",""trial"",""time""
""fullscreenenter"",""1"",""4359""
","
","
","""event"",""trial"",""time""
""fullscreenenter"",""1"",""4359""
","
","","","","","","null","<div style=""font-size:60px;"">+</div>","null","","fixation","","","","","","","","","","","","","",""
"learning-trial","185","706644","0.0-9.0-2.0-1.49","1529","1","2","""event"",""trial"",""time""
""fullscreenenter"",""1"",""4359""
","
","
","""event"",""trial"",""time""
""fullscreenenter"",""1"",""4359""
","
","","","","","","1057.8999999761581","images/bed4.png","","","learning","images/furniture_choice3.png","images/furniture_choice2.png","images/furniture_choice1.png","[2,1,0]","1","1","2","images/furniture_choice2.png","1","furniture","","bed","1","0"
"html-keyboard-response","186","707146","0.0-9.0-2.0-0.50","1529","1","2","""event"",""trial"",""time""
""fullscreenenter"",""1"",""4359""
","
","
","""event"",""trial"",""time""
""fullscreenenter"",""1"",""4359""
","
","","","","","","null","<div style=""font-size:60px;"">+</div>","null","","fixation","","","","","","","","","","","","","",""
"learning-trial","187","711151","0.0-9.0-2.0-1.50","1529","1","2","""event"",""trial"",""time""
""fullscreenenter"",""1"",""4359""
","
","
","""event"",""trial"",""time""
""fullscreenenter"",""1"",""4359""
","
","","","","","","1292.800000011921","images/bed2.png","","","learning","images/furniture_choice1.png","images/furniture_choice3.png","images/furniture_choice2.png","[0,2,1]","1","2","1","images/furniture_choice1.png","-1","furniture","","bed","1","0"
"html-keyboard-response","188","711654","0.0-9.0-2.0-0.51","1529","1","2","""event"",""trial"",""time""
""fullscreenenter"",""1"",""4359""
","
","
","""event"",""trial"",""time""
""fullscreenenter"",""1"",""4359""
","
","","","","","","null","<div style=""font-size:60px;"">+</div>","null","","fixation","","","","","","","","","","","","","",""
"learning-trial","189","715659","0.0-9.0-2.0-1.51","1529","1","2","""event"",""trial"",""time""
""fullscreenenter"",""1"",""4359""
","
","
","""event"",""trial"",""time""
""fullscreenenter"",""1"",""4359""
","
","","","","","","1829.800000011921","images/bed2.png","","","learning","images/furniture_choice2.png","images/furniture_choice1.png","images/furniture_choice3.png","[1,0,2]","1","0","1","images/furniture_choice2.png","1","furniture","","bed","1","0"
"html-keyboard-response","190","716161","0.0-9.0-2.0-0.52","1529","1","2","""event"",""trial"",""time""
""fullscreenenter"",""1"",""4359""
","
","
","""event"",""trial"",""time""
""fullscreenenter"",""1"",""4359""
","
","","","","","","null","<div style=""font-size:60px;"">+</div>","null","","fixation","","","","","","","","","","","","","",""
"learning-trial","191","720166","0.0-9.0-2.0-1.52","1529","1","2","""event"",""trial"",""time""
""fullscreenenter"",""1"",""4359""
","
","
","""event"",""trial"",""time""
""fullscreenenter"",""1"",""4359""
","
","","","","","","1307.800000011921","images/bed5.png","","","learning","images/furniture_choice3.png","images/furniture_choice1.png","images/furniture_choice2.png","[2,0,1]","1","2","3","images/furniture_choice2.png","-1","furniture","","bed","1","0"
"html-keyboard-response","192","720669","0.0-9.0-2.0-0.53","1529","1","2","""event"",""trial"",""time""
""fullscreenenter"",""1"",""4359""
","
","
","""event"",""trial"",""time""
""fullscreenenter"",""1"",""4359""
","
","","","","","","null","<div style=""font-size:60px;"">+</div>","null","","fixation","","","","","","","","","","","","","",""
"learning-trial","193","724674","0.0-9.0-2.0-1.53","1529","1","2","""event"",""trial"",""time""
""fullscreenenter"",""1"",""4359""
","
","
","""event"",""trial"",""time""
""fullscreenenter"",""1"",""4359""
","
","","","","","","1536.800000011921","images/bed5.png","","","learning","images/furniture_choice3.png","images/furniture_choice1.png","images/furniture_choice2.png","[2,0,1]","1","2","1","images/furniture_choice3.png","-1","furniture","","bed","1","0"
"html-keyboard-response","194","725175","0.0-9.0-2.0-0.54","1529","1","2","""event"",""trial"",""time""
""fullscreenenter"",""1"",""4359""
","
","
","""event"",""trial"",""time""
""fullscreenenter"",""1"",""4359""
","
","","","","","","null","<div style=""font-size:60px;"">+</div>","null","","fixation","","","","","","","","","","","","","",""
"learning-trial","195","729181","0.0-9.0-2.0-1.54","1529","1","2","""event"",""trial"",""time""
""fullscreenenter"",""1"",""4359""
","
","
","""event"",""trial"",""time""
""fullscreenenter"",""1"",""4359""
","
","","","","","","2187.899999976158","images/sofa2.png","","","learning","images/furniture_choice1.png","images/furniture_choice3.png","images/furniture_choice2.png","[0,2,1]","2","1","3","images/furniture_choice2.png","-1","furniture","","sofa","1","0"
"html-keyboard-response","196","729684","0.0-9.0-2.0-0.55","1529","1","2","""event"",""trial"",""time""
""fullscreenenter"",""1"",""4359""
","
","
","""event"",""trial"",""time""
""fullscreenenter"",""1"",""4359""
","
","","","","","","null","<div style=""font-size:60px;"">+</div>","null","","fixation","","","","","","","","","","","","","",""
"learning-trial","197","733689","0.0-9.0-2.0-1.55","1529","1","2","""event"",""trial"",""time""
""fullscreenenter"",""1"",""4359""
","
","
","""event"",""trial"",""time""
""fullscreenenter"",""1"",""4359""
","
","","","","","","1695.5","images/bed2.png","","","learning","images/furniture_choice2.png","images/furniture_choice3.png","images/furniture_choice1.png","[1,2,0]","1","0","2","images/furniture_choice3.png","-1","furniture","","bed","1","0"
"html-keyboard-response","198","734191","0.0-9.0-2.0-0.56","1529","1","2","""event"",""trial"",""time""
""fullscreenenter"",""1"",""4359""
","
","
","""event"",""trial"",""time""
""fullscreenenter"",""1"",""4359""
","
","","","","","","null","<div style=""font-size:60px;"">+</div>","null","","fixation","","","","","","","","","","","","","",""
"learning-trial","199","738196","0.0-9.0-2.0-1.56","1529","1","2","""event"",""trial"",""time""
""fullscreenenter"",""1"",""4359""
","
","
","""event"",""trial"",""time""
""fullscreenenter"",""1"",""4359""
","
","","","","","","1139.2999999523163","images/bed2.png","","","learning","images/furniture_choice3.png","images/furniture_choice2.png","images/furniture_choice1.png","[2,1,0]","1","1","2","images/furniture_choice2.png","-1","furniture","","bed","1","0"
"html-keyboard-response","200","738699","0.0-9.0-2.0-0.57","1529","1","2","""event"",""trial"",""time""
""fullscreenenter"",""1"",""4359""
","
","
","""event"",""trial"",""time""
""fullscreenenter"",""1"",""4359""
","
","","","","","","null","<div style=""font-size:60px;"">+</div>","null","","fixation","","","","","","","","","","","","","",""
"learning-trial","201","742704","0.0-9.0-2.0-1.57","1529","1","2","""event"",""trial"",""time""
""fullscreenenter"",""1"",""4359""
","
","
","""event"",""trial"",""time""
""fullscreenenter"",""1"",""4359""
","
","","","","","","1554.300000011921","images/table2.png","","","learning","images/furniture_choice2.png","images/furniture_choice1.png","images/furniture_choice3.png","[1,0,2]","0","1","3","images/furniture_choice3.png","-1","furniture","","table","1","0"
"html-keyboard-response","202","743206","0.0-9.0-2.0-0.58","1529","1","2","""event"",""trial"",""time""
""fullscreenenter"",""1"",""4359""
","
","
","""event"",""trial"",""time""
""fullscreenenter"",""1"",""4359""
","
","","","","","","null","<div style=""font-size:60px;"">+</div>","null","","fixation","","","","","","","","","","","","","",""
"learning-trial","203","747210","0.0-9.0-2.0-1.58","1529","1","2","""event"",""trial"",""time""
""fullscreenenter"",""1"",""4359""
","
","
","""event"",""trial"",""time""
""fullscreenenter"",""1"",""4359""
","
","","","","","","1231.5","images/table2.png","","","learning","images/furniture_choice1.png","images/furniture_choice3.png","images/furniture_choice2.png","[0,2,1]","0","0","3","images/furniture_choice2.png","-1","furniture","","table","1","0"
"html-keyboard-response","204","747712","0.0-9.0-2.0-0.59","1529","1","2","""event"",""trial"",""time""
""fullscreenenter"",""1"",""4359""
","
","
","""event"",""trial"",""time""
""fullscreenenter"",""1"",""4359""
","
","","","","","","null","<div style=""font-size:60px;"">+</div>","null","","fixation","","","","","","","","","","","","","",""
"learning-trial","205","751717","0.0-9.0-2.0-1.59","1529","1","2","""event"",""trial"",""time""
""fullscreenenter"",""1"",""4359""
","
","
","""event"",""trial"",""time""
""fullscreenenter"",""1"",""4359""
","
","","","","","","528.0999999642372","images/table2.png","","","learning","images/furniture_choice2.png","images/furniture_choice3.png","images/furniture_choice1.png","[1,2,0]","0","2","3","images/furniture_choice1.png","1","furniture","","table","1","0"
"html-keyboard-response","206","752220","0.0-9.0-2.0-0.60","1529","1","2","""event"",""trial"",""time""
""fullscreenenter"",""1"",""4359""
","
","
","""event"",""trial"",""time""
""fullscreenenter"",""1"",""4359""
","
","","","","","","null","<div style=""font-size:60px;"">+</div>","null","","fixation","","","","","","","","","","","","","",""
"learning-trial","207","756224","0.0-9.0-2.0-1.60","1529","1","2","""event"",""trial"",""time""
""fullscreenenter"",""1"",""4359""
","
","
","""event"",""trial"",""time""
""fullscreenenter"",""1"",""4359""
","
","","","","","","2508.5","images/bed5.png","","","learning","images/furniture_choice1.png","images/furniture_choice2.png","images/furniture_choice3.png","[0,1,2]","1","1","3","images/furniture_choice3.png","-1","furniture","","bed","1","0"
"html-keyboard-response","208","756726","0.0-9.0-2.0-0.61","1529","1","2","""event"",""trial"",""time""
""fullscreenenter"",""1"",""4359""
","
","
","""event"",""trial"",""time""
""fullscreenenter"",""1"",""4359""
","
","","","","","","null","<div style=""font-size:60px;"">+</div>","null","","fixation","","","","","","","","","","","","","",""
"learning-trial","209","760731","0.0-9.0-2.0-1.61","1529","1","2","""event"",""trial"",""time""
""fullscreenenter"",""1"",""4359""
","
","
","""event"",""trial"",""time""
""fullscreenenter"",""1"",""4359""
","
","","","","","","1343.300000011921","images/bed2.png","","","learning","images/furniture_choice1.png","images/furniture_choice2.png","images/furniture_choice3.png","[0,1,2]","1","1","1","images/furniture_choice1.png","-1","furniture","","bed","1","0"
"html-keyboard-response","210","761234","0.0-9.0-2.0-0.62","1529","1","2","""event"",""trial"",""time""
""fullscreenenter"",""1"",""4359""
","
","
","""event"",""trial"",""time""
""fullscreenenter"",""1"",""4359""
","
","","","","","","null","<div style=""font-size:60px;"">+</div>","null","","fixation","","","","","","","","","","","","","",""
"learning-trial","211","765239","0.0-9.0-2.0-1.62","1529","1","2","""event"",""trial"",""time""
""fullscreenenter"",""1"",""4359""
","
","
","""event"",""trial"",""time""
""fullscreenenter"",""1"",""4359""
","
","","","","","","1628.2000000476837","images/table3.png","","","learning","images/furniture_choice1.png","images/furniture_choice2.png","images/furniture_choice3.png","[0,1,2]","0","0","1","images/furniture_choice1.png","1","furniture","","table","1","0"
"html-keyboard-response","212","765741","0.0-9.0-2.0-0.63","1529","1","2","""event"",""trial"",""time""
""fullscreenenter"",""1"",""4359""
","
","
","""event"",""trial"",""time""
""fullscreenenter"",""1"",""4359""
","
","","","","","","null","<div style=""font-size:60px;"">+</div>","null","","fixation","","","","","","","","","","","","","",""
"learning-trial","213","769744","0.0-9.0-2.0-1.63","1529","1","2","""event"",""trial"",""time""
""fullscreenenter"",""1"",""4359""
","
","
","""event"",""trial"",""time""
""fullscreenenter"",""1"",""4359""
","
","","","","","","1285.5","images/sofa3.png","","","learning","images/furniture_choice2.png","images/furniture_choice3.png","images/furniture_choice1.png","[1,2,0]","2","1","2","images/furniture_choice3.png","1","furniture","","sofa","1","0"
"html-keyboard-response","214","770247","0.0-9.0-2.0-0.64","1529","1","2","""event"",""trial"",""time""
""fullscreenenter"",""1"",""4359""
","
","
","""event"",""trial"",""time""
""fullscreenenter"",""1"",""4359""
","
","","","","","","null","<div style=""font-size:60px;"">+</div>","null","","fixation","","","","","","","","","","","","","",""
"learning-trial","215","774253","0.0-9.0-2.0-1.64","1529","1","2","""event"",""trial"",""time""
""fullscreenenter"",""1"",""4359""
","
","
","""event"",""trial"",""time""
""fullscreenenter"",""1"",""4359""
","
","","","","","","1456.4000000357628","images/bed4.png","","","learning","images/furniture_choice3.png","images/furniture_choice2.png","images/furniture_choice1.png","[2,1,0]","1","1","3","images/furniture_choice1.png","1","furniture","","bed","1","0"
"html-keyboard-response","216","774755","0.0-9.0-2.0-0.65","1529","1","2","""event"",""trial"",""time""
""fullscreenenter"",""1"",""4359""
","
","
","""event"",""trial"",""time""
""fullscreenenter"",""1"",""4359""
","
","","","","","","null","<div style=""font-size:60px;"">+</div>","null","","fixation","","","","","","","","","","","","","",""
"learning-trial","217","778761","0.0-9.0-2.0-1.65","1529","1","2","""event"",""trial"",""time""
""fullscreenenter"",""1"",""4359""
","
","
","""event"",""trial"",""time""
""fullscreenenter"",""1"",""4359""
","
","","","","","","1358.300000011921","images/sofa2.png","","","learning","images/furniture_choice1.png","images/furniture_choice3.png","images/furniture_choice2.png","[0,2,1]","2","1","1","images/furniture_choice1.png","1","furniture","","sofa","1","0"
"html-keyboard-response","218","779262","0.0-9.0-2.0-0.66","1529","1","2","""event"",""trial"",""time""
""fullscreenenter"",""1"",""4359""
","
","
","""event"",""trial"",""time""
""fullscreenenter"",""1"",""4359""
","
","","","","","","null","<div style=""font-size:60px;"">+</div>","null","","fixation","","","","","","","","","","","","","",""
"learning-trial","219","783267","0.0-9.0-2.0-1.66","1529","1","2","""event"",""trial"",""time""
""fullscreenenter"",""1"",""4359""
","
","
","""event"",""trial"",""time""
""fullscreenenter"",""1"",""4359""
","
","","","","","","1383.9000000357628","images/table1.png","","","learning","images/furniture_choice3.png","images/furniture_choice2.png","images/furniture_choice1.png","[2,1,0]","0","2","2","images/furniture_choice2.png","1","furniture","","table","1","0"
"html-keyboard-response","220","783769","0.0-9.0-2.0-0.67","1529","1","2","""event"",""trial"",""time""
""fullscreenenter"",""1"",""4359""
","
","
","""event"",""trial"",""time""
""fullscreenenter"",""1"",""4359""
","
","","","","","","null","<div style=""font-size:60px;"">+</div>","null","","fixation","","","","","","","","","","","","","",""
"learning-trial","221","787775","0.0-9.0-2.0-1.67","1529","1","2","""event"",""trial"",""time""
""fullscreenenter"",""1"",""4359""
","
","
","""event"",""trial"",""time""
""fullscreenenter"",""1"",""4359""
","
","","","","","","1951.699999988079","images/sofa4.png","","","learning","images/furniture_choice1.png","images/furniture_choice3.png","images/furniture_choice2.png","[0,2,1]","2","1","3","images/furniture_choice2.png","-1","furniture","","sofa","1","0"
"html-keyboard-response","222","788277","0.0-9.0-2.0-0.68","1529","1","2","""event"",""trial"",""time""
""fullscreenenter"",""1"",""4359""
","
","
","""event"",""trial"",""time""
""fullscreenenter"",""1"",""4359""
","
","","","","","","null","<div style=""font-size:60px;"">+</div>","null","","fixation","","","","","","","","","","","","","",""
"learning-trial","223","792291","0.0-9.0-2.0-1.68","1529","1","2","""event"",""trial"",""time""
""fullscreenenter"",""1"",""4359""
","
","
","""event"",""trial"",""time""
""fullscreenenter"",""1"",""4359""
","
","","","","","","1285.199999988079","images/sofa2.png","","","learning","images/furniture_choice2.png","images/furniture_choice3.png","images/furniture_choice1.png","[1,2,0]","2","1","3","images/furniture_choice1.png","-1","furniture","","sofa","1","0"
"html-keyboard-response","224","792793","0.0-9.0-2.0-0.69","1529","1","2","""event"",""trial"",""time""
""fullscreenenter"",""1"",""4359""
","
","
","""event"",""trial"",""time""
""fullscreenenter"",""1"",""4359""
","
","","","","","","null","<div style=""font-size:60px;"">+</div>","null","","fixation","","","","","","","","","","","","","",""
"learning-trial","225","796799","0.0-9.0-2.0-1.69","1529","1","2","""event"",""trial"",""time""
""fullscreenenter"",""1"",""4359""
","
","
","""event"",""trial"",""time""
""fullscreenenter"",""1"",""4359""
","
","","","","","","1299.8999999761581","images/table1.png","","","learning","images/furniture_choice1.png","images/furniture_choice2.png","images/furniture_choice3.png","[0,1,2]","0","0","2","images/furniture_choice2.png","1","furniture","","table","1","0"
"html-keyboard-response","226","797301","0.0-9.0-2.0-0.70","1529","1","2","""event"",""trial"",""time""
""fullscreenenter"",""1"",""4359""
","
","
","""event"",""trial"",""time""
""fullscreenenter"",""1"",""4359""
","
","","","","","","null","<div style=""font-size:60px;"">+</div>","null","","fixation","","","","","","","","","","","","","",""
"learning-trial","227","801307","0.0-9.0-2.0-1.70","1529","1","2","""event"",""trial"",""time""
""fullscreenenter"",""1"",""4359""
","
","
","""event"",""trial"",""time""
""fullscreenenter"",""1"",""4359""
","
","","","","","","1038.3999999761581","images/table1.png","","","learning","images/furniture_choice3.png","images/furniture_choice2.png","images/furniture_choice1.png","[2,1,0]","0","2","2","images/furniture_choice2.png","-1","furniture","","table","1","0"
"html-keyboard-response","228","801809","0.0-9.0-2.0-0.71","1529","1","2","""event"",""trial"",""time""
""fullscreenenter"",""1"",""4359""
","
","
","""event"",""trial"",""time""
""fullscreenenter"",""1"",""4359""
","
","","","","","","null","<div style=""font-size:60px;"">+</div>","null","","fixation","","","","","","","","","","","","","",""
"learning-trial","229","805814","0.0-9.0-2.0-1.71","1529","1","2","""event"",""trial"",""time""
""fullscreenenter"",""1"",""4359""
","
","
","""event"",""trial"",""time""
""fullscreenenter"",""1"",""4359""
","
","","","","","","1682.0999999642372","images/sofa4.png","","","learning","images/furniture_choice1.png","images/furniture_choice2.png","images/furniture_choice3.png","[0,1,2]","2","2","1","images/furniture_choice1.png","-1","furniture","","sofa","1","0"
"html-button-response","230","840880","0.0-9.0-3.0","1529","1","2","""event"",""trial"",""time""
""fullscreenenter"",""1"",""4359""
","
","
","""event"",""trial"",""time""
""fullscreenenter"",""1"",""4359""
","
","","","","","","35062.89999997616","<p> You have completed the round! <p> In this round, you earned -14 points! </p>","0","","break","","","","","","","","","","","","","",""
"html-button-response","231","842645","0.0-10.0","1529","1","2","""event"",""trial"",""time""
""fullscreenenter"",""1"",""4359""
","
","
","""event"",""trial"",""time""
""fullscreenenter"",""1"",""4359""
","
","","","","","","1762.699999988079","<p> Now it's time to play another round. </p>","0","","transition_screen","","","","","","","","","","","","","",""
"preload","232","847003","0.0-11.0-0.0","1529","1","2","""event"",""trial"",""time""
""fullscreenenter"",""1"",""4359""
","
","
","""event"",""trial"",""time""
""fullscreenenter"",""1"",""4359""
","
","true","false","[]","[]","[]","","","","","","","","","","","","","","","","","","",""
"learning-instructions","233","857773","0.0-11.0-1.0-0.0","1529","1","2","""event"",""trial"",""time""
""fullscreenenter"",""1"",""4359""
","
","
","""event"",""trial"",""time""
""fullscreenenter"",""1"",""4359""
","
","","","","","","2337.5","<p> Your goal in this round is to travel the world by putting fuel into different vehicles. </p><p> To travel, you will need to put fuel into many different vehicles. </p></div>","","0","instructions","","","","","","","","","","","","","",""
"learning-instructions","234","867098","0.0-11.0-1.0-0.1","1529","1","2","""event"",""trial"",""time""
""fullscreenenter"",""1"",""4359""
","
","
","""event"",""trial"",""time""
""fullscreenenter"",""1"",""4359""
","
","","","","","","533","<p> On each turn, you will see a picture of one of your vehicles and three different types of fuel.  </p><p> You need to select which kind of fuel to use.  </p>","","0","instructions","","","","","","","","","","","","","",""
"learning-instructions","235","874474","0.0-11.0-1.0-0.2","1529","1","2","""event"",""trial"",""time""
""fullscreenenter"",""1"",""4359""
