"trial_type","trial_index","time_elapsed","internal_node_id","subject_id","condition","task_version","interactions","blur_events","focus_events","fullscreenenter_events","fullscreenexit_events","success","timeout","failed_images","failed_audio","failed_video","rt","stimulus","response","button_pressed","task_part","left_choice","middle_choice","right_choice","choice_positions","correct_response","correct_position","key_press","option_selected","points","task_block","correct","stim_cat","block_condition","block_number"
"pavlovia","0","2","0.0-0.0","1840","1","2","""event"",""trial"",""time""
""fullscreenenter"",""1"",""3212""
","
","
","""event"",""trial"",""time""
""fullscreenenter"",""1"",""3212""
","
","","","","","","","","","","","","","","","","","","","","","","","",""
"fullscreen","1","4173","0.0-1.0","1840","1","2","""event"",""trial"",""time""
""fullscreenenter"",""1"",""3212""
","
","
","""event"",""trial"",""time""
""fullscreenenter"",""1"",""3212""
","
","true","","","","","","","","","","","","","","","","","","","","","","",""
"preload","2","6267","0.0-2.0","1840","1","2","""event"",""trial"",""time""
""fullscreenenter"",""1"",""3212""
","
","
","""event"",""trial"",""time""
""fullscreenenter"",""1"",""3212""
","
","true","false","[]","[]","[]","","","","","","","","","","","","","","","","","","",""
"audio-keyboard-response","3","7972","0.0-3.0","1840","1","2","""event"",""trial"",""time""
""fullscreenenter"",""1"",""3212""
","
","
","""event"",""trial"",""time""
""fullscreenenter"",""1"",""3212""
","
","","","","","","1706.6666666666665","audio/beep_loop.wav"," ","","","","","","","","","","","","","","","",""
"audio-button-response","4","9756","0.0-4.0","1840","1","2","""event"",""trial"",""time""
""fullscreenenter"",""1"",""3212""
","
","
","""event"",""trial"",""time""
""fullscreenenter"",""1"",""3212""
","
","","","","","","1781","audio/shark.wav","4","","","","","","","","","","","","","","","",""
"audio-button-response","5","12045","0.0-5.0","1840","1","2","""event"",""trial"",""time""
""fullscreenenter"",""1"",""3212""
","
","
","""event"",""trial"",""time""
""fullscreenenter"",""1"",""3212""
","
","","","","","","1280","audio/turtle.wav","1","","","","","","","","","","","","","","","",""
"preload","6","14956","0.0-6.0","1840","1","2","""event"",""trial"",""time""
""fullscreenenter"",""1"",""3212""
","
","
","""event"",""trial"",""time""
""fullscreenenter"",""1"",""3212""
","
","true","false","[]","[]","[]","","","","","","","","","","","","","","","","","","",""
"html-keyboard-response","7","16885","0.0-7.0","1840","1","2","""event"",""trial"",""time""
""fullscreenenter"",""1"",""3212""
","
","
","""event"",""trial"",""time""
""fullscreenenter"",""1"",""3212""
","
","","","","","","1927.0999999996275","Welcome to the experiment. Press any key to begin and to advance the instructions."," ","","","","","","","","","","","","","","","",""
"learning-instructions","8","25942","0.0-8.0-0.0-0.0","1840","1","2","""event"",""trial"",""time""
""fullscreenenter"",""1"",""3212""
","
","
","""event"",""trial"",""time""
""fullscreenenter"",""1"",""3212""
","
","","","","","","1309","<p> Welcome! Today you are going to play 6 different rounds of a decision-making game. </p><p> Use the mouse to click next to continue. </p>","","0","instructions","","","","","","","","","","","","","",""
"learning-instructions","9","30334","0.0-8.0-0.0-0.1","1840","1","2","""event"",""trial"",""time""
""fullscreenenter"",""1"",""3212""
","
","
","""event"",""trial"",""time""
""fullscreenenter"",""1"",""3212""
","
","","","","","","1386.5","<p> You will start with a practice round to learn the rules. </p>","","0","instructions","","","","","","","","","","","","","",""
"learning-instructions","10","39272","0.0-8.0-0.0-0.2","1840","1","2","""event"",""trial"",""time""
""fullscreenenter"",""1"",""3212""
","
","
","""event"",""trial"",""time""
""fullscreenenter"",""1"",""3212""
","
","","","","","","1199.699999999255","<p> Your goal in this round is to deliver sports equipment to three different parks. </p><p> You will need to deliver many types of equipment. </p></div>","","0","instructions","","","","","","","","","","","","","",""
"learning-instructions","11","48827","0.0-8.0-0.0-0.3","1840","1","2","""event"",""trial"",""time""
""fullscreenenter"",""1"",""3212""
","
","
","""event"",""trial"",""time""
""fullscreenenter"",""1"",""3212""
","
","","","","","","1074.5","<p> On each turn, you will see one piece of sports equipment and three different parks.  </p><p> You need to select which park to deliver the equipment to.  </p>","","0","instructions","","","","","","","","","","","","","",""
"learning-instructions","12","63150","0.0-8.0-0.0-0.4","1840","1","2","""event"",""trial"",""time""
""fullscreenenter"",""1"",""3212""
","
","
","""event"",""trial"",""time""
""fullscreenenter"",""1"",""3212""
","
","","","","","","1045.6000000014901","<p> You can select the park on the left by pressing the '1' key on your keyboard. <br>You can select the park in the middle by pressing the '2' key on your keyboard. <br>You can select the park on the right by pressing the '3' key on your keyboard.  </p><br><div class=""choice-instructions-grid""> <div class=""choice-option""><img src=""images/park1.png"" class=""choice-option-img"" stage=""instructions"" position=""0"" ><div class=""choice-option-text""> Press ""1."" </div></div><div class=""choice-option""><img src=""images/park2.png"" class=""choice-option-img"" stage=""instructions"" position=""1"" ><div class=""choice-option-text""> Press ""2."" </div></div><div class=""choice-option""><img src=""images/park3.png"" class=""choice-option-img"" stage=""instructions"" position=""2"" ><div class=""choice-option-text""> Press ""3."" </div></div></div>","","0","instructions","","","","","","","","","","","","","",""
"learning-instructions","13","69480","0.0-8.0-0.0-0.5","1840","1","2","""event"",""trial"",""time""
""fullscreenenter"",""1"",""3212""
","
","
","""event"",""trial"",""time""
""fullscreenenter"",""1"",""3212""
","
","","","","","","947.5","<p> If the kids in the park you chose like the equipment, they will be very happy! </p><div style='float: center;'><img src='images/check.png' width = '200' height = '200'></img>","","0","instructions","","","","","","","","","","","","","",""
"learning-instructions","14","75671","0.0-8.0-0.0-0.6","1840","1","2","""event"",""trial"",""time""
""fullscreenenter"",""1"",""3212""
","
","
","""event"",""trial"",""time""
""fullscreenenter"",""1"",""3212""
","
","","","","","","606.8000000007451","<p> But, if the kids in the park you chose do not like the equipment, they will be sad. </p><div style='float: center;'><img src='images/x.png' width = '200' height = '200'></img>","","0","instructions","","","","","","","","","","","","","",""
"learning-instructions","15","83070","0.0-8.0-0.0-0.7","1840","1","2","""event"",""trial"",""time""
""fullscreenenter"",""1"",""3212""
","
","
","""event"",""trial"",""time""
""fullscreenenter"",""1"",""3212""
","
","","","","","","971.5","<p> Importantly, the kids in each park like some pieces of sports equipment more than others. </p>","","0","instructions","","","","","","","","","","","","","",""
"learning-instructions","16","89591","0.0-8.0-0.0-0.8","1840","1","2","""event"",""trial"",""time""
""fullscreenenter"",""1"",""3212""
","
","
","""event"",""trial"",""time""
""fullscreenenter"",""1"",""3212""
","
","","","","","","468.59999999962747","<p> If you choose the best park for each piece of equipment, the kids there will usually be happy. </p>","","0","instructions","","","","","","","","","","","","","",""
"learning-instructions","17","96813","0.0-8.0-0.0-0.9","1840","1","2","""event"",""trial"",""time""
""fullscreenenter"",""1"",""3212""
","
","
","""event"",""trial"",""time""
""fullscreenenter"",""1"",""3212""
","
","","","","","","576.0999999996275","<p> However, even if you choose the best park for the equipment, the kids may sometimes be sad. </p>","","0","instructions","","","","","","","","","","","","","",""
"learning-instructions","18","104569","0.0-8.0-0.0-0.10","1840","1","2","""event"",""trial"",""time""
""fullscreenenter"",""1"",""3212""
","
","
","""event"",""trial"",""time""
""fullscreenenter"",""1"",""3212""
","
","","","","","","529.3000000007451","<p> Similarly, even if you choose the <i>wrong</i> park for the equipment, the kids may still be happy sometimes.","","0","instructions","","","","","","","","","","","","","",""
"learning-instructions","19","110215","0.0-8.0-0.0-0.11","1840","1","2","""event"",""trial"",""time""
""fullscreenenter"",""1"",""3212""
","
","
","""event"",""trial"",""time""
""fullscreenenter"",""1"",""3212""
","
","","","","","","591.5","<p> For example, the best park for this soccer ball is this one.<div style='float: center;'><img src='images/i1.png' width = '500' height = '268'></img>","","0","instructions","","","","","","","","","","","","","",""
"learning-instructions","20","116530","0.0-8.0-0.0-0.12","1840","1","2","""event"",""trial"",""time""
""fullscreenenter"",""1"",""3212""
","
","
","""event"",""trial"",""time""
""fullscreenenter"",""1"",""3212""
","
","","","","","","1029","<p> Let's see what happens if you choose this park for the soccer ball five times.","","0","instructions","","","","","","","","","","","","","",""
"learning-instructions","21","119290","0.0-8.0-0.0-0.13","1840","1","2","""event"",""trial"",""time""
""fullscreenenter"",""1"",""3212""
","
","
","""event"",""trial"",""time""
""fullscreenenter"",""1"",""3212""
","
","","","","","","594.1999999992549","<p> The kids are happy.<div style='float: left;'><img src='images/i2.png' width = '640' height = '360'></img>","","0","instructions","","","","","","","","","","","","","",""
"learning-instructions","22","121925","0.0-8.0-0.0-0.14","1840","1","2","""event"",""trial"",""time""
""fullscreenenter"",""1"",""3212""
","
","
","""event"",""trial"",""time""
""fullscreenenter"",""1"",""3212""
","
","","","","","","467.2999999988824","<p> The kids are happy.<div style='float: left;'><img src='images/i3.png' width = '640' height = '360'></img>","","0","instructions","","","","","","","","","","","","","",""
"learning-instructions","23","124450","0.0-8.0-0.0-0.15","1840","1","2","""event"",""trial"",""time""
""fullscreenenter"",""1"",""3212""
","
","
","""event"",""trial"",""time""
""fullscreenenter"",""1"",""3212""
","
","","","","","","357.8999999985099","<p> The kids are happy.<div style='float: left;'><img src='images/i4.png' width = '640' height = '360'></img>","","0","instructions","","","","","","","","","","","","","",""
"learning-instructions","24","127036","0.0-8.0-0.0-0.16","1840","1","2","""event"",""trial"",""time""
""fullscreenenter"",""1"",""3212""
","
","
","""event"",""trial"",""time""
""fullscreenenter"",""1"",""3212""
","
","","","","","","383.80000000074506","<p> The kids are sad.<div style='float: left;'><img src='images/i5.png' width = '640' height = '360'></img>","","0","instructions","","","","","","","","","","","","","",""
"learning-instructions","25","129979","0.0-8.0-0.0-0.17","1840","1","2","""event"",""trial"",""time""
""fullscreenenter"",""1"",""3212""
","
","
","""event"",""trial"",""time""
""fullscreenenter"",""1"",""3212""
","
","","","","","","772.0999999996275","<p> The kids are happy.<div style='float: left;'><img src='images/i6.png' width = '640' height = '360'></img>","","0","instructions","","","","","","","","","","","","","",""
"learning-instructions","26","137940","0.0-8.0-0.0-0.18","1840","1","2","""event"",""trial"",""time""
""fullscreenenter"",""1"",""3212""
","
","
","""event"",""trial"",""time""
""fullscreenenter"",""1"",""3212""
","
","","","","","","691.1999999992549","<p> As you can see, selecting that park for the soccer ball made the kids happy most of the time, but not all the time.","","0","instructions","","","","","","","","","","","","","",""
"learning-instructions","27","144402","0.0-8.0-0.0-0.19","1840","1","2","""event"",""trial"",""time""
""fullscreenenter"",""1"",""3212""
","
","
","""event"",""trial"",""time""
""fullscreenenter"",""1"",""3212""
","
","","","","","","460.09999999962747","<p> Now let's see what happens if you choose a DIFFERENT park for the soccer ball 5 times.","","0","instructions","","","","","","","","","","","","","",""
"learning-instructions","28","147018","0.0-8.0-0.0-0.20","1840","1","2","""event"",""trial"",""time""
""fullscreenenter"",""1"",""3212""
","
","
","""event"",""trial"",""time""
""fullscreenenter"",""1"",""3212""
","
","","","","","","413.80000000074506","<p> The kids are sad.<div style='float: left;'><img src='images/i7.png' width = '640' height = '360'></img>","","0","instructions","","","","","","","","","","","","","",""
"learning-instructions","29","149631","0.0-8.0-0.0-0.21","1840","1","2","""event"",""trial"",""time""
""fullscreenenter"",""1"",""3212""
","
","
","""event"",""trial"",""time""
""fullscreenenter"",""1"",""3212""
","
","","","","","","408.59999999962747","<p> The kids are sad.<div style='float: left;'><img src='images/i8.png' width = '640' height = '360'></img>","","0","instructions","","","","","","","","","","","","","",""
"learning-instructions","30","152194","0.0-8.0-0.0-0.22","1840","1","2","""event"",""trial"",""time""
""fullscreenenter"",""1"",""3212""
","
","
","""event"",""trial"",""time""
""fullscreenenter"",""1"",""3212""
","
","","","","","","395.09999999962747","<p> The kids are happy.<div style='float: left;'><img src='images/i9.png' width = '640' height = '360'></img>","","0","instructions","","","","","","","","","","","","","",""
"learning-instructions","31","154952","0.0-8.0-0.0-0.23","1840","1","2","""event"",""trial"",""time""
""fullscreenenter"",""1"",""3212""
","
","
","""event"",""trial"",""time""
""fullscreenenter"",""1"",""3212""
","
","","","","","","550.9000000003725","<p> The kids are sad.<div style='float: left;'><img src='images/i10.png' width = '640' height = '360'></img>","","0","instructions","","","","","","","","","","","","","",""
"learning-instructions","32","157617","0.0-8.0-0.0-0.24","1840","1","2","""event"",""trial"",""time""
""fullscreenenter"",""1"",""3212""
","
","
","""event"",""trial"",""time""
""fullscreenenter"",""1"",""3212""
","
","","","","","","458.30000000074506","<p> The kids are sad.<div style='float: left;'><img src='images/i11.png' width = '640' height = '360'></img>","","0","instructions","","","","","","","","","","","","","",""
"learning-instructions","33","166229","0.0-8.0-0.0-0.25","1840","1","2","""event"",""trial"",""time""
""fullscreenenter"",""1"",""3212""
","
","
","""event"",""trial"",""time""
""fullscreenenter"",""1"",""3212""
","
","","","","","","494.59999999962747","<p> As you can see, selecting the wrong park for the soccer ball made the kids sad most of the time, but not all the time.","","0","instructions","","","","","","","","","","","","","",""
"learning-instructions","34","175829","0.0-8.0-0.0-0.26","1840","1","2","""event"",""trial"",""time""
""fullscreenenter"",""1"",""3212""
","
","
","""event"",""trial"",""time""
""fullscreenenter"",""1"",""3212""
","
","","","","","","489.90000000037253","<p> The different pieces of equipment belong in different parks. You need to try to learn which is the best park for each piece of equipment.","","0","instructions","","","","","","","","","","","","","",""
"learning-instructions","35","192666","0.0-8.0-0.0-0.27","1840","1","2","""event"",""trial"",""time""
""fullscreenenter"",""1"",""3212""
","
","
","""event"",""trial"",""time""
""fullscreenenter"",""1"",""3212""
","
","","","","","","452.5","<p> Try to choose the best park for each piece of equipment, because you will <b> WIN </b> 1 point for each time you make the kids happy and <b>LOSE</b> 1 point for each time you make them sad. </p><p> Remember, if you make the best choice, you will win 1 point most of the time, but not all the time. </p>","","0","instructions","","","","","","","","","","","","","",""
"learning-instructions","36","198878","0.0-8.0-0.0-0.28","1840","1","2","""event"",""trial"",""time""
""fullscreenenter"",""1"",""3212""
","
","
","""event"",""trial"",""time""
""fullscreenenter"",""1"",""3212""
","
","","","","","","733.9000000003725","<p> This is just a practice round, but in the real game, your bonus payment will depend on your total number of points.","","0","instructions","","","","","","","","","","","","","",""
"learning-instructions","37","209738","0.0-8.0-0.0-0.29","1840","1","2","""event"",""trial"",""time""
""fullscreenenter"",""1"",""3212""
","
","
","""event"",""trial"",""time""
""fullscreenenter"",""1"",""3212""
","
","","","","","","538","<p> The position where each park appears will change throughout the game. </p><p> The position where the park appears <i> does not </i> influence how likely the kids are to be happy or sad. </p>","","0","instructions","","","","","","","","","","","","","",""
"learning-instructions","38","220672","0.0-8.0-0.0-0.30","1840","1","2","""event"",""trial"",""time""
""fullscreenenter"",""1"",""3212""
","
","
","""event"",""trial"",""time""
""fullscreenenter"",""1"",""3212""
","
","","","","","","560.1999999992549","<p> You will have 4 seconds to make each choice. Try to respond before time runs out! </p><p> You will lose 1 point each time you do not make a response. </p>","","0","instructions","","","","","","","","","","","","","",""
"learning-instructions","39","228160","0.0-8.0-0.0-0.31","1840","1","2","""event"",""trial"",""time""
""fullscreenenter"",""1"",""3212""
","
","
","""event"",""trial"",""time""
""fullscreenenter"",""1"",""3212""
","
","","","","","","698.7000000011176","<p> Remember, you should use the 1, 2, and 3 keys to select the park for each piece of equipment. </p><br><div class=""choice-instructions-grid""> <div class=""choice-option""><img src=""images/park1.png"" class=""choice-option-img"" stage=""instructions"" position=""0"" ><div class=""choice-option-text""> Press ""1."" </div></div><div class=""choice-option""><img src=""images/park2.png"" class=""choice-option-img"" stage=""instructions"" position=""1"" ><div class=""choice-option-text""> Press ""2."" </div></div><div class=""choice-option""><img src=""images/park3.png"" class=""choice-option-img"" stage=""instructions"" position=""2"" ><div class=""choice-option-text""> Press ""3."" </div></div></div>","","0","instructions","","","","","","","","","","","","","",""
"html-button-response","40","229616","0.0-8.0-1.0","1840","1","2","""event"",""trial"",""time""
""fullscreenenter"",""1"",""3212""
","
","
","""event"",""trial"",""time""
""fullscreenenter"",""1"",""3212""
","
","","","","","","1351.2000000011176","<p> Ready to practice? </p>","0","","","","","","","","","","","","","","","",""
"html-keyboard-response","41","230223","0.0-8.0-2.0-0.0","1840","1","2","""event"",""trial"",""time""
""fullscreenenter"",""1"",""3212""
","
","
","""event"",""trial"",""time""
""fullscreenenter"",""1"",""3212""
","
","","","","","","null","<div style=""font-size:60px;"">+</div>","null","","fixation","","","","","","","","","","","","","",""
"learning-trial","42","234233","0.0-8.0-2.0-1.0","1840","1","2","""event"",""trial"",""time""
""fullscreenenter"",""1"",""3212""
","
","
","""event"",""trial"",""time""
""fullscreenenter"",""1"",""3212""
","
","","","","","","766.7999999988824","images/racket2.png","","","practice","images/park3.png","images/park2.png","images/park1.png","[2,1,0]","0","2","1","images/park3.png","-1","practice","","","",""
"html-keyboard-response","43","234739","0.0-8.0-2.0-0.1","1840","1","2","""event"",""trial"",""time""
""fullscreenenter"",""1"",""3212""
","
","
","""event"",""trial"",""time""
""fullscreenenter"",""1"",""3212""
","
","","","","","","null","<div style=""font-size:60px;"">+</div>","null","","fixation","","","","","","","","","","","","","",""
"learning-trial","44","238747","0.0-8.0-2.0-1.1","1840","1","2","""event"",""trial"",""time""
""fullscreenenter"",""1"",""3212""
","
","
","""event"",""trial"",""time""
""fullscreenenter"",""1"",""3212""
","
","","","","","","1371","images/ball3.png","","","practice","images/park3.png","images/park2.png","images/park1.png","[2,1,0]","1","1","1","images/park3.png","-1","practice","","","",""
"html-keyboard-response","45","239254","0.0-8.0-2.0-0.2","1840","1","2","""event"",""trial"",""time""
""fullscreenenter"",""1"",""3212""
","
","
","""event"",""trial"",""time""
""fullscreenenter"",""1"",""3212""
","
","","","","","","null","<div style=""font-size:60px;"">+</div>","null","","fixation","","","","","","","","","","","","","",""
"learning-trial","46","243262","0.0-8.0-2.0-1.2","1840","1","2","""event"",""trial"",""time""
""fullscreenenter"",""1"",""3212""
","
","
","""event"",""trial"",""time""
""fullscreenenter"",""1"",""3212""
","
","","","","","","940.1000000014901","images/ball1.png","","","practice","images/park3.png","images/park1.png","images/park2.png","[2,0,1]","1","2","1","images/park3.png","-1","practice","","","",""
"html-keyboard-response","47","243764","0.0-8.0-2.0-0.3","1840","1","2","""event"",""trial"",""time""
""fullscreenenter"",""1"",""3212""
","
","
","""event"",""trial"",""time""
""fullscreenenter"",""1"",""3212""
","
","","","","","","null","<div style=""font-size:60px;"">+</div>","null","","fixation","","","","","","","","","","","","","",""
"learning-trial","48","247773","0.0-8.0-2.0-1.3","1840","1","2","""event"",""trial"",""time""
""fullscreenenter"",""1"",""3212""
","
","
","""event"",""trial"",""time""
""fullscreenenter"",""1"",""3212""
","
","","","","","","2117.10000000149","images/racket1.png","","","practice","images/park2.png","images/park3.png","images/park1.png","[1,2,0]","2","1","1","images/park2.png","-1","practice","","","",""
"html-keyboard-response","49","248275","0.0-8.0-2.0-0.4","1840","1","2","""event"",""trial"",""time""
""fullscreenenter"",""1"",""3212""
","
","
","""event"",""trial"",""time""
""fullscreenenter"",""1"",""3212""
","
","","","","","","null","<div style=""font-size:60px;"">+</div>","null","","fixation","","","","","","","","","","","","","",""
"learning-trial","50","252282","0.0-8.0-2.0-1.4","1840","1","2","""event"",""trial"",""time""
""fullscreenenter"",""1"",""3212""
","
","
","""event"",""trial"",""time""
""fullscreenenter"",""1"",""3212""
","
","","","","","","1551.5999999996275","images/ball1.png","","","practice","images/park2.png","images/park3.png","images/park1.png","[1,2,0]","1","0","1","images/park2.png","1","practice","","","",""
"html-keyboard-response","51","252785","0.0-8.0-2.0-0.5","1840","1","2","""event"",""trial"",""time""
""fullscreenenter"",""1"",""3212""
","
","
","""event"",""trial"",""time""
""fullscreenenter"",""1"",""3212""
","
","","","","","","null","<div style=""font-size:60px;"">+</div>","null","","fixation","","","","","","","","","","","","","",""
"learning-trial","52","256794","0.0-8.0-2.0-1.5","1840","1","2","""event"",""trial"",""time""
""fullscreenenter"",""1"",""3212""
","
","
","""event"",""trial"",""time""
""fullscreenenter"",""1"",""3212""
","
","","","","","","1424.5","images/racket1.png","","","practice","images/park2.png","images/park1.png","images/park3.png","[1,0,2]","2","2","2","images/park1.png","-1","practice","","","",""
"html-keyboard-response","53","257300","0.0-8.0-2.0-0.6","1840","1","2","""event"",""trial"",""time""
""fullscreenenter"",""1"",""3212""
","
","
","""event"",""trial"",""time""
""fullscreenenter"",""1"",""3212""
","
","","","","","","null","<div style=""font-size:60px;"">+</div>","null","","fixation","","","","","","","","","","","","","",""
"learning-trial","54","261306","0.0-8.0-2.0-1.6","1840","1","2","""event"",""trial"",""time""
""fullscreenenter"",""1"",""3212""
","
","
","""event"",""trial"",""time""
""fullscreenenter"",""1"",""3212""
","
","","","","","","3203.4000000003725","images/racket2.png","","","practice","images/park3.png","images/park1.png","images/park2.png","[2,0,1]","0","1","3","images/park2.png","-1","practice","","","",""
"html-keyboard-response","55","261813","0.0-8.0-2.0-0.7","1840","1","2","""event"",""trial"",""time""
""fullscreenenter"",""1"",""3212""
","
","
","""event"",""trial"",""time""
""fullscreenenter"",""1"",""3212""
","
","","","","","","null","<div style=""font-size:60px;"">+</div>","null","","fixation","","","","","","","","","","","","","",""
"learning-trial","56","265818","0.0-8.0-2.0-1.7","1840","1","2","""event"",""trial"",""time""
""fullscreenenter"",""1"",""3212""
","
","
","""event"",""trial"",""time""
""fullscreenenter"",""1"",""3212""
","
","","","","","","1718","images/ball4.png","","","practice","images/park3.png","images/park1.png","images/park2.png","[2,0,1]","0","1","2","images/park1.png","1","practice","","","",""
"html-keyboard-response","57","266325","0.0-8.0-2.0-0.8","1840","1","2","""event"",""trial"",""time""
""fullscreenenter"",""1"",""3212""
","
","
","""event"",""trial"",""time""
""fullscreenenter"",""1"",""3212""
","
","","","","","","null","<div style=""font-size:60px;"">+</div>","null","","fixation","","","","","","","","","","","","","",""
"learning-trial","58","270330","0.0-8.0-2.0-1.8","1840","1","2","""event"",""trial"",""time""
""fullscreenenter"",""1"",""3212""
","
","
","""event"",""trial"",""time""
""fullscreenenter"",""1"",""3212""
","
","","","","","","1861.5","images/ball2.png","","","practice","images/park2.png","images/park1.png","images/park3.png","[1,0,2]","2","2","3","images/park3.png","1","practice","","","",""
"html-keyboard-response","59","270837","0.0-8.0-2.0-0.9","1840","1","2","""event"",""trial"",""time""
""fullscreenenter"",""1"",""3212""
","
","
","""event"",""trial"",""time""
""fullscreenenter"",""1"",""3212""
","
","","","","","","null","<div style=""font-size:60px;"">+</div>","null","","fixation","","","","","","","","","","","","","",""
"learning-trial","60","274842","0.0-8.0-2.0-1.9","1840","1","2","""event"",""trial"",""time""
""fullscreenenter"",""1"",""3212""
","
","
","""event"",""trial"",""time""
""fullscreenenter"",""1"",""3212""
","
","","","","","","1343.699999999255","images/ball3.png","","","practice","images/park1.png","images/park2.png","images/park3.png","[0,1,2]","1","1","2","images/park2.png","1","practice","","","",""
"html-keyboard-response","61","275343","0.0-8.0-2.0-0.10","1840","1","2","""event"",""trial"",""time""
""fullscreenenter"",""1"",""3212""
","
","
","""event"",""trial"",""time""
""fullscreenenter"",""1"",""3212""
","
","","","","","","null","<div style=""font-size:60px;"">+</div>","null","","fixation","","","","","","","","","","","","","",""
"learning-trial","62","279349","0.0-8.0-2.0-1.10","1840","1","2","""event"",""trial"",""time""
""fullscreenenter"",""1"",""3212""
","
","
","""event"",""trial"",""time""
""fullscreenenter"",""1"",""3212""
","
","","","","","","1168.0999999996275","images/ball4.png","","","practice","images/park1.png","images/park3.png","images/park2.png","[0,2,1]","0","0","2","images/park3.png","-1","practice","","","",""
"html-keyboard-response","63","279856","0.0-8.0-2.0-0.11","1840","1","2","""event"",""trial"",""time""
""fullscreenenter"",""1"",""3212""
","
","
","""event"",""trial"",""time""
""fullscreenenter"",""1"",""3212""
","
","","","","","","null","<div style=""font-size:60px;"">+</div>","null","","fixation","","","","","","","","","","","","","",""
"learning-trial","64","283861","0.0-8.0-2.0-1.11","1840","1","2","""event"",""trial"",""time""
""fullscreenenter"",""1"",""3212""
","
","
","""event"",""trial"",""time""
""fullscreenenter"",""1"",""3212""
","
","","","","","","1091.5999999996275","images/ball2.png","","","practice","images/park3.png","images/park2.png","images/park1.png","[2,1,0]","2","0","1","images/park3.png","1","practice","","","",""
"html-button-response","65","285551","0.0-8.0-3.0","1840","1","2","""event"",""trial"",""time""
""fullscreenenter"",""1"",""3212""
","
","
","""event"",""trial"",""time""
""fullscreenenter"",""1"",""3212""
","
","","","","","","1685.199999999255","<p> You earned -2 points in the practice round! </p>","0","","break","","","","","","","","","","","","","",""
"learning-instructions","66","294414","0.0-8.0-4.0-0.0","1840","1","2","""event"",""trial"",""time""
""fullscreenenter"",""1"",""3212""
","
","
","""event"",""trial"",""time""
""fullscreenenter"",""1"",""3212""
","
","","","","","","1136.5999999996275","<p> It's almost time to start the real game. </p><p> Before you start, we're going to ask you a few questions about how the game works. </p>","","0","instructions","","","","","","","","","","","","","",""
"preload","67","296433","0.0-8.0-5.0","1840","1","2","""event"",""trial"",""time""
""fullscreenenter"",""1"",""3212""
","
","
","""event"",""trial"",""time""
""fullscreenenter"",""1"",""3212""
","
","true","false","[]","[]","[]","","","","","","","","","","","","","","","","","","",""
"comp-q","68","303204","0.0-8.0-6.0-0.0","1840","1","2","""event"",""trial"",""time""
""fullscreenenter"",""1"",""3212""
","
","
","""event"",""trial"",""time""
""fullscreenenter"",""1"",""3212""
","
","","","","","","1317.9000000003725","<p> <b> True or False? </b> </p><p> If you choose the best option, you will always earn 1 point. </p>","","1","comp_question","","","","","","","","","","","true","","",""
"comp-q","69","309995","0.0-8.0-6.0-1.0","1840","1","2","""event"",""trial"",""time""
""fullscreenenter"",""1"",""3212""
","
","
","""event"",""trial"",""time""
""fullscreenenter"",""1"",""3212""
","
","","","","","","1128.9000000003725","<p><b> That's right! </b> Sometimes you will lose 1 point, even if you choose the best option. </p>","","0","comp_answer","","","","","","","","","","","","","",""
"comp-q","70","315626","0.0-8.0-6.0-0.1","1840","1","2","""event"",""trial"",""time""
""fullscreenenter"",""1"",""3212""
","
","
","""event"",""trial"",""time""
""fullscreenenter"",""1"",""3212""
","
","","","","","","999.3000000007451","<p> <b> True or False? </b> </p><p> You will have as much time as you want to make each choice. </p>","","1","comp_question","","","","","","","","","","","true","","",""
"comp-q","71","321828","0.0-8.0-6.0-1.1","1840","1","2","""event"",""trial"",""time""
""fullscreenenter"",""1"",""3212""
","
","
","""event"",""trial"",""time""
""fullscreenenter"",""1"",""3212""
","
","","","","","","1383.0999999996275","<p> <b> That's right! </b> You will only have 4 seconds to make each choice. </p>","","0","comp_answer","","","","","","","","","","","","","",""
"comp-q","72","328643","0.0-8.0-6.0-0.2","1840","1","2","""event"",""trial"",""time""
""fullscreenenter"",""1"",""3212""
","
","
","""event"",""trial"",""time""
""fullscreenenter"",""1"",""3212""
","
","","","","","","662.3000000007451","<p> <b> True or False? </b> </p><p> You should use the '1', '2', and '3' keys to make your choices. </p>","","0","comp_question","","","","","","","","","","","true","","",""
"comp-q","73","334345","0.0-8.0-6.0-1.2","1840","1","2","""event"",""trial"",""time""
""fullscreenenter"",""1"",""3212""
","
","
","""event"",""trial"",""time""
""fullscreenenter"",""1"",""3212""
","
","","","","","","860.5999999996275","<p> <b> That's right! </b> You should use the '1', '2', and '3' keys to make each choice. </p>","","0","comp_answer","","","","","","","","","","","","","",""
"learning-instructions","74","344013","0.0-8.0-7.0-0.0","1840","1","2","""event"",""trial"",""time""
""fullscreenenter"",""1"",""3212""
","
","
","""event"",""trial"",""time""
""fullscreenenter"",""1"",""3212""
","
","","","","","","1179.2999999988824","<p> It's now time to start the real game. </p>Do your best, because the points you earn in the next rounds will influence your bonus payment. </p>","","0","instructions","","","","","","","","","","","","","",""
"preload","75","345740","0.0-9.0-0.0","1840","1","2","""event"",""trial"",""time""
""fullscreenenter"",""1"",""3212""
","
","
","""event"",""trial"",""time""
""fullscreenenter"",""1"",""3212""
","
","true","false","[]","[]","[]","","","","","","","","","","","","","","","","","","",""
"learning-instructions","76","353466","0.0-9.0-1.0-0.0","1840","1","2","""event"",""trial"",""time""
""fullscreenenter"",""1"",""3212""
","
","
","""event"",""trial"",""time""
""fullscreenenter"",""1"",""3212""
","
","","","","","","894.2000000011176","<p> Your goal in this round is to grow a beautiful garden by watering plants. </p><p> You will need to water many different plants. </p></div>","","0","instructions","","","","","","","","","","","","","",""
"learning-instructions","77","380696","0.0-9.0-1.0-0.1","1840","1","2","""event"",""trial"",""time""
""fullscreenenter"",""1"",""3212""
","
","
","""event"",""trial"",""time""
""fullscreenenter"",""1"",""3212""
","
","","","","","","13953.400000000373","<p> On each turn, you will see a picture of one of your plants and three different watering cans.  </p><p> Each watering can has a different mixture of water and fertilizer.  </p><p> You need to select which watering can to use for each plant. </p>","","0","instructions","","","","","","","","","","","","","",""
"learning-instructions","78","394594","0.0-9.0-1.0-0.2","1840","1","2","""event"",""trial"",""time""
""fullscreenenter"",""1"",""3212""
","
","
","""event"",""trial"",""time""
""fullscreenenter"",""1"",""3212""
","
","","","","","","6160","<p> You can select the watering can on the left by pressing 1, the watering can in the middle by pressing 2, and the watering can on the right by pressing 3. </p><br><div class=""choice-instructions-grid""> <div class=""choice-option""><img src=""images/plants_choice1.png"" class=""choice-option-img"" stage=""instructions"" position=""0"" ><div class=""choice-option-text""> Press ""1."" </div></div><div class=""choice-option""><img src=""images/plants_choice2.png"" class=""choice-option-img"" stage=""instructions"" position=""1"" ><div class=""choice-option-text""> Press ""2."" </div></div><div class=""choice-option""><img src=""images/plants_choice3.png"" class=""choice-option-img"" stage=""instructions"" position=""2"" ><div class=""choice-option-text""> Press ""3."" </div></div></div>","","0","instructions","","","","","","","","","","","","","",""
"learning-instructions","79","400682","0.0-9.0-1.0-0.3","1840","1","2","""event"",""trial"",""time""
""fullscreenenter"",""1"",""3212""
","
","
","""event"",""trial"",""time""
""fullscreenenter"",""1"",""3212""
","
","","","","","","1923.2999999988824","<p> If the watering can you chose works for the plant, it will grow! </p><div style='float: center;'><img src='images/check.png' width = '200' height = '200'></img>","","0","instructions","","","","","","","","","","","","","",""
"learning-instructions","80","406163","0.0-9.0-1.0-0.4","1840","1","2","""event"",""trial"",""time""
""fullscreenenter"",""1"",""3212""
","
","
","""event"",""trial"",""time""
""fullscreenenter"",""1"",""3212""
","
","","","","","","679","<p> But, if the watering can you chose does not work, your plant will droop. </p><div style='float: center;'><img src='images/x.png' width = '200' height = '200'></img>","","0","instructions","","","","","","","","","","","","","",""
"learning-instructions","81","416864","0.0-9.0-1.0-0.5","1840","1","2","""event"",""trial"",""time""
""fullscreenenter"",""1"",""3212""
","
","
","""event"",""trial"",""time""
""fullscreenenter"",""1"",""3212""
","
","","","","","","622.9000000003725","<p> Importantly, each plant has one fertilizer mixture that works best for it. </p><p> If you choose the watering can with the right fertilizer, the plant will be more likely to grow. </p>","","0","instructions","","","","","","","","","","","","","",""
"learning-instructions","82","427930","0.0-9.0-1.0-0.6","1840","1","2","""event"",""trial"",""time""
""fullscreenenter"",""1"",""3212""
","
","
","""event"",""trial"",""time""
""fullscreenenter"",""1"",""3212""
","
","","","","","","735","<p> However, even if you choose the best watering can for the plant, the plant may still droop. </p><p> Similarly, even if you choose the <i>wrong</i> watering can, the plant may still grow.","","0","instructions","","","","","","","","","","","","","",""
"learning-instructions","83","440423","0.0-9.0-1.0-0.7","1840","1","2","""event"",""trial"",""time""
""fullscreenenter"",""1"",""3212""
","
","
","""event"",""trial"",""time""
""fullscreenenter"",""1"",""3212""
","
","","","","","","636.0999999996275","<p> Try to choose the best watering can for each plant, because you will <b> WIN </b> 1 point each time a plant grows and <b>LOSE</b>  1 point each time a plant droops. </p><p> Your bonus payment will depend on your total number of points.","","0","instructions","","","","","","","","","","","","","",""
"learning-instructions","84","449340","0.0-9.0-1.0-0.8","1840","1","2","""event"",""trial"",""time""
""fullscreenenter"",""1"",""3212""
","
","
","""event"",""trial"",""time""
""fullscreenenter"",""1"",""3212""
","
","","","","","","912.9000000003725","<p> The position of each watering can will change throughout the round. </p><p> The watering can's position <i> does not </i> influence how likely each plant is to droop or grow. </p>","","0","instructions","","","","","","","","","","","","","",""
"learning-instructions","85","459640","0.0-9.0-1.0-0.9","1840","1","2","""event"",""trial"",""time""
""fullscreenenter"",""1"",""3212""
","
","
","""event"",""trial"",""time""
""fullscreenenter"",""1"",""3212""
","
","","","","","","1010.9000000003725","<p> You will have 4 seconds to make each choice. Try to respond before time runs out! </p><p> You will lose 1 point each time you do not make a response. </p>","","0","instructions","","","","","","","","","","","","","",""
"html-keyboard-response","86","460244","0.0-9.0-2.0-0.0","1840","1","2","""event"",""trial"",""time""
""fullscreenenter"",""1"",""3212""
","
","
","""event"",""trial"",""time""
""fullscreenenter"",""1"",""3212""
","
","","","","","","null","<div style=""font-size:60px;"">+</div>","null","","fixation","","","","","","","","","","","","","",""
"learning-trial","87","464253","0.0-9.0-2.0-1.0","1840","1","2","""event"",""trial"",""time""
""fullscreenenter"",""1"",""3212""
","
","
","""event"",""trial"",""time""
""fullscreenenter"",""1"",""3212""
","
","","","","","","1120.2000000011176","images/flower3.png","","","learning","images/plants_choice1.png","images/plants_choice2.png","images/plants_choice3.png","[0,1,2]","1","1","1","images/plants_choice1.png","-1","plants","","flower","1","0"
"html-keyboard-response","88","464754","0.0-9.0-2.0-0.1","1840","1","2","""event"",""trial"",""time""
""fullscreenenter"",""1"",""3212""
","
","
","""event"",""trial"",""time""
""fullscreenenter"",""1"",""3212""
","
","","","","","","null","<div style=""font-size:60px;"">+</div>","null","","fixation","","","","","","","","","","","","","",""
"learning-trial","89","468762","0.0-9.0-2.0-1.1","1840","1","2","""event"",""trial"",""time""
""fullscreenenter"",""1"",""3212""
","
","
","""event"",""trial"",""time""
""fullscreenenter"",""1"",""3212""
","
","","","","","","1584.0999999996275","images/flower2.png","","","learning","images/plants_choice2.png","images/plants_choice3.png","images/plants_choice1.png","[1,2,0]","1","0","1","images/plants_choice2.png","1","plants","","flower","1","0"
"html-keyboard-response","90","469266","0.0-9.0-2.0-0.2","1840","1","2","""event"",""trial"",""time""
""fullscreenenter"",""1"",""3212""
","
","
","""event"",""trial"",""time""
""fullscreenenter"",""1"",""3212""
","
","","","","","","null","<div style=""font-size:60px;"">+</div>","null","","fixation","","","","","","","","","","","","","",""
"learning-trial","91","473274","0.0-9.0-2.0-1.2","1840","1","2","""event"",""trial"",""time""
""fullscreenenter"",""1"",""3212""
","
","
","""event"",""trial"",""time""
""fullscreenenter"",""1"",""3212""
","
","","","","","","2498.699999999255","images/flower2.png","","","learning","images/plants_choice3.png","images/plants_choice1.png","images/plants_choice2.png","[2,0,1]","1","2","3","images/plants_choice2.png","1","plants","","flower","1","0"
"html-keyboard-response","92","473776","0.0-9.0-2.0-0.3","1840","1","2","""event"",""trial"",""time""
""fullscreenenter"",""1"",""3212""
","
","
","""event"",""trial"",""time""
""fullscreenenter"",""1"",""3212""
","
","","","","","","null","<div style=""font-size:60px;"">+</div>","null","","fixation","","","","","","","","","","","","","",""
"learning-trial","93","477780","0.0-9.0-2.0-1.3","1840","1","2","""event"",""trial"",""time""
""fullscreenenter"",""1"",""3212""
","
","
","""event"",""trial"",""time""
""fullscreenenter"",""1"",""3212""
","
","","","","","","3668.300000000745","images/flower3.png","","","learning","images/plants_choice3.png","images/plants_choice1.png","images/plants_choice2.png","[2,0,1]","1","2","2","images/plants_choice1.png","-1","plants","","flower","1","0"
"html-keyboard-response","94","478283","0.0-9.0-2.0-0.4","1840","1","2","""event"",""trial"",""time""
""fullscreenenter"",""1"",""3212""
","
","
","""event"",""trial"",""time""
""fullscreenenter"",""1"",""3212""
","
","","","","","","null","<div style=""font-size:60px;"">+</div>","null","","fixation","","","","","","","","","","","","","",""
"learning-trial","95","482287","0.0-9.0-2.0-1.4","1840","1","2","""event"",""trial"",""time""
""fullscreenenter"",""1"",""3212""
","
","
","""event"",""trial"",""time""
""fullscreenenter"",""1"",""3212""
","
","","","","","","1253.2999999988824","images/cactus4.png","","","learning","images/plants_choice3.png","images/plants_choice2.png","images/plants_choice1.png","[2,1,0]","2","0","1","images/plants_choice3.png","1","plants","","cactus","1","0"
"html-keyboard-response","96","482788","0.0-9.0-2.0-0.5","1840","1","2","""event"",""trial"",""time""
""fullscreenenter"",""1"",""3212""
","
","
","""event"",""trial"",""time""
""fullscreenenter"",""1"",""3212""
","
","","","","","","null","<div style=""font-size:60px;"">+</div>","null","","fixation","","","","","","","","","","","","","",""
"learning-trial","97","486795","0.0-9.0-2.0-1.5","1840","1","2","""event"",""trial"",""time""
""fullscreenenter"",""1"",""3212""
","
","
","""event"",""trial"",""time""
""fullscreenenter"",""1"",""3212""
","
","","","","","","1040.7999999988824","images/cactus4.png","","","learning","images/plants_choice1.png","images/plants_choice3.png","images/plants_choice2.png","[0,2,1]","2","1","2","images/plants_choice3.png","1","plants","","cactus","1","0"
"html-keyboard-response","98","487301","0.0-9.0-2.0-0.6","1840","1","2","""event"",""trial"",""time""
""fullscreenenter"",""1"",""3212""
","
","
","""event"",""trial"",""time""
""fullscreenenter"",""1"",""3212""
","
","","","","","","null","<div style=""font-size:60px;"">+</div>","null","","fixation","","","","","","","","","","","","","",""
"learning-trial","99","491306","0.0-9.0-2.0-1.6","1840","1","2","""event"",""trial"",""time""
""fullscreenenter"",""1"",""3212""
","
","
","""event"",""trial"",""time""
""fullscreenenter"",""1"",""3212""
","
","","","","","","1089.5999999996275","images/tree1.png","","","learning","images/plants_choice3.png","images/plants_choice2.png","images/plants_choice1.png","[2,1,0]","0","2","1","images/plants_choice3.png","-1","plants","","tree","1","0"
"html-keyboard-response","100","491808","0.0-9.0-2.0-0.7","1840","1","2","""event"",""trial"",""time""
""fullscreenenter"",""1"",""3212""
","
","
","""event"",""trial"",""time""
""fullscreenenter"",""1"",""3212""
","
","","","","","","null","<div style=""font-size:60px;"">+</div>","null","","fixation","","","","","","","","","","","","","",""
"learning-trial","101","495813","0.0-9.0-2.0-1.7","1840","1","2","""event"",""trial"",""time""
""fullscreenenter"",""1"",""3212""
","
","
","""event"",""trial"",""time""
""fullscreenenter"",""1"",""3212""
","
","","","","","","2142.7999999988824","images/flower2.png","","","learning","images/plants_choice2.png","images/plants_choice3.png","images/plants_choice1.png","[1,2,0]","1","0","2","images/plants_choice3.png","-1","plants","","flower","1","0"
"html-keyboard-response","102","496314","0.0-9.0-2.0-0.8","1840","1","2","""event"",""trial"",""time""
""fullscreenenter"",""1"",""3212""
","
","
","""event"",""trial"",""time""
""fullscreenenter"",""1"",""3212""
","
","","","","","","null","<div style=""font-size:60px;"">+</div>","null","","fixation","","","","","","","","","","","","","",""
"learning-trial","103","500320","0.0-9.0-2.0-1.8","1840","1","2","""event"",""trial"",""time""
""fullscreenenter"",""1"",""3212""
","
","
","""event"",""trial"",""time""
""fullscreenenter"",""1"",""3212""
","
","","","","","","2265.300000000745","images/cactus3.png","","","learning","images/plants_choice2.png","images/plants_choice1.png","images/plants_choice3.png","[1,0,2]","2","2","3","images/plants_choice3.png","1","plants","","cactus","1","0"
"html-keyboard-response","104","500821","0.0-9.0-2.0-0.9","1840","1","2","""event"",""trial"",""time""
""fullscreenenter"",""1"",""3212""
","
","
","""event"",""trial"",""time""
""fullscreenenter"",""1"",""3212""
","
","","","","","","null","<div style=""font-size:60px;"">+</div>","null","","fixation","","","","","","","","","","","","","",""
"learning-trial","105","504826","0.0-9.0-2.0-1.9","1840","1","2","""event"",""trial"",""time""
""fullscreenenter"",""1"",""3212""
","
","
","""event"",""trial"",""time""
""fullscreenenter"",""1"",""3212""
","
","","","","","","1067.800000000745","images/cactus3.png","","","learning","images/plants_choice1.png","images/plants_choice3.png","images/plants_choice2.png","[0,2,1]","2","1","2","images/plants_choice3.png","1","plants","","cactus","1","0"
"html-keyboard-response","106","505328","0.0-9.0-2.0-0.10","1840","1","2","""event"",""trial"",""time""
""fullscreenenter"",""1"",""3212""
","
","
","""event"",""trial"",""time""
""fullscreenenter"",""1"",""3212""
","
","","","","","","null","<div style=""font-size:60px;"">+</div>","null","","fixation","","","","","","","","","","","","","",""
"learning-trial","107","509333","0.0-9.0-2.0-1.10","1840","1","2","""event"",""trial"",""time""
""fullscreenenter"",""1"",""3212""
","
","
","""event"",""trial"",""time""
""fullscreenenter"",""1"",""3212""
","
","","","","","","1388.5","images/flower5.png","","","learning","images/plants_choice1.png","images/plants_choice3.png","images/plants_choice2.png","[0,2,1]","1","2","1","images/plants_choice1.png","-1","plants","","flower","1","0"
"html-keyboard-response","108","509834","0.0-9.0-2.0-0.11","1840","1","2","""event"",""trial"",""time""
""fullscreenenter"",""1"",""3212""
","
","
","""event"",""trial"",""time""
""fullscreenenter"",""1"",""3212""
","
","","","","","","null","<div style=""font-size:60px;"">+</div>","null","","fixation","","","","","","","","","","","","","",""
"learning-trial","109","513840","0.0-9.0-2.0-1.11","1840","1","2","""event"",""trial"",""time""
""fullscreenenter"",""1"",""3212""
","
","
","""event"",""trial"",""time""
""fullscreenenter"",""1"",""3212""
","
","","","","","","3005.300000000745","images/tree5.png","","","learning","images/plants_choice3.png","images/plants_choice2.png","images/plants_choice1.png","[2,1,0]","0","2","1","images/plants_choice3.png","-1","plants","","tree","1","0"
"html-keyboard-response","110","514341","0.0-9.0-2.0-0.12","1840","1","2","""event"",""trial"",""time""
""fullscreenenter"",""1"",""3212""
","
","
","""event"",""trial"",""time""
""fullscreenenter"",""1"",""3212""
","
","","","","","","null","<div style=""font-size:60px;"">+</div>","null","","fixation","","","","","","","","","","","","","",""
"learning-trial","111","518346","0.0-9.0-2.0-1.12","1840","1","2","""event"",""trial"",""time""
""fullscreenenter"",""1"",""3212""
","
","
","""event"",""trial"",""time""
""fullscreenenter"",""1"",""3212""
","
","","","","","","1268.7000000011176","images/tree5.png","","","learning","images/plants_choice1.png","images/plants_choice2.png","images/plants_choice3.png","[0,1,2]","0","0","2","images/plants_choice2.png","-1","plants","","tree","1","0"
"html-keyboard-response","112","518848","0.0-9.0-2.0-0.13","1840","1","2","""event"",""trial"",""time""
""fullscreenenter"",""1"",""3212""
","
","
","""event"",""trial"",""time""
""fullscreenenter"",""1"",""3212""
","
","","","","","","null","<div style=""font-size:60px;"">+</div>","null","","fixation","","","","","","","","","","","","","",""
"learning-trial","113","522856","0.0-9.0-2.0-1.13","1840","1","2","""event"",""trial"",""time""
""fullscreenenter"",""1"",""3212""
","
","
","""event"",""trial"",""time""
""fullscreenenter"",""1"",""3212""
","
","","","","","","1423.5","images/tree5.png","","","learning","images/plants_choice3.png","images/plants_choice1.png","images/plants_choice2.png","[2,0,1]","0","1","2","images/plants_choice1.png","-1","plants","","tree","1","0"
"html-keyboard-response","114","523361","0.0-9.0-2.0-0.14","1840","1","2","""event"",""trial"",""time""
""fullscreenenter"",""1"",""3212""
","
","
","""event"",""trial"",""time""
""fullscreenenter"",""1"",""3212""
","
","","","","","","null","<div style=""font-size:60px;"">+</div>","null","","fixation","","","","","","","","","","","","","",""
"learning-trial","115","527365","0.0-9.0-2.0-1.14","1840","1","2","""event"",""trial"",""time""
""fullscreenenter"",""1"",""3212""
","
","
","""event"",""trial"",""time""
""fullscreenenter"",""1"",""3212""
","
","","","","","","3154.699999999255","images/flower3.png","","","learning","images/plants_choice3.png","images/plants_choice2.png","images/plants_choice1.png","[2,1,0]","1","1","3","images/plants_choice1.png","-1","plants","","flower","1","0"
"html-keyboard-response","116","527866","0.0-9.0-2.0-0.15","1840","1","2","""event"",""trial"",""time""
""fullscreenenter"",""1"",""3212""
","
","
","""event"",""trial"",""time""
""fullscreenenter"",""1"",""3212""
","
","","","","","","null","<div style=""font-size:60px;"">+</div>","null","","fixation","","","","","","","","","","","","","",""
"learning-trial","117","531872","0.0-9.0-2.0-1.15","1840","1","2","""event"",""trial"",""time""
""fullscreenenter"",""1"",""3212""
","
","
","""event"",""trial"",""time""
""fullscreenenter"",""1"",""3212""
","
","","","","","","1899","images/flower5.png","","","learning","images/plants_choice3.png","images/plants_choice2.png","images/plants_choice1.png","[2,1,0]","1","1","2","images/plants_choice2.png","1","plants","","flower","1","0"
"html-keyboard-response","118","532373","0.0-9.0-2.0-0.16","1840","1","2","""event"",""trial"",""time""
""fullscreenenter"",""1"",""3212""
","
","
","""event"",""trial"",""time""
""fullscreenenter"",""1"",""3212""
","
","","","","","","null","<div style=""font-size:60px;"">+</div>","null","","fixation","","","","","","","","","","","","","",""
"learning-trial","119","536380","0.0-9.0-2.0-1.16","1840","1","2","""event"",""trial"",""time""
""fullscreenenter"",""1"",""3212""
","
","
","""event"",""trial"",""time""
""fullscreenenter"",""1"",""3212""
","
","","","","","","1656.1000000014901","images/flower3.png","","","learning","images/plants_choice2.png","images/plants_choice3.png","images/plants_choice1.png","[1,2,0]","1","0","1","images/plants_choice2.png","1","plants","","flower","1","0"
"html-keyboard-response","120","536885","0.0-9.0-2.0-0.17","1840","1","2","""event"",""trial"",""time""
""fullscreenenter"",""1"",""3212""
","
","
","""event"",""trial"",""time""
""fullscreenenter"",""1"",""3212""
","
","","","","","","null","<div style=""font-size:60px;"">+</div>","null","","fixation","","","","","","","","","","","","","",""
"learning-trial","121","540891","0.0-9.0-2.0-1.17","1840","1","2","""event"",""trial"",""time""
""fullscreenenter"",""1"",""3212""
","
","
","""event"",""trial"",""time""
""fullscreenenter"",""1"",""3212""
","
","","","","","","2341.7000000011176","images/tree1.png","","","learning","images/plants_choice3.png","images/plants_choice2.png","images/plants_choice1.png","[2,1,0]","0","2","2","images/plants_choice2.png","-1","plants","","tree","1","0"
"html-keyboard-response","122","541394","0.0-9.0-2.0-0.18","1840","1","2","""event"",""trial"",""time""
""fullscreenenter"",""1"",""3212""
","
","
","""event"",""trial"",""time""
""fullscreenenter"",""1"",""3212""
","
","","","","","","null","<div style=""font-size:60px;"">+</div>","null","","fixation","","","","","","","","","","","","","",""
"learning-trial","123","545403","0.0-9.0-2.0-1.18","1840","1","2","""event"",""trial"",""time""
""fullscreenenter"",""1"",""3212""
","
","
","""event"",""trial"",""time""
""fullscreenenter"",""1"",""3212""
","
","","","","","","2241.9000000003725","images/cactus4.png","","","learning","images/plants_choice2.png","images/plants_choice1.png","images/plants_choice3.png","[1,0,2]","2","2","3","images/plants_choice3.png","1","plants","","cactus","1","0"
"html-keyboard-response","124","545904","0.0-9.0-2.0-0.19","1840","1","2","""event"",""trial"",""time""
""fullscreenenter"",""1"",""3212""
","
","
","""event"",""trial"",""time""
""fullscreenenter"",""1"",""3212""
","
","","","","","","null","<div style=""font-size:60px;"">+</div>","null","","fixation","","","","","","","","","","","","","",""
"learning-trial","125","549909","0.0-9.0-2.0-1.19","1840","1","2","""event"",""trial"",""time""
""fullscreenenter"",""1"",""3212""
","
","
","""event"",""trial"",""time""
""fullscreenenter"",""1"",""3212""
","
","","","","","","1629.4000000003725","images/tree1.png","","","learning","images/plants_choice1.png","images/plants_choice3.png","images/plants_choice2.png","[0,2,1]","0","0","1","images/plants_choice1.png","1","plants","","tree","1","0"
"html-keyboard-response","126","550410","0.0-9.0-2.0-0.20","1840","1","2","""event"",""trial"",""time""
""fullscreenenter"",""1"",""3212""
","
","
","""event"",""trial"",""time""
""fullscreenenter"",""1"",""3212""
","
","","","","","","null","<div style=""font-size:60px;"">+</div>","null","","fixation","","","","","","","","","","","","","",""
"learning-trial","127","554416","0.0-9.0-2.0-1.20","1840","1","2","""event"",""trial"",""time""
""fullscreenenter"",""1"",""3212""
","
","
","""event"",""trial"",""time""
""fullscreenenter"",""1"",""3212""
","
","","","","","","1653.6000000014901","images/cactus4.png","","","learning","images/plants_choice3.png","images/plants_choice1.png","images/plants_choice2.png","[2,0,1]","2","0","1","images/plants_choice3.png","1","plants","","cactus","1","0"
"html-keyboard-response","128","554917","0.0-9.0-2.0-0.21","1840","1","2","""event"",""trial"",""time""
""fullscreenenter"",""1"",""3212""
","
","
","""event"",""trial"",""time""
""fullscreenenter"",""1"",""3212""
","
","","","","","","null","<div style=""font-size:60px;"">+</div>","null","","fixation","","","","","","","","","","","","","",""
"learning-trial","129","558923","0.0-9.0-2.0-1.21","1840","1","2","""event"",""trial"",""time""
""fullscreenenter"",""1"",""3212""
","
","
","""event"",""trial"",""time""
""fullscreenenter"",""1"",""3212""
","
","","","","","","1155.6000000014901","images/cactus3.png","","","learning","images/plants_choice3.png","images/plants_choice1.png","images/plants_choice2.png","[2,0,1]","2","0","1","images/plants_choice3.png","1","plants","","cactus","1","0"
"html-keyboard-response","130","559424","0.0-9.0-2.0-0.22","1840","1","2","""event"",""trial"",""time""
""fullscreenenter"",""1"",""3212""
","
","
","""event"",""trial"",""time""
""fullscreenenter"",""1"",""3212""
","
","","","","","","null","<div style=""font-size:60px;"">+</div>","null","","fixation","","","","","","","","","","","","","",""
"learning-trial","131","563432","0.0-9.0-2.0-1.22","1840","1","2","""event"",""trial"",""time""
""fullscreenenter"",""1"",""3212""
","
","
","""event"",""trial"",""time""
""fullscreenenter"",""1"",""3212""
","
","","","","","","1791.300000000745","images/tree1.png","","","learning","images/plants_choice2.png","images/plants_choice1.png","images/plants_choice3.png","[1,0,2]","0","1","2","images/plants_choice1.png","1","plants","","tree","1","0"
"html-keyboard-response","132","563936","0.0-9.0-2.0-0.23","1840","1","2","""event"",""trial"",""time""
""fullscreenenter"",""1"",""3212""
","
","
","""event"",""trial"",""time""
""fullscreenenter"",""1"",""3212""
","
","","","","","","null","<div style=""font-size:60px;"">+</div>","null","","fixation","","","","","","","","","","","","","",""
"learning-trial","133","567941","0.0-9.0-2.0-1.23","1840","1","2","""event"",""trial"",""time""
""fullscreenenter"",""1"",""3212""
","
","
","""event"",""trial"",""time""
""fullscreenenter"",""1"",""3212""
","
","","","","","","1017.5999999996275","images/cactus3.png","","","learning","images/plants_choice3.png","images/plants_choice1.png","images/plants_choice2.png","[2,0,1]","2","0","1","images/plants_choice3.png","1","plants","","cactus","1","0"
"html-keyboard-response","134","568443","0.0-9.0-2.0-0.24","1840","1","2","""event"",""trial"",""time""
""fullscreenenter"",""1"",""3212""
","
","
","""event"",""trial"",""time""
""fullscreenenter"",""1"",""3212""
","
","","","","","","null","<div style=""font-size:60px;"">+</div>","null","","fixation","","","","","","","","","","","","","",""
"learning-trial","135","572448","0.0-9.0-2.0-1.24","1840","1","2","""event"",""trial"",""time""
""fullscreenenter"",""1"",""3212""
","
","
","""event"",""trial"",""time""
""fullscreenenter"",""1"",""3212""
","
","","","","","","1212.5999999996275","images/cactus2.png","","","learning","images/plants_choice3.png","images/plants_choice1.png","images/plants_choice2.png","[2,0,1]","2","0","1","images/plants_choice3.png","1","plants","","cactus","1","0"
"html-keyboard-response","136","572949","0.0-9.0-2.0-0.25","1840","1","2","""event"",""trial"",""time""
""fullscreenenter"",""1"",""3212""
","
","
","""event"",""trial"",""time""
""fullscreenenter"",""1"",""3212""
","
","","","","","","null","<div style=""font-size:60px;"">+</div>","null","","fixation","","","","","","","","","","","","","",""
"learning-trial","137","576955","0.0-9.0-2.0-1.25","1840","1","2","""event"",""trial"",""time""
""fullscreenenter"",""1"",""3212""
","
","
","""event"",""trial"",""time""
""fullscreenenter"",""1"",""3212""
","
","","","","","","1894.1000000014901","images/flower5.png","","","learning","images/plants_choice1.png","images/plants_choice3.png","images/plants_choice2.png","[0,2,1]","1","2","3","images/plants_choice2.png","1","plants","","flower","1","0"
"html-keyboard-response","138","577456","0.0-9.0-2.0-0.26","1840","1","2","""event"",""trial"",""time""
""fullscreenenter"",""1"",""3212""
","
","
","""event"",""trial"",""time""
""fullscreenenter"",""1"",""3212""
","
","","","","","","null","<div style=""font-size:60px;"">+</div>","null","","fixation","","","","","","","","","","","","","",""
"learning-trial","139","581461","0.0-9.0-2.0-1.26","1840","1","2","""event"",""trial"",""time""
""fullscreenenter"",""1"",""3212""
","
","
","""event"",""trial"",""time""
""fullscreenenter"",""1"",""3212""
","
","","","","","","1054.5","images/flower5.png","","","learning","images/plants_choice1.png","images/plants_choice2.png","images/plants_choice3.png","[0,1,2]","1","1","2","images/plants_choice2.png","1","plants","","flower","1","0"
"html-keyboard-response","140","581963","0.0-9.0-2.0-0.27","1840","1","2","""event"",""trial"",""time""
""fullscreenenter"",""1"",""3212""
","
","
","""event"",""trial"",""time""
""fullscreenenter"",""1"",""3212""
","
","","","","","","null","<div style=""font-size:60px;"">+</div>","null","","fixation","","","","","","","","","","","","","",""
"learning-trial","141","585968","0.0-9.0-2.0-1.27","1840","1","2","""event"",""trial"",""time""
""fullscreenenter"",""1"",""3212""
","
","
","""event"",""trial"",""time""
""fullscreenenter"",""1"",""3212""
","
","","","","","","1052.4000000003725","images/flower5.png","","","learning","images/plants_choice1.png","images/plants_choice3.png","images/plants_choice2.png","[0,2,1]","1","2","3","images/plants_choice2.png","1","plants","","flower","1","0"
"html-keyboard-response","142","586469","0.0-9.0-2.0-0.28","1840","1","2","""event"",""trial"",""time""
""fullscreenenter"",""1"",""3212""
","
","
","""event"",""trial"",""time""
""fullscreenenter"",""1"",""3212""
","
","","","","","","null","<div style=""font-size:60px;"">+</div>","null","","fixation","","","","","","","","","","","","","",""
"learning-trial","143","590477","0.0-9.0-2.0-1.28","1840","1","2","""event"",""trial"",""time""
""fullscreenenter"",""1"",""3212""
","
","
","""event"",""trial"",""time""
""fullscreenenter"",""1"",""3212""
","
","","","","","","1460.7999999988824","images/tree1.png","","","learning","images/plants_choice1.png","images/plants_choice3.png","images/plants_choice2.png","[0,2,1]","0","0","1","images/plants_choice1.png","-1","plants","","tree","1","0"
"html-keyboard-response","144","590981","0.0-9.0-2.0-0.29","1840","1","2","""event"",""trial"",""time""
""fullscreenenter"",""1"",""3212""
","
","
","""event"",""trial"",""time""
""fullscreenenter"",""1"",""3212""
","
","","","","","","null","<div style=""font-size:60px;"">+</div>","null","","fixation","","","","","","","","","","","","","",""
"learning-trial","145","594987","0.0-9.0-2.0-1.29","1840","1","2","""event"",""trial"",""time""
""fullscreenenter"",""1"",""3212""
","
","
","""event"",""trial"",""time""
""fullscreenenter"",""1"",""3212""
","
","","","","","","1528.199999999255","images/cactus3.png","","","learning","images/plants_choice2.png","images/plants_choice1.png","images/plants_choice3.png","[1,0,2]","2","2","3","images/plants_choice3.png","-1","plants","","cactus","1","0"
"html-keyboard-response","146","595488","0.0-9.0-2.0-0.30","1840","1","2","""event"",""trial"",""time""
""fullscreenenter"",""1"",""3212""
","
","
","""event"",""trial"",""time""
""fullscreenenter"",""1"",""3212""
","
","","","","","","null","<div style=""font-size:60px;"">+</div>","null","","fixation","","","","","","","","","","","","","",""
"learning-trial","147","599494","0.0-9.0-2.0-1.30","1840","1","2","""event"",""trial"",""time""
""fullscreenenter"",""1"",""3212""
","
","
","""event"",""trial"",""time""
""fullscreenenter"",""1"",""3212""
","
","","","","","","939.3000000007451","images/cactus2.png","","","learning","images/plants_choice1.png","images/plants_choice2.png","images/plants_choice3.png","[0,1,2]","2","2","3","images/plants_choice3.png","1","plants","","cactus","1","0"
"html-keyboard-response","148","599995","0.0-9.0-2.0-0.31","1840","1","2","""event"",""trial"",""time""
""fullscreenenter"",""1"",""3212""
","
","
","""event"",""trial"",""time""
""fullscreenenter"",""1"",""3212""
","
","","","","","","null","<div style=""font-size:60px;"">+</div>","null","","fixation","","","","","","","","","","","","","",""
"learning-trial","149","604000","0.0-9.0-2.0-1.31","1840","1","2","""event"",""trial"",""time""
""fullscreenenter"",""1"",""3212""
","
","
","""event"",""trial"",""time""
""fullscreenenter"",""1"",""3212""
","
","","","","","","1941","images/flower2.png","","","learning","images/plants_choice3.png","images/plants_choice1.png","images/plants_choice2.png","[2,0,1]","1","2","3","images/plants_choice2.png","1","plants","","flower","1","0"
"html-keyboard-response","150","604501","0.0-9.0-2.0-0.32","1840","1","2","""event"",""trial"",""time""
""fullscreenenter"",""1"",""3212""
","
","
","""event"",""trial"",""time""
""fullscreenenter"",""1"",""3212""
","
","","","","","","null","<div style=""font-size:60px;"">+</div>","null","","fixation","","","","","","","","","","","","","",""
"learning-trial","151","608507","0.0-9.0-2.0-1.32","1840","1","2","""event"",""trial"",""time""
""fullscreenenter"",""1"",""3212""
","
","
","""event"",""trial"",""time""
""fullscreenenter"",""1"",""3212""
","
","","","","","","971.5","images/flower3.png","","","learning","images/plants_choice1.png","images/plants_choice3.png","images/plants_choice2.png","[0,2,1]","1","2","3","images/plants_choice2.png","1","plants","","flower","1","0"
"html-keyboard-response","152","609013","0.0-9.0-2.0-0.33","1840","1","2","""event"",""trial"",""time""
""fullscreenenter"",""1"",""3212""
","
","
","""event"",""trial"",""time""
""fullscreenenter"",""1"",""3212""
","
","","","","","","null","<div style=""font-size:60px;"">+</div>","null","","fixation","","","","","","","","","","","","","",""
"learning-trial","153","613019","0.0-9.0-2.0-1.33","1840","1","2","""event"",""trial"",""time""
""fullscreenenter"",""1"",""3212""
","
","
","""event"",""trial"",""time""
""fullscreenenter"",""1"",""3212""
","
","","","","","","1149.5999999996275","images/tree5.png","","","learning","images/plants_choice3.png","images/plants_choice2.png","images/plants_choice1.png","[2,1,0]","0","2","3","images/plants_choice1.png","1","plants","","tree","1","0"
"html-keyboard-response","154","613520","0.0-9.0-2.0-0.34","1840","1","2","""event"",""trial"",""time""
""fullscreenenter"",""1"",""3212""
","
","
","""event"",""trial"",""time""
""fullscreenenter"",""1"",""3212""
","
","","","","","","null","<div style=""font-size:60px;"">+</div>","null","","fixation","","","","","","","","","","","","","",""
"learning-trial","155","617526","0.0-9.0-2.0-1.34","1840","1","2","""event"",""trial"",""time""
""fullscreenenter"",""1"",""3212""
","
","
","""event"",""trial"",""time""
""fullscreenenter"",""1"",""3212""
","
","","","","","","881","images/tree5.png","","","learning","images/plants_choice2.png","images/plants_choice3.png","images/plants_choice1.png","[1,2,0]","0","2","3","images/plants_choice1.png","1","plants","","tree","1","0"
"html-keyboard-response","156","618027","0.0-9.0-2.0-0.35","1840","1","2","""event"",""trial"",""time""
""fullscreenenter"",""1"",""3212""
","
","
","""event"",""trial"",""time""
""fullscreenenter"",""1"",""3212""
","
","","","","","","null","<div style=""font-size:60px;"">+</div>","null","","fixation","","","","","","","","","","","","","",""
"learning-trial","157","622032","0.0-9.0-2.0-1.35","1840","1","2","""event"",""trial"",""time""
""fullscreenenter"",""1"",""3212""
","
","
","""event"",""trial"",""time""
""fullscreenenter"",""1"",""3212""
","
","","","","","","1062.4000000003725","images/tree1.png","","","learning","images/plants_choice3.png","images/plants_choice2.png","images/plants_choice1.png","[2,1,0]","0","2","3","images/plants_choice1.png","1","plants","","tree","1","0"
"html-keyboard-response","158","622533","0.0-9.0-2.0-0.36","1840","1","2","""event"",""trial"",""time""
""fullscreenenter"",""1"",""3212""
","
","
","""event"",""trial"",""time""
""fullscreenenter"",""1"",""3212""
","
","","","","","","null","<div style=""font-size:60px;"">+</div>","null","","fixation","","","","","","","","","","","","","",""
"learning-trial","159","626539","0.0-9.0-2.0-1.36","1840","1","2","""event"",""trial"",""time""
""fullscreenenter"",""1"",""3212""
","
","
","""event"",""trial"",""time""
""fullscreenenter"",""1"",""3212""
","
","","","","","","1070.199999999255","images/cactus2.png","","","learning","images/plants_choice1.png","images/plants_choice2.png","images/plants_choice3.png","[0,1,2]","2","2","3","images/plants_choice3.png","1","plants","","cactus","1","0"
"html-keyboard-response","160","627040","0.0-9.0-2.0-0.37","1840","1","2","""event"",""trial"",""time""
""fullscreenenter"",""1"",""3212""
","
","
","""event"",""trial"",""time""
""fullscreenenter"",""1"",""3212""
","
","","","","","","null","<div style=""font-size:60px;"">+</div>","null","","fixation","","","","","","","","","","","","","",""
"learning-trial","161","631046","0.0-9.0-2.0-1.37","1840","1","2","""event"",""trial"",""time""
""fullscreenenter"",""1"",""3212""
","
","
","""event"",""trial"",""time""
""fullscreenenter"",""1"",""3212""
","
","","","","","","958","images/tree5.png","","","learning","images/plants_choice1.png","images/plants_choice3.png","images/plants_choice2.png","[0,2,1]","0","0","1","images/plants_choice1.png","1","plants","","tree","1","0"
"html-keyboard-response","162","631547","0.0-9.0-2.0-0.38","1840","1","2","""event"",""trial"",""time""
""fullscreenenter"",""1"",""3212""
","
","
","""event"",""trial"",""time""
""fullscreenenter"",""1"",""3212""
","
","","","","","","null","<div style=""font-size:60px;"">+</div>","null","","fixation","","","","","","","","","","","","","",""
"learning-trial","163","635552","0.0-9.0-2.0-1.38","1840","1","2","""event"",""trial"",""time""
""fullscreenenter"",""1"",""3212""
","
","
","""event"",""trial"",""time""
""fullscreenenter"",""1"",""3212""
","
","","","","","","927.5","images/flower5.png","","","learning","images/plants_choice3.png","images/plants_choice2.png","images/plants_choice1.png","[2,1,0]","1","1","2","images/plants_choice2.png","1","plants","","flower","1","0"
"html-keyboard-response","164","636053","0.0-9.0-2.0-0.39","1840","1","2","""event"",""trial"",""time""
""fullscreenenter"",""1"",""3212""
","
","
","""event"",""trial"",""time""
""fullscreenenter"",""1"",""3212""
","
","","","","","","null","<div style=""font-size:60px;"">+</div>","null","","fixation","","","","","","","","","","","","","",""
"learning-trial","165","640059","0.0-9.0-2.0-1.39","1840","1","2","""event"",""trial"",""time""
""fullscreenenter"",""1"",""3212""
","
","
","""event"",""trial"",""time""
""fullscreenenter"",""1"",""3212""
","
","","","","","","1020.4000000003725","images/flower2.png","","","learning","images/plants_choice1.png","images/plants_choice3.png","images/plants_choice2.png","[0,2,1]","1","2","3","images/plants_choice2.png","1","plants","","flower","1","0"
"html-keyboard-response","166","640560","0.0-9.0-2.0-0.40","1840","1","2","""event"",""trial"",""time""
""fullscreenenter"",""1"",""3212""
","
","
","""event"",""trial"",""time""
""fullscreenenter"",""1"",""3212""
","
","","","","","","null","<div style=""font-size:60px;"">+</div>","null","","fixation","","","","","","","","","","","","","",""
"learning-trial","167","644566","0.0-9.0-2.0-1.40","1840","1","2","""event"",""trial"",""time""
""fullscreenenter"",""1"",""3212""
","
","
","""event"",""trial"",""time""
""fullscreenenter"",""1"",""3212""
","
","","","","","","773.3000000007451","images/tree1.png","","","learning","images/plants_choice2.png","images/plants_choice1.png","images/plants_choice3.png","[1,0,2]","0","1","2","images/plants_choice1.png","1","plants","","tree","1","0"
"html-keyboard-response","168","645067","0.0-9.0-2.0-0.41","1840","1","2","""event"",""trial"",""time""
""fullscreenenter"",""1"",""3212""
","
","
","""event"",""trial"",""time""
""fullscreenenter"",""1"",""3212""
","
","","","","","","null","<div style=""font-size:60px;"">+</div>","null","","fixation","","","","","","","","","","","","","",""
"learning-trial","169","649072","0.0-9.0-2.0-1.41","1840","1","2","""event"",""trial"",""time""
""fullscreenenter"",""1"",""3212""
","
","
","""event"",""trial"",""time""
""fullscreenenter"",""1"",""3212""
","
","","","","","","1025.199999999255","images/cactus2.png","","","learning","images/plants_choice1.png","images/plants_choice2.png","images/plants_choice3.png","[0,1,2]","2","2","3","images/plants_choice3.png","1","plants","","cactus","1","0"
"html-keyboard-response","170","649577","0.0-9.0-2.0-0.42","1840","1","2","""event"",""trial"",""time""
""fullscreenenter"",""1"",""3212""
","
","
","""event"",""trial"",""time""
""fullscreenenter"",""1"",""3212""
","
","","","","","","null","<div style=""font-size:60px;"">+</div>","null","","fixation","","","","","","","","","","","","","",""
"learning-trial","171","653584","0.0-9.0-2.0-1.42","1840","1","2","""event"",""trial"",""time""
""fullscreenenter"",""1"",""3212""
","
","
","""event"",""trial"",""time""
""fullscreenenter"",""1"",""3212""
","
","","","","","","1188.2000000011176","images/tree2.png","","","learning","images/plants_choice2.png","images/plants_choice1.png","images/plants_choice3.png","[1,0,2]","0","1","2","images/plants_choice1.png","1","plants","","tree","1","0"
"html-keyboard-response","172","654090","0.0-9.0-2.0-0.43","1840","1","2","""event"",""trial"",""time""
""fullscreenenter"",""1"",""3212""
","
","
","""event"",""trial"",""time""
""fullscreenenter"",""1"",""3212""
","
","","","","","","null","<div style=""font-size:60px;"">+</div>","null","","fixation","","","","","","","","","","","","","",""
"learning-trial","173","658097","0.0-9.0-2.0-1.43","1840","1","2","""event"",""trial"",""time""
""fullscreenenter"",""1"",""3212""
","
","
","""event"",""trial"",""time""
""fullscreenenter"",""1"",""3212""
","
","","","","","","961.5999999996275","images/cactus2.png","","","learning","images/plants_choice1.png","images/plants_choice3.png","images/plants_choice2.png","[0,2,1]","2","1","2","images/plants_choice3.png","1","plants","","cactus","1","0"
"html-keyboard-response","174","658598","0.0-9.0-2.0-0.44","1840","1","2","""event"",""trial"",""time""
""fullscreenenter"",""1"",""3212""
","
","
","""event"",""trial"",""time""
""fullscreenenter"",""1"",""3212""
","
","","","","","","null","<div style=""font-size:60px;"">+</div>","null","","fixation","","","","","","","","","","","","","",""
"learning-trial","175","662603","0.0-9.0-2.0-1.44","1840","1","2","""event"",""trial"",""time""
""fullscreenenter"",""1"",""3212""
","
","
","""event"",""trial"",""time""
""fullscreenenter"",""1"",""3212""
","
","","","","","","879.5999999996275","images/flower5.png","","","learning","images/plants_choice2.png","images/plants_choice3.png","images/plants_choice1.png","[1,2,0]","1","0","1","images/plants_choice2.png","1","plants","","flower","1","0"
"html-keyboard-response","176","663108","0.0-9.0-2.0-0.45","1840","1","2","""event"",""trial"",""time""
""fullscreenenter"",""1"",""3212""
","
","
","""event"",""trial"",""time""
""fullscreenenter"",""1"",""3212""
","
","","","","","","null","<div style=""font-size:60px;"">+</div>","null","","fixation","","","","","","","","","","","","","",""
"learning-trial","177","667115","0.0-9.0-2.0-1.45","1840","1","2","""event"",""trial"",""time""
""fullscreenenter"",""1"",""3212""
","
","
","""event"",""trial"",""time""
""fullscreenenter"",""1"",""3212""
","
","","","","","","921.6999999992549","images/flower3.png","","","learning","images/plants_choice2.png","images/plants_choice1.png","images/plants_choice3.png","[1,0,2]","1","0","1","images/plants_choice2.png","1","plants","","flower","1","0"
"html-keyboard-response","178","667616","0.0-9.0-2.0-0.46","1840","1","2","""event"",""trial"",""time""
""fullscreenenter"",""1"",""3212""
","
","
","""event"",""trial"",""time""
""fullscreenenter"",""1"",""3212""
","
","","","","","","null","<div style=""font-size:60px;"">+</div>","null","","fixation","","","","","","","","","","","","","",""
"learning-trial","179","671622","0.0-9.0-2.0-1.46","1840","1","2","""event"",""trial"",""time""
""fullscreenenter"",""1"",""3212""
","
","
","""event"",""trial"",""time""
""fullscreenenter"",""1"",""3212""
","
","","","","","","1055.699999999255","images/tree2.png","","","learning","images/plants_choice3.png","images/plants_choice1.png","images/plants_choice2.png","[2,0,1]","0","1","2","images/plants_choice1.png","1","plants","","tree","1","0"
"html-keyboard-response","180","672123","0.0-9.0-2.0-0.47","1840","1","2","""event"",""trial"",""time""
""fullscreenenter"",""1"",""3212""
","
","
","""event"",""trial"",""time""
""fullscreenenter"",""1"",""3212""
","
","","","","","","null","<div style=""font-size:60px;"">+</div>","null","","fixation","","","","","","","","","","","","","",""
"learning-trial","181","676128","0.0-9.0-2.0-1.47","1840","1","2","""event"",""trial"",""time""
""fullscreenenter"",""1"",""3212""
","
","
","""event"",""trial"",""time""
""fullscreenenter"",""1"",""3212""
","
","","","","","","944.5","images/tree1.png","","","learning","images/plants_choice1.png","images/plants_choice3.png","images/plants_choice2.png","[0,2,1]","0","0","1","images/plants_choice1.png","1","plants","","tree","1","0"
"html-keyboard-response","182","676630","0.0-9.0-2.0-0.48","1840","1","2","""event"",""trial"",""time""
""fullscreenenter"",""1"",""3212""
","
","
","""event"",""trial"",""time""
""fullscreenenter"",""1"",""3212""
","
","","","","","","null","<div style=""font-size:60px;"">+</div>","null","","fixation","","","","","","","","","","","","","",""
"learning-trial","183","680635","0.0-9.0-2.0-1.48","1840","1","2","""event"",""trial"",""time""
""fullscreenenter"",""1"",""3212""
","
","
","""event"",""trial"",""time""
""fullscreenenter"",""1"",""3212""
","
","","","","","","1002.2000000011176","images/tree5.png","","","learning","images/plants_choice2.png","images/plants_choice1.png","images/plants_choice3.png","[1,0,2]","0","1","2","images/plants_choice1.png","1","plants","","tree","1","0"
"html-keyboard-response","184","681136","0.0-9.0-2.0-0.49","1840","1","2","""event"",""trial"",""time""
""fullscreenenter"",""1"",""3212""
","
","
","""event"",""trial"",""time""
""fullscreenenter"",""1"",""3212""
","
","","","","","","null","<div style=""font-size:60px;"">+</div>","null","","fixation","","","","","","","","","","","","","",""
"learning-trial","185","685142","0.0-9.0-2.0-1.49","1840","1","2","""event"",""trial"",""time""
""fullscreenenter"",""1"",""3212""
","
","
","""event"",""trial"",""time""
""fullscreenenter"",""1"",""3212""
","
","","","","","","764","images/tree5.png","","","learning","images/plants_choice3.png","images/plants_choice1.png","images/plants_choice2.png","[2,0,1]","0","1","2","images/plants_choice1.png","1","plants","","tree","1","0"
"html-keyboard-response","186","685643","0.0-9.0-2.0-0.50","1840","1","2","""event"",""trial"",""time""
""fullscreenenter"",""1"",""3212""
","
","
","""event"",""trial"",""time""
""fullscreenenter"",""1"",""3212""
","
","","","","","","null","<div style=""font-size:60px;"">+</div>","null","","fixation","","","","","","","","","","","","","",""
"learning-trial","187","689648","0.0-9.0-2.0-1.50","1840","1","2","""event"",""trial"",""time""
""fullscreenenter"",""1"",""3212""
","
","
","""event"",""trial"",""time""
""fullscreenenter"",""1"",""3212""
","
","","","","","","919","images/tree2.png","","","learning","images/plants_choice3.png","images/plants_choice2.png","images/plants_choice1.png","[2,1,0]","0","2","3","images/plants_choice1.png","1","plants","","tree","1","0"
"html-keyboard-response","188","690150","0.0-9.0-2.0-0.51","1840","1","2","""event"",""trial"",""time""
""fullscreenenter"",""1"",""3212""
","
","
","""event"",""trial"",""time""
""fullscreenenter"",""1"",""3212""
","
","","","","","","null","<div style=""font-size:60px;"">+</div>","null","","fixation","","","","","","","","","","","","","",""
"learning-trial","189","694155","0.0-9.0-2.0-1.51","1840","1","2","""event"",""trial"",""time""
""fullscreenenter"",""1"",""3212""
","
","
","""event"",""trial"",""time""
""fullscreenenter"",""1"",""3212""
","
","","","","","","847.5","images/flower2.png","","","learning","images/plants_choice1.png","images/plants_choice2.png","images/plants_choice3.png","[0,1,2]","1","1","2","images/plants_choice2.png","1","plants","","flower","1","0"
"html-keyboard-response","190","694656","0.0-9.0-2.0-0.52","1840","1","2","""event"",""trial"",""time""
""fullscreenenter"",""1"",""3212""
","
","
","""event"",""trial"",""time""
""fullscreenenter"",""1"",""3212""
","
","","","","","","null","<div style=""font-size:60px;"">+</div>","null","","fixation","","","","","","","","","","","","","",""
"learning-trial","191","698662","0.0-9.0-2.0-1.52","1840","1","2","""event"",""trial"",""time""
""fullscreenenter"",""1"",""3212""
","
","
","""event"",""trial"",""time""
""fullscreenenter"",""1"",""3212""
","
","","","","","","934.3000000007451","images/cactus4.png","","","learning","images/plants_choice1.png","images/plants_choice2.png","images/plants_choice3.png","[0,1,2]","2","2","3","images/plants_choice3.png","1","plants","","cactus","1","0"
"html-keyboard-response","192","699168","0.0-9.0-2.0-0.53","1840","1","2","""event"",""trial"",""time""
""fullscreenenter"",""1"",""3212""
","
","
","""event"",""trial"",""time""
""fullscreenenter"",""1"",""3212""
","
","","","","","","null","<div style=""font-size:60px;"">+</div>","null","","fixation","","","","","","","","","","","","","",""
"learning-trial","193","703174","0.0-9.0-2.0-1.53","1840","1","2","""event"",""trial"",""time""
""fullscreenenter"",""1"",""3212""
","
","
","""event"",""trial"",""time""
""fullscreenenter"",""1"",""3212""
","
","","","","","","851.4000000003725","images/tree2.png","","","learning","images/plants_choice2.png","images/plants_choice3.png","images/plants_choice1.png","[1,2,0]","0","2","3","images/plants_choice1.png","1","plants","","tree","1","0"
"html-keyboard-response","194","703675","0.0-9.0-2.0-0.54","1840","1","2","""event"",""trial"",""time""
""fullscreenenter"",""1"",""3212""
","
","
","""event"",""trial"",""time""
""fullscreenenter"",""1"",""3212""
","
","","","","","","null","<div style=""font-size:60px;"">+</div>","null","","fixation","","","","","","","","","","","","","",""
"learning-trial","195","707681","0.0-9.0-2.0-1.54","1840","1","2","""event"",""trial"",""time""
""fullscreenenter"",""1"",""3212""
","
","
","""event"",""trial"",""time""
""fullscreenenter"",""1"",""3212""
","
","","","","","","827.3000000007451","images/flower3.png","","","learning","images/plants_choice1.png","images/plants_choice2.png","images/plants_choice3.png","[0,1,2]","1","1","2","images/plants_choice2.png","1","plants","","flower","1","0"
"html-keyboard-response","196","708182","0.0-9.0-2.0-0.55","1840","1","2","""event"",""trial"",""time""
""fullscreenenter"",""1"",""3212""
","
","
","""event"",""trial"",""time""
""fullscreenenter"",""1"",""3212""
","
","","","","","","null","<div style=""font-size:60px;"">+</div>","null","","fixation","","","","","","","","","","","","","",""
"learning-trial","197","712187","0.0-9.0-2.0-1.55","1840","1","2","""event"",""trial"",""time""
""fullscreenenter"",""1"",""3212""
","
","
","""event"",""trial"",""time""
""fullscreenenter"",""1"",""3212""
","
","","","","","","788.1999999992549","images/tree2.png","","","learning","images/plants_choice1.png","images/plants_choice3.png","images/plants_choice2.png","[0,2,1]","0","0","1","images/plants_choice1.png","1","plants","","tree","1","0"
"html-keyboard-response","198","712688","0.0-9.0-2.0-0.56","1840","1","2","""event"",""trial"",""time""
""fullscreenenter"",""1"",""3212""
","
","
","""event"",""trial"",""time""
""fullscreenenter"",""1"",""3212""
","
","","","","","","null","<div style=""font-size:60px;"">+</div>","null","","fixation","","","","","","","","","","","","","",""
"learning-trial","199","716694","0.0-9.0-2.0-1.56","1840","1","2","""event"",""trial"",""time""
""fullscreenenter"",""1"",""3212""
","
","
","""event"",""trial"",""time""
""fullscreenenter"",""1"",""3212""
","
","","","","","","790.1999999992549","images/flower2.png","","","learning","images/plants_choice1.png","images/plants_choice2.png","images/plants_choice3.png","[0,1,2]","1","1","2","images/plants_choice2.png","1","plants","","flower","1","0"
"html-keyboard-response","200","717195","0.0-9.0-2.0-0.57","1840","1","2","""event"",""trial"",""time""
""fullscreenenter"",""1"",""3212""
","
","
","""event"",""trial"",""time""
""fullscreenenter"",""1"",""3212""
","
","","","","","","null","<div style=""font-size:60px;"">+</div>","null","","fixation","","","","","","","","","","","","","",""
"learning-trial","201","721201","0.0-9.0-2.0-1.57","1840","1","2","""event"",""trial"",""time""
""fullscreenenter"",""1"",""3212""
","
","
","""event"",""trial"",""time""
""fullscreenenter"",""1"",""3212""
","
","","","","","","1125.300000000745","images/flower2.png","","","learning","images/plants_choice1.png","images/plants_choice3.png","images/plants_choice2.png","[0,2,1]","1","2","3","images/plants_choice2.png","-1","plants","","flower","1","0"
"html-keyboard-response","202","721707","0.0-9.0-2.0-0.58","1840","1","2","""event"",""trial"",""time""
""fullscreenenter"",""1"",""3212""
","
","
","""event"",""trial"",""time""
""fullscreenenter"",""1"",""3212""
","
","","","","","","null","<div style=""font-size:60px;"">+</div>","null","","fixation","","","","","","","","","","","","","",""
"learning-trial","203","725713","0.0-9.0-2.0-1.58","1840","1","2","""event"",""trial"",""time""
""fullscreenenter"",""1"",""3212""
","
","
","""event"",""trial"",""time""
""fullscreenenter"",""1"",""3212""
","
","","","","","","873.5","images/cactus4.png","","","learning","images/plants_choice3.png","images/plants_choice2.png","images/plants_choice1.png","[2,1,0]","2","0","1","images/plants_choice3.png","1","plants","","cactus","1","0"
"html-keyboard-response","204","726214","0.0-9.0-2.0-0.59","1840","1","2","""event"",""trial"",""time""
""fullscreenenter"",""1"",""3212""
","
","
","""event"",""trial"",""time""
""fullscreenenter"",""1"",""3212""
","
","","","","","","null","<div style=""font-size:60px;"">+</div>","null","","fixation","","","","","","","","","","","","","",""
"learning-trial","205","730219","0.0-9.0-2.0-1.59","1840","1","2","""event"",""trial"",""time""
""fullscreenenter"",""1"",""3212""
","
","
","""event"",""trial"",""time""
""fullscreenenter"",""1"",""3212""
","
","","","","","","754.6999999992549","images/cactus4.png","","","learning","images/plants_choice3.png","images/plants_choice2.png","images/plants_choice1.png","[2,1,0]","2","0","1","images/plants_choice3.png","1","plants","","cactus","1","0"
"html-keyboard-response","206","730720","0.0-9.0-2.0-0.60","1840","1","2","""event"",""trial"",""time""
""fullscreenenter"",""1"",""3212""
","
","
","""event"",""trial"",""time""
""fullscreenenter"",""1"",""3212""
","
","","","","","","null","<div style=""font-size:60px;"">+</div>","null","","fixation","","","","","","","","","","","","","",""
"learning-trial","207","734726","0.0-9.0-2.0-1.60","1840","1","2","""event"",""trial"",""time""
""fullscreenenter"",""1"",""3212""
","
","
","""event"",""trial"",""time""
""fullscreenenter"",""1"",""3212""
","
","","","","","","880.9000000003725","images/cactus3.png","","","learning","images/plants_choice1.png","images/plants_choice3.png","images/plants_choice2.png","[0,2,1]","2","1","2","images/plants_choice3.png","1","plants","","cactus","1","0"
"html-keyboard-response","208","735227","0.0-9.0-2.0-0.61","1840","1","2","""event"",""trial"",""time""
""fullscreenenter"",""1"",""3212""
","
","
","""event"",""trial"",""time""
""fullscreenenter"",""1"",""3212""
","
","","","","","","null","<div style=""font-size:60px;"">+</div>","null","","fixation","","","","","","","","","","","","","",""
"learning-trial","209","739234","0.0-9.0-2.0-1.61","1840","1","2","""event"",""trial"",""time""
""fullscreenenter"",""1"",""3212""
","
","
","""event"",""trial"",""time""
""fullscreenenter"",""1"",""3212""
","
","","","","","","766.7000000011176","images/cactus3.png","","","learning","images/plants_choice3.png","images/plants_choice2.png","images/plants_choice1.png","[2,1,0]","2","0","1","images/plants_choice3.png","1","plants","","cactus","1","0"
"html-keyboard-response","210","739739","0.0-9.0-2.0-0.62","1840","1","2","""event"",""trial"",""time""
""fullscreenenter"",""1"",""3212""
","
","
","""event"",""trial"",""time""
""fullscreenenter"",""1"",""3212""
","
","","","","","","null","<div style=""font-size:60px;"">+</div>","null","","fixation","","","","","","","","","","","","","",""
"learning-trial","211","743745","0.0-9.0-2.0-1.62","1840","1","2","""event"",""trial"",""time""
""fullscreenenter"",""1"",""3212""
","
","
","""event"",""trial"",""time""
""fullscreenenter"",""1"",""3212""
","
","","","","","","738","images/cactus3.png","","","learning","images/plants_choice3.png","images/plants_choice2.png","images/plants_choice1.png","[2,1,0]","2","0","1","images/plants_choice3.png","1","plants","","cactus","1","0"
"html-keyboard-response","212","744246","0.0-9.0-2.0-0.63","1840","1","2","""event"",""trial"",""time""
""fullscreenenter"",""1"",""3212""
","
","
","""event"",""trial"",""time""
""fullscreenenter"",""1"",""3212""
","
","","","","","","null","<div style=""font-size:60px;"">+</div>","null","","fixation","","","","","","","","","","","","","",""
"learning-trial","213","748251","0.0-9.0-2.0-1.63","1840","1","2","""event"",""trial"",""time""
""fullscreenenter"",""1"",""3212""
","
","
","""event"",""trial"",""time""
""fullscreenenter"",""1"",""3212""
","
","","","","","","845.8999999985099","images/tree2.png","","","learning","images/plants_choice3.png","images/plants_choice2.png","images/plants_choice1.png","[2,1,0]","0","2","3","images/plants_choice1.png","1","plants","","tree","1","0"
"html-keyboard-response","214","748753","0.0-9.0-2.0-0.64","1840","1","2","""event"",""trial"",""time""
""fullscreenenter"",""1"",""3212""
","
","
","""event"",""trial"",""time""
""fullscreenenter"",""1"",""3212""
","
","","","","","","null","<div style=""font-size:60px;"">+</div>","null","","fixation","","","","","","","","","","","","","",""
"learning-trial","215","752758","0.0-9.0-2.0-1.64","1840","1","2","""event"",""trial"",""time""
""fullscreenenter"",""1"",""3212""
","
","
","""event"",""trial"",""time""
""fullscreenenter"",""1"",""3212""
","
","","","","","","1116.9000000003725","images/cactus2.png","","","learning","images/plants_choice3.png","images/plants_choice1.png","images/plants_choice2.png","[2,0,1]","2","0","1","images/plants_choice3.png","-1","plants","","cactus","1","0"
"html-keyboard-response","216","753259","0.0-9.0-2.0-0.65","1840","1","2","""event"",""trial"",""time""
""fullscreenenter"",""1"",""3212""
","
","
","""event"",""trial"",""time""
""fullscreenenter"",""1"",""3212""
","
","","","","","","null","<div style=""font-size:60px;"">+</div>","null","","fixation","","","","","","","","","","","","","",""
"learning-trial","217","757265","0.0-9.0-2.0-1.65","1840","1","2","""event"",""trial"",""time""
""fullscreenenter"",""1"",""3212""
","
","
","""event"",""trial"",""time""
""fullscreenenter"",""1"",""3212""
","
","","","","","","1003.3000000007451","images/flower3.png","","","learning","images/plants_choice2.png","images/plants_choice1.png","images/plants_choice3.png","[1,0,2]","1","0","1","images/plants_choice2.png","1","plants","","flower","1","0"
"html-keyboard-response","218","757766","0.0-9.0-2.0-0.66","1840","1","2","""event"",""trial"",""time""
""fullscreenenter"",""1"",""3212""
","
","
","""event"",""trial"",""time""
""fullscreenenter"",""1"",""3212""
","
","","","","","","null","<div style=""font-size:60px;"">+</div>","null","","fixation","","","","","","","","","","","","","",""
"learning-trial","219","761771","0.0-9.0-2.0-1.66","1840","1","2","""event"",""trial"",""time""
""fullscreenenter"",""1"",""3212""
","
","
","""event"",""trial"",""time""
""fullscreenenter"",""1"",""3212""
","
","","","","","","1518.4000000003725","images/cactus4.png","","","learning","images/plants_choice1.png","images/plants_choice3.png","images/plants_choice2.png","[0,2,1]","2","1","2","images/plants_choice3.png","1","plants","","cactus","1","0"
"html-keyboard-response","220","762277","0.0-9.0-2.0-0.67","1840","1","2","""event"",""trial"",""time""
""fullscreenenter"",""1"",""3212""
","
","
","""event"",""trial"",""time""
""fullscreenenter"",""1"",""3212""
","
","","","","","","null","<div style=""font-size:60px;"">+</div>","null","","fixation","","","","","","","","","","","","","",""
"learning-trial","221","766284","0.0-9.0-2.0-1.67","1840","1","2","""event"",""trial"",""time""
""fullscreenenter"",""1"",""3212""
","
","
","""event"",""trial"",""time""
""fullscreenenter"",""1"",""3212""
","
","","","","","","906.4000000003725","images/flower5.png","","","learning","images/plants_choice1.png","images/plants_choice3.png","images/plants_choice2.png","[0,2,1]","1","2","3","images/plants_choice2.png","1","plants","","flower","1","0"
"html-keyboard-response","222","766785","0.0-9.0-2.0-0.68","1840","1","2","""event"",""trial"",""time""
""fullscreenenter"",""1"",""3212""
","
","
","""event"",""trial"",""time""
""fullscreenenter"",""1"",""3212""
","
","","","","","","null","<div style=""font-size:60px;"">+</div>","null","","fixation","","","","","","","","","","","","","",""
"learning-trial","223","770790","0.0-9.0-2.0-1.68","1840","1","2","""event"",""trial"",""time""
""fullscreenenter"",""1"",""3212""
","
","
","""event"",""trial"",""time""
""fullscreenenter"",""1"",""3212""
","
","","","","","","1415.5999999996275","images/tree2.png","","","learning","images/plants_choice2.png","images/plants_choice3.png","images/plants_choice1.png","[1,2,0]","0","2","3","images/plants_choice1.png","1","plants","","tree","1","0"
"html-keyboard-response","224","771291","0.0-9.0-2.0-0.69","1840","1","2","""event"",""trial"",""time""
""fullscreenenter"",""1"",""3212""
","
","
","""event"",""trial"",""time""
""fullscreenenter"",""1"",""3212""
","
","","","","","","null","<div style=""font-size:60px;"">+</div>","null","","fixation","","","","","","","","","","","","","",""
"learning-trial","225","775297","0.0-9.0-2.0-1.69","1840","1","2","""event"",""trial"",""time""
""fullscreenenter"",""1"",""3212""
","
","
","""event"",""trial"",""time""
""fullscreenenter"",""1"",""3212""
","
","","","","","","665.3000000007451","images/tree2.png","","","learning","images/plants_choice2.png","images/plants_choice1.png","images/plants_choice3.png","[1,0,2]","0","1","2","images/plants_choice1.png","1","plants","","tree","1","0"
"html-keyboard-response","226","775798","0.0-9.0-2.0-0.70","1840","1","2","""event"",""trial"",""time""
""fullscreenenter"",""1"",""3212""
","
","
","""event"",""trial"",""time""
""fullscreenenter"",""1"",""3212""
","
","","","","","","null","<div style=""font-size:60px;"">+</div>","null","","fixation","","","","","","","","","","","","","",""
"learning-trial","227","779804","0.0-9.0-2.0-1.70","1840","1","2","""event"",""trial"",""time""
""fullscreenenter"",""1"",""3212""
","
","
","""event"",""trial"",""time""
""fullscreenenter"",""1"",""3212""
","
","","","","","","1296.800000000745","images/cactus2.png","","","learning","images/plants_choice2.png","images/plants_choice3.png","images/plants_choice1.png","[1,2,0]","2","1","2","images/plants_choice3.png","1","plants","","cactus","1","0"
"html-keyboard-response","228","780307","0.0-9.0-2.0-0.71","1840","1","2","""event"",""trial"",""time""
""fullscreenenter"",""1"",""3212""
","
","
","""event"",""trial"",""time""
""fullscreenenter"",""1"",""3212""
","
","","","","","","null","<div style=""font-size:60px;"">+</div>","null","","fixation","","","","","","","","","","","","","",""
"learning-trial","229","784310","0.0-9.0-2.0-1.71","1840","1","2","""event"",""trial"",""time""
""fullscreenenter"",""1"",""3212""
","
","
","""event"",""trial"",""time""
""fullscreenenter"",""1"",""3212""
","
","","","","","","684.4000000003725","images/cactus2.png","","","learning","images/plants_choice1.png","images/plants_choice3.png","images/plants_choice2.png","[0,2,1]","2","1","2","images/plants_choice3.png","-1","plants","","cactus","1","0"
"html-button-response","230","787266","0.0-9.0-3.0","1840","1","2","""event"",""trial"",""time""
""fullscreenenter"",""1"",""3212""
","
","
","""event"",""trial"",""time""
""fullscreenenter"",""1"",""3212""
","
","","","","","","2953.7000000011176","<p> You have completed the round! <p> In this round, you earned 42 points! </p>","0","","break","","","","","","","","","","","","","",""
"html-button-response","231","788233","0.0-10.0","1840","1","2","""event"",""trial"",""time""
""fullscreenenter"",""1"",""3212""
","
","
","""event"",""trial"",""time""
""fullscreenenter"",""1"",""3212""
","
","","","","","","966.1999999992549","<p> Now it's time to play another round. </p>","0","","transition_screen","","","","","","","","","","","","","",""
"preload","232","790485","0.0-11.0-0.0","1840","1","2","""event"",""trial"",""time""
""fullscreenenter"",""1"",""3212""
","
","
","""event"",""trial"",""time""
""fullscreenenter"",""1"",""3212""
","
","true","false","[]","[]","[]","","","","","","","","","","","","","","","","","","",""
"learning-instructions","233","799349","0.0-11.0-1.0-0.0","1840","1","2","""event"",""trial"",""time""
""fullscreenenter"",""1"",""3212""
","
","
","""event"",""trial"",""time""
""fullscreenenter"",""1"",""3212""
","
","","","","","","1031.7000000011176","<p> Your goal in this round is to deliver furniture to three different buildings. </p><p> You will need to deliver many pieces of furniture. </p></div>","","0","instructions","","","","","","","","","","","","","",""
"learning-instructions","234","807381","0.0-11.0-1.0-0.1","1840","1","2","""event"",""trial"",""time""
""fullscreenenter"",""1"",""3212""
","
","
","""event"",""trial"",""time""
""fullscreenenter"",""1"",""3212""
","
","","","","","","599.8000000007451","<p> On each turn, you will see a picture of a furniture item and three different buildings.  </p><p> You need to select the building that you want to deliver the furniture to.  </p>","","0","instructions","","","","","","","","","","","","","",""
"learning-instructions","235","824044","0.0-11.0-1.0-0.2","1840","1","2","""event"",""trial"",""time""
""fullscreenenter"",""1"",""3212""
","
","
","""event"",""trial"",""time""
""fullscreenenter"",""1"",""3212""
","
","","","","","","8371.299999998882","<p> You can select the building on the left by pressing 1, the building in the middle by pressing 2, and the building on the right by pressing 3.  </p><br><div class=""choice-instructions-grid""> <div class=""choice-option""><img src=""images/furniture_choice1.png"" class=""choice-option-img"" stage=""instructions"" position=""0"" ><div class=""choice-option-text""> Press ""1."" </div></div><div class=""choice-option""><img src=""images/furniture_choice2.png"" class=""choice-option-img"" stage=""instructions"" position=""1"" ><div class=""choice-option-text""> Press ""2."" </div></div><div class=""choice-option""><img src=""images/furniture_choice3.png"" class=""choice-option-img"" stage=""instructions"" position=""2"" ><div class=""choice-option-text""> Press ""3."" </div></div></div>","","0","instructions","","","","","","","","","","","","","",""
"learning-instructions","236","830510","0.0-11.0-1.0-0.3","1840","1","2","""event"",""trial"",""time""
