"trial_type","trial_index","time_elapsed","internal_node_id","subject_id","condition","task_version","interactions","blur_events","focus_events","fullscreenenter_events","fullscreenexit_events","success","timeout","failed_images","failed_audio","failed_video","rt","stimulus","response","button_pressed","task_part","left_choice","middle_choice","right_choice","choice_positions","correct_response","correct_position","key_press","option_selected","points","task_block","correct"
"pavlovia","0","7","0.0-0.0","1587","1","2","""event"",""trial"",""time""
""fullscreenenter"",""1"",""2609""
","
","
","""event"",""trial"",""time""
""fullscreenenter"",""1"",""2609""
","
","","","","","","","","","","","","","","","","","","","","",""
"fullscreen","1","3594","0.0-1.0","1587","1","2","""event"",""trial"",""time""
""fullscreenenter"",""1"",""2609""
","
","
","""event"",""trial"",""time""
""fullscreenenter"",""1"",""2609""
","
","true","","","","","","","","","","","","","","","","","","","",""
"preload","2","4360","0.0-2.0","1587","1","2","""event"",""trial"",""time""
""fullscreenenter"",""1"",""2609""
","
","
","""event"",""trial"",""time""
""fullscreenenter"",""1"",""2609""
","
","true","false","[]","[]","[]","","","","","","","","","","","","","","","",""
"audio-keyboard-response","3","8955","0.0-3.0","1587","1","2","""event"",""trial"",""time""
""fullscreenenter"",""1"",""2609""
","
","
","""event"",""trial"",""time""
""fullscreenenter"",""1"",""2609""
","
","","","","","","4592.000000000001","audio/beep_loop.wav"," ","","","","","","","","","","","","",""
"audio-button-response","4","10593","0.0-4.0","1587","1","2","""event"",""trial"",""time""
""fullscreenenter"",""1"",""2609""
","
","
","""event"",""trial"",""time""
""fullscreenenter"",""1"",""2609""
","
","","","","","","1640","audio/shark.wav","4","","","","","","","","","","","","",""
"audio-button-response","5","12929","0.0-5.0","1587","1","2","""event"",""trial"",""time""
""fullscreenenter"",""1"",""2609""
","
","
","""event"",""trial"",""time""
""fullscreenenter"",""1"",""2609""
","
","","","","","","1339","audio/turtle.wav","1","","","","","","","","","","","","",""
"preload","6","14378","0.0-6.0","1587","1","2","""event"",""trial"",""time""
""fullscreenenter"",""1"",""2609""
""blur"",""7"",""19514""
""focus"",""7"",""19852""
","""event"",""trial"",""time""
""blur"",""7"",""19514""
","""event"",""trial"",""time""
""focus"",""7"",""19852""
","""event"",""trial"",""time""
""fullscreenenter"",""1"",""2609""
","
","true","false","[]","[]","[]","","","","","","","","","","","","","","","",""
"html-keyboard-response","7","21770","0.0-7.0","1587","1","2","""event"",""trial"",""time""
""fullscreenenter"",""1"",""2609""
""blur"",""7"",""19514""
""focus"",""7"",""19852""
","""event"",""trial"",""time""
""blur"",""7"",""19514""
","""event"",""trial"",""time""
""focus"",""7"",""19852""
","""event"",""trial"",""time""
""fullscreenenter"",""1"",""2609""
","
","","","","","","7391.600000008941","Welcome to the experiment. Press any key to begin and to advance the instructions.","audiovolumeup","","","","","","","","","","","","",""
"learning-instructions","8","31169","0.0-8.0-0.0-0.0","1587","1","2","""event"",""trial"",""time""
""fullscreenenter"",""1"",""2609""
""blur"",""7"",""19514""
""focus"",""7"",""19852""
","""event"",""trial"",""time""
""blur"",""7"",""19514""
","""event"",""trial"",""time""
""focus"",""7"",""19852""
","""event"",""trial"",""time""
""fullscreenenter"",""1"",""2609""
","
","","","","","","1650.5","<p> Welcome! Today you are going to play 6 different rounds of a decision-making game. </p><p> Use the mouse to click next to continue. </p>","","0","instructions","","","","","","","","","","",""
"learning-instructions","9","34969","0.0-8.0-0.0-0.1","1587","1","2","""event"",""trial"",""time""
""fullscreenenter"",""1"",""2609""
""blur"",""7"",""19514""
""focus"",""7"",""19852""
","""event"",""trial"",""time""
""blur"",""7"",""19514""
","""event"",""trial"",""time""
""focus"",""7"",""19852""
","""event"",""trial"",""time""
""fullscreenenter"",""1"",""2609""
","
","","","","","","790.5999999940395","<p> You will start with a practice round to learn the rules. </p>","","0","instructions","","","","","","","","","","",""
"learning-instructions","10","44609","0.0-8.0-0.0-0.2","1587","1","2","""event"",""trial"",""time""
""fullscreenenter"",""1"",""2609""
""blur"",""7"",""19514""
""focus"",""7"",""19852""
","""event"",""trial"",""time""
""blur"",""7"",""19514""
","""event"",""trial"",""time""
""focus"",""7"",""19852""
","""event"",""trial"",""time""
""fullscreenenter"",""1"",""2609""
","
","","","","","","1890.800000011921","<p> Your goal in this round is to deliver sports equipment to three different parks. </p><p> You will need to deliver many types of equipment. </p></div>","","0","instructions","","","","","","","","","","",""
"learning-instructions","11","54617","0.0-8.0-0.0-0.3","1587","1","2","""event"",""trial"",""time""
""fullscreenenter"",""1"",""2609""
""blur"",""7"",""19514""
""focus"",""7"",""19852""
","""event"",""trial"",""time""
""blur"",""7"",""19514""
","""event"",""trial"",""time""
""focus"",""7"",""19852""
","""event"",""trial"",""time""
""fullscreenenter"",""1"",""2609""
","
","","","","","","1528.7000000029802","<p> On each turn, you will see one piece of sports equipment and three different parks.  </p><p> You need to select which park to deliver the equipment to.  </p>","","0","instructions","","","","","","","","","","",""
"learning-instructions","12","71817","0.0-8.0-0.0-0.4","1587","1","2","""event"",""trial"",""time""
""fullscreenenter"",""1"",""2609""
""blur"",""7"",""19514""
""focus"",""7"",""19852""
","""event"",""trial"",""time""
""blur"",""7"",""19514""
","""event"",""trial"",""time""
""focus"",""7"",""19852""
","""event"",""trial"",""time""
""fullscreenenter"",""1"",""2609""
","
","","","","","","3918.6000000089407","<p> You can select the park on the left by pressing the '1' key on your keyboard. <br>You can select the park in the middle by pressing the '2' key on your keyboard. <br>You can select the park on the right by pressing the '3' key on your keyboard.  </p><br><div class=""choice-instructions-grid""> <div class=""choice-option""><img src=""images/park1.png"" class=""choice-option-img"" stage=""instructions"" position=""0"" ><div class=""choice-option-text""> Press ""1."" </div></div><div class=""choice-option""><img src=""images/park2.png"" class=""choice-option-img"" stage=""instructions"" position=""1"" ><div class=""choice-option-text""> Press ""2."" </div></div><div class=""choice-option""><img src=""images/park3.png"" class=""choice-option-img"" stage=""instructions"" position=""2"" ><div class=""choice-option-text""> Press ""3."" </div></div></div>","","0","instructions","","","","","","","","","","",""
"learning-instructions","13","81689","0.0-8.0-0.0-0.5","1587","1","2","""event"",""trial"",""time""
""fullscreenenter"",""1"",""2609""
""blur"",""7"",""19514""
""focus"",""7"",""19852""
","""event"",""trial"",""time""
""blur"",""7"",""19514""
","""event"",""trial"",""time""
""focus"",""7"",""19852""
","""event"",""trial"",""time""
""fullscreenenter"",""1"",""2609""
","
","","","","","","4480.9000000059605","<p> If the kids in the park you chose like the equipment, they will be very happy! </p><div style='float: center;'><img src='images/check.png' width = '200' height = '200'></img>","","0","instructions","","","","","","","","","","",""
"learning-instructions","14","89761","0.0-8.0-0.0-0.6","1587","1","2","""event"",""trial"",""time""
""fullscreenenter"",""1"",""2609""
""blur"",""7"",""19514""
""focus"",""7"",""19852""
","""event"",""trial"",""time""
""blur"",""7"",""19514""
","""event"",""trial"",""time""
""focus"",""7"",""19852""
","""event"",""trial"",""time""
""fullscreenenter"",""1"",""2609""
","
","","","","","","2472.2999999970198","<p> But, if the kids in the park you chose do not like the equipment, they will be sad. </p><div style='float: center;'><img src='images/x.png' width = '200' height = '200'></img>","","0","instructions","","","","","","","","","","",""
"learning-instructions","15","97882","0.0-8.0-0.0-0.7","1587","1","2","""event"",""trial"",""time""
""fullscreenenter"",""1"",""2609""
""blur"",""7"",""19514""
""focus"",""7"",""19852""
","""event"",""trial"",""time""
""blur"",""7"",""19514""
","""event"",""trial"",""time""
""focus"",""7"",""19852""
","""event"",""trial"",""time""
""fullscreenenter"",""1"",""2609""
","
","","","","","","1693","<p> Importantly, the kids in each park like some pieces of sports equipment more than others. </p>","","0","instructions","","","","","","","","","","",""
"learning-instructions","16","104801","0.0-8.0-0.0-0.8","1587","1","2","""event"",""trial"",""time""
""fullscreenenter"",""1"",""2609""
""blur"",""7"",""19514""
""focus"",""7"",""19852""
","""event"",""trial"",""time""
""blur"",""7"",""19514""
","""event"",""trial"",""time""
""focus"",""7"",""19852""
","""event"",""trial"",""time""
""fullscreenenter"",""1"",""2609""
","
","","","","","","872.4000000059605","<p> If you choose the best park for each piece of equipment, the kids there will usually be happy. </p>","","0","instructions","","","","","","","","","","",""
"learning-instructions","17","112193","0.0-8.0-0.0-0.9","1587","1","2","""event"",""trial"",""time""
""fullscreenenter"",""1"",""2609""
""blur"",""7"",""19514""
""focus"",""7"",""19852""
","""event"",""trial"",""time""
""blur"",""7"",""19514""
","""event"",""trial"",""time""
""focus"",""7"",""19852""
","""event"",""trial"",""time""
""fullscreenenter"",""1"",""2609""
","
","","","","","","744.7000000029802","<p> However, even if you choose the best park for the equipment, the kids may sometimes be sad. </p>","","0","instructions","","","","","","","","","","",""
"learning-instructions","18","120761","0.0-8.0-0.0-0.10","1587","1","2","""event"",""trial"",""time""
""fullscreenenter"",""1"",""2609""
""blur"",""7"",""19514""
""focus"",""7"",""19852""
","""event"",""trial"",""time""
""blur"",""7"",""19514""
","""event"",""trial"",""time""
""focus"",""7"",""19852""
","""event"",""trial"",""time""
""fullscreenenter"",""1"",""2609""
","
","","","","","","1342.7000000029802","<p> Similarly, even if you choose the <i>wrong</i> park for the equipment, the kids may still be happy sometimes.","","0","instructions","","","","","","","","","","",""
"learning-instructions","19","126945","0.0-8.0-0.0-0.11","1587","1","2","""event"",""trial"",""time""
""fullscreenenter"",""1"",""2609""
""blur"",""7"",""19514""
""focus"",""7"",""19852""
","""event"",""trial"",""time""
""blur"",""7"",""19514""
","""event"",""trial"",""time""
""focus"",""7"",""19852""
","""event"",""trial"",""time""
""fullscreenenter"",""1"",""2609""
","
","","","","","","1136.7000000029802","<p> For example, the best park for this soccer ball is this one.<div style='float: center;'><img src='images/i1.png' width = '500' height = '268'></img>","","0","instructions","","","","","","","","","","",""
"learning-instructions","20","132833","0.0-8.0-0.0-0.12","1587","1","2","""event"",""trial"",""time""
""fullscreenenter"",""1"",""2609""
""blur"",""7"",""19514""
""focus"",""7"",""19852""
","""event"",""trial"",""time""
""blur"",""7"",""19514""
","""event"",""trial"",""time""
""focus"",""7"",""19852""
","""event"",""trial"",""time""
""fullscreenenter"",""1"",""2609""
","
","","","","","","604.7999999970198","<p> Let's see what happens if you choose this park for the soccer ball five times.","","0","instructions","","","","","","","","","","",""
"learning-instructions","21","136409","0.0-8.0-0.0-0.13","1587","1","2","""event"",""trial"",""time""
""fullscreenenter"",""1"",""2609""
""blur"",""7"",""19514""
""focus"",""7"",""19852""
","""event"",""trial"",""time""
""blur"",""7"",""19514""
","""event"",""trial"",""time""
""focus"",""7"",""19852""
","""event"",""trial"",""time""
""fullscreenenter"",""1"",""2609""
","
","","","","","","1390.6000000089407","<p> The kids are happy.<div style='float: left;'><img src='images/i2.png' width = '640' height = '360'></img>","","0","instructions","","","","","","","","","","",""
"learning-instructions","22","139001","0.0-8.0-0.0-0.14","1587","1","2","""event"",""trial"",""time""
""fullscreenenter"",""1"",""2609""
""blur"",""7"",""19514""
""focus"",""7"",""19852""
","""event"",""trial"",""time""
""blur"",""7"",""19514""
","""event"",""trial"",""time""
""focus"",""7"",""19852""
","""event"",""trial"",""time""
""fullscreenenter"",""1"",""2609""
","
","","","","","","422.29999999701977","<p> The kids are happy.<div style='float: left;'><img src='images/i3.png' width = '640' height = '360'></img>","","0","instructions","","","","","","","","","","",""
"learning-instructions","23","141329","0.0-8.0-0.0-0.15","1587","1","2","""event"",""trial"",""time""
""fullscreenenter"",""1"",""2609""
""blur"",""7"",""19514""
""focus"",""7"",""19852""
","""event"",""trial"",""time""
""blur"",""7"",""19514""
","""event"",""trial"",""time""
""focus"",""7"",""19852""
","""event"",""trial"",""time""
""fullscreenenter"",""1"",""2609""
","
","","","","","","160.59999999403954","<p> The kids are happy.<div style='float: left;'><img src='images/i4.png' width = '640' height = '360'></img>","","0","instructions","","","","","","","","","","",""
"learning-instructions","24","144641","0.0-8.0-0.0-0.16","1587","1","2","""event"",""trial"",""time""
""fullscreenenter"",""1"",""2609""
""blur"",""7"",""19514""
""focus"",""7"",""19852""
","""event"",""trial"",""time""
""blur"",""7"",""19514""
","""event"",""trial"",""time""
""focus"",""7"",""19852""
","""event"",""trial"",""time""
""fullscreenenter"",""1"",""2609""
","
","","","","","","1102.2000000029802","<p> The kids are sad.<div style='float: left;'><img src='images/i5.png' width = '640' height = '360'></img>","","0","instructions","","","","","","","","","","",""
"learning-instructions","25","149905","0.0-8.0-0.0-0.17","1587","1","2","""event"",""trial"",""time""
""fullscreenenter"",""1"",""2609""
""blur"",""7"",""19514""
""focus"",""7"",""19852""
","""event"",""trial"",""time""
""blur"",""7"",""19514""
","""event"",""trial"",""time""
""focus"",""7"",""19852""
","""event"",""trial"",""time""
""fullscreenenter"",""1"",""2609""
","
","","","","","","3096.7000000029802","<p> The kids are happy.<div style='float: left;'><img src='images/i6.png' width = '640' height = '360'></img>","","0","instructions","","","","","","","","","","",""
"learning-instructions","26","158529","0.0-8.0-0.0-0.18","1587","1","2","""event"",""trial"",""time""
""fullscreenenter"",""1"",""2609""
""blur"",""7"",""19514""
""focus"",""7"",""19852""
","""event"",""trial"",""time""
""blur"",""7"",""19514""
","""event"",""trial"",""time""
""focus"",""7"",""19852""
","""event"",""trial"",""time""
""fullscreenenter"",""1"",""2609""
","
","","","","","","1350.5999999940395","<p> As you can see, selecting that park for the soccer ball made the kids happy most of the time, but not all the time.","","0","instructions","","","","","","","","","","",""
"learning-instructions","27","165601","0.0-8.0-0.0-0.19","1587","1","2","""event"",""trial"",""time""
""fullscreenenter"",""1"",""2609""
""blur"",""7"",""19514""
""focus"",""7"",""19852""
","""event"",""trial"",""time""
""blur"",""7"",""19514""
","""event"",""trial"",""time""
""focus"",""7"",""19852""
","""event"",""trial"",""time""
""fullscreenenter"",""1"",""2609""
","
","","","","","","1072.7000000029802","<p> Now let's see what happens if you choose a DIFFERENT park for the soccer ball 5 times.","","0","instructions","","","","","","","","","","",""
"learning-instructions","28","168145","0.0-8.0-0.0-0.20","1587","1","2","""event"",""trial"",""time""
""fullscreenenter"",""1"",""2609""
""blur"",""7"",""19514""
""focus"",""7"",""19852""
","""event"",""trial"",""time""
""blur"",""7"",""19514""
","""event"",""trial"",""time""
""focus"",""7"",""19852""
","""event"",""trial"",""time""
""fullscreenenter"",""1"",""2609""
","
","","","","","","337.29999999701977","<p> The kids are sad.<div style='float: left;'><img src='images/i7.png' width = '640' height = '360'></img>","","0","instructions","","","","","","","","","","",""
"learning-instructions","29","170897","0.0-8.0-0.0-0.21","1587","1","2","""event"",""trial"",""time""
""fullscreenenter"",""1"",""2609""
""blur"",""7"",""19514""
""focus"",""7"",""19852""
","""event"",""trial"",""time""
""blur"",""7"",""19514""
","""event"",""trial"",""time""
""focus"",""7"",""19852""
","""event"",""trial"",""time""
""fullscreenenter"",""1"",""2609""
","
","","","","","","548.5","<p> The kids are sad.<div style='float: left;'><img src='images/i8.png' width = '640' height = '360'></img>","","0","instructions","","","","","","","","","","",""
"learning-instructions","30","173536","0.0-8.0-0.0-0.22","1587","1","2","""event"",""trial"",""time""
""fullscreenenter"",""1"",""2609""
""blur"",""7"",""19514""
""focus"",""7"",""19852""
","""event"",""trial"",""time""
""blur"",""7"",""19514""
","""event"",""trial"",""time""
""focus"",""7"",""19852""
","""event"",""trial"",""time""
""fullscreenenter"",""1"",""2609""
","
","","","","","","478.40000000596046","<p> The kids are happy.<div style='float: left;'><img src='images/i9.png' width = '640' height = '360'></img>","","0","instructions","","","","","","","","","","",""
"learning-instructions","31","176313","0.0-8.0-0.0-0.23","1587","1","2","""event"",""trial"",""time""
""fullscreenenter"",""1"",""2609""
""blur"",""7"",""19514""
""focus"",""7"",""19852""
","""event"",""trial"",""time""
""blur"",""7"",""19514""
","""event"",""trial"",""time""
""focus"",""7"",""19852""
","""event"",""trial"",""time""
""fullscreenenter"",""1"",""2609""
","
","","","","","","564.7000000029802","<p> The kids are sad.<div style='float: left;'><img src='images/i10.png' width = '640' height = '360'></img>","","0","instructions","","","","","","","","","","",""
"learning-instructions","32","179129","0.0-8.0-0.0-0.24","1587","1","2","""event"",""trial"",""time""
""fullscreenenter"",""1"",""2609""
""blur"",""7"",""19514""
""focus"",""7"",""19852""
","""event"",""trial"",""time""
""blur"",""7"",""19514""
","""event"",""trial"",""time""
""focus"",""7"",""19852""
","""event"",""trial"",""time""
""fullscreenenter"",""1"",""2609""
","
","","","","","","600.5","<p> The kids are sad.<div style='float: left;'><img src='images/i11.png' width = '640' height = '360'></img>","","0","instructions","","","","","","","","","","",""
"learning-instructions","33","188696","0.0-8.0-0.0-0.25","1587","1","2","""event"",""trial"",""time""
""fullscreenenter"",""1"",""2609""
""blur"",""7"",""19514""
""focus"",""7"",""19852""
","""event"",""trial"",""time""
""blur"",""7"",""19514""
","""event"",""trial"",""time""
""focus"",""7"",""19852""
","""event"",""trial"",""time""
""fullscreenenter"",""1"",""2609""
","
","","","","","","1438.5999999940395","<p> As you can see, selecting the wrong park for the soccer ball made the kids sad most of the time, but not all the time.","","0","instructions","","","","","","","","","","",""
"learning-instructions","34","198809","0.0-8.0-0.0-0.26","1587","1","2","""event"",""trial"",""time""
""fullscreenenter"",""1"",""2609""
""blur"",""7"",""19514""
""focus"",""7"",""19852""
","""event"",""trial"",""time""
""blur"",""7"",""19514""
","""event"",""trial"",""time""
""focus"",""7"",""19852""
","""event"",""trial"",""time""
""fullscreenenter"",""1"",""2609""
","
","","","","","","990.5999999940395","<p> The different pieces of equipment belong in different parks. You need to try to learn which is the best park for each piece of equipment.","","0","instructions","","","","","","","","","","",""
"learning-instructions","35","216705","0.0-8.0-0.0-0.27","1587","1","2","""event"",""trial"",""time""
""fullscreenenter"",""1"",""2609""
""blur"",""7"",""19514""
""focus"",""7"",""19852""
","""event"",""trial"",""time""
""blur"",""7"",""19514""
","""event"",""trial"",""time""
""focus"",""7"",""19852""
","""event"",""trial"",""time""
""fullscreenenter"",""1"",""2609""
","
","","","","","","1506.7999999970198","<p> Try to choose the best park for each piece of equipment, because you will <b> WIN </b> 1 point for each time you make the kids happy and <b>LOSE</b> 1 point for each time you make them sad. </p><p> Remember, if you make the best choice, you will win 1 point most of the time, but not all the time. </p>","","0","instructions","","","","","","","","","","",""
"learning-instructions","36","223985","0.0-8.0-0.0-0.28","1587","1","2","""event"",""trial"",""time""
""fullscreenenter"",""1"",""2609""
""blur"",""7"",""19514""
""focus"",""7"",""19852""
","""event"",""trial"",""time""
""blur"",""7"",""19514""
","""event"",""trial"",""time""
""focus"",""7"",""19852""
","""event"",""trial"",""time""
""fullscreenenter"",""1"",""2609""
","
","","","","","","1786.5","<p> This is just a practice round, but in the real game, your bonus payment will depend on your total number of points.","","0","instructions","","","","","","","","","","",""
"learning-instructions","37","236601","0.0-8.0-0.0-0.29","1587","1","2","""event"",""trial"",""time""
""fullscreenenter"",""1"",""2609""
""blur"",""7"",""19514""
""focus"",""7"",""19852""
","""event"",""trial"",""time""
""blur"",""7"",""19514""
","""event"",""trial"",""time""
""focus"",""7"",""19852""
","""event"",""trial"",""time""
""fullscreenenter"",""1"",""2609""
","
","","","","","","2292.7000000029802","<p> The position where each park appears will change throughout the game. </p><p> The position where the park appears <i> does not </i> influence how likely the kids are to be happy or sad. </p>","","0","instructions","","","","","","","","","","",""
"learning-instructions","38","246825","0.0-8.0-0.0-0.30","1587","1","2","""event"",""trial"",""time""
""fullscreenenter"",""1"",""2609""
""blur"",""7"",""19514""
""focus"",""7"",""19852""
","""event"",""trial"",""time""
""blur"",""7"",""19514""
","""event"",""trial"",""time""
""focus"",""7"",""19852""
","""event"",""trial"",""time""
""fullscreenenter"",""1"",""2609""
","
","","","","","","466.30000001192093","<p> You will have 4 seconds to make each choice. Try to respond before time runs out! </p><p> You will lose 1 point each time you do not make a response. </p>","","0","instructions","","","","","","","","","","",""
"learning-instructions","39","254473","0.0-8.0-0.0-0.31","1587","1","2","""event"",""trial"",""time""
""fullscreenenter"",""1"",""2609""
""blur"",""7"",""19514""
""focus"",""7"",""19852""
","""event"",""trial"",""time""
""blur"",""7"",""19514""
","""event"",""trial"",""time""
""focus"",""7"",""19852""
","""event"",""trial"",""time""
""fullscreenenter"",""1"",""2609""
","
","","","","","","864","<p> Remember, you should use the 1, 2, and 3 keys to select the park for each piece of equipment. </p><br><div class=""choice-instructions-grid""> <div class=""choice-option""><img src=""images/park1.png"" class=""choice-option-img"" stage=""instructions"" position=""0"" ><div class=""choice-option-text""> Press ""1."" </div></div><div class=""choice-option""><img src=""images/park2.png"" class=""choice-option-img"" stage=""instructions"" position=""1"" ><div class=""choice-option-text""> Press ""2."" </div></div><div class=""choice-option""><img src=""images/park3.png"" class=""choice-option-img"" stage=""instructions"" position=""2"" ><div class=""choice-option-text""> Press ""3."" </div></div></div>","","0","instructions","","","","","","","","","","",""
"html-button-response","40","256257","0.0-8.0-1.0","1587","1","2","""event"",""trial"",""time""
""fullscreenenter"",""1"",""2609""
""blur"",""7"",""19514""
""focus"",""7"",""19852""
","""event"",""trial"",""time""
""blur"",""7"",""19514""
","""event"",""trial"",""time""
""focus"",""7"",""19852""
","""event"",""trial"",""time""
""fullscreenenter"",""1"",""2609""
","
","","","","","","1673.9000000059605","<p> Ready to practice? </p>","0","","","","","","","","","","","","",""
"html-keyboard-response","41","256862","0.0-8.0-2.0-0.0","1587","1","2","""event"",""trial"",""time""
""fullscreenenter"",""1"",""2609""
""blur"",""7"",""19514""
""focus"",""7"",""19852""
","""event"",""trial"",""time""
""blur"",""7"",""19514""
","""event"",""trial"",""time""
""focus"",""7"",""19852""
","""event"",""trial"",""time""
""fullscreenenter"",""1"",""2609""
","
","","","","","","null","<div style=""font-size:60px;"">+</div>","null","","fixation","","","","","","","","","","",""
"learning-trial","42","260879","0.0-8.0-2.0-1.0","1587","1","2","""event"",""trial"",""time""
""fullscreenenter"",""1"",""2609""
""blur"",""7"",""19514""
""focus"",""7"",""19852""
","""event"",""trial"",""time""
""blur"",""7"",""19514""
","""event"",""trial"",""time""
""focus"",""7"",""19852""
","""event"",""trial"",""time""
""fullscreenenter"",""1"",""2609""
","
","","","","","","1698.4000000059605","images/racket2.png","","","practice","images/park3.png","images/park1.png","images/park2.png","[2,0,1]","0","1","3","images/park2.png","-1","practice",""
"html-keyboard-response","43","261393","0.0-8.0-2.0-0.1","1587","1","2","""event"",""trial"",""time""
""fullscreenenter"",""1"",""2609""
""blur"",""7"",""19514""
""focus"",""7"",""19852""
","""event"",""trial"",""time""
""blur"",""7"",""19514""
","""event"",""trial"",""time""
""focus"",""7"",""19852""
","""event"",""trial"",""time""
""fullscreenenter"",""1"",""2609""
","
","","","","","","null","<div style=""font-size:60px;"">+</div>","null","","fixation","","","","","","","","","","",""
"learning-trial","44","265400","0.0-8.0-2.0-1.1","1587","1","2","""event"",""trial"",""time""
""fullscreenenter"",""1"",""2609""
""blur"",""7"",""19514""
""focus"",""7"",""19852""
","""event"",""trial"",""time""
""blur"",""7"",""19514""
","""event"",""trial"",""time""
""focus"",""7"",""19852""
","""event"",""trial"",""time""
""fullscreenenter"",""1"",""2609""
","
","","","","","","167.19999998807907","images/ball1.png","","","practice","images/park3.png","images/park2.png","images/park1.png","[2,1,0]","2","0","1","images/park3.png","1","practice",""
"html-keyboard-response","45","265915","0.0-8.0-2.0-0.2","1587","1","2","""event"",""trial"",""time""
""fullscreenenter"",""1"",""2609""
""blur"",""7"",""19514""
""focus"",""7"",""19852""
","""event"",""trial"",""time""
""blur"",""7"",""19514""
","""event"",""trial"",""time""
""focus"",""7"",""19852""
","""event"",""trial"",""time""
""fullscreenenter"",""1"",""2609""
","
","","","","","","null","<div style=""font-size:60px;"">+</div>","null","","fixation","","","","","","","","","","",""
"learning-trial","46","269925","0.0-8.0-2.0-1.2","1587","1","2","""event"",""trial"",""time""
""fullscreenenter"",""1"",""2609""
""blur"",""7"",""19514""
""focus"",""7"",""19852""
","""event"",""trial"",""time""
""blur"",""7"",""19514""
","""event"",""trial"",""time""
""focus"",""7"",""19852""
","""event"",""trial"",""time""
""fullscreenenter"",""1"",""2609""
","
","","","","","","644.2000000029802","images/ball2.png","","","practice","images/park2.png","images/park1.png","images/park3.png","[1,0,2]","0","1","3","images/park3.png","-1","practice",""
"html-keyboard-response","47","270442","0.0-8.0-2.0-0.3","1587","1","2","""event"",""trial"",""time""
""fullscreenenter"",""1"",""2609""
""blur"",""7"",""19514""
""focus"",""7"",""19852""
","""event"",""trial"",""time""
""blur"",""7"",""19514""
","""event"",""trial"",""time""
""focus"",""7"",""19852""
","""event"",""trial"",""time""
""fullscreenenter"",""1"",""2609""
","
","","","","","","null","<div style=""font-size:60px;"">+</div>","null","","fixation","","","","","","","","","","",""
"learning-trial","48","274446","0.0-8.0-2.0-1.3","1587","1","2","""event"",""trial"",""time""
""fullscreenenter"",""1"",""2609""
""blur"",""7"",""19514""
""focus"",""7"",""19852""
","""event"",""trial"",""time""
""blur"",""7"",""19514""
","""event"",""trial"",""time""
""focus"",""7"",""19852""
","""event"",""trial"",""time""
""fullscreenenter"",""1"",""2609""
","
","","","","","","582.1000000089407","images/racket1.png","","","practice","images/park3.png","images/park1.png","images/park2.png","[2,0,1]","1","2","1","images/park3.png","-1","practice",""
"html-keyboard-response","49","274954","0.0-8.0-2.0-0.4","1587","1","2","""event"",""trial"",""time""
""fullscreenenter"",""1"",""2609""
""blur"",""7"",""19514""
""focus"",""7"",""19852""
","""event"",""trial"",""time""
""blur"",""7"",""19514""
","""event"",""trial"",""time""
""focus"",""7"",""19852""
","""event"",""trial"",""time""
""fullscreenenter"",""1"",""2609""
","
","","","","","","null","<div style=""font-size:60px;"">+</div>","null","","fixation","","","","","","","","","","",""
"learning-trial","50","278958","0.0-8.0-2.0-1.4","1587","1","2","""event"",""trial"",""time""
""fullscreenenter"",""1"",""2609""
""blur"",""7"",""19514""
""focus"",""7"",""19852""
","""event"",""trial"",""time""
""blur"",""7"",""19514""
","""event"",""trial"",""time""
""focus"",""7"",""19852""
","""event"",""trial"",""time""
""fullscreenenter"",""1"",""2609""
","
","","","","","","446.09999999403954","images/ball2.png","","","practice","images/park2.png","images/park1.png","images/park3.png","[1,0,2]","0","1","2","images/park1.png","1","practice",""
"html-keyboard-response","51","279473","0.0-8.0-2.0-0.5","1587","1","2","""event"",""trial"",""time""
""fullscreenenter"",""1"",""2609""
""blur"",""7"",""19514""
""focus"",""7"",""19852""
","""event"",""trial"",""time""
""blur"",""7"",""19514""
","""event"",""trial"",""time""
""focus"",""7"",""19852""
","""event"",""trial"",""time""
""fullscreenenter"",""1"",""2609""
","
","","","","","","null","<div style=""font-size:60px;"">+</div>","null","","fixation","","","","","","","","","","",""
"learning-trial","52","283487","0.0-8.0-2.0-1.5","1587","1","2","""event"",""trial"",""time""
""fullscreenenter"",""1"",""2609""
""blur"",""7"",""19514""
""focus"",""7"",""19852""
","""event"",""trial"",""time""
""blur"",""7"",""19514""
","""event"",""trial"",""time""
""focus"",""7"",""19852""
","""event"",""trial"",""time""
""fullscreenenter"",""1"",""2609""
","
","","","","","","350.79999999701977","images/racket4.png","","","practice","images/park1.png","images/park2.png","images/park3.png","[0,1,2]","2","2","2","images/park2.png","-1","practice",""
"html-keyboard-response","53","284001","0.0-8.0-2.0-0.6","1587","1","2","""event"",""trial"",""time""
""fullscreenenter"",""1"",""2609""
""blur"",""7"",""19514""
""focus"",""7"",""19852""
","""event"",""trial"",""time""
""blur"",""7"",""19514""
","""event"",""trial"",""time""
""focus"",""7"",""19852""
","""event"",""trial"",""time""
""fullscreenenter"",""1"",""2609""
","
","","","","","","null","<div style=""font-size:60px;"">+</div>","null","","fixation","","","","","","","","","","",""
"learning-trial","54","288004","0.0-8.0-2.0-1.6","1587","1","2","""event"",""trial"",""time""
""fullscreenenter"",""1"",""2609""
""blur"",""7"",""19514""
""focus"",""7"",""19852""
","""event"",""trial"",""time""
""blur"",""7"",""19514""
","""event"",""trial"",""time""
""focus"",""7"",""19852""
","""event"",""trial"",""time""
""fullscreenenter"",""1"",""2609""
","
","","","","","","238.8999999910593","images/ball1.png","","","practice","images/park1.png","images/park2.png","images/park3.png","[0,1,2]","2","2","1","images/park1.png","-1","practice",""
"html-keyboard-response","55","288505","0.0-8.0-2.0-0.7","1587","1","2","""event"",""trial"",""time""
""fullscreenenter"",""1"",""2609""
""blur"",""7"",""19514""
""focus"",""7"",""19852""
","""event"",""trial"",""time""
""blur"",""7"",""19514""
","""event"",""trial"",""time""
""focus"",""7"",""19852""
","""event"",""trial"",""time""
""fullscreenenter"",""1"",""2609""
","
","","","","","","null","<div style=""font-size:60px;"">+</div>","null","","fixation","","","","","","","","","","",""
"learning-trial","56","292508","0.0-8.0-2.0-1.7","1587","1","2","""event"",""trial"",""time""
""fullscreenenter"",""1"",""2609""
""blur"",""7"",""19514""
""focus"",""7"",""19852""
","""event"",""trial"",""time""
""blur"",""7"",""19514""
","""event"",""trial"",""time""
""focus"",""7"",""19852""
","""event"",""trial"",""time""
""fullscreenenter"",""1"",""2609""
","
","","","","","","150.90000000596046","images/racket4.png","","","practice","images/park1.png","images/park2.png","images/park3.png","[0,1,2]","2","2","3","images/park3.png","-1","practice",""
"html-keyboard-response","57","293009","0.0-8.0-2.0-0.8","1587","1","2","""event"",""trial"",""time""
""fullscreenenter"",""1"",""2609""
""blur"",""7"",""19514""
""focus"",""7"",""19852""
","""event"",""trial"",""time""
""blur"",""7"",""19514""
","""event"",""trial"",""time""
""focus"",""7"",""19852""
","""event"",""trial"",""time""
""fullscreenenter"",""1"",""2609""
","
","","","","","","null","<div style=""font-size:60px;"">+</div>","null","","fixation","","","","","","","","","","",""
"learning-trial","58","297012","0.0-8.0-2.0-1.8","1587","1","2","""event"",""trial"",""time""
""fullscreenenter"",""1"",""2609""
""blur"",""7"",""19514""
""focus"",""7"",""19852""
","""event"",""trial"",""time""
""blur"",""7"",""19514""
","""event"",""trial"",""time""
""focus"",""7"",""19852""
","""event"",""trial"",""time""
""fullscreenenter"",""1"",""2609""
","
","","","","","","341.90000000596046","images/ball3.png","","","practice","images/park3.png","images/park2.png","images/park1.png","[2,1,0]","1","1","2","images/park2.png","1","practice",""
"html-keyboard-response","59","297514","0.0-8.0-2.0-0.9","1587","1","2","""event"",""trial"",""time""
""fullscreenenter"",""1"",""2609""
""blur"",""7"",""19514""
""focus"",""7"",""19852""
","""event"",""trial"",""time""
""blur"",""7"",""19514""
","""event"",""trial"",""time""
""focus"",""7"",""19852""
","""event"",""trial"",""time""
""fullscreenenter"",""1"",""2609""
","
","","","","","","null","<div style=""font-size:60px;"">+</div>","null","","fixation","","","","","","","","","","",""
"learning-trial","60","301516","0.0-8.0-2.0-1.9","1587","1","2","""event"",""trial"",""time""
""fullscreenenter"",""1"",""2609""
""blur"",""7"",""19514""
""focus"",""7"",""19852""
","""event"",""trial"",""time""
""blur"",""7"",""19514""
","""event"",""trial"",""time""
""focus"",""7"",""19852""
","""event"",""trial"",""time""
""fullscreenenter"",""1"",""2609""
","
","","","","","","398","images/racket1.png","","","practice","images/park3.png","images/park1.png","images/park2.png","[2,0,1]","1","2","1","images/park3.png","-1","practice",""
"html-keyboard-response","61","302018","0.0-8.0-2.0-0.10","1587","1","2","""event"",""trial"",""time""
""fullscreenenter"",""1"",""2609""
""blur"",""7"",""19514""
""focus"",""7"",""19852""
","""event"",""trial"",""time""
""blur"",""7"",""19514""
","""event"",""trial"",""time""
""focus"",""7"",""19852""
","""event"",""trial"",""time""
""fullscreenenter"",""1"",""2609""
","
","","","","","","null","<div style=""font-size:60px;"">+</div>","null","","fixation","","","","","","","","","","",""
"learning-trial","62","306021","0.0-8.0-2.0-1.10","1587","1","2","""event"",""trial"",""time""
""fullscreenenter"",""1"",""2609""
""blur"",""7"",""19514""
""focus"",""7"",""19852""
","""event"",""trial"",""time""
""blur"",""7"",""19514""
","""event"",""trial"",""time""
""focus"",""7"",""19852""
","""event"",""trial"",""time""
""fullscreenenter"",""1"",""2609""
","
","","","","","","309.5","images/racket2.png","","","practice","images/park2.png","images/park1.png","images/park3.png","[1,0,2]","0","1","1","images/park2.png","-1","practice",""
"html-keyboard-response","63","306522","0.0-8.0-2.0-0.11","1587","1","2","""event"",""trial"",""time""
""fullscreenenter"",""1"",""2609""
""blur"",""7"",""19514""
""focus"",""7"",""19852""
","""event"",""trial"",""time""
""blur"",""7"",""19514""
","""event"",""trial"",""time""
""focus"",""7"",""19852""
","""event"",""trial"",""time""
""fullscreenenter"",""1"",""2609""
","
","","","","","","null","<div style=""font-size:60px;"">+</div>","null","","fixation","","","","","","","","","","",""
"learning-trial","64","310525","0.0-8.0-2.0-1.11","1587","1","2","""event"",""trial"",""time""
""fullscreenenter"",""1"",""2609""
""blur"",""7"",""19514""
""focus"",""7"",""19852""
","""event"",""trial"",""time""
""blur"",""7"",""19514""
","""event"",""trial"",""time""
""focus"",""7"",""19852""
","""event"",""trial"",""time""
""fullscreenenter"",""1"",""2609""
","
","","","","","","293.40000000596046","images/ball3.png","","","practice","images/park1.png","images/park3.png","images/park2.png","[0,2,1]","1","2","3","images/park2.png","1","practice",""
"html-button-response","65","315513","0.0-8.0-3.0","1587","1","2","""event"",""trial"",""time""
""fullscreenenter"",""1"",""2609""
""blur"",""7"",""19514""
""focus"",""7"",""19852""
","""event"",""trial"",""time""
""blur"",""7"",""19514""
","""event"",""trial"",""time""
""focus"",""7"",""19852""
","""event"",""trial"",""time""
""fullscreenenter"",""1"",""2609""
","
","","","","","","4986.79999999702","<p> You earned -4 points in the practice round! </p>","0","","break","","","","","","","","","","",""
"learning-instructions","66","324889","0.0-8.0-4.0-0.0","1587","1","2","""event"",""trial"",""time""
""fullscreenenter"",""1"",""2609""
""blur"",""7"",""19514""
""focus"",""7"",""19852""
","""event"",""trial"",""time""
""blur"",""7"",""19514""
","""event"",""trial"",""time""
""focus"",""7"",""19852""
","""event"",""trial"",""time""
""fullscreenenter"",""1"",""2609""
","
","","","","","","1560.800000011921","<p> It's almost time to start the real game. </p><p> Before you start, we're going to ask you a few questions about how the game works. </p>","","0","instructions","","","","","","","","","","",""
"preload","67","325131","0.0-8.0-5.0","1587","1","2","""event"",""trial"",""time""
""fullscreenenter"",""1"",""2609""
""blur"",""7"",""19514""
""focus"",""7"",""19852""
","""event"",""trial"",""time""
""blur"",""7"",""19514""
","""event"",""trial"",""time""
""focus"",""7"",""19852""
","""event"",""trial"",""time""
""fullscreenenter"",""1"",""2609""
","
","true","false","[]","[]","[]","","","","","","","","","","","","","","","",""
"comp-q","68","331841","0.0-8.0-6.0-0.0","1587","1","2","""event"",""trial"",""time""
""fullscreenenter"",""1"",""2609""
""blur"",""7"",""19514""
""focus"",""7"",""19852""
","""event"",""trial"",""time""
""blur"",""7"",""19514""
","""event"",""trial"",""time""
""focus"",""7"",""19852""
","""event"",""trial"",""time""
""fullscreenenter"",""1"",""2609""
","
","","","","","","1252.5","<p> <b> True or False? </b> </p><p> If you choose the best option, you will always earn 1 point. </p>","","1","comp_question","","","","","","","","","","","true"
"comp-q","69","340041","0.0-8.0-6.0-1.0","1587","1","2","""event"",""trial"",""time""
""fullscreenenter"",""1"",""2609""
""blur"",""7"",""19514""
""focus"",""7"",""19852""
","""event"",""trial"",""time""
""blur"",""7"",""19514""
","""event"",""trial"",""time""
""focus"",""7"",""19852""
","""event"",""trial"",""time""
""fullscreenenter"",""1"",""2609""
","
","","","","","","2542.6000000089407","<p><b> That's right! </b> Sometimes you will lose 1 point, even if you choose the best option. </p>","","0","comp_answer","","","","","","","","","","",""
"comp-q","70","346081","0.0-8.0-6.0-0.1","1587","1","2","""event"",""trial"",""time""
""fullscreenenter"",""1"",""2609""
""blur"",""7"",""19514""
""focus"",""7"",""19852""
","""event"",""trial"",""time""
""blur"",""7"",""19514""
","""event"",""trial"",""time""
""focus"",""7"",""19852""
","""event"",""trial"",""time""
""fullscreenenter"",""1"",""2609""
","
","","","","","","1412.5","<p> <b> True or False? </b> </p><p> You will have as much time as you want to make each choice. </p>","","1","comp_question","","","","","","","","","","","true"
"comp-q","71","354153","0.0-8.0-6.0-1.1","1587","1","2","""event"",""trial"",""time""
""fullscreenenter"",""1"",""2609""
""blur"",""7"",""19514""
""focus"",""7"",""19852""
","""event"",""trial"",""time""
""blur"",""7"",""19514""
","""event"",""trial"",""time""
""focus"",""7"",""19852""
","""event"",""trial"",""time""
""fullscreenenter"",""1"",""2609""
","
","","","","","","3264.5","<p> <b> That's right! </b> You will only have 4 seconds to make each choice. </p>","","0","comp_answer","","","","","","","","","","",""
"comp-q","72","362057","0.0-8.0-6.0-0.2","1587","1","2","""event"",""trial"",""time""
""fullscreenenter"",""1"",""2609""
""blur"",""7"",""19514""
""focus"",""7"",""19852""
","""event"",""trial"",""time""
""blur"",""7"",""19514""
","""event"",""trial"",""time""
""focus"",""7"",""19852""
","""event"",""trial"",""time""
""fullscreenenter"",""1"",""2609""
","
","","","","","","1758.5","<p> <b> True or False? </b> </p><p> You should use the '1', '2', and '3' keys to make your choices. </p>","","0","comp_question","","","","","","","","","","","true"
"comp-q","73","368545","0.0-8.0-6.0-1.2","1587","1","2","""event"",""trial"",""time""
""fullscreenenter"",""1"",""2609""
""blur"",""7"",""19514""
""focus"",""7"",""19852""
","""event"",""trial"",""time""
""blur"",""7"",""19514""
","""event"",""trial"",""time""
""focus"",""7"",""19852""
","""event"",""trial"",""time""
""fullscreenenter"",""1"",""2609""
","
","","","","","","1646.5999999940395","<p> <b> That's right! </b> You should use the '1', '2', and '3' keys to make each choice. </p>","","0","comp_answer","","","","","","","","","","",""
"learning-instructions","74","378729","0.0-8.0-7.0-0.0","1587","1","2","""event"",""trial"",""time""
""fullscreenenter"",""1"",""2609""
""blur"",""7"",""19514""
""focus"",""7"",""19852""
","""event"",""trial"",""time""
""blur"",""7"",""19514""
","""event"",""trial"",""time""
""focus"",""7"",""19852""
","""event"",""trial"",""time""
""fullscreenenter"",""1"",""2609""
","
","","","","","","1690.7000000029802","<p> It's now time to start the real game. </p>Do your best, because the points you earn in the next rounds will influence your bonus payment. </p>","","0","instructions","","","","","","","","","","",""
"preload","75","379026","0.0-9.0-0.0","1587","1","2","""event"",""trial"",""time""
""fullscreenenter"",""1"",""2609""
""blur"",""7"",""19514""
""focus"",""7"",""19852""
","""event"",""trial"",""time""
""blur"",""7"",""19514""
","""event"",""trial"",""time""
""focus"",""7"",""19852""
","""event"",""trial"",""time""
""fullscreenenter"",""1"",""2609""
","
","true","false","[]","[]","[]","","","","","","","","","","","","","","","",""
"learning-instructions","76","387641","0.0-9.0-1.0-0.0","1587","1","2","""event"",""trial"",""time""
""fullscreenenter"",""1"",""2609""
""blur"",""7"",""19514""
""focus"",""7"",""19852""
","""event"",""trial"",""time""
""blur"",""7"",""19514""
","""event"",""trial"",""time""
""focus"",""7"",""19852""
","""event"",""trial"",""time""
""fullscreenenter"",""1"",""2609""
","
","","","","","","832.3999999910593","<p> Your goal in this round is to deliver furniture to three different buildings. </p><p> You will need to deliver many pieces of furniture. </p></div>","","0","instructions","","","","","","","","","","",""
"learning-instructions","77","395912","0.0-9.0-1.0-0.1","1587","1","2","""event"",""trial"",""time""
""fullscreenenter"",""1"",""2609""
""blur"",""7"",""19514""
""focus"",""7"",""19852""
""blur"",""78"",""397593""
""focus"",""78"",""397594""
""blur"",""78"",""397649""
""focus"",""78"",""397649""
","""event"",""trial"",""time""
""blur"",""7"",""19514""
""blur"",""78"",""397593""
""blur"",""78"",""397649""
","""event"",""trial"",""time""
""focus"",""7"",""19852""
""focus"",""78"",""397594""
""focus"",""78"",""397649""
","""event"",""trial"",""time""
""fullscreenenter"",""1"",""2609""
","
","","","","","","834.7000000029802","<p> On each turn, you will see a picture of a furniture item and three different buildings.  </p><p> You need to select the building that you want to deliver the furniture to.  </p>","","0","instructions","","","","","","","","","","",""
"learning-instructions","78","405816","0.0-9.0-1.0-0.2","1587","1","2","""event"",""trial"",""time""
""fullscreenenter"",""1"",""2609""
""blur"",""7"",""19514""
""focus"",""7"",""19852""
""blur"",""78"",""397593""
""focus"",""78"",""397594""
""blur"",""78"",""397649""
""focus"",""78"",""397649""
","""event"",""trial"",""time""
""blur"",""7"",""19514""
""blur"",""78"",""397593""
""blur"",""78"",""397649""
","""event"",""trial"",""time""
""focus"",""7"",""19852""
""focus"",""78"",""397594""
""focus"",""78"",""397649""
","""event"",""trial"",""time""
""fullscreenenter"",""1"",""2609""
","
","","","","","","1618","<p> You can select the building on the left by pressing 1, the building in the middle by pressing 2, and the building on the right by pressing 3.  </p><br><div class=""choice-instructions-grid""> <div class=""choice-option""><img src=""images/furniture_choice1.png"" class=""choice-option-img"" stage=""instructions"" position=""0"" ><div class=""choice-option-text""> Press ""1."" </div></div><div class=""choice-option""><img src=""images/furniture_choice2.png"" class=""choice-option-img"" stage=""instructions"" position=""1"" ><div class=""choice-option-text""> Press ""2."" </div></div><div class=""choice-option""><img src=""images/furniture_choice3.png"" class=""choice-option-img"" stage=""instructions"" position=""2"" ><div class=""choice-option-text""> Press ""3."" </div></div></div>","","0","instructions","","","","","","","","","","",""
"learning-instructions","79","413440","0.0-9.0-1.0-0.3","1587","1","2","""event"",""trial"",""time""
""fullscreenenter"",""1"",""2609""
""blur"",""7"",""19514""
""focus"",""7"",""19852""
""blur"",""78"",""397593""
""focus"",""78"",""397594""
""blur"",""78"",""397649""
""focus"",""78"",""397649""
","""event"",""trial"",""time""
""blur"",""7"",""19514""
""blur"",""78"",""397593""
""blur"",""78"",""397649""
","""event"",""trial"",""time""
""focus"",""7"",""19852""
""focus"",""78"",""397594""
""focus"",""78"",""397649""
","""event"",""trial"",""time""
""fullscreenenter"",""1"",""2609""
","
","","","","","","1592.5","<p> If the furniture belongs in the building you chose, the building owner will likely be very happy! </p><div style='float: center;'><img src='images/check.png' width = '200' height = '200'></img>","","0","instructions","","","","","","","","","","",""
"learning-instructions","80","421080","0.0-9.0-1.0-0.4","1587","1","2","""event"",""trial"",""time""
""fullscreenenter"",""1"",""2609""
""blur"",""7"",""19514""
""focus"",""7"",""19852""
""blur"",""78"",""397593""
""focus"",""78"",""397594""
""blur"",""78"",""397649""
""focus"",""78"",""397649""
""fullscreenexit"",""81"",""440233""
""blur"",""81"",""444090""
""focus"",""81"",""73012727""
""blur"",""81"",""73014872""
","""event"",""trial"",""time""
""blur"",""7"",""19514""
""blur"",""78"",""397593""
""blur"",""78"",""397649""
""blur"",""81"",""444090""
""blur"",""81"",""73014872""
","""event"",""trial"",""time""
""focus"",""7"",""19852""
""focus"",""78"",""397594""
""focus"",""78"",""397649""
""focus"",""81"",""73012727""
","""event"",""trial"",""time""
""fullscreenenter"",""1"",""2609""
","""event"",""trial"",""time""
""fullscreenexit"",""81"",""440233""
","","","","","","1652.2999999970198","<p> But, if the furniture does not belong in the building you chose, the owner will likely be mad. </p><div style='float: center;'><img src='images/x.png' width = '200' height = '200'></img>","","0","instructions","","","","","","","","","","",""
