"trial_type","trial_index","time_elapsed","internal_node_id","subject_id","condition","task_version","interactions","blur_events","focus_events","fullscreenenter_events","fullscreenexit_events","success","timeout","failed_images","failed_audio","failed_video","rt","stimulus","response","button_pressed","task_part","left_choice","middle_choice","right_choice","choice_positions","correct_response","correct_position","key_press","option_selected","points","task_block","correct","stim_cat","block_condition","block_number"
"pavlovia","0","11","0.0-0.0","1526","2","2","""event"",""trial"",""time""
""fullscreenenter"",""1"",""3512""
","
","
","""event"",""trial"",""time""
""fullscreenenter"",""1"",""3512""
","
","","","","","","","","","","","","","","","","","","","","","","","",""
"fullscreen","1","4499","0.0-1.0","1526","2","2","""event"",""trial"",""time""
""fullscreenenter"",""1"",""3512""
","
","
","""event"",""trial"",""time""
""fullscreenenter"",""1"",""3512""
","
","true","","","","","","","","","","","","","","","","","","","","","","",""
"preload","2","10116","0.0-2.0","1526","2","2","""event"",""trial"",""time""
""fullscreenenter"",""1"",""3512""
","
","
","""event"",""trial"",""time""
""fullscreenenter"",""1"",""3512""
","
","true","false","[]","[]","[]","","","","","","","","","","","","","","","","","","",""
"audio-keyboard-response","3","21937","0.0-3.0","1526","2","2","""event"",""trial"",""time""
""fullscreenenter"",""1"",""3512""
","
","
","""event"",""trial"",""time""
""fullscreenenter"",""1"",""3512""
","
","","","","","","11818.666666666666","audio/beep_loop.wav","audiovolumeup","","","","","","","","","","","","","","","",""
"audio-button-response","4","24411","0.0-4.0","1526","2","2","""event"",""trial"",""time""
""fullscreenenter"",""1"",""3512""
","
","
","""event"",""trial"",""time""
""fullscreenenter"",""1"",""3512""
","
","","","","","","2469","audio/shark.wav","4","","","","","","","","","","","","","","","",""
"audio-button-response","5","26684","0.0-5.0","1526","2","2","""event"",""trial"",""time""
""fullscreenenter"",""1"",""3512""
","
","
","""event"",""trial"",""time""
""fullscreenenter"",""1"",""3512""
","
","","","","","","1269","audio/turtle.wav","1","","","","","","","","","","","","","","","",""
"preload","6","30841","0.0-6.0","1526","2","2","""event"",""trial"",""time""
""fullscreenenter"",""1"",""3512""
","
","
","""event"",""trial"",""time""
""fullscreenenter"",""1"",""3512""
","
","true","false","[]","[]","[]","","","","","","","","","","","","","","","","","","",""
"html-keyboard-response","7","34645","0.0-7.0","1526","2","2","""event"",""trial"",""time""
""fullscreenenter"",""1"",""3512""
","
","
","""event"",""trial"",""time""
""fullscreenenter"",""1"",""3512""
","
","","","","","","3802.5","Welcome to the experiment. Press any key to begin and to advance the instructions."," ","","","","","","","","","","","","","","","",""
"learning-instructions","8","44612","0.0-8.0-0.0-0.0","1526","2","2","""event"",""trial"",""time""
""fullscreenenter"",""1"",""3512""
","
","
","""event"",""trial"",""time""
""fullscreenenter"",""1"",""3512""
","
","","","","","","2218.100000023842","<p> Welcome! Today you are going to play 6 different rounds of a decision-making game. </p><p> Use the mouse to click next to continue. </p>","","0","instructions","","","","","","","","","","","","","",""
"learning-instructions","9","50265","0.0-8.0-0.0-0.1","1526","2","2","""event"",""trial"",""time""
""fullscreenenter"",""1"",""3512""
","
","
","""event"",""trial"",""time""
""fullscreenenter"",""1"",""3512""
","
","","","","","","2651.399999976158","<p> You will start with a practice round to learn the rules. </p>","","0","instructions","","","","","","","","","","","","","",""
"learning-instructions","10","58983","0.0-8.0-0.0-0.2","1526","2","2","""event"",""trial"",""time""
""fullscreenenter"",""1"",""3512""
","
","
","""event"",""trial"",""time""
""fullscreenenter"",""1"",""3512""
","
","","","","","","969.1000000238419","<p> Your goal in this round is to deliver sports equipment to three different parks. </p><p> You will need to deliver many types of equipment. </p></div>","","0","instructions","","","","","","","","","","","","","",""
"learning-instructions","11","69161","0.0-8.0-0.0-0.3","1526","2","2","""event"",""trial"",""time""
""fullscreenenter"",""1"",""3512""
","
","
","""event"",""trial"",""time""
""fullscreenenter"",""1"",""3512""
","
","","","","","","1676.699999988079","<p> On each turn, you will see one piece of sports equipment and three different parks.  </p><p> You need to select which park to deliver the equipment to.  </p>","","0","instructions","","","","","","","","","","","","","",""
"learning-instructions","12","84569","0.0-8.0-0.0-0.4","1526","2","2","""event"",""trial"",""time""
""fullscreenenter"",""1"",""3512""
","
","
","""event"",""trial"",""time""
""fullscreenenter"",""1"",""3512""
","
","","","","","","2124.099999964237","<p> You can select the park on the left by pressing the '1' key on your keyboard. <br>You can select the park in the middle by pressing the '2' key on your keyboard. <br>You can select the park on the right by pressing the '3' key on your keyboard.  </p><br><div class=""choice-instructions-grid""> <div class=""choice-option""><img src=""images/park1.png"" class=""choice-option-img"" stage=""instructions"" position=""0"" ><div class=""choice-option-text""> Press ""1."" </div></div><div class=""choice-option""><img src=""images/park2.png"" class=""choice-option-img"" stage=""instructions"" position=""1"" ><div class=""choice-option-text""> Press ""2."" </div></div><div class=""choice-option""><img src=""images/park3.png"" class=""choice-option-img"" stage=""instructions"" position=""2"" ><div class=""choice-option-text""> Press ""3."" </div></div></div>","","0","instructions","","","","","","","","","","","","","",""
"learning-instructions","13","91081","0.0-8.0-0.0-0.5","1526","2","2","""event"",""trial"",""time""
""fullscreenenter"",""1"",""3512""
","
","
","""event"",""trial"",""time""
""fullscreenenter"",""1"",""3512""
","
","","","","","","1126.699999988079","<p> If the kids in the park you chose like the equipment, they will be very happy! </p><div style='float: center;'><img src='images/check.png' width = '200' height = '200'></img>","","0","instructions","","","","","","","","","","","","","",""
"learning-instructions","14","97118","0.0-8.0-0.0-0.6","1526","2","2","""event"",""trial"",""time""
""fullscreenenter"",""1"",""3512""
","
","
","""event"",""trial"",""time""
""fullscreenenter"",""1"",""3512""
","
","","","","","","443.5","<p> But, if the kids in the park you chose do not like the equipment, they will be sad. </p><div style='float: center;'><img src='images/x.png' width = '200' height = '200'></img>","","0","instructions","","","","","","","","","","","","","",""
"learning-instructions","15","103892","0.0-8.0-0.0-0.7","1526","2","2","""event"",""trial"",""time""
""fullscreenenter"",""1"",""3512""
","
","
","""event"",""trial"",""time""
""fullscreenenter"",""1"",""3512""
","
","","","","","","338.89999997615814","<p> Importantly, the kids in each park like some pieces of sports equipment more than others. </p>","","0","instructions","","","","","","","","","","","","","",""
"learning-instructions","16","110505","0.0-8.0-0.0-0.8","1526","2","2","""event"",""trial"",""time""
""fullscreenenter"",""1"",""3512""
","
","
","""event"",""trial"",""time""
""fullscreenenter"",""1"",""3512""
","
","","","","","","540.5","<p> If you choose the best park for each piece of equipment, the kids there will usually be happy. </p>","","0","instructions","","","","","","","","","","","","","",""
"learning-instructions","17","117625","0.0-8.0-0.0-0.9","1526","2","2","""event"",""trial"",""time""
""fullscreenenter"",""1"",""3512""
","
","
","""event"",""trial"",""time""
""fullscreenenter"",""1"",""3512""
","
","","","","","","461","<p> However, even if you choose the best park for the equipment, the kids may sometimes be sad. </p>","","0","instructions","","","","","","","","","","","","","",""
"learning-instructions","18","125574","0.0-8.0-0.0-0.10","1526","2","2","""event"",""trial"",""time""
""fullscreenenter"",""1"",""3512""
","
","
","""event"",""trial"",""time""
""fullscreenenter"",""1"",""3512""
","
","","","","","","711.6000000238419","<p> Similarly, even if you choose the <i>wrong</i> park for the equipment, the kids may still be happy sometimes.","","0","instructions","","","","","","","","","","","","","",""
"learning-instructions","19","132147","0.0-8.0-0.0-0.11","1526","2","2","""event"",""trial"",""time""
""fullscreenenter"",""1"",""3512""
","
","
","""event"",""trial"",""time""
""fullscreenenter"",""1"",""3512""
","
","","","","","","1513.9000000357628","<p> For example, the best park for this soccer ball is this one.<div style='float: center;'><img src='images/i1.png' width = '500' height = '268'></img>","","0","instructions","","","","","","","","","","","","","",""
"learning-instructions","20","137899","0.0-8.0-0.0-0.12","1526","2","2","""event"",""trial"",""time""
""fullscreenenter"",""1"",""3512""
","
","
","""event"",""trial"",""time""
""fullscreenenter"",""1"",""3512""
","
","","","","","","446.9000000357628","<p> Let's see what happens if you choose this park for the soccer ball five times.","","0","instructions","","","","","","","","","","","","","",""
"learning-instructions","21","140986","0.0-8.0-0.0-0.13","1526","2","2","""event"",""trial"",""time""
""fullscreenenter"",""1"",""3512""
","
","
","""event"",""trial"",""time""
""fullscreenenter"",""1"",""3512""
","
","","","","","","912.1000000238419","<p> The kids are happy.<div style='float: left;'><img src='images/i2.png' width = '640' height = '360'></img>","","0","instructions","","","","","","","","","","","","","",""
"learning-instructions","22","143827","0.0-8.0-0.0-0.14","1526","2","2","""event"",""trial"",""time""
""fullscreenenter"",""1"",""3512""
","
","
","""event"",""trial"",""time""
""fullscreenenter"",""1"",""3512""
","
","","","","","","654.0999999642372","<p> The kids are happy.<div style='float: left;'><img src='images/i3.png' width = '640' height = '360'></img>","","0","instructions","","","","","","","","","","","","","",""
"learning-instructions","23","146446","0.0-8.0-0.0-0.15","1526","2","2","""event"",""trial"",""time""
""fullscreenenter"",""1"",""3512""
","
","
","""event"",""trial"",""time""
""fullscreenenter"",""1"",""3512""
","
","","","","","","432.39999997615814","<p> The kids are happy.<div style='float: left;'><img src='images/i4.png' width = '640' height = '360'></img>","","0","instructions","","","","","","","","","","","","","",""
"learning-instructions","24","149012","0.0-8.0-0.0-0.16","1526","2","2","""event"",""trial"",""time""
""fullscreenenter"",""1"",""3512""
","
","
","""event"",""trial"",""time""
""fullscreenenter"",""1"",""3512""
","
","","","","","","348.30000001192093","<p> The kids are sad.<div style='float: left;'><img src='images/i5.png' width = '640' height = '360'></img>","","0","instructions","","","","","","","","","","","","","",""
"learning-instructions","25","151670","0.0-8.0-0.0-0.17","1526","2","2","""event"",""trial"",""time""
""fullscreenenter"",""1"",""3512""
","
","
","""event"",""trial"",""time""
""fullscreenenter"",""1"",""3512""
","
","","","","","","486.19999998807907","<p> The kids are happy.<div style='float: left;'><img src='images/i6.png' width = '640' height = '360'></img>","","0","instructions","","","","","","","","","","","","","",""
"learning-instructions","26","159258","0.0-8.0-0.0-0.18","1526","2","2","""event"",""trial"",""time""
""fullscreenenter"",""1"",""3512""
","
","
","""event"",""trial"",""time""
""fullscreenenter"",""1"",""3512""
","
","","","","","","315.2999999523163","<p> As you can see, selecting that park for the soccer ball made the kids happy most of the time, but not all the time.","","0","instructions","","","","","","","","","","","","","",""
"learning-instructions","27","166055","0.0-8.0-0.0-0.19","1526","2","2","""event"",""trial"",""time""
""fullscreenenter"",""1"",""3512""
","
","
","""event"",""trial"",""time""
""fullscreenenter"",""1"",""3512""
","
","","","","","","792.3999999761581","<p> Now let's see what happens if you choose a DIFFERENT park for the soccer ball 5 times.","","0","instructions","","","","","","","","","","","","","",""
"learning-instructions","28","168632","0.0-8.0-0.0-0.20","1526","2","2","""event"",""trial"",""time""
""fullscreenenter"",""1"",""3512""
","
","
","""event"",""trial"",""time""
""fullscreenenter"",""1"",""3512""
","
","","","","","","359.19999998807907","<p> The kids are sad.<div style='float: left;'><img src='images/i7.png' width = '640' height = '360'></img>","","0","instructions","","","","","","","","","","","","","",""
"learning-instructions","29","171239","0.0-8.0-0.0-0.21","1526","2","2","""event"",""trial"",""time""
""fullscreenenter"",""1"",""3512""
","
","
","""event"",""trial"",""time""
""fullscreenenter"",""1"",""3512""
","
","","","","","","405.4000000357628","<p> The kids are sad.<div style='float: left;'><img src='images/i8.png' width = '640' height = '360'></img>","","0","instructions","","","","","","","","","","","","","",""
"learning-instructions","30","173827","0.0-8.0-0.0-0.22","1526","2","2","""event"",""trial"",""time""
""fullscreenenter"",""1"",""3512""
","
","
","""event"",""trial"",""time""
""fullscreenenter"",""1"",""3512""
","
","","","","","","414.5","<p> The kids are happy.<div style='float: left;'><img src='images/i9.png' width = '640' height = '360'></img>","","0","instructions","","","","","","","","","","","","","",""
"learning-instructions","31","176225","0.0-8.0-0.0-0.23","1526","2","2","""event"",""trial"",""time""
""fullscreenenter"",""1"",""3512""
","
","
","""event"",""trial"",""time""
""fullscreenenter"",""1"",""3512""
","
","","","","","","190.9000000357628","<p> The kids are sad.<div style='float: left;'><img src='images/i10.png' width = '640' height = '360'></img>","","0","instructions","","","","","","","","","","","","","",""
"learning-instructions","32","178836","0.0-8.0-0.0-0.24","1526","2","2","""event"",""trial"",""time""
""fullscreenenter"",""1"",""3512""
","
","
","""event"",""trial"",""time""
""fullscreenenter"",""1"",""3512""
","
","","","","","","402.60000002384186","<p> The kids are sad.<div style='float: left;'><img src='images/i11.png' width = '640' height = '360'></img>","","0","instructions","","","","","","","","","","","","","",""
"learning-instructions","33","187494","0.0-8.0-0.0-0.25","1526","2","2","""event"",""trial"",""time""
""fullscreenenter"",""1"",""3512""
","
","
","""event"",""trial"",""time""
""fullscreenenter"",""1"",""3512""
","
","","","","","","520.6000000238419","<p> As you can see, selecting the wrong park for the soccer ball made the kids sad most of the time, but not all the time.","","0","instructions","","","","","","","","","","","","","",""
"learning-instructions","34","196871","0.0-8.0-0.0-0.26","1526","2","2","""event"",""trial"",""time""
""fullscreenenter"",""1"",""3512""
","
","
","""event"",""trial"",""time""
""fullscreenenter"",""1"",""3512""
","
","","","","","","258.80000001192093","<p> The different pieces of equipment belong in different parks. You need to try to learn which is the best park for each piece of equipment.","","0","instructions","","","","","","","","","","","","","",""
"learning-instructions","35","213860","0.0-8.0-0.0-0.27","1526","2","2","""event"",""trial"",""time""
""fullscreenenter"",""1"",""3512""
","
","
","""event"",""trial"",""time""
""fullscreenenter"",""1"",""3512""
","
","","","","","","598.1000000238419","<p> Try to choose the best park for each piece of equipment, because you will <b> WIN </b> 1 point for each time you make the kids happy and <b>LOSE</b> 1 point for each time you make them sad. </p><p> Remember, if you make the best choice, you will win 1 point most of the time, but not all the time. </p>","","0","instructions","","","","","","","","","","","","","",""
"learning-instructions","36","219847","0.0-8.0-0.0-0.28","1526","2","2","""event"",""trial"",""time""
""fullscreenenter"",""1"",""3512""
","
","
","""event"",""trial"",""time""
""fullscreenenter"",""1"",""3512""
","
","","","","","","503.60000002384186","<p> This is just a practice round, but in the real game, your bonus payment will depend on your total number of points.","","0","instructions","","","","","","","","","","","","","",""
"learning-instructions","37","230809","0.0-8.0-0.0-0.29","1526","2","2","""event"",""trial"",""time""
""fullscreenenter"",""1"",""3512""
","
","
","""event"",""trial"",""time""
""fullscreenenter"",""1"",""3512""
","
","","","","","","626.0999999642372","<p> The position where each park appears will change throughout the game. </p><p> The position where the park appears <i> does not </i> influence how likely the kids are to be happy or sad. </p>","","0","instructions","","","","","","","","","","","","","",""
"learning-instructions","38","242188","0.0-8.0-0.0-0.30","1526","2","2","""event"",""trial"",""time""
""fullscreenenter"",""1"",""3512""
","
","
","""event"",""trial"",""time""
""fullscreenenter"",""1"",""3512""
","
","","","","","","795.1000000238419","<p> You will have 4 seconds to make each choice. Try to respond before time runs out! </p><p> You will lose 1 point each time you do not make a response. </p>","","0","instructions","","","","","","","","","","","","","",""
"learning-instructions","39","250345","0.0-8.0-0.0-0.31","1526","2","2","""event"",""trial"",""time""
""fullscreenenter"",""1"",""3512""
","
","
","""event"",""trial"",""time""
""fullscreenenter"",""1"",""3512""
","
","","","","","","1350.199999988079","<p> Remember, you should use the 1, 2, and 3 keys to select the park for each piece of equipment. </p><br><div class=""choice-instructions-grid""> <div class=""choice-option""><img src=""images/park1.png"" class=""choice-option-img"" stage=""instructions"" position=""0"" ><div class=""choice-option-text""> Press ""1."" </div></div><div class=""choice-option""><img src=""images/park2.png"" class=""choice-option-img"" stage=""instructions"" position=""1"" ><div class=""choice-option-text""> Press ""2."" </div></div><div class=""choice-option""><img src=""images/park3.png"" class=""choice-option-img"" stage=""instructions"" position=""2"" ><div class=""choice-option-text""> Press ""3."" </div></div></div>","","0","instructions","","","","","","","","","","","","","",""
"html-button-response","40","251528","0.0-8.0-1.0","1526","2","2","""event"",""trial"",""time""
""fullscreenenter"",""1"",""3512""
","
","
","""event"",""trial"",""time""
""fullscreenenter"",""1"",""3512""
","
","","","","","","1074.3999999761581","<p> Ready to practice? </p>","0","","","","","","","","","","","","","","","",""
"html-keyboard-response","41","252153","0.0-8.0-2.0-0.0","1526","2","2","""event"",""trial"",""time""
""fullscreenenter"",""1"",""3512""
","
","
","""event"",""trial"",""time""
""fullscreenenter"",""1"",""3512""
","
","","","","","","null","<div style=""font-size:60px;"">+</div>","null","","fixation","","","","","","","","","","","","","",""
"learning-trial","42","256173","0.0-8.0-2.0-1.0","1526","2","2","""event"",""trial"",""time""
""fullscreenenter"",""1"",""3512""
","
","
","""event"",""trial"",""time""
""fullscreenenter"",""1"",""3512""
","
","","","","","","2.099999964237213","images/racket3.png","","","practice","images/park1.png","images/park3.png","images/park2.png","[0,2,1]","1","2","1","images/park1.png","-1","practice","","","",""
"html-keyboard-response","43","256682","0.0-8.0-2.0-0.1","1526","2","2","""event"",""trial"",""time""
""fullscreenenter"",""1"",""3512""
","
","
","""event"",""trial"",""time""
""fullscreenenter"",""1"",""3512""
","
","","","","","","null","<div style=""font-size:60px;"">+</div>","null","","fixation","","","","","","","","","","","","","",""
"learning-trial","44","260702","0.0-8.0-2.0-1.1","1526","2","2","""event"",""trial"",""time""
""fullscreenenter"",""1"",""3512""
","
","
","""event"",""trial"",""time""
""fullscreenenter"",""1"",""3512""
","
","","","","","","43.80000001192093","images/racket2.png","","","practice","images/park1.png","images/park2.png","images/park3.png","[0,1,2]","0","0","3","images/park3.png","-1","practice","","","",""
"html-keyboard-response","45","261223","0.0-8.0-2.0-0.2","1526","2","2","""event"",""trial"",""time""
""fullscreenenter"",""1"",""3512""
","
","
","""event"",""trial"",""time""
""fullscreenenter"",""1"",""3512""
","
","","","","","","null","<div style=""font-size:60px;"">+</div>","null","","fixation","","","","","","","","","","","","","",""
"learning-trial","46","265242","0.0-8.0-2.0-1.2","1526","2","2","""event"",""trial"",""time""
""fullscreenenter"",""1"",""3512""
","
","
","""event"",""trial"",""time""
""fullscreenenter"",""1"",""3512""
","
","","","","","","23.19999998807907","images/ball4.png","","","practice","images/park1.png","images/park2.png","images/park3.png","[0,1,2]","2","2","2","images/park2.png","-1","practice","","","",""
"html-keyboard-response","47","265752","0.0-8.0-2.0-0.3","1526","2","2","""event"",""trial"",""time""
""fullscreenenter"",""1"",""3512""
","
","
","""event"",""trial"",""time""
""fullscreenenter"",""1"",""3512""
","
","","","","","","null","<div style=""font-size:60px;"">+</div>","null","","fixation","","","","","","","","","","","","","",""
"learning-trial","48","269772","0.0-8.0-2.0-1.3","1526","2","2","""event"",""trial"",""time""
""fullscreenenter"",""1"",""3512""
","
","
","""event"",""trial"",""time""
""fullscreenenter"",""1"",""3512""
","
","","","","","","137","images/ball2.png","","","practice","images/park2.png","images/park1.png","images/park3.png","[1,0,2]","2","2","3","images/park3.png","1","practice","","","",""
"html-keyboard-response","49","270293","0.0-8.0-2.0-0.4","1526","2","2","""event"",""trial"",""time""
""fullscreenenter"",""1"",""3512""
","
","
","""event"",""trial"",""time""
""fullscreenenter"",""1"",""3512""
","
","","","","","","null","<div style=""font-size:60px;"">+</div>","null","","fixation","","","","","","","","","","","","","",""
"learning-trial","50","274302","0.0-8.0-2.0-1.4","1526","2","2","""event"",""trial"",""time""
""fullscreenenter"",""1"",""3512""
","
","
","""event"",""trial"",""time""
""fullscreenenter"",""1"",""3512""
","
","","","","","","40.5","images/ball3.png","","","practice","images/park3.png","images/park2.png","images/park1.png","[2,1,0]","1","1","3","images/park1.png","-1","practice","","","",""
"html-keyboard-response","51","274810","0.0-8.0-2.0-0.5","1526","2","2","""event"",""trial"",""time""
""fullscreenenter"",""1"",""3512""
","
","
","""event"",""trial"",""time""
""fullscreenenter"",""1"",""3512""
","
","","","","","","null","<div style=""font-size:60px;"">+</div>","null","","fixation","","","","","","","","","","","","","",""
"learning-trial","52","278832","0.0-8.0-2.0-1.5","1526","2","2","""event"",""trial"",""time""
""fullscreenenter"",""1"",""3512""
","
","
","""event"",""trial"",""time""
""fullscreenenter"",""1"",""3512""
","
","","","","","","27.30000001192093","images/ball3.png","","","practice","images/park3.png","images/park1.png","images/park2.png","[2,0,1]","1","2","3","images/park2.png","1","practice","","","",""
"html-keyboard-response","53","279337","0.0-8.0-2.0-0.6","1526","2","2","""event"",""trial"",""time""
""fullscreenenter"",""1"",""3512""
","
","
","""event"",""trial"",""time""
""fullscreenenter"",""1"",""3512""
","
","","","","","","null","<div style=""font-size:60px;"">+</div>","null","","fixation","","","","","","","","","","","","","",""
"learning-trial","54","283343","0.0-8.0-2.0-1.6","1526","2","2","""event"",""trial"",""time""
""fullscreenenter"",""1"",""3512""
","
","
","""event"",""trial"",""time""
""fullscreenenter"",""1"",""3512""
","
","","","","","","85.30000001192093","images/ball1.png","","","practice","images/park2.png","images/park3.png","images/park1.png","[1,2,0]","0","2","2","images/park3.png","-1","practice","","","",""
"html-keyboard-response","55","283845","0.0-8.0-2.0-0.7","1526","2","2","""event"",""trial"",""time""
""fullscreenenter"",""1"",""3512""
","
","
","""event"",""trial"",""time""
""fullscreenenter"",""1"",""3512""
","
","","","","","","null","<div style=""font-size:60px;"">+</div>","null","","fixation","","","","","","","","","","","","","",""
"learning-trial","56","287848","0.0-8.0-2.0-1.7","1526","2","2","""event"",""trial"",""time""
""fullscreenenter"",""1"",""3512""
","
","
","""event"",""trial"",""time""
""fullscreenenter"",""1"",""3512""
","
","","","","","","19.5","images/ball1.png","","","practice","images/park1.png","images/park2.png","images/park3.png","[0,1,2]","0","0","1","images/park1.png","1","practice","","","",""
"html-keyboard-response","57","288355","0.0-8.0-2.0-0.8","1526","2","2","""event"",""trial"",""time""
""fullscreenenter"",""1"",""3512""
","
","
","""event"",""trial"",""time""
""fullscreenenter"",""1"",""3512""
","
","","","","","","null","<div style=""font-size:60px;"">+</div>","null","","fixation","","","","","","","","","","","","","",""
"learning-trial","58","292373","0.0-8.0-2.0-1.8","1526","2","2","""event"",""trial"",""time""
""fullscreenenter"",""1"",""3512""
","
","
","""event"",""trial"",""time""
""fullscreenenter"",""1"",""3512""
","
","","","","","","132.60000002384186","images/ball4.png","","","practice","images/park1.png","images/park2.png","images/park3.png","[0,1,2]","2","2","3","images/park3.png","1","practice","","","",""
"html-keyboard-response","59","292882","0.0-8.0-2.0-0.9","1526","2","2","""event"",""trial"",""time""
""fullscreenenter"",""1"",""3512""
","
","
","""event"",""trial"",""time""
""fullscreenenter"",""1"",""3512""
","
","","","","","","null","<div style=""font-size:60px;"">+</div>","null","","fixation","","","","","","","","","","","","","",""
"learning-trial","60","296886","0.0-8.0-2.0-1.9","1526","2","2","""event"",""trial"",""time""
""fullscreenenter"",""1"",""3512""
","
","
","""event"",""trial"",""time""
""fullscreenenter"",""1"",""3512""
","
","","","","","","2.399999976158142","images/racket2.png","","","practice","images/park2.png","images/park1.png","images/park3.png","[1,0,2]","0","1","2","images/park1.png","1","practice","","","",""
"html-keyboard-response","61","297394","0.0-8.0-2.0-0.10","1526","2","2","""event"",""trial"",""time""
""fullscreenenter"",""1"",""3512""
","
","
","""event"",""trial"",""time""
""fullscreenenter"",""1"",""3512""
","
","","","","","","null","<div style=""font-size:60px;"">+</div>","null","","fixation","","","","","","","","","","","","","",""
"learning-trial","62","301398","0.0-8.0-2.0-1.10","1526","2","2","""event"",""trial"",""time""
""fullscreenenter"",""1"",""3512""
","
","
","""event"",""trial"",""time""
""fullscreenenter"",""1"",""3512""
","
","","","","","","505","images/ball2.png","","","practice","images/park2.png","images/park1.png","images/park3.png","[1,0,2]","2","2","1","images/park2.png","-1","practice","","","",""
"html-keyboard-response","63","301912","0.0-8.0-2.0-0.11","1526","2","2","""event"",""trial"",""time""
""fullscreenenter"",""1"",""3512""
","
","
","""event"",""trial"",""time""
""fullscreenenter"",""1"",""3512""
","
","","","","","","null","<div style=""font-size:60px;"">+</div>","null","","fixation","","","","","","","","","","","","","",""
"learning-trial","64","305920","0.0-8.0-2.0-1.11","1526","2","2","""event"",""trial"",""time""
""fullscreenenter"",""1"",""3512""
","
","
","""event"",""trial"",""time""
""fullscreenenter"",""1"",""3512""
","
","","","","","","1072.1000000238419","images/racket3.png","","","practice","images/park2.png","images/park1.png","images/park3.png","[1,0,2]","1","0","1","images/park2.png","1","practice","","","",""
"html-button-response","65","313308","0.0-8.0-3.0","1526","2","2","""event"",""trial"",""time""
""fullscreenenter"",""1"",""3512""
","
","
","""event"",""trial"",""time""
""fullscreenenter"",""1"",""3512""
","
","","","","","","7385","<p> You earned 0 points in the practice round! </p>","0","","break","","","","","","","","","","","","","",""
"learning-instructions","66","323708","0.0-8.0-4.0-0.0","1526","2","2","""event"",""trial"",""time""
""fullscreenenter"",""1"",""3512""
","
","
","""event"",""trial"",""time""
""fullscreenenter"",""1"",""3512""
","
","","","","","","1873","<p> It's almost time to start the real game. </p><p> Before you start, we're going to ask you a few questions about how the game works. </p>","","0","instructions","","","","","","","","","","","","","",""
"preload","67","326004","0.0-8.0-5.0","1526","2","2","""event"",""trial"",""time""
""fullscreenenter"",""1"",""3512""
","
","
","""event"",""trial"",""time""
""fullscreenenter"",""1"",""3512""
","
","true","false","[]","[]","[]","","","","","","","","","","","","","","","","","","",""
"comp-q","68","336475","0.0-8.0-6.0-0.0","1526","2","2","""event"",""trial"",""time""
""fullscreenenter"",""1"",""3512""
","
","
","""event"",""trial"",""time""
""fullscreenenter"",""1"",""3512""
","
","","","","","","5020.5","<p> <b> True or False? </b> </p><p> If you choose the best option, you will always earn 1 point. </p>","","1","comp_question","","","","","","","","","","","true","","",""
"comp-q","69","343248","0.0-8.0-6.0-1.0","1526","2","2","""event"",""trial"",""time""
""fullscreenenter"",""1"",""3512""
","
","
","""event"",""trial"",""time""
""fullscreenenter"",""1"",""3512""
","
","","","","","","1103.6000000238419","<p><b> That's right! </b> Sometimes you will lose 1 point, even if you choose the best option. </p>","","0","comp_answer","","","","","","","","","","","","","",""
"comp-q","70","350377","0.0-8.0-6.0-0.1","1526","2","2","""event"",""trial"",""time""
""fullscreenenter"",""1"",""3512""
","
","
","""event"",""trial"",""time""
""fullscreenenter"",""1"",""3512""
","
","","","","","","2481.900000035763","<p> <b> True or False? </b> </p><p> You will have as much time as you want to make each choice. </p>","","1","comp_question","","","","","","","","","","","true","","",""
"comp-q","71","356214","0.0-8.0-6.0-1.1","1526","2","2","""event"",""trial"",""time""
""fullscreenenter"",""1"",""3512""
","
","
","""event"",""trial"",""time""
""fullscreenenter"",""1"",""3512""
","
","","","","","","999.5","<p> <b> That's right! </b> You will only have 4 seconds to make each choice. </p>","","0","comp_answer","","","","","","","","","","","","","",""
"comp-q","72","363602","0.0-8.0-6.0-0.2","1526","2","2","""event"",""trial"",""time""
""fullscreenenter"",""1"",""3512""
","
","
","""event"",""trial"",""time""
""fullscreenenter"",""1"",""3512""
","
","","","","","","1218","<p> <b> True or False? </b> </p><p> You should use the '1', '2', and '3' keys to make your choices. </p>","","0","comp_question","","","","","","","","","","","true","","",""
"comp-q","73","369401","0.0-8.0-6.0-1.2","1526","2","2","""event"",""trial"",""time""
""fullscreenenter"",""1"",""3512""
","
","
","""event"",""trial"",""time""
""fullscreenenter"",""1"",""3512""
","
","","","","","","956.2000000476837","<p> <b> That's right! </b> You should use the '1', '2', and '3' keys to make each choice. </p>","","0","comp_answer","","","","","","","","","","","","","",""
"learning-instructions","74","379976","0.0-8.0-7.0-0.0","1526","2","2","""event"",""trial"",""time""
""fullscreenenter"",""1"",""3512""
","
","
","""event"",""trial"",""time""
""fullscreenenter"",""1"",""3512""
","
","","","","","","2073.899999976158","<p> It's now time to start the real game. </p>Do your best, because the points you earn in the next rounds will influence your bonus payment. </p>","","0","instructions","","","","","","","","","","","","","",""
"preload","75","382992","0.0-9.0-0.0","1526","2","2","""event"",""trial"",""time""
""fullscreenenter"",""1"",""3512""
","
","
","""event"",""trial"",""time""
""fullscreenenter"",""1"",""3512""
","
","true","false","[]","[]","[]","","","","","","","","","","","","","","","","","","",""
"learning-instructions","76","391336","0.0-9.0-1.0-0.0","1526","2","2","""event"",""trial"",""time""
""fullscreenenter"",""1"",""3512""
","
","
","""event"",""trial"",""time""
""fullscreenenter"",""1"",""3512""
","
","","","","","","1883","<p> Your goal in this round is to feed all of your pets with the foods they like. </p><p> You will need to feed many pets. </p></div>","","0","instructions","","","","","","","","","","","","","",""
"learning-instructions","77","400276","0.0-9.0-1.0-0.1","1526","2","2","""event"",""trial"",""time""
""fullscreenenter"",""1"",""3512""
","
","
","""event"",""trial"",""time""
""fullscreenenter"",""1"",""3512""
","
","","","","","","943.4000000357628","<p> On each turn, you will see a picture of one of your pets and three different types of foods.  </p><p> You need to select the food that you want to give to your pet.  </p>","","0","instructions","","","","","","","","","","","","","",""
"learning-instructions","78","407888","0.0-9.0-1.0-0.2","1526","2","2","""event"",""trial"",""time""
""fullscreenenter"",""1"",""3512""
","
","
","""event"",""trial"",""time""
""fullscreenenter"",""1"",""3512""
","
","","","","","","893.8000000119209","<p> You can select the food on the left by pressing 1, the food in the middle by pressing 2, and the food on the right by pressing 3. </p><br><div class=""choice-instructions-grid""> <div class=""choice-option""><img src=""images/pets_choice1.png"" class=""choice-option-img"" stage=""instructions"" position=""0"" ><div class=""choice-option-text""> Press ""1."" </div></div><div class=""choice-option""><img src=""images/pets_choice2.png"" class=""choice-option-img"" stage=""instructions"" position=""1"" ><div class=""choice-option-text""> Press ""2."" </div></div><div class=""choice-option""><img src=""images/pets_choice3.png"" class=""choice-option-img"" stage=""instructions"" position=""2"" ><div class=""choice-option-text""> Press ""3."" </div></div></div>","","0","instructions","","","","","","","","","","","","","",""
"learning-instructions","79","413672","0.0-9.0-1.0-0.3","1526","2","2","""event"",""trial"",""time""
""fullscreenenter"",""1"",""3512""
","
","
","""event"",""trial"",""time""
""fullscreenenter"",""1"",""3512""
","
","","","","","","1749.199999988079","<p> If your pet likes the food you chose, it will be very happy! </p><div style='float: center;'><img src='images/check.png' width = '200' height = '200'></img>","","0","instructions","","","","","","","","","","","","","",""
"learning-instructions","80","421683","0.0-9.0-1.0-0.4","1526","2","2","""event"",""trial"",""time""
""fullscreenenter"",""1"",""3512""
","
","
","""event"",""trial"",""time""
""fullscreenenter"",""1"",""3512""
","
","","","","","","3579.2000000476837","<p> But, if your pet does not like the food you chose, it will feel sick. </p><div style='float: center;'><img src='images/x.png' width = '200' height = '200'></img>","","0","instructions","","","","","","","","","","","","","",""
"learning-instructions","81","430414","0.0-9.0-1.0-0.5","1526","2","2","""event"",""trial"",""time""
""fullscreenenter"",""1"",""3512""
","
","
","""event"",""trial"",""time""
""fullscreenenter"",""1"",""3512""
","
","","","","","","1061","<p> Importantly, each pet has a food that it prefers. </p><p> If you choose the food that the pet prefers, it will be more likely to be happy! </p>","","0","instructions","","","","","","","","","","","","","",""
"learning-instructions","82","440670","0.0-9.0-1.0-0.6","1526","2","2","""event"",""trial"",""time""
""fullscreenenter"",""1"",""3512""
","
","
","""event"",""trial"",""time""
""fullscreenenter"",""1"",""3512""
","
","","","","","","634.5","<p> However, even if you choose the food the pet prefers, it may still feel sick sometimes. </p><p> Similarly, even if you choose the <i>wrong</i> food, it may still feel happy.","","0","instructions","","","","","","","","","","","","","",""
"learning-instructions","83","454770","0.0-9.0-1.0-0.7","1526","2","2","""event"",""trial"",""time""
""fullscreenenter"",""1"",""3512""
","
","
","""event"",""trial"",""time""
""fullscreenenter"",""1"",""3512""
","
","","","","","","1294.6000000238419","<p> Try to choose the food each pet prefers, because you will <b> WIN </b> 1 point each time the pet is happy and <b>LOSE</b>  1 point each time the pet feels sick. </p><p> Your bonus payment will depend on your total number of points.","","0","instructions","","","","","","","","","","","","","",""
"learning-instructions","84","463786","0.0-9.0-1.0-0.8","1526","2","2","""event"",""trial"",""time""
""fullscreenenter"",""1"",""3512""
","
","
","""event"",""trial"",""time""
""fullscreenenter"",""1"",""3512""
","
","","","","","","401.0999999642372","<p> The position of each food will change throughout the round. </p><p> The food's position <i> does not </i> influence how likely the pet is to feel happy or sick. </p>","","0","instructions","","","","","","","","","","","","","",""
"learning-instructions","85","476891","0.0-9.0-1.0-0.9","1526","2","2","""event"",""trial"",""time""
""fullscreenenter"",""1"",""3512""
","
","
","""event"",""trial"",""time""
""fullscreenenter"",""1"",""3512""
","
","","","","","","3796.100000023842","<p> You will have 4 seconds to make each choice. Try to respond before time runs out! </p><p> You will lose 1 point each time you do not make a response. </p>","","0","instructions","","","","","","","","","","","","","",""
"html-keyboard-response","86","477523","0.0-9.0-2.0-0.0","1526","2","2","""event"",""trial"",""time""
""fullscreenenter"",""1"",""3512""
","
","
","""event"",""trial"",""time""
""fullscreenenter"",""1"",""3512""
","
","","","","","","null","<div style=""font-size:60px;"">+</div>","null","","fixation","","","","","","","","","","","","","",""
"learning-trial","87","481527","0.0-9.0-2.0-1.0","1526","2","2","""event"",""trial"",""time""
""fullscreenenter"",""1"",""3512""
","
","
","""event"",""trial"",""time""
""fullscreenenter"",""1"",""3512""
","
","","","","","","675.4000000357628","images/rabbit4.png","","","learning","images/pets_choice2.png","images/pets_choice3.png","images/pets_choice1.png","[1,2,0]","0","2","1","images/pets_choice2.png","-1","pets","","rabbit","2","0"
"html-keyboard-response","88","482043","0.0-9.0-2.0-0.1","1526","2","2","""event"",""trial"",""time""
""fullscreenenter"",""1"",""3512""
","
","
","""event"",""trial"",""time""
""fullscreenenter"",""1"",""3512""
","
","","","","","","null","<div style=""font-size:60px;"">+</div>","null","","fixation","","","","","","","","","","","","","",""
"learning-trial","89","486053","0.0-9.0-2.0-1.1","1526","2","2","""event"",""trial"",""time""
""fullscreenenter"",""1"",""3512""
","
","
","""event"",""trial"",""time""
""fullscreenenter"",""1"",""3512""
","
","","","","","","81.19999998807907","images/rodent2.png","","","learning","images/pets_choice1.png","images/pets_choice3.png","images/pets_choice2.png","[0,2,1]","2","1","3","images/pets_choice2.png","-1","pets","","rodent","2","0"
"html-keyboard-response","90","486572","0.0-9.0-2.0-0.2","1526","2","2","""event"",""trial"",""time""
""fullscreenenter"",""1"",""3512""
","
","
","""event"",""trial"",""time""
""fullscreenenter"",""1"",""3512""
","
","","","","","","null","<div style=""font-size:60px;"">+</div>","null","","fixation","","","","","","","","","","","","","",""
"learning-trial","91","490583","0.0-9.0-2.0-1.2","1526","2","2","""event"",""trial"",""time""
""fullscreenenter"",""1"",""3512""
","
","
","""event"",""trial"",""time""
""fullscreenenter"",""1"",""3512""
","
","","","","","","88","images/dog5.png","","","learning","images/pets_choice3.png","images/pets_choice1.png","images/pets_choice2.png","[2,0,1]","0","1","3","images/pets_choice2.png","-1","pets","","dog","2","0"
"html-keyboard-response","92","491086","0.0-9.0-2.0-0.3","1526","2","2","""event"",""trial"",""time""
""fullscreenenter"",""1"",""3512""
","
","
","""event"",""trial"",""time""
""fullscreenenter"",""1"",""3512""
","
","","","","","","null","<div style=""font-size:60px;"">+</div>","null","","fixation","","","","","","","","","","","","","",""
"learning-trial","93","495096","0.0-9.0-2.0-1.3","1526","2","2","""event"",""trial"",""time""
""fullscreenenter"",""1"",""3512""
","
","
","""event"",""trial"",""time""
""fullscreenenter"",""1"",""3512""
","
","","","","","","53.39999997615814","images/dog5.png","","","learning","images/pets_choice2.png","images/pets_choice1.png","images/pets_choice3.png","[1,0,2]","0","1","2","images/pets_choice1.png","1","pets","","dog","2","0"
"html-keyboard-response","94","495612","0.0-9.0-2.0-0.4","1526","2","2","""event"",""trial"",""time""
""fullscreenenter"",""1"",""3512""
","
","
","""event"",""trial"",""time""
""fullscreenenter"",""1"",""3512""
","
","","","","","","null","<div style=""font-size:60px;"">+</div>","null","","fixation","","","","","","","","","","","","","",""
"learning-trial","95","499623","0.0-9.0-2.0-1.4","1526","2","2","""event"",""trial"",""time""
""fullscreenenter"",""1"",""3512""
","
","
","""event"",""trial"",""time""
""fullscreenenter"",""1"",""3512""
","
","","","","","","228.80000001192093","images/rabbit4.png","","","learning","images/pets_choice1.png","images/pets_choice2.png","images/pets_choice3.png","[0,1,2]","0","0","1","images/pets_choice1.png","1","pets","","rabbit","2","0"
"html-keyboard-response","96","500133","0.0-9.0-2.0-0.5","1526","2","2","""event"",""trial"",""time""
""fullscreenenter"",""1"",""3512""
","
","
","""event"",""trial"",""time""
""fullscreenenter"",""1"",""3512""
","
","","","","","","null","<div style=""font-size:60px;"">+</div>","null","","fixation","","","","","","","","","","","","","",""
"learning-trial","97","504139","0.0-9.0-2.0-1.5","1526","2","2","""event"",""trial"",""time""
""fullscreenenter"",""1"",""3512""
","
","
","""event"",""trial"",""time""
""fullscreenenter"",""1"",""3512""
","
","","","","","","132.89999997615814","images/rabbit4.png","","","learning","images/pets_choice2.png","images/pets_choice1.png","images/pets_choice3.png","[1,0,2]","0","1","3","images/pets_choice3.png","-1","pets","","rabbit","2","0"
"html-keyboard-response","98","504641","0.0-9.0-2.0-0.6","1526","2","2","""event"",""trial"",""time""
""fullscreenenter"",""1"",""3512""
","
","
","""event"",""trial"",""time""
""fullscreenenter"",""1"",""3512""
","
","","","","","","null","<div style=""font-size:60px;"">+</div>","null","","fixation","","","","","","","","","","","","","",""
"learning-trial","99","508645","0.0-9.0-2.0-1.6","1526","2","2","""event"",""trial"",""time""
""fullscreenenter"",""1"",""3512""
","
","
","""event"",""trial"",""time""
""fullscreenenter"",""1"",""3512""
","
","","","","","","96.60000002384186","images/rabbit4.png","","","learning","images/pets_choice2.png","images/pets_choice3.png","images/pets_choice1.png","[1,2,0]","0","2","3","images/pets_choice1.png","-1","pets","","rabbit","2","0"
"html-keyboard-response","100","509151","0.0-9.0-2.0-0.7","1526","2","2","""event"",""trial"",""time""
""fullscreenenter"",""1"",""3512""
","
","
","""event"",""trial"",""time""
""fullscreenenter"",""1"",""3512""
","
","","","","","","null","<div style=""font-size:60px;"">+</div>","null","","fixation","","","","","","","","","","","","","",""
"learning-trial","101","513157","0.0-9.0-2.0-1.7","1526","2","2","""event"",""trial"",""time""
""fullscreenenter"",""1"",""3512""
","
","
","""event"",""trial"",""time""
""fullscreenenter"",""1"",""3512""
","
","","","","","","21.69999998807907","images/rodent2.png","","","learning","images/pets_choice3.png","images/pets_choice1.png","images/pets_choice2.png","[2,0,1]","2","0","1","images/pets_choice3.png","1","pets","","rodent","2","0"
"html-keyboard-response","102","513665","0.0-9.0-2.0-0.8","1526","2","2","""event"",""trial"",""time""
""fullscreenenter"",""1"",""3512""
","
","
","""event"",""trial"",""time""
""fullscreenenter"",""1"",""3512""
","
","","","","","","null","<div style=""font-size:60px;"">+</div>","null","","fixation","","","","","","","","","","","","","",""
"learning-trial","103","517673","0.0-9.0-2.0-1.8","1526","2","2","""event"",""trial"",""time""
""fullscreenenter"",""1"",""3512""
","
","
","""event"",""trial"",""time""
""fullscreenenter"",""1"",""3512""
","
","","","","","","149.10000002384186","images/rodent3.png","","","learning","images/pets_choice1.png","images/pets_choice2.png","images/pets_choice3.png","[0,1,2]","1","1","1","images/pets_choice1.png","-1","pets","","rodent","2","0"
"html-keyboard-response","104","518182","0.0-9.0-2.0-0.9","1526","2","2","""event"",""trial"",""time""
""fullscreenenter"",""1"",""3512""
","
","
","""event"",""trial"",""time""
""fullscreenenter"",""1"",""3512""
","
","","","","","","null","<div style=""font-size:60px;"">+</div>","null","","fixation","","","","","","","","","","","","","",""
"learning-trial","105","522191","0.0-9.0-2.0-1.9","1526","2","2","""event"",""trial"",""time""
""fullscreenenter"",""1"",""3512""
","
","
","""event"",""trial"",""time""
""fullscreenenter"",""1"",""3512""
","
","","","","","","448.80000001192093","images/dog5.png","","","learning","images/pets_choice2.png","images/pets_choice1.png","images/pets_choice3.png","[1,0,2]","0","1","1","images/pets_choice2.png","-1","pets","","dog","2","0"
"html-keyboard-response","106","522700","0.0-9.0-2.0-0.10","1526","2","2","""event"",""trial"",""time""
""fullscreenenter"",""1"",""3512""
","
","
","""event"",""trial"",""time""
""fullscreenenter"",""1"",""3512""
","
","","","","","","null","<div style=""font-size:60px;"">+</div>","null","","fixation","","","","","","","","","","","","","",""
"learning-trial","107","526706","0.0-9.0-2.0-1.10","1526","2","2","""event"",""trial"",""time""
""fullscreenenter"",""1"",""3512""
","
","
","""event"",""trial"",""time""
""fullscreenenter"",""1"",""3512""
","
","","","","","","53.60000002384186","images/dog4.png","","","learning","images/pets_choice3.png","images/pets_choice1.png","images/pets_choice2.png","[2,0,1]","1","2","1","images/pets_choice3.png","-1","pets","","dog","2","0"
"html-keyboard-response","108","527213","0.0-9.0-2.0-0.11","1526","2","2","""event"",""trial"",""time""
""fullscreenenter"",""1"",""3512""
","
","
","""event"",""trial"",""time""
""fullscreenenter"",""1"",""3512""
","
","","","","","","null","<div style=""font-size:60px;"">+</div>","null","","fixation","","","","","","","","","","","","","",""
"learning-trial","109","531217","0.0-9.0-2.0-1.11","1526","2","2","""event"",""trial"",""time""
""fullscreenenter"",""1"",""3512""
","
","
","""event"",""trial"",""time""
""fullscreenenter"",""1"",""3512""
","
","","","","","","67.19999998807907","images/rabbit2.png","","","learning","images/pets_choice2.png","images/pets_choice1.png","images/pets_choice3.png","[1,0,2]","2","2","2","images/pets_choice1.png","-1","pets","","rabbit","2","0"
"html-keyboard-response","110","531719","0.0-9.0-2.0-0.12","1526","2","2","""event"",""trial"",""time""
""fullscreenenter"",""1"",""3512""
","
","
","""event"",""trial"",""time""
""fullscreenenter"",""1"",""3512""
","
","","","","","","null","<div style=""font-size:60px;"">+</div>","null","","fixation","","","","","","","","","","","","","",""
"learning-trial","111","535730","0.0-9.0-2.0-1.12","1526","2","2","""event"",""trial"",""time""
""fullscreenenter"",""1"",""3512""
","
","
","""event"",""trial"",""time""
""fullscreenenter"",""1"",""3512""
","
","","","","","","108","images/rabbit4.png","","","learning","images/pets_choice2.png","images/pets_choice3.png","images/pets_choice1.png","[1,2,0]","0","2","2","images/pets_choice3.png","-1","pets","","rabbit","2","0"
"html-keyboard-response","112","536234","0.0-9.0-2.0-0.13","1526","2","2","""event"",""trial"",""time""
""fullscreenenter"",""1"",""3512""
","
","
","""event"",""trial"",""time""
""fullscreenenter"",""1"",""3512""
","
","","","","","","null","<div style=""font-size:60px;"">+</div>","null","","fixation","","","","","","","","","","","","","",""
"learning-trial","113","540239","0.0-9.0-2.0-1.13","1526","2","2","""event"",""trial"",""time""
""fullscreenenter"",""1"",""3512""
","
","
","""event"",""trial"",""time""
""fullscreenenter"",""1"",""3512""
","
","","","","","","361.5","images/rodent3.png","","","learning","images/pets_choice1.png","images/pets_choice3.png","images/pets_choice2.png","[0,2,1]","1","2","1","images/pets_choice1.png","-1","pets","","rodent","2","0"
"html-keyboard-response","114","540747","0.0-9.0-2.0-0.14","1526","2","2","""event"",""trial"",""time""
""fullscreenenter"",""1"",""3512""
","
","
","""event"",""trial"",""time""
""fullscreenenter"",""1"",""3512""
","
","","","","","","null","<div style=""font-size:60px;"">+</div>","null","","fixation","","","","","","","","","","","","","",""
"learning-trial","115","544751","0.0-9.0-2.0-1.14","1526","2","2","""event"",""trial"",""time""
""fullscreenenter"",""1"",""3512""
","
","
","""event"",""trial"",""time""
""fullscreenenter"",""1"",""3512""
","
","","","","","","448.5","images/rabbit2.png","","","learning","images/pets_choice3.png","images/pets_choice2.png","images/pets_choice1.png","[2,1,0]","2","0","1","images/pets_choice3.png","1","pets","","rabbit","2","0"
"html-keyboard-response","116","545254","0.0-9.0-2.0-0.15","1526","2","2","""event"",""trial"",""time""
""fullscreenenter"",""1"",""3512""
","
","
","""event"",""trial"",""time""
""fullscreenenter"",""1"",""3512""
","
","","","","","","null","<div style=""font-size:60px;"">+</div>","null","","fixation","","","","","","","","","","","","","",""
"learning-trial","117","549263","0.0-9.0-2.0-1.15","1526","2","2","""event"",""trial"",""time""
""fullscreenenter"",""1"",""3512""
","
","
","""event"",""trial"",""time""
""fullscreenenter"",""1"",""3512""
","
","","","","","","97.40000003576279","images/rabbit5.png","","","learning","images/pets_choice1.png","images/pets_choice3.png","images/pets_choice2.png","[0,2,1]","1","2","2","images/pets_choice3.png","-1","pets","","rabbit","2","0"
"html-keyboard-response","118","549772","0.0-9.0-2.0-0.16","1526","2","2","""event"",""trial"",""time""
""fullscreenenter"",""1"",""3512""
","
","
","""event"",""trial"",""time""
""fullscreenenter"",""1"",""3512""
","
","","","","","","null","<div style=""font-size:60px;"">+</div>","null","","fixation","","","","","","","","","","","","","",""
"learning-trial","119","553779","0.0-9.0-2.0-1.16","1526","2","2","""event"",""trial"",""time""
""fullscreenenter"",""1"",""3512""
","
","
","""event"",""trial"",""time""
""fullscreenenter"",""1"",""3512""
","
","","","","","","165.4000000357628","images/rabbit2.png","","","learning","images/pets_choice3.png","images/pets_choice1.png","images/pets_choice2.png","[2,0,1]","2","0","2","images/pets_choice1.png","1","pets","","rabbit","2","0"
"html-keyboard-response","120","554282","0.0-9.0-2.0-0.17","1526","2","2","""event"",""trial"",""time""
""fullscreenenter"",""1"",""3512""
","
","
","""event"",""trial"",""time""
""fullscreenenter"",""1"",""3512""
","
","","","","","","null","<div style=""font-size:60px;"">+</div>","null","","fixation","","","","","","","","","","","","","",""
"learning-trial","121","558282","0.0-9.0-2.0-1.17","1526","2","2","""event"",""trial"",""time""
""fullscreenenter"",""1"",""3512""
","
","
","""event"",""trial"",""time""
""fullscreenenter"",""1"",""3512""
","
","","","","","","66.5","images/dog1.png","","","learning","images/pets_choice1.png","images/pets_choice3.png","images/pets_choice2.png","[0,2,1]","2","1","1","images/pets_choice1.png","-1","pets","","dog","2","0"
"html-keyboard-response","122","558791","0.0-9.0-2.0-0.18","1526","2","2","""event"",""trial"",""time""
""fullscreenenter"",""1"",""3512""
","
","
","""event"",""trial"",""time""
""fullscreenenter"",""1"",""3512""
","
","","","","","","null","<div style=""font-size:60px;"">+</div>","null","","fixation","","","","","","","","","","","","","",""
"learning-trial","123","562799","0.0-9.0-2.0-1.18","1526","2","2","""event"",""trial"",""time""
""fullscreenenter"",""1"",""3512""
","
","
","""event"",""trial"",""time""
""fullscreenenter"",""1"",""3512""
","
","","","","","","50.39999997615814","images/rabbit5.png","","","learning","images/pets_choice3.png","images/pets_choice2.png","images/pets_choice1.png","[2,1,0]","1","1","1","images/pets_choice3.png","-1","pets","","rabbit","2","0"
"html-keyboard-response","124","563307","0.0-9.0-2.0-0.19","1526","2","2","""event"",""trial"",""time""
""fullscreenenter"",""1"",""3512""
","
","
","""event"",""trial"",""time""
""fullscreenenter"",""1"",""3512""
","
","","","","","","null","<div style=""font-size:60px;"">+</div>","null","","fixation","","","","","","","","","","","","","",""
"learning-trial","125","567313","0.0-9.0-2.0-1.19","1526","2","2","""event"",""trial"",""time""
""fullscreenenter"",""1"",""3512""
","
","
","""event"",""trial"",""time""
""fullscreenenter"",""1"",""3512""
","
","","","","","","101.80000001192093","images/rodent3.png","","","learning","images/pets_choice2.png","images/pets_choice3.png","images/pets_choice1.png","[1,2,0]","1","0","1","images/pets_choice2.png","1","pets","","rodent","2","0"
"html-keyboard-response","126","567815","0.0-9.0-2.0-0.20","1526","2","2","""event"",""trial"",""time""
""fullscreenenter"",""1"",""3512""
","
","
","""event"",""trial"",""time""
""fullscreenenter"",""1"",""3512""
","
","","","","","","null","<div style=""font-size:60px;"">+</div>","null","","fixation","","","","","","","","","","","","","",""
"learning-trial","127","571831","0.0-9.0-2.0-1.20","1526","2","2","""event"",""trial"",""time""
""fullscreenenter"",""1"",""3512""
","
","
","""event"",""trial"",""time""
""fullscreenenter"",""1"",""3512""
","
","","","","","","42.80000001192093","images/dog4.png","","","learning","images/pets_choice1.png","images/pets_choice3.png","images/pets_choice2.png","[0,2,1]","1","2","3","images/pets_choice2.png","1","pets","","dog","2","0"
"html-keyboard-response","128","572337","0.0-9.0-2.0-0.21","1526","2","2","""event"",""trial"",""time""
""fullscreenenter"",""1"",""3512""
","
","
","""event"",""trial"",""time""
""fullscreenenter"",""1"",""3512""
","
","","","","","","null","<div style=""font-size:60px;"">+</div>","null","","fixation","","","","","","","","","","","","","",""
"learning-trial","129","576346","0.0-9.0-2.0-1.21","1526","2","2","""event"",""trial"",""time""
""fullscreenenter"",""1"",""3512""
","
","
","""event"",""trial"",""time""
""fullscreenenter"",""1"",""3512""
","
","","","","","","131","images/dog1.png","","","learning","images/pets_choice3.png","images/pets_choice2.png","images/pets_choice1.png","[2,1,0]","2","0","2","images/pets_choice2.png","-1","pets","","dog","2","0"
"html-keyboard-response","130","576849","0.0-9.0-2.0-0.22","1526","2","2","""event"",""trial"",""time""
""fullscreenenter"",""1"",""3512""
","
","
","""event"",""trial"",""time""
""fullscreenenter"",""1"",""3512""
","
","","","","","","null","<div style=""font-size:60px;"">+</div>","null","","fixation","","","","","","","","","","","","","",""
"learning-trial","131","580854","0.0-9.0-2.0-1.22","1526","2","2","""event"",""trial"",""time""
""fullscreenenter"",""1"",""3512""
","
","
","""event"",""trial"",""time""
""fullscreenenter"",""1"",""3512""
","
","","","","","","125.60000002384186","images/rabbit5.png","","","learning","images/pets_choice1.png","images/pets_choice2.png","images/pets_choice3.png","[0,1,2]","1","1","1","images/pets_choice1.png","-1","pets","","rabbit","2","0"
"html-keyboard-response","132","581356","0.0-9.0-2.0-0.23","1526","2","2","""event"",""trial"",""time""
""fullscreenenter"",""1"",""3512""
","
","
","""event"",""trial"",""time""
""fullscreenenter"",""1"",""3512""
","
","","","","","","null","<div style=""font-size:60px;"">+</div>","null","","fixation","","","","","","","","","","","","","",""
"learning-trial","133","585366","0.0-9.0-2.0-1.23","1526","2","2","""event"",""trial"",""time""
""fullscreenenter"",""1"",""3512""
","
","
","""event"",""trial"",""time""
""fullscreenenter"",""1"",""3512""
","
","","","","","","161.20000004768372","images/rabbit5.png","","","learning","images/pets_choice3.png","images/pets_choice2.png","images/pets_choice1.png","[2,1,0]","1","1","3","images/pets_choice1.png","-1","pets","","rabbit","2","0"
"html-keyboard-response","134","585873","0.0-9.0-2.0-0.24","1526","2","2","""event"",""trial"",""time""
""fullscreenenter"",""1"",""3512""
","
","
","""event"",""trial"",""time""
""fullscreenenter"",""1"",""3512""
","
","","","","","","null","<div style=""font-size:60px;"">+</div>","null","","fixation","","","","","","","","","","","","","",""
"learning-trial","135","589879","0.0-9.0-2.0-1.24","1526","2","2","""event"",""trial"",""time""
""fullscreenenter"",""1"",""3512""
","
","
","""event"",""trial"",""time""
""fullscreenenter"",""1"",""3512""
","
","","","","","","85.60000002384186","images/dog5.png","","","learning","images/pets_choice2.png","images/pets_choice3.png","images/pets_choice1.png","[1,2,0]","0","2","3","images/pets_choice1.png","1","pets","","dog","2","0"
"html-keyboard-response","136","590388","0.0-9.0-2.0-0.25","1526","2","2","""event"",""trial"",""time""
""fullscreenenter"",""1"",""3512""
","
","
","""event"",""trial"",""time""
""fullscreenenter"",""1"",""3512""
","
","","","","","","null","<div style=""font-size:60px;"">+</div>","null","","fixation","","","","","","","","","","","","","",""
"learning-trial","137","594395","0.0-9.0-2.0-1.25","1526","2","2","""event"",""trial"",""time""
""fullscreenenter"",""1"",""3512""
","
","
","""event"",""trial"",""time""
""fullscreenenter"",""1"",""3512""
","
","","","","","","947.3000000119209","images/rodent2.png","","","learning","images/pets_choice2.png","images/pets_choice1.png","images/pets_choice3.png","[1,0,2]","2","2","3","images/pets_choice3.png","1","pets","","rodent","2","0"
"html-keyboard-response","138","594911","0.0-9.0-2.0-0.26","1526","2","2","""event"",""trial"",""time""
""fullscreenenter"",""1"",""3512""
","
","
","""event"",""trial"",""time""
""fullscreenenter"",""1"",""3512""
","
","","","","","","null","<div style=""font-size:60px;"">+</div>","null","","fixation","","","","","","","","","","","","","",""
"learning-trial","139","598919","0.0-9.0-2.0-1.26","1526","2","2","""event"",""trial"",""time""
""fullscreenenter"",""1"",""3512""
","
","
","""event"",""trial"",""time""
""fullscreenenter"",""1"",""3512""
","
","","","","","","51.200000047683716","images/dog1.png","","","learning","images/pets_choice1.png","images/pets_choice3.png","images/pets_choice2.png","[0,2,1]","2","1","2","images/pets_choice3.png","1","pets","","dog","2","0"
"html-keyboard-response","140","599426","0.0-9.0-2.0-0.27","1526","2","2","""event"",""trial"",""time""
""fullscreenenter"",""1"",""3512""
","
","
","""event"",""trial"",""time""
""fullscreenenter"",""1"",""3512""
","
","","","","","","null","<div style=""font-size:60px;"">+</div>","null","","fixation","","","","","","","","","","","","","",""
"learning-trial","141","603437","0.0-9.0-2.0-1.27","1526","2","2","""event"",""trial"",""time""
""fullscreenenter"",""1"",""3512""
","
","
","""event"",""trial"",""time""
""fullscreenenter"",""1"",""3512""
","
","","","","","","146.19999998807907","images/rodent3.png","","","learning","images/pets_choice2.png","images/pets_choice1.png","images/pets_choice3.png","[1,0,2]","1","0","1","images/pets_choice2.png","-1","pets","","rodent","2","0"
"html-keyboard-response","142","603945","0.0-9.0-2.0-0.28","1526","2","2","""event"",""trial"",""time""
""fullscreenenter"",""1"",""3512""
","
","
","""event"",""trial"",""time""
""fullscreenenter"",""1"",""3512""
","
","","","","","","null","<div style=""font-size:60px;"">+</div>","null","","fixation","","","","","","","","","","","","","",""
"learning-trial","143","607953","0.0-9.0-2.0-1.28","1526","2","2","""event"",""trial"",""time""
""fullscreenenter"",""1"",""3512""
","
","
","""event"",""trial"",""time""
""fullscreenenter"",""1"",""3512""
","
","","","","","","121.80000001192093","images/dog4.png","","","learning","images/pets_choice3.png","images/pets_choice2.png","images/pets_choice1.png","[2,1,0]","1","1","1","images/pets_choice3.png","-1","pets","","dog","2","0"
"html-keyboard-response","144","608460","0.0-9.0-2.0-0.29","1526","2","2","""event"",""trial"",""time""
""fullscreenenter"",""1"",""3512""
","
","
","""event"",""trial"",""time""
""fullscreenenter"",""1"",""3512""
","
","","","","","","null","<div style=""font-size:60px;"">+</div>","null","","fixation","","","","","","","","","","","","","",""
"learning-trial","145","612469","0.0-9.0-2.0-1.29","1526","2","2","""event"",""trial"",""time""
""fullscreenenter"",""1"",""3512""
","
","
","""event"",""trial"",""time""
""fullscreenenter"",""1"",""3512""
","
","","","","","","195","images/rabbit4.png","","","learning","images/pets_choice1.png","images/pets_choice3.png","images/pets_choice2.png","[0,2,1]","0","0","1","images/pets_choice1.png","1","pets","","rabbit","2","0"
"html-keyboard-response","146","612971","0.0-9.0-2.0-0.30","1526","2","2","""event"",""trial"",""time""
""fullscreenenter"",""1"",""3512""
","
","
","""event"",""trial"",""time""
""fullscreenenter"",""1"",""3512""
","
","","","","","","null","<div style=""font-size:60px;"">+</div>","null","","fixation","","","","","","","","","","","","","",""
"learning-trial","147","616993","0.0-9.0-2.0-1.30","1526","2","2","""event"",""trial"",""time""
""fullscreenenter"",""1"",""3512""
","
","
","""event"",""trial"",""time""
""fullscreenenter"",""1"",""3512""
","
","","","","","","118.09999996423721","images/dog1.png","","","learning","images/pets_choice2.png","images/pets_choice1.png","images/pets_choice3.png","[1,0,2]","2","2","3","images/pets_choice3.png","1","pets","","dog","2","0"
"html-keyboard-response","148","617500","0.0-9.0-2.0-0.31","1526","2","2","""event"",""trial"",""time""
""fullscreenenter"",""1"",""3512""
","
","
","""event"",""trial"",""time""
""fullscreenenter"",""1"",""3512""
","
","","","","","","null","<div style=""font-size:60px;"">+</div>","null","","fixation","","","","","","","","","","","","","",""
"learning-trial","149","621519","0.0-9.0-2.0-1.31","1526","2","2","""event"",""trial"",""time""
""fullscreenenter"",""1"",""3512""
","
","
","""event"",""trial"",""time""
""fullscreenenter"",""1"",""3512""
","
","","","","","","3.100000023841858","images/rodent2.png","","","learning","images/pets_choice3.png","images/pets_choice1.png","images/pets_choice2.png","[2,0,1]","2","0","3","images/pets_choice2.png","-1","pets","","rodent","2","0"
"html-keyboard-response","150","622024","0.0-9.0-2.0-0.32","1526","2","2","""event"",""trial"",""time""
""fullscreenenter"",""1"",""3512""
","
","
","""event"",""trial"",""time""
""fullscreenenter"",""1"",""3512""
","
","","","","","","null","<div style=""font-size:60px;"">+</div>","null","","fixation","","","","","","","","","","","","","",""
"learning-trial","151","626032","0.0-9.0-2.0-1.32","1526","2","2","""event"",""trial"",""time""
""fullscreenenter"",""1"",""3512""
","
","
","""event"",""trial"",""time""
""fullscreenenter"",""1"",""3512""
","
","","","","","","117.19999998807907","images/dog5.png","","","learning","images/pets_choice3.png","images/pets_choice2.png","images/pets_choice1.png","[2,1,0]","0","2","2","images/pets_choice2.png","-1","pets","","dog","2","0"
"html-keyboard-response","152","626537","0.0-9.0-2.0-0.33","1526","2","2","""event"",""trial"",""time""
""fullscreenenter"",""1"",""3512""
","
","
","""event"",""trial"",""time""
""fullscreenenter"",""1"",""3512""
","
","","","","","","null","<div style=""font-size:60px;"">+</div>","null","","fixation","","","","","","","","","","","","","",""
"learning-trial","153","630550","0.0-9.0-2.0-1.33","1526","2","2","""event"",""trial"",""time""
""fullscreenenter"",""1"",""3512""
","
","
","""event"",""trial"",""time""
""fullscreenenter"",""1"",""3512""
","
","","","","","","48.10000002384186","images/rodent4.png","","","learning","images/pets_choice3.png","images/pets_choice2.png","images/pets_choice1.png","[2,1,0]","0","2","3","images/pets_choice1.png","1","pets","","rodent","2","0"
"html-keyboard-response","154","631051","0.0-9.0-2.0-0.34","1526","2","2","""event"",""trial"",""time""
""fullscreenenter"",""1"",""3512""
","
","
","""event"",""trial"",""time""
""fullscreenenter"",""1"",""3512""
","
","","","","","","null","<div style=""font-size:60px;"">+</div>","null","","fixation","","","","","","","","","","","","","",""
"learning-trial","155","635058","0.0-9.0-2.0-1.34","1526","2","2","""event"",""trial"",""time""
""fullscreenenter"",""1"",""3512""
","
","
","""event"",""trial"",""time""
""fullscreenenter"",""1"",""3512""
","
","","","","","","208.10000002384186","images/rabbit4.png","","","learning","images/pets_choice1.png","images/pets_choice2.png","images/pets_choice3.png","[0,1,2]","0","0","3","images/pets_choice3.png","-1","pets","","rabbit","2","0"
"html-keyboard-response","156","635566","0.0-9.0-2.0-0.35","1526","2","2","""event"",""trial"",""time""
""fullscreenenter"",""1"",""3512""
","
","
","""event"",""trial"",""time""
""fullscreenenter"",""1"",""3512""
","
","","","","","","null","<div style=""font-size:60px;"">+</div>","null","","fixation","","","","","","","","","","","","","",""
"learning-trial","157","639571","0.0-9.0-2.0-1.35","1526","2","2","""event"",""trial"",""time""
""fullscreenenter"",""1"",""3512""
","
","
","""event"",""trial"",""time""
""fullscreenenter"",""1"",""3512""
","
","","","","","","22.19999998807907","images/dog4.png","","","learning","images/pets_choice2.png","images/pets_choice3.png","images/pets_choice1.png","[1,2,0]","1","0","1","images/pets_choice2.png","1","pets","","dog","2","0"
"html-keyboard-response","158","640075","0.0-9.0-2.0-0.36","1526","2","2","""event"",""trial"",""time""
""fullscreenenter"",""1"",""3512""
","
","
","""event"",""trial"",""time""
""fullscreenenter"",""1"",""3512""
","
","","","","","","null","<div style=""font-size:60px;"">+</div>","null","","fixation","","","","","","","","","","","","","",""
"learning-trial","159","644081","0.0-9.0-2.0-1.36","1526","2","2","""event"",""trial"",""time""
""fullscreenenter"",""1"",""3512""
","
","
","""event"",""trial"",""time""
""fullscreenenter"",""1"",""3512""
","
","","","","","","12.5","images/rabbit2.png","","","learning","images/pets_choice1.png","images/pets_choice3.png","images/pets_choice2.png","[0,2,1]","2","1","1","images/pets_choice1.png","-1","pets","","rabbit","2","0"
"html-keyboard-response","160","644582","0.0-9.0-2.0-0.37","1526","2","2","""event"",""trial"",""time""
""fullscreenenter"",""1"",""3512""
","
","
","""event"",""trial"",""time""
""fullscreenenter"",""1"",""3512""
","
","","","","","","null","<div style=""font-size:60px;"">+</div>","null","","fixation","","","","","","","","","","","","","",""
"learning-trial","161","648589","0.0-9.0-2.0-1.37","1526","2","2","""event"",""trial"",""time""
""fullscreenenter"",""1"",""3512""
","
","
","""event"",""trial"",""time""
""fullscreenenter"",""1"",""3512""
","
","","","","","","22.200000047683716","images/dog4.png","","","learning","images/pets_choice3.png","images/pets_choice2.png","images/pets_choice1.png","[2,1,0]","1","1","1","images/pets_choice3.png","-1","pets","","dog","2","0"
"html-keyboard-response","162","649098","0.0-9.0-2.0-0.38","1526","2","2","""event"",""trial"",""time""
""fullscreenenter"",""1"",""3512""
","
","
","""event"",""trial"",""time""
""fullscreenenter"",""1"",""3512""
","
","","","","","","null","<div style=""font-size:60px;"">+</div>","null","","fixation","","","","","","","","","","","","","",""
"learning-trial","163","653109","0.0-9.0-2.0-1.38","1526","2","2","""event"",""trial"",""time""
""fullscreenenter"",""1"",""3512""
","
","
","""event"",""trial"",""time""
""fullscreenenter"",""1"",""3512""
","
","","","","","","73.90000003576279","images/dog1.png","","","learning","images/pets_choice2.png","images/pets_choice1.png","images/pets_choice3.png","[1,0,2]","2","2","1","images/pets_choice2.png","-1","pets","","dog","2","0"
"html-keyboard-response","164","653615","0.0-9.0-2.0-0.39","1526","2","2","""event"",""trial"",""time""
""fullscreenenter"",""1"",""3512""
","
","
","""event"",""trial"",""time""
""fullscreenenter"",""1"",""3512""
","
","","","","","","null","<div style=""font-size:60px;"">+</div>","null","","fixation","","","","","","","","","","","","","",""
"learning-trial","165","657623","0.0-9.0-2.0-1.39","1526","2","2","""event"",""trial"",""time""
""fullscreenenter"",""1"",""3512""
","
","
","""event"",""trial"",""time""
""fullscreenenter"",""1"",""3512""
","
","","","","","","58.90000003576279","images/rabbit5.png","","","learning","images/pets_choice3.png","images/pets_choice1.png","images/pets_choice2.png","[2,0,1]","1","2","1","images/pets_choice3.png","-1","pets","","rabbit","2","0"
"html-keyboard-response","166","658124","0.0-9.0-2.0-0.40","1526","2","2","""event"",""trial"",""time""
""fullscreenenter"",""1"",""3512""
","
","
","""event"",""trial"",""time""
""fullscreenenter"",""1"",""3512""
","
","","","","","","null","<div style=""font-size:60px;"">+</div>","null","","fixation","","","","","","","","","","","","","",""
"learning-trial","167","662131","0.0-9.0-2.0-1.40","1526","2","2","""event"",""trial"",""time""
""fullscreenenter"",""1"",""3512""
","
","
","""event"",""trial"",""time""
""fullscreenenter"",""1"",""3512""
","
","","","","","","121.30000001192093","images/rodent3.png","","","learning","images/pets_choice3.png","images/pets_choice2.png","images/pets_choice1.png","[2,1,0]","1","1","3","images/pets_choice1.png","-1","pets","","rodent","2","0"
"html-keyboard-response","168","662633","0.0-9.0-2.0-0.41","1526","2","2","""event"",""trial"",""time""
""fullscreenenter"",""1"",""3512""
","
","
","""event"",""trial"",""time""
""fullscreenenter"",""1"",""3512""
","
","","","","","","null","<div style=""font-size:60px;"">+</div>","null","","fixation","","","","","","","","","","","","","",""
"learning-trial","169","666638","0.0-9.0-2.0-1.41","1526","2","2","""event"",""trial"",""time""
""fullscreenenter"",""1"",""3512""
","
","
","""event"",""trial"",""time""
""fullscreenenter"",""1"",""3512""
","
","","","","","","88.09999996423721","images/rodent4.png","","","learning","images/pets_choice3.png","images/pets_choice1.png","images/pets_choice2.png","[2,0,1]","0","1","3","images/pets_choice2.png","-1","pets","","rodent","2","0"
"html-keyboard-response","170","667144","0.0-9.0-2.0-0.42","1526","2","2","""event"",""trial"",""time""
""fullscreenenter"",""1"",""3512""
","
","
","""event"",""trial"",""time""
""fullscreenenter"",""1"",""3512""
","
","","","","","","null","<div style=""font-size:60px;"">+</div>","null","","fixation","","","","","","","","","","","","","",""
"learning-trial","171","671155","0.0-9.0-2.0-1.42","1526","2","2","""event"",""trial"",""time""
""fullscreenenter"",""1"",""3512""
","
","
","""event"",""trial"",""time""
""fullscreenenter"",""1"",""3512""
","
","","","","","","207","images/dog4.png","","","learning","images/pets_choice2.png","images/pets_choice3.png","images/pets_choice1.png","[1,2,0]","1","0","3","images/pets_choice1.png","-1","pets","","dog","2","0"
"html-keyboard-response","172","671657","0.0-9.0-2.0-0.43","1526","2","2","""event"",""trial"",""time""
""fullscreenenter"",""1"",""3512""
","
","
","""event"",""trial"",""time""
""fullscreenenter"",""1"",""3512""
","
","","","","","","null","<div style=""font-size:60px;"">+</div>","null","","fixation","","","","","","","","","","","","","",""
"learning-trial","173","675664","0.0-9.0-2.0-1.43","1526","2","2","""event"",""trial"",""time""
""fullscreenenter"",""1"",""3512""
","
","
","""event"",""trial"",""time""
""fullscreenenter"",""1"",""3512""
","
","","","","","","3.399999976158142","images/rabbit5.png","","","learning","images/pets_choice1.png","images/pets_choice3.png","images/pets_choice2.png","[0,2,1]","1","2","3","images/pets_choice2.png","1","pets","","rabbit","2","0"
"html-keyboard-response","174","676166","0.0-9.0-2.0-0.44","1526","2","2","""event"",""trial"",""time""
""fullscreenenter"",""1"",""3512""
","
","
","""event"",""trial"",""time""
""fullscreenenter"",""1"",""3512""
","
","","","","","","null","<div style=""font-size:60px;"">+</div>","null","","fixation","","","","","","","","","","","","","",""
"learning-trial","175","680163","0.0-9.0-2.0-1.44","1526","2","2","""event"",""trial"",""time""
""fullscreenenter"",""1"",""3512""
","
","
","""event"",""trial"",""time""
""fullscreenenter"",""1"",""3512""
","
","","","","","","112.90000003576279","images/rodent2.png","","","learning","images/pets_choice3.png","images/pets_choice1.png","images/pets_choice2.png","[2,0,1]","2","0","3","images/pets_choice2.png","-1","pets","","rodent","2","0"
"html-keyboard-response","176","680668","0.0-9.0-2.0-0.45","1526","2","2","""event"",""trial"",""time""
""fullscreenenter"",""1"",""3512""
","
","
","""event"",""trial"",""time""
""fullscreenenter"",""1"",""3512""
","
","","","","","","null","<div style=""font-size:60px;"">+</div>","null","","fixation","","","","","","","","","","","","","",""
"learning-trial","177","684674","0.0-9.0-2.0-1.45","1526","2","2","""event"",""trial"",""time""
""fullscreenenter"",""1"",""3512""
","
","
","""event"",""trial"",""time""
""fullscreenenter"",""1"",""3512""
","
","","","","","","305.5","images/dog1.png","","","learning","images/pets_choice2.png","images/pets_choice1.png","images/pets_choice3.png","[1,0,2]","2","2","1","images/pets_choice2.png","-1","pets","","dog","2","0"
"html-keyboard-response","178","685183","0.0-9.0-2.0-0.46","1526","2","2","""event"",""trial"",""time""
""fullscreenenter"",""1"",""3512""
","
","
","""event"",""trial"",""time""
""fullscreenenter"",""1"",""3512""
","
","","","","","","null","<div style=""font-size:60px;"">+</div>","null","","fixation","","","","","","","","","","","","","",""
"learning-trial","179","689194","0.0-9.0-2.0-1.46","1526","2","2","""event"",""trial"",""time""
""fullscreenenter"",""1"",""3512""
","
","
","""event"",""trial"",""time""
""fullscreenenter"",""1"",""3512""
","
","","","","","","623.1999999880791","images/rabbit5.png","","","learning","images/pets_choice1.png","images/pets_choice2.png","images/pets_choice3.png","[0,1,2]","1","1","3","images/pets_choice3.png","-1","pets","","rabbit","2","0"
"html-keyboard-response","180","689701","0.0-9.0-2.0-0.47","1526","2","2","""event"",""trial"",""time""
""fullscreenenter"",""1"",""3512""
","
","
","""event"",""trial"",""time""
""fullscreenenter"",""1"",""3512""
","
","","","","","","null","<div style=""font-size:60px;"">+</div>","null","","fixation","","","","","","","","","","","","","",""
"learning-trial","181","693709","0.0-9.0-2.0-1.47","1526","2","2","""event"",""trial"",""time""
""fullscreenenter"",""1"",""3512""
","
","
","""event"",""trial"",""time""
""fullscreenenter"",""1"",""3512""
","
","","","","","","170.5","images/dog4.png","","","learning","images/pets_choice1.png","images/pets_choice3.png","images/pets_choice2.png","[0,2,1]","1","2","2","images/pets_choice3.png","-1","pets","","dog","2","0"
"html-keyboard-response","182","694215","0.0-9.0-2.0-0.48","1526","2","2","""event"",""trial"",""time""
""fullscreenenter"",""1"",""3512""
","
","
","""event"",""trial"",""time""
""fullscreenenter"",""1"",""3512""
","
","","","","","","null","<div style=""font-size:60px;"">+</div>","null","","fixation","","","","","","","","","","","","","",""
"learning-trial","183","698220","0.0-9.0-2.0-1.48","1526","2","2","""event"",""trial"",""time""
""fullscreenenter"",""1"",""3512""
","
","
","""event"",""trial"",""time""
""fullscreenenter"",""1"",""3512""
","
","","","","","","0.09999996423721313","images/rodent3.png","","","learning","images/pets_choice1.png","images/pets_choice2.png","images/pets_choice3.png","[0,1,2]","1","1","3","images/pets_choice3.png","-1","pets","","rodent","2","0"
"html-keyboard-response","184","698722","0.0-9.0-2.0-0.49","1526","2","2","""event"",""trial"",""time""
""fullscreenenter"",""1"",""3512""
","
","
","""event"",""trial"",""time""
""fullscreenenter"",""1"",""3512""
","
","","","","","","null","<div style=""font-size:60px;"">+</div>","null","","fixation","","","","","","","","","","","","","",""
"learning-trial","185","702726","0.0-9.0-2.0-1.49","1526","2","2","""event"",""trial"",""time""
""fullscreenenter"",""1"",""3512""
","
","
","""event"",""trial"",""time""
""fullscreenenter"",""1"",""3512""
","
","","","","","","216.5","images/rodent2.png","","","learning","images/pets_choice1.png","images/pets_choice3.png","images/pets_choice2.png","[0,2,1]","2","1","2","images/pets_choice3.png","1","pets","","rodent","2","0"
"html-keyboard-response","186","703230","0.0-9.0-2.0-0.50","1526","2","2","""event"",""trial"",""time""
""fullscreenenter"",""1"",""3512""
","
","
","""event"",""trial"",""time""
""fullscreenenter"",""1"",""3512""
","
","","","","","","null","<div style=""font-size:60px;"">+</div>","null","","fixation","","","","","","","","","","","","","",""
"learning-trial","187","707239","0.0-9.0-2.0-1.50","1526","2","2","""event"",""trial"",""time""
""fullscreenenter"",""1"",""3512""
","
","
","""event"",""trial"",""time""
""fullscreenenter"",""1"",""3512""
","
","","","","","","98.10000002384186","images/dog1.png","","","learning","images/pets_choice2.png","images/pets_choice1.png","images/pets_choice3.png","[1,0,2]","2","2","2","images/pets_choice1.png","-1","pets","","dog","2","0"
"html-keyboard-response","188","707748","0.0-9.0-2.0-0.51","1526","2","2","""event"",""trial"",""time""
""fullscreenenter"",""1"",""3512""
","
","
","""event"",""trial"",""time""
""fullscreenenter"",""1"",""3512""
","
","","","","","","null","<div style=""font-size:60px;"">+</div>","null","","fixation","","","","","","","","","","","","","",""
"learning-trial","189","711756","0.0-9.0-2.0-1.51","1526","2","2","""event"",""trial"",""time""
""fullscreenenter"",""1"",""3512""
","
","
","""event"",""trial"",""time""
""fullscreenenter"",""1"",""3512""
","
","","","","","","139.19999998807907","images/rabbit2.png","","","learning","images/pets_choice2.png","images/pets_choice3.png","images/pets_choice1.png","[1,2,0]","2","1","3","images/pets_choice1.png","-1","pets","","rabbit","2","0"
"html-keyboard-response","190","712265","0.0-9.0-2.0-0.52","1526","2","2","""event"",""trial"",""time""
""fullscreenenter"",""1"",""3512""
","
","
","""event"",""trial"",""time""
""fullscreenenter"",""1"",""3512""
","
","","","","","","null","<div style=""font-size:60px;"">+</div>","null","","fixation","","","","","","","","","","","","","",""
"learning-trial","191","716270","0.0-9.0-2.0-1.52","1526","2","2","""event"",""trial"",""time""
""fullscreenenter"",""1"",""3512""
","
","
","""event"",""trial"",""time""
""fullscreenenter"",""1"",""3512""
","
","","","","","","55","images/dog1.png","","","learning","images/pets_choice1.png","images/pets_choice2.png","images/pets_choice3.png","[0,1,2]","2","2","3","images/pets_choice3.png","-1","pets","","dog","2","0"
"html-keyboard-response","192","716774","0.0-9.0-2.0-0.53","1526","2","2","""event"",""trial"",""time""
""fullscreenenter"",""1"",""3512""
","
","
","""event"",""trial"",""time""
""fullscreenenter"",""1"",""3512""
","
","","","","","","null","<div style=""font-size:60px;"">+</div>","null","","fixation","","","","","","","","","","","","","",""
"learning-trial","193","720777","0.0-9.0-2.0-1.53","1526","2","2","""event"",""trial"",""time""
""fullscreenenter"",""1"",""3512""
","
","
","""event"",""trial"",""time""
""fullscreenenter"",""1"",""3512""
","
","","","","","","25.5","images/rodent4.png","","","learning","images/pets_choice1.png","images/pets_choice2.png","images/pets_choice3.png","[0,1,2]","0","0","1","images/pets_choice1.png","1","pets","","rodent","2","0"
"html-keyboard-response","194","721284","0.0-9.0-2.0-0.54","1526","2","2","""event"",""trial"",""time""
""fullscreenenter"",""1"",""3512""
","
","
","""event"",""trial"",""time""
""fullscreenenter"",""1"",""3512""
","
","","","","","","null","<div style=""font-size:60px;"">+</div>","null","","fixation","","","","","","","","","","","","","",""
"learning-trial","195","725289","0.0-9.0-2.0-1.54","1526","2","2","""event"",""trial"",""time""
""fullscreenenter"",""1"",""3512""
","
","
","""event"",""trial"",""time""
""fullscreenenter"",""1"",""3512""
","
","","","","","","48.09999996423721","images/dog5.png","","","learning","images/pets_choice1.png","images/pets_choice3.png","images/pets_choice2.png","[0,2,1]","0","0","3","images/pets_choice2.png","-1","pets","","dog","2","0"
"html-keyboard-response","196","725791","0.0-9.0-2.0-0.55","1526","2","2","""event"",""trial"",""time""
""fullscreenenter"",""1"",""3512""
","
","
","""event"",""trial"",""time""
""fullscreenenter"",""1"",""3512""
","
","","","","","","null","<div style=""font-size:60px;"">+</div>","null","","fixation","","","","","","","","","","","","","",""
"learning-trial","197","729794","0.0-9.0-2.0-1.55","1526","2","2","""event"",""trial"",""time""
""fullscreenenter"",""1"",""3512""
","
","
","""event"",""trial"",""time""
""fullscreenenter"",""1"",""3512""
","
","","","","","","87.70000004768372","images/rabbit5.png","","","learning","images/pets_choice1.png","images/pets_choice3.png","images/pets_choice2.png","[0,2,1]","1","2","3","images/pets_choice2.png","1","pets","","rabbit","2","0"
"html-keyboard-response","198","730299","0.0-9.0-2.0-0.56","1526","2","2","""event"",""trial"",""time""
""fullscreenenter"",""1"",""3512""
","
","
","""event"",""trial"",""time""
""fullscreenenter"",""1"",""3512""
","
","","","","","","null","<div style=""font-size:60px;"">+</div>","null","","fixation","","","","","","","","","","","","","",""
"learning-trial","199","734304","0.0-9.0-2.0-1.56","1526","2","2","""event"",""trial"",""time""
""fullscreenenter"",""1"",""3512""
","
","
","""event"",""trial"",""time""
""fullscreenenter"",""1"",""3512""
","
","","","","","","67.90000003576279","images/rabbit4.png","","","learning","images/pets_choice1.png","images/pets_choice2.png","images/pets_choice3.png","[0,1,2]","0","0","1","images/pets_choice1.png","1","pets","","rabbit","2","0"
"html-keyboard-response","200","734813","0.0-9.0-2.0-0.57","1526","2","2","""event"",""trial"",""time""
""fullscreenenter"",""1"",""3512""
","
","
","""event"",""trial"",""time""
""fullscreenenter"",""1"",""3512""
","
","","","","","","null","<div style=""font-size:60px;"">+</div>","null","","fixation","","","","","","","","","","","","","",""
"learning-trial","201","738819","0.0-9.0-2.0-1.57","1526","2","2","""event"",""trial"",""time""
""fullscreenenter"",""1"",""3512""
","
","
","""event"",""trial"",""time""
""fullscreenenter"",""1"",""3512""
","
","","","","","","44.40000003576279","images/dog5.png","","","learning","images/pets_choice2.png","images/pets_choice1.png","images/pets_choice3.png","[1,0,2]","0","1","1","images/pets_choice2.png","-1","pets","","dog","2","0"
"html-keyboard-response","202","739320","0.0-9.0-2.0-0.58","1526","2","2","""event"",""trial"",""time""
""fullscreenenter"",""1"",""3512""
","
","
","""event"",""trial"",""time""
""fullscreenenter"",""1"",""3512""
","
","","","","","","null","<div style=""font-size:60px;"">+</div>","null","","fixation","","","","","","","","","","","","","",""
"learning-trial","203","743327","0.0-9.0-2.0-1.58","1526","2","2","""event"",""trial"",""time""
""fullscreenenter"",""1"",""3512""
","
","
","""event"",""trial"",""time""
""fullscreenenter"",""1"",""3512""
","
","","","","","","4.899999976158142","images/rodent4.png","","","learning","images/pets_choice2.png","images/pets_choice1.png","images/pets_choice3.png","[1,0,2]","0","1","1","images/pets_choice2.png","-1","pets","","rodent","2","0"
"html-keyboard-response","204","743829","0.0-9.0-2.0-0.59","1526","2","2","""event"",""trial"",""time""
""fullscreenenter"",""1"",""3512""
","
","
","""event"",""trial"",""time""
""fullscreenenter"",""1"",""3512""
","
","","","","","","null","<div style=""font-size:60px;"">+</div>","null","","fixation","","","","","","","","","","","","","",""
"learning-trial","205","747837","0.0-9.0-2.0-1.59","1526","2","2","""event"",""trial"",""time""
""fullscreenenter"",""1"",""3512""
","
","
","""event"",""trial"",""time""
""fullscreenenter"",""1"",""3512""
","
","","","","","","167.19999998807907","images/rodent4.png","","","learning","images/pets_choice2.png","images/pets_choice1.png","images/pets_choice3.png","[1,0,2]","0","1","3","images/pets_choice3.png","-1","pets","","rodent","2","0"
"html-keyboard-response","206","748342","0.0-9.0-2.0-0.60","1526","2","2","""event"",""trial"",""time""
""fullscreenenter"",""1"",""3512""
","
","
","""event"",""trial"",""time""
""fullscreenenter"",""1"",""3512""
","
","","","","","","null","<div style=""font-size:60px;"">+</div>","null","","fixation","","","","","","","","","","","","","",""
"learning-trial","207","752351","0.0-9.0-2.0-1.60","1526","2","2","""event"",""trial"",""time""
""fullscreenenter"",""1"",""3512""
","
","
","""event"",""trial"",""time""
""fullscreenenter"",""1"",""3512""
","
","","","","","","15.800000011920929","images/rodent2.png","","","learning","images/pets_choice1.png","images/pets_choice3.png","images/pets_choice2.png","[0,2,1]","2","1","2","images/pets_choice3.png","-1","pets","","rodent","2","0"
"html-keyboard-response","208","752856","0.0-9.0-2.0-0.61","1526","2","2","""event"",""trial"",""time""
""fullscreenenter"",""1"",""3512""
","
","
","""event"",""trial"",""time""
""fullscreenenter"",""1"",""3512""
","
","","","","","","null","<div style=""font-size:60px;"">+</div>","null","","fixation","","","","","","","","","","","","","",""
"learning-trial","209","756866","0.0-9.0-2.0-1.61","1526","2","2","""event"",""trial"",""time""
""fullscreenenter"",""1"",""3512""
","
","
","""event"",""trial"",""time""
""fullscreenenter"",""1"",""3512""
","
","","","","","","1331.3999999761581","images/rodent4.png","","","learning","images/pets_choice3.png","images/pets_choice2.png","images/pets_choice1.png","[2,1,0]","0","2","1","images/pets_choice3.png","-1","pets","","rodent","2","0"
"html-keyboard-response","210","757375","0.0-9.0-2.0-0.62","1526","2","2","""event"",""trial"",""time""
""fullscreenenter"",""1"",""3512""
","
","
","""event"",""trial"",""time""
""fullscreenenter"",""1"",""3512""
","
","","","","","","null","<div style=""font-size:60px;"">+</div>","null","","fixation","","","","","","","","","","","","","",""
"learning-trial","211","761379","0.0-9.0-2.0-1.62","1526","2","2","""event"",""trial"",""time""
""fullscreenenter"",""1"",""3512""
","
","
","""event"",""trial"",""time""
""fullscreenenter"",""1"",""3512""
","
","","","","","","10.5","images/dog5.png","","","learning","images/pets_choice1.png","images/pets_choice2.png","images/pets_choice3.png","[0,1,2]","0","0","1","images/pets_choice1.png","1","pets","","dog","2","0"
"html-keyboard-response","212","761889","0.0-9.0-2.0-0.63","1526","2","2","""event"",""trial"",""time""
""fullscreenenter"",""1"",""3512""
","
","
","""event"",""trial"",""time""
""fullscreenenter"",""1"",""3512""
","
","","","","","","null","<div style=""font-size:60px;"">+</div>","null","","fixation","","","","","","","","","","","","","",""
"learning-trial","213","765902","0.0-9.0-2.0-1.63","1526","2","2","""event"",""trial"",""time""
""fullscreenenter"",""1"",""3512""
","
","
","""event"",""trial"",""time""
""fullscreenenter"",""1"",""3512""
","
","","","","","","959.4000000357628","images/rodent2.png","","","learning","images/pets_choice2.png","images/pets_choice1.png","images/pets_choice3.png","[1,0,2]","2","2","1","images/pets_choice2.png","-1","pets","","rodent","2","0"
"html-keyboard-response","214","766405","0.0-9.0-2.0-0.64","1526","2","2","""event"",""trial"",""time""
""fullscreenenter"",""1"",""3512""
","
","
","""event"",""trial"",""time""
""fullscreenenter"",""1"",""3512""
","
","","","","","","null","<div style=""font-size:60px;"">+</div>","null","","fixation","","","","","","","","","","","","","",""
"learning-trial","215","770410","0.0-9.0-2.0-1.64","1526","2","2","""event"",""trial"",""time""
""fullscreenenter"",""1"",""3512""
","
","
","""event"",""trial"",""time""
""fullscreenenter"",""1"",""3512""
","
","","","","","","753.8999999761581","images/dog4.png","","","learning","images/pets_choice3.png","images/pets_choice1.png","images/pets_choice2.png","[2,0,1]","1","2","1","images/pets_choice3.png","1","pets","","dog","2","0"
"html-keyboard-response","216","770913","0.0-9.0-2.0-0.65","1526","2","2","""event"",""trial"",""time""
""fullscreenenter"",""1"",""3512""
","
","
","""event"",""trial"",""time""
""fullscreenenter"",""1"",""3512""
","
","","","","","","null","<div style=""font-size:60px;"">+</div>","null","","fixation","","","","","","","","","","","","","",""
"learning-trial","217","774919","0.0-9.0-2.0-1.65","1526","2","2","""event"",""trial"",""time""
""fullscreenenter"",""1"",""3512""
","
","
","""event"",""trial"",""time""
""fullscreenenter"",""1"",""3512""
","
","","","","","","727.6999999880791","images/rodent4.png","","","learning","images/pets_choice3.png","images/pets_choice1.png","images/pets_choice2.png","[2,0,1]","0","1","1","images/pets_choice3.png","-1","pets","","rodent","2","0"
"html-keyboard-response","218","775422","0.0-9.0-2.0-0.66","1526","2","2","""event"",""trial"",""time""
""fullscreenenter"",""1"",""3512""
","
","
","""event"",""trial"",""time""
""fullscreenenter"",""1"",""3512""
","
","","","","","","null","<div style=""font-size:60px;"">+</div>","null","","fixation","","","","","","","","","","","","","",""
"learning-trial","219","779428","0.0-9.0-2.0-1.66","1526","2","2","""event"",""trial"",""time""
""fullscreenenter"",""1"",""3512""
","
","
","""event"",""trial"",""time""
""fullscreenenter"",""1"",""3512""
","
","","","","","","2137.099999964237","images/rodent3.png","","","learning","images/pets_choice2.png","images/pets_choice1.png","images/pets_choice3.png","[1,0,2]","1","0","1","images/pets_choice2.png","1","pets","","rodent","2","0"
"html-keyboard-response","220","779946","0.0-9.0-2.0-0.67","1526","2","2","""event"",""trial"",""time""
""fullscreenenter"",""1"",""3512""
","
","
","""event"",""trial"",""time""
""fullscreenenter"",""1"",""3512""
","
","","","","","","null","<div style=""font-size:60px;"">+</div>","null","","fixation","","","","","","","","","","","","","",""
"learning-trial","221","783955","0.0-9.0-2.0-1.67","1526","2","2","""event"",""trial"",""time""
""fullscreenenter"",""1"",""3512""
","
","
","""event"",""trial"",""time""
""fullscreenenter"",""1"",""3512""
","
","","","","","","162.39999997615814","images/rabbit2.png","","","learning","images/pets_choice1.png","images/pets_choice2.png","images/pets_choice3.png","[0,1,2]","2","2","1","images/pets_choice1.png","-1","pets","","rabbit","2","0"
"html-keyboard-response","222","784463","0.0-9.0-2.0-0.68","1526","2","2","""event"",""trial"",""time""
""fullscreenenter"",""1"",""3512""
","
","
","""event"",""trial"",""time""
""fullscreenenter"",""1"",""3512""
","
","","","","","","null","<div style=""font-size:60px;"">+</div>","null","","fixation","","","","","","","","","","","","","",""
"learning-trial","223","788470","0.0-9.0-2.0-1.68","1526","2","2","""event"",""trial"",""time""
""fullscreenenter"",""1"",""3512""
","
","
","""event"",""trial"",""time""
""fullscreenenter"",""1"",""3512""
","
","","","","","","9.5","images/rodent4.png","","","learning","images/pets_choice3.png","images/pets_choice2.png","images/pets_choice1.png","[2,1,0]","0","2","3","images/pets_choice1.png","1","pets","","rodent","2","0"
"html-keyboard-response","224","788979","0.0-9.0-2.0-0.69","1526","2","2","""event"",""trial"",""time""
""fullscreenenter"",""1"",""3512""
","
","
","""event"",""trial"",""time""
""fullscreenenter"",""1"",""3512""
","
","","","","","","null","<div style=""font-size:60px;"">+</div>","null","","fixation","","","","","","","","","","","","","",""
"learning-trial","225","792986","0.0-9.0-2.0-1.69","1526","2","2","""event"",""trial"",""time""
""fullscreenenter"",""1"",""3512""
","
","
","""event"",""trial"",""time""
""fullscreenenter"",""1"",""3512""
","
","","","","","","1185.199999988079","images/rodent3.png","","","learning","images/pets_choice1.png","images/pets_choice2.png","images/pets_choice3.png","[0,1,2]","1","1","1","images/pets_choice1.png","-1","pets","","rodent","2","0"
"html-keyboard-response","226","793489","0.0-9.0-2.0-0.70","1526","2","2","""event"",""trial"",""time""
""fullscreenenter"",""1"",""3512""
","
","
","""event"",""trial"",""time""
""fullscreenenter"",""1"",""3512""
","
","","","","","","null","<div style=""font-size:60px;"">+</div>","null","","fixation","","","","","","","","","","","","","",""
"learning-trial","227","797495","0.0-9.0-2.0-1.70","1526","2","2","""event"",""trial"",""time""
""fullscreenenter"",""1"",""3512""
","
","
","""event"",""trial"",""time""
""fullscreenenter"",""1"",""3512""
","
","","","","","","298.10000002384186","images/rabbit2.png","","","learning","images/pets_choice1.png","images/pets_choice2.png","images/pets_choice3.png","[0,1,2]","2","2","1","images/pets_choice1.png","1","pets","","rabbit","2","0"
"html-keyboard-response","228","798002","0.0-9.0-2.0-0.71","1526","2","2","""event"",""trial"",""time""
""fullscreenenter"",""1"",""3512""
","
","
","""event"",""trial"",""time""
""fullscreenenter"",""1"",""3512""
","
","","","","","","null","<div style=""font-size:60px;"">+</div>","null","","fixation","","","","","","","","","","","","","",""
"learning-trial","229","802017","0.0-9.0-2.0-1.71","1526","2","2","""event"",""trial"",""time""
""fullscreenenter"",""1"",""3512""
","
","
","""event"",""trial"",""time""
""fullscreenenter"",""1"",""3512""
","
","","","","","","60.30000001192093","images/rabbit2.png","","","learning","images/pets_choice2.png","images/pets_choice1.png","images/pets_choice3.png","[1,0,2]","2","2","1","images/pets_choice2.png","-1","pets","","rabbit","2","0"
"html-button-response","230","840924","0.0-9.0-3.0","1526","2","2","""event"",""trial"",""time""
""fullscreenenter"",""1"",""3512""
","
","
","""event"",""trial"",""time""
""fullscreenenter"",""1"",""3512""
","
","","","","","","38904.40000003576","<p> You have completed the round! <p> In this round, you earned -24 points! </p>","0","","break","","","","","","","","","","","","","",""
"html-button-response","231","851635","0.0-10.0","1526","2","2","""event"",""trial"",""time""
""fullscreenenter"",""1"",""3512""
","
","
","""event"",""trial"",""time""
""fullscreenenter"",""1"",""3512""
","
","","","","","","10709.399999976158","<p> Now it's time to play another round. </p>","0","","transition_screen","","","","","","","","","","","","","",""
"preload","232","855649","0.0-11.0-0.0","1526","2","2","""event"",""trial"",""time""
""fullscreenenter"",""1"",""3512""
","
","
","""event"",""trial"",""time""
""fullscreenenter"",""1"",""3512""
","
","true","false","[]","[]","[]","","","","","","","","","","","","","","","","","","",""
"learning-instructions","233","866191","0.0-11.0-1.0-0.0","1526","2","2","""event"",""trial"",""time""
""fullscreenenter"",""1"",""3512""
","
","
","""event"",""trial"",""time""
""fullscreenenter"",""1"",""3512""
","
","","","","","","1321.9000000357628","<p> Your goal in this round is to travel the world by putting fuel into different vehicles. </p><p> To travel, you will need to put fuel into many different vehicles. </p></div>","","0","instructions","","","","","","","","","","","","","",""
"learning-instructions","234","875749","0.0-11.0-1.0-0.1","1526","2","2","""event"",""trial"",""time""
""fullscreenenter"",""1"",""3512""
","
","
","""event"",""trial"",""time""
""fullscreenenter"",""1"",""3512""
","
","","","","","","770.4000000357628","<p> On each turn, you will see a picture of one of your vehicles and three different types of fuel.  </p><p> You need to select which kind of fuel to use.  </p>","","0","instructions","","","","","","","","","","","","","",""
"learning-instructions","235","883923","0.0-11.0-1.0-0.2","1526","2","2","""event"",""trial"",""time""
""fullscreenenter"",""1"",""3512""
","
","
","""event"",""trial"",""time""
""fullscreenenter"",""1"",""3512""
","
","","","","","","1293.5","<p> You can select the fuel on the left by pressing 1, the fuel in the middle by pressing 2, and the fuel on the right by pressing 3. </p><br><div class=""choice-instructions-grid""> <div class=""choice-option""><img src=""images/vehicles_choice1.png"" class=""choice-option-img"" stage=""instructions"" position=""0"" ><div class=""choice-option-text""> Press ""1."" </div></div><div class=""choice-option""><img src=""images/vehicles_choice2.png"" class=""choice-option-img"" stage=""instructions"" position=""1"" ><div class=""choice-option-text""> Press ""2."" </div></div><div class=""choice-option""><img src=""images/vehicles_choice3.png"" class=""choice-option-img"" stage=""instructions"" position=""2"" ><div class=""choice-option-text""> Press ""3."" </div></div></div>","","0","instructions","","","","","","","","","","","","","",""
"learning-instructions","236","890938","0.0-11.0-1.0-0.3","1526","2","2","""event"",""trial"",""time""
""fullscreenenter"",""1"",""3512""
","
","
","""event"",""trial"",""time""
""fullscreenenter"",""1"",""3512""
","
","","","","","","1779.300000011921","<p> If the fuel you chose works for that vehicle, it will start, and </p><p> you will get to travel. </p><div style='float: center;'><img src='images/check.png' width = '200' height = '200'></img>","","0","instructions","","","","","","","","","","","","","",""
"learning-instructions","237","896053","0.0-11.0-1.0-0.4","1526","2","2","""event"",""trial"",""time""
""fullscreenenter"",""1"",""3512""
","
","
","""event"",""trial"",""time""
""fullscreenenter"",""1"",""3512""
","
","","","","","","564.1000000238419","<p> But, if the fuel you chose does not work, your vehicle will not move. </p><div style='float: center;'><img src='images/x.png' width = '200' height = '200'></img>","","0","instructions","","","","","","","","","","","","","",""
