"trial_type","trial_index","time_elapsed","internal_node_id","subject_id","condition","task_version","interactions","blur_events","focus_events","fullscreenenter_events","fullscreenexit_events","success","timeout","failed_images","failed_audio","failed_video","rt","stimulus","response","button_pressed","task_part","left_choice","middle_choice","right_choice","choice_positions","correct_response","correct_position","key_press","option_selected","points","task_block","correct","stim_cat","block_condition","block_number"
"pavlovia","0","2","0.0-0.0","1535","2","2","""event"",""trial"",""time""
""fullscreenenter"",""1"",""1818""
","
","
","""event"",""trial"",""time""
""fullscreenenter"",""1"",""1818""
","
","","","","","","","","","","","","","","","","","","","","","","","",""
"fullscreen","1","2807","0.0-1.0","1535","2","2","""event"",""trial"",""time""
""fullscreenenter"",""1"",""1818""
","
","
","""event"",""trial"",""time""
""fullscreenenter"",""1"",""1818""
","
","true","","","","","","","","","","","","","","","","","","","","","","",""
"preload","2","53512","0.0-2.0","1535","2","2","""event"",""trial"",""time""
""fullscreenenter"",""1"",""1818""
","
","
","""event"",""trial"",""time""
""fullscreenenter"",""1"",""1818""
","
","true","false","[]","[]","[]","","","","","","","","","","","","","","","","","","",""
"audio-keyboard-response","3","56255","0.0-3.0","1535","2","2","""event"",""trial"",""time""
""fullscreenenter"",""1"",""1818""
","
","
","""event"",""trial"",""time""
""fullscreenenter"",""1"",""1818""
","
","","","","","","2739.95464852608","audio/beep_loop.wav"," ","","","","","","","","","","","","","","","",""
"audio-button-response","4","59348","0.0-4.0","1535","2","2","""event"",""trial"",""time""
""fullscreenenter"",""1"",""1818""
","
","
","""event"",""trial"",""time""
""fullscreenenter"",""1"",""1818""
","
","","","","","","3091","audio/shark.wav","4","","","","","","","","","","","","","","","",""
"audio-button-response","5","61432","0.0-5.0","1535","2","2","""event"",""trial"",""time""
""fullscreenenter"",""1"",""1818""
","
","
","""event"",""trial"",""time""
""fullscreenenter"",""1"",""1818""
","
","","","","","","1080","audio/turtle.wav","1","","","","","","","","","","","","","","","",""
"preload","6","110123","0.0-6.0","1535","2","2","""event"",""trial"",""time""
""fullscreenenter"",""1"",""1818""
","
","
","""event"",""trial"",""time""
""fullscreenenter"",""1"",""1818""
","
","true","false","[]","[]","[]","","","","","","","","","","","","","","","","","","",""
"html-keyboard-response","7","116399","0.0-7.0","1535","2","2","""event"",""trial"",""time""
""fullscreenenter"",""1"",""1818""
","
","
","""event"",""trial"",""time""
""fullscreenenter"",""1"",""1818""
","
","","","","","","6275.5","Welcome to the experiment. Press any key to begin and to advance the instructions."," ","","","","","","","","","","","","","","","",""
"learning-instructions","8","125226","0.0-8.0-0.0-0.0","1535","2","2","""event"",""trial"",""time""
""fullscreenenter"",""1"",""1818""
","
","
","""event"",""trial"",""time""
""fullscreenenter"",""1"",""1818""
","
","","","","","","1079.3999999761581","<p> Welcome! Today you are going to play 6 different rounds of a decision-making game. </p><p> Use the mouse to click next to continue. </p>","","0","instructions","","","","","","","","","","","","","",""
"learning-instructions","9","130129","0.0-8.0-0.0-0.1","1535","2","2","""event"",""trial"",""time""
""fullscreenenter"",""1"",""1818""
","
","
","""event"",""trial"",""time""
""fullscreenenter"",""1"",""1818""
","
","","","","","","1903.4000000357628","<p> You will start with a practice round to learn the rules. </p>","","0","instructions","","","","","","","","","","","","","",""
"learning-instructions","10","139022","0.0-8.0-0.0-0.2","1535","2","2","""event"",""trial"",""time""
""fullscreenenter"",""1"",""1818""
","
","
","""event"",""trial"",""time""
""fullscreenenter"",""1"",""1818""
","
","","","","","","1155.5999999642372","<p> Your goal in this round is to deliver sports equipment to three different parks. </p><p> You will need to deliver many types of equipment. </p></div>","","0","instructions","","","","","","","","","","","","","",""
"learning-instructions","11","148063","0.0-8.0-0.0-0.3","1535","2","2","""event"",""trial"",""time""
""fullscreenenter"",""1"",""1818""
","
","
","""event"",""trial"",""time""
""fullscreenenter"",""1"",""1818""
","
","","","","","","557.3000000119209","<p> On each turn, you will see one piece of sports equipment and three different parks.  </p><p> You need to select which park to deliver the equipment to.  </p>","","0","instructions","","","","","","","","","","","","","",""
"learning-instructions","12","162507","0.0-8.0-0.0-0.4","1535","2","2","""event"",""trial"",""time""
""fullscreenenter"",""1"",""1818""
","
","
","""event"",""trial"",""time""
""fullscreenenter"",""1"",""1818""
","
","","","","","","1171","<p> You can select the park on the left by pressing the '1' key on your keyboard. <br>You can select the park in the middle by pressing the '2' key on your keyboard. <br>You can select the park on the right by pressing the '3' key on your keyboard.  </p><br><div class=""choice-instructions-grid""> <div class=""choice-option""><img src=""images/park1.png"" class=""choice-option-img"" stage=""instructions"" position=""0"" ><div class=""choice-option-text""> Press ""1."" </div></div><div class=""choice-option""><img src=""images/park2.png"" class=""choice-option-img"" stage=""instructions"" position=""1"" ><div class=""choice-option-text""> Press ""2."" </div></div><div class=""choice-option""><img src=""images/park3.png"" class=""choice-option-img"" stage=""instructions"" position=""2"" ><div class=""choice-option-text""> Press ""3."" </div></div></div>","","0","instructions","","","","","","","","","","","","","",""
"learning-instructions","13","168413","0.0-8.0-0.0-0.5","1535","2","2","""event"",""trial"",""time""
""fullscreenenter"",""1"",""1818""
","
","
","""event"",""trial"",""time""
""fullscreenenter"",""1"",""1818""
","
","","","","","","517.1000000238419","<p> If the kids in the park you chose like the equipment, they will be very happy! </p><div style='float: center;'><img src='images/check.png' width = '200' height = '200'></img>","","0","instructions","","","","","","","","","","","","","",""
"learning-instructions","14","174349","0.0-8.0-0.0-0.6","1535","2","2","""event"",""trial"",""time""
""fullscreenenter"",""1"",""1818""
","
","
","""event"",""trial"",""time""
""fullscreenenter"",""1"",""1818""
","
","","","","","","352.80000001192093","<p> But, if the kids in the park you chose do not like the equipment, they will be sad. </p><div style='float: center;'><img src='images/x.png' width = '200' height = '200'></img>","","0","instructions","","","","","","","","","","","","","",""
"learning-instructions","15","181169","0.0-8.0-0.0-0.7","1535","2","2","""event"",""trial"",""time""
""fullscreenenter"",""1"",""1818""
","
","
","""event"",""trial"",""time""
""fullscreenenter"",""1"",""1818""
","
","","","","","","393","<p> Importantly, the kids in each park like some pieces of sports equipment more than others. </p>","","0","instructions","","","","","","","","","","","","","",""
"learning-instructions","16","187710","0.0-8.0-0.0-0.8","1535","2","2","""event"",""trial"",""time""
""fullscreenenter"",""1"",""1818""
","
","
","""event"",""trial"",""time""
""fullscreenenter"",""1"",""1818""
","
","","","","","","483.0999999642372","<p> If you choose the best park for each piece of equipment, the kids there will usually be happy. </p>","","0","instructions","","","","","","","","","","","","","",""
"learning-instructions","17","194825","0.0-8.0-0.0-0.9","1535","2","2","""event"",""trial"",""time""
""fullscreenenter"",""1"",""1818""
","
","
","""event"",""trial"",""time""
""fullscreenenter"",""1"",""1818""
","
","","","","","","469.19999998807907","<p> However, even if you choose the best park for the equipment, the kids may sometimes be sad. </p>","","0","instructions","","","","","","","","","","","","","",""
"learning-instructions","18","202359","0.0-8.0-0.0-0.10","1535","2","2","""event"",""trial"",""time""
""fullscreenenter"",""1"",""1818""
","
","
","""event"",""trial"",""time""
""fullscreenenter"",""1"",""1818""
","
","","","","","","303.10000002384186","<p> Similarly, even if you choose the <i>wrong</i> park for the equipment, the kids may still be happy sometimes.","","0","instructions","","","","","","","","","","","","","",""
"learning-instructions","19","207855","0.0-8.0-0.0-0.11","1535","2","2","""event"",""trial"",""time""
""fullscreenenter"",""1"",""1818""
","
","
","""event"",""trial"",""time""
""fullscreenenter"",""1"",""1818""
","
","","","","","","449.4000000357628","<p> For example, the best park for this soccer ball is this one.<div style='float: center;'><img src='images/i1.png' width = '500' height = '268'></img>","","0","instructions","","","","","","","","","","","","","",""
"learning-instructions","20","213533","0.0-8.0-0.0-0.12","1535","2","2","""event"",""trial"",""time""
""fullscreenenter"",""1"",""1818""
","
","
","""event"",""trial"",""time""
""fullscreenenter"",""1"",""1818""
","
","","","","","","386.9000000357628","<p> Let's see what happens if you choose this park for the soccer ball five times.","","0","instructions","","","","","","","","","","","","","",""
"learning-instructions","21","216033","0.0-8.0-0.0-0.13","1535","2","2","""event"",""trial"",""time""
""fullscreenenter"",""1"",""1818""
","
","
","""event"",""trial"",""time""
""fullscreenenter"",""1"",""1818""
","
","","","","","","337.0999999642372","<p> The kids are happy.<div style='float: left;'><img src='images/i2.png' width = '640' height = '360'></img>","","0","instructions","","","","","","","","","","","","","",""
"learning-instructions","22","218939","0.0-8.0-0.0-0.14","1535","2","2","""event"",""trial"",""time""
""fullscreenenter"",""1"",""1818""
","
","
","""event"",""trial"",""time""
""fullscreenenter"",""1"",""1818""
","
","","","","","","743.3000000119209","<p> The kids are happy.<div style='float: left;'><img src='images/i3.png' width = '640' height = '360'></img>","","0","instructions","","","","","","","","","","","","","",""
"learning-instructions","23","221483","0.0-8.0-0.0-0.15","1535","2","2","""event"",""trial"",""time""
""fullscreenenter"",""1"",""1818""
","
","
","""event"",""trial"",""time""
""fullscreenenter"",""1"",""1818""
","
","","","","","","387.10000002384186","<p> The kids are happy.<div style='float: left;'><img src='images/i4.png' width = '640' height = '360'></img>","","0","instructions","","","","","","","","","","","","","",""
"learning-instructions","24","223871","0.0-8.0-0.0-0.16","1535","2","2","""event"",""trial"",""time""
""fullscreenenter"",""1"",""1818""
","
","
","""event"",""trial"",""time""
""fullscreenenter"",""1"",""1818""
","
","","","","","","185","<p> The kids are sad.<div style='float: left;'><img src='images/i5.png' width = '640' height = '360'></img>","","0","instructions","","","","","","","","","","","","","",""
"learning-instructions","25","226444","0.0-8.0-0.0-0.17","1535","2","2","""event"",""trial"",""time""
""fullscreenenter"",""1"",""1818""
","
","
","""event"",""trial"",""time""
""fullscreenenter"",""1"",""1818""
","
","","","","","","417.39999997615814","<p> The kids are happy.<div style='float: left;'><img src='images/i6.png' width = '640' height = '360'></img>","","0","instructions","","","","","","","","","","","","","",""
"learning-instructions","26","234393","0.0-8.0-0.0-0.18","1535","2","2","""event"",""trial"",""time""
""fullscreenenter"",""1"",""1818""
","
","
","""event"",""trial"",""time""
""fullscreenenter"",""1"",""1818""
","
","","","","","","677.2000000476837","<p> As you can see, selecting that park for the soccer ball made the kids happy most of the time, but not all the time.","","0","instructions","","","","","","","","","","","","","",""
"learning-instructions","27","240773","0.0-8.0-0.0-0.19","1535","2","2","""event"",""trial"",""time""
""fullscreenenter"",""1"",""1818""
","
","
","""event"",""trial"",""time""
""fullscreenenter"",""1"",""1818""
","
","","","","","","367","<p> Now let's see what happens if you choose a DIFFERENT park for the soccer ball 5 times.","","0","instructions","","","","","","","","","","","","","",""
"learning-instructions","28","243235","0.0-8.0-0.0-0.20","1535","2","2","""event"",""trial"",""time""
""fullscreenenter"",""1"",""1818""
","
","
","""event"",""trial"",""time""
""fullscreenenter"",""1"",""1818""
","
","","","","","","259.30000001192093","<p> The kids are sad.<div style='float: left;'><img src='images/i7.png' width = '640' height = '360'></img>","","0","instructions","","","","","","","","","","","","","",""
"learning-instructions","29","245703","0.0-8.0-0.0-0.21","1535","2","2","""event"",""trial"",""time""
""fullscreenenter"",""1"",""1818""
","
","
","""event"",""trial"",""time""
""fullscreenenter"",""1"",""1818""
","
","","","","","","257.4000000357628","<p> The kids are sad.<div style='float: left;'><img src='images/i8.png' width = '640' height = '360'></img>","","0","instructions","","","","","","","","","","","","","",""
"learning-instructions","30","248651","0.0-8.0-0.0-0.22","1535","2","2","""event"",""trial"",""time""
""fullscreenenter"",""1"",""1818""
","
","
","""event"",""trial"",""time""
""fullscreenenter"",""1"",""1818""
","
","","","","","","775","<p> The kids are happy.<div style='float: left;'><img src='images/i9.png' width = '640' height = '360'></img>","","0","instructions","","","","","","","","","","","","","",""
"learning-instructions","31","251121","0.0-8.0-0.0-0.23","1535","2","2","""event"",""trial"",""time""
""fullscreenenter"",""1"",""1818""
","
","
","""event"",""trial"",""time""
""fullscreenenter"",""1"",""1818""
","
","","","","","","265","<p> The kids are sad.<div style='float: left;'><img src='images/i10.png' width = '640' height = '360'></img>","","0","instructions","","","","","","","","","","","","","",""
"learning-instructions","32","254081","0.0-8.0-0.0-0.24","1535","2","2","""event"",""trial"",""time""
""fullscreenenter"",""1"",""1818""
","
","
","""event"",""trial"",""time""
""fullscreenenter"",""1"",""1818""
","
","","","","","","755.2000000476837","<p> The kids are sad.<div style='float: left;'><img src='images/i11.png' width = '640' height = '360'></img>","","0","instructions","","","","","","","","","","","","","",""
"learning-instructions","33","263799","0.0-8.0-0.0-0.25","1535","2","2","""event"",""trial"",""time""
""fullscreenenter"",""1"",""1818""
","
","
","""event"",""trial"",""time""
""fullscreenenter"",""1"",""1818""
","
","","","","","","1603.1000000238419","<p> As you can see, selecting the wrong park for the soccer ball made the kids sad most of the time, but not all the time.","","0","instructions","","","","","","","","","","","","","",""
"learning-instructions","34","273121","0.0-8.0-0.0-0.26","1535","2","2","""event"",""trial"",""time""
""fullscreenenter"",""1"",""1818""
","
","
","""event"",""trial"",""time""
""fullscreenenter"",""1"",""1818""
","
","","","","","","215","<p> The different pieces of equipment belong in different parks. You need to try to learn which is the best park for each piece of equipment.","","0","instructions","","","","","","","","","","","","","",""
"learning-instructions","35","290521","0.0-8.0-0.0-0.27","1535","2","2","""event"",""trial"",""time""
""fullscreenenter"",""1"",""1818""
","
","
","""event"",""trial"",""time""
""fullscreenenter"",""1"",""1818""
","
","","","","","","1015.3999999761581","<p> Try to choose the best park for each piece of equipment, because you will <b> WIN </b> 1 point for each time you make the kids happy and <b>LOSE</b> 1 point for each time you make them sad. </p><p> Remember, if you make the best choice, you will win 1 point most of the time, but not all the time. </p>","","0","instructions","","","","","","","","","","","","","",""
"learning-instructions","36","296421","0.0-8.0-0.0-0.28","1535","2","2","""event"",""trial"",""time""
""fullscreenenter"",""1"",""1818""
","
","
","""event"",""trial"",""time""
""fullscreenenter"",""1"",""1818""
","
","","","","","","425.2000000476837","<p> This is just a practice round, but in the real game, your bonus payment will depend on your total number of points.","","0","instructions","","","","","","","","","","","","","",""
"learning-instructions","37","310281","0.0-8.0-0.0-0.29","1535","2","2","""event"",""trial"",""time""
""fullscreenenter"",""1"",""1818""
","
","
","""event"",""trial"",""time""
""fullscreenenter"",""1"",""1818""
","
","","","","","","3545.5","<p> The position where each park appears will change throughout the game. </p><p> The position where the park appears <i> does not </i> influence how likely the kids are to be happy or sad. </p>","","0","instructions","","","","","","","","","","","","","",""
"learning-instructions","38","322347","0.0-8.0-0.0-0.30","1535","2","2","""event"",""trial"",""time""
""fullscreenenter"",""1"",""1818""
","
","
","""event"",""trial"",""time""
""fullscreenenter"",""1"",""1818""
","
","","","","","","361.39999997615814","<p> You will have 4 seconds to make each choice. Try to respond before time runs out! </p><p> You will lose 1 point each time you do not make a response. </p>","","0","instructions","","","","","","","","","","","","","",""
"learning-instructions","39","329597","0.0-8.0-0.0-0.31","1535","2","2","""event"",""trial"",""time""
""fullscreenenter"",""1"",""1818""
","
","
","""event"",""trial"",""time""
""fullscreenenter"",""1"",""1818""
","
","","","","","","451.19999998807907","<p> Remember, you should use the 1, 2, and 3 keys to select the park for each piece of equipment. </p><br><div class=""choice-instructions-grid""> <div class=""choice-option""><img src=""images/park1.png"" class=""choice-option-img"" stage=""instructions"" position=""0"" ><div class=""choice-option-text""> Press ""1."" </div></div><div class=""choice-option""><img src=""images/park2.png"" class=""choice-option-img"" stage=""instructions"" position=""1"" ><div class=""choice-option-text""> Press ""2."" </div></div><div class=""choice-option""><img src=""images/park3.png"" class=""choice-option-img"" stage=""instructions"" position=""2"" ><div class=""choice-option-text""> Press ""3."" </div></div></div>","","0","instructions","","","","","","","","","","","","","",""
"html-button-response","40","330905","0.0-8.0-1.0","1535","2","2","""event"",""trial"",""time""
""fullscreenenter"",""1"",""1818""
","
","
","""event"",""trial"",""time""
""fullscreenenter"",""1"",""1818""
","
","","","","","","1194.1000000238419","<p> Ready to practice? </p>","0","","","","","","","","","","","","","","","",""
"html-keyboard-response","41","331508","0.0-8.0-2.0-0.0","1535","2","2","""event"",""trial"",""time""
""fullscreenenter"",""1"",""1818""
","
","
","""event"",""trial"",""time""
""fullscreenenter"",""1"",""1818""
","
","","","","","","null","<div style=""font-size:60px;"">+</div>","null","","fixation","","","","","","","","","","","","","",""
"learning-trial","42","335523","0.0-8.0-2.0-1.0","1535","2","2","""event"",""trial"",""time""
""fullscreenenter"",""1"",""1818""
","
","
","""event"",""trial"",""time""
""fullscreenenter"",""1"",""1818""
","
","","","","","","1234.800000011921","images/racket1.png","","","practice","images/park3.png","images/park2.png","images/park1.png","[2,1,0]","2","0","1","images/park3.png","1","practice","","","",""
"html-keyboard-response","43","336039","0.0-8.0-2.0-0.1","1535","2","2","""event"",""trial"",""time""
""fullscreenenter"",""1"",""1818""
","
","
","""event"",""trial"",""time""
""fullscreenenter"",""1"",""1818""
","
","","","","","","null","<div style=""font-size:60px;"">+</div>","null","","fixation","","","","","","","","","","","","","",""
"learning-trial","44","340054","0.0-8.0-2.0-1.1","1535","2","2","""event"",""trial"",""time""
""fullscreenenter"",""1"",""1818""
","
","
","""event"",""trial"",""time""
""fullscreenenter"",""1"",""1818""
","
","","","","","","1919.8999999761581","images/ball3.png","","","practice","images/park2.png","images/park3.png","images/park1.png","[1,2,0]","0","2","2","images/park3.png","-1","practice","","","",""
"html-keyboard-response","45","340556","0.0-8.0-2.0-0.2","1535","2","2","""event"",""trial"",""time""
""fullscreenenter"",""1"",""1818""
","
","
","""event"",""trial"",""time""
""fullscreenenter"",""1"",""1818""
","
","","","","","","null","<div style=""font-size:60px;"">+</div>","null","","fixation","","","","","","","","","","","","","",""
"learning-trial","46","344562","0.0-8.0-2.0-1.2","1535","2","2","""event"",""trial"",""time""
""fullscreenenter"",""1"",""1818""
","
","
","""event"",""trial"",""time""
""fullscreenenter"",""1"",""1818""
","
","","","","","","1674.199999988079","images/ball4.png","","","practice","images/park1.png","images/park2.png","images/park3.png","[0,1,2]","2","2","1","images/park1.png","-1","practice","","","",""
"html-keyboard-response","47","345072","0.0-8.0-2.0-0.3","1535","2","2","""event"",""trial"",""time""
""fullscreenenter"",""1"",""1818""
","
","
","""event"",""trial"",""time""
""fullscreenenter"",""1"",""1818""
","
","","","","","","null","<div style=""font-size:60px;"">+</div>","null","","fixation","","","","","","","","","","","","","",""
"learning-trial","48","349075","0.0-8.0-2.0-1.3","1535","2","2","""event"",""trial"",""time""
""fullscreenenter"",""1"",""1818""
","
","
","""event"",""trial"",""time""
""fullscreenenter"",""1"",""1818""
","
","","","","","","2054.600000023842","images/ball1.png","","","practice","images/park3.png","images/park2.png","images/park1.png","[2,1,0]","0","2","3","images/park1.png","1","practice","","","",""
"html-keyboard-response","49","349584","0.0-8.0-2.0-0.4","1535","2","2","""event"",""trial"",""time""
""fullscreenenter"",""1"",""1818""
","
","
","""event"",""trial"",""time""
""fullscreenenter"",""1"",""1818""
","
","","","","","","null","<div style=""font-size:60px;"">+</div>","null","","fixation","","","","","","","","","","","","","",""
"learning-trial","50","353597","0.0-8.0-2.0-1.4","1535","2","2","""event"",""trial"",""time""
""fullscreenenter"",""1"",""1818""
","
","
","""event"",""trial"",""time""
""fullscreenenter"",""1"",""1818""
","
","","","","","","1837.7999999523163","images/ball2.png","","","practice","images/park2.png","images/park3.png","images/park1.png","[1,2,0]","1","0","1","images/park2.png","1","practice","","","",""
"html-keyboard-response","51","354107","0.0-8.0-2.0-0.5","1535","2","2","""event"",""trial"",""time""
""fullscreenenter"",""1"",""1818""
","
","
","""event"",""trial"",""time""
""fullscreenenter"",""1"",""1818""
","
","","","","","","null","<div style=""font-size:60px;"">+</div>","null","","fixation","","","","","","","","","","","","","",""
"learning-trial","52","358117","0.0-8.0-2.0-1.5","1535","2","2","""event"",""trial"",""time""
""fullscreenenter"",""1"",""1818""
","
","
","""event"",""trial"",""time""
""fullscreenenter"",""1"",""1818""
","
","","","","","","787.5","images/racket1.png","","","practice","images/park2.png","images/park3.png","images/park1.png","[1,2,0]","2","1","1","images/park2.png","-1","practice","","","",""
"html-keyboard-response","53","358621","0.0-8.0-2.0-0.6","1535","2","2","""event"",""trial"",""time""
""fullscreenenter"",""1"",""1818""
","
","
","""event"",""trial"",""time""
""fullscreenenter"",""1"",""1818""
","
","","","","","","null","<div style=""font-size:60px;"">+</div>","null","","fixation","","","","","","","","","","","","","",""
"learning-trial","54","362623","0.0-8.0-2.0-1.6","1535","2","2","""event"",""trial"",""time""
""fullscreenenter"",""1"",""1818""
","
","
","""event"",""trial"",""time""
""fullscreenenter"",""1"",""1818""
","
","","","","","","1497.300000011921","images/ball3.png","","","practice","images/park2.png","images/park3.png","images/park1.png","[1,2,0]","0","2","3","images/park1.png","1","practice","","","",""
"html-keyboard-response","55","363125","0.0-8.0-2.0-0.7","1535","2","2","""event"",""trial"",""time""
""fullscreenenter"",""1"",""1818""
","
","
","""event"",""trial"",""time""
""fullscreenenter"",""1"",""1818""
","
","","","","","","null","<div style=""font-size:60px;"">+</div>","null","","fixation","","","","","","","","","","","","","",""
"learning-trial","56","367126","0.0-8.0-2.0-1.7","1535","2","2","""event"",""trial"",""time""
""fullscreenenter"",""1"",""1818""
","
","
","""event"",""trial"",""time""
""fullscreenenter"",""1"",""1818""
","
","","","","","","1329.8999999761581","images/racket4.png","","","practice","images/park1.png","images/park3.png","images/park2.png","[0,2,1]","1","2","2","images/park3.png","-1","practice","","","",""
"html-keyboard-response","57","367628","0.0-8.0-2.0-0.8","1535","2","2","""event"",""trial"",""time""
""fullscreenenter"",""1"",""1818""
","
","
","""event"",""trial"",""time""
""fullscreenenter"",""1"",""1818""
","
","","","","","","null","<div style=""font-size:60px;"">+</div>","null","","fixation","","","","","","","","","","","","","",""
"learning-trial","58","371629","0.0-8.0-2.0-1.8","1535","2","2","""event"",""trial"",""time""
""fullscreenenter"",""1"",""1818""
","
","
","""event"",""trial"",""time""
""fullscreenenter"",""1"",""1818""
","
","","","","","","1218.4000000357628","images/ball4.png","","","practice","images/park3.png","images/park2.png","images/park1.png","[2,1,0]","2","0","2","images/park2.png","-1","practice","","","",""
"html-keyboard-response","59","372131","0.0-8.0-2.0-0.9","1535","2","2","""event"",""trial"",""time""
""fullscreenenter"",""1"",""1818""
","
","
","""event"",""trial"",""time""
""fullscreenenter"",""1"",""1818""
","
","","","","","","null","<div style=""font-size:60px;"">+</div>","null","","fixation","","","","","","","","","","","","","",""
"learning-trial","60","376134","0.0-8.0-2.0-1.9","1535","2","2","""event"",""trial"",""time""
""fullscreenenter"",""1"",""1818""
","
","
","""event"",""trial"",""time""
""fullscreenenter"",""1"",""1818""
","
","","","","","","995","images/ball2.png","","","practice","images/park3.png","images/park2.png","images/park1.png","[2,1,0]","1","1","2","images/park2.png","1","practice","","","",""
"html-keyboard-response","61","376635","0.0-8.0-2.0-0.10","1535","2","2","""event"",""trial"",""time""
""fullscreenenter"",""1"",""1818""
","
","
","""event"",""trial"",""time""
""fullscreenenter"",""1"",""1818""
","
","","","","","","null","<div style=""font-size:60px;"">+</div>","null","","fixation","","","","","","","","","","","","","",""
"learning-trial","62","380637","0.0-8.0-2.0-1.10","1535","2","2","""event"",""trial"",""time""
""fullscreenenter"",""1"",""1818""
","
","
","""event"",""trial"",""time""
""fullscreenenter"",""1"",""1818""
","
","","","","","","987.5999999642372","images/ball1.png","","","practice","images/park3.png","images/park2.png","images/park1.png","[2,1,0]","0","2","3","images/park1.png","1","practice","","","",""
"html-keyboard-response","63","381138","0.0-8.0-2.0-0.11","1535","2","2","""event"",""trial"",""time""
""fullscreenenter"",""1"",""1818""
","
","
","""event"",""trial"",""time""
""fullscreenenter"",""1"",""1818""
","
","","","","","","null","<div style=""font-size:60px;"">+</div>","null","","fixation","","","","","","","","","","","","","",""
"learning-trial","64","385141","0.0-8.0-2.0-1.11","1535","2","2","""event"",""trial"",""time""
""fullscreenenter"",""1"",""1818""
","
","
","""event"",""trial"",""time""
""fullscreenenter"",""1"",""1818""
","
","","","","","","1764.5999999642372","images/racket4.png","","","practice","images/park3.png","images/park2.png","images/park1.png","[2,1,0]","1","1","3","images/park1.png","-1","practice","","","",""
"html-button-response","65","387377","0.0-8.0-3.0","1535","2","2","""event"",""trial"",""time""
""fullscreenenter"",""1"",""1818""
","
","
","""event"",""trial"",""time""
""fullscreenenter"",""1"",""1818""
","
","","","","","","2235.399999976158","<p> You earned 0 points in the practice round! </p>","0","","break","","","","","","","","","","","","","",""
"learning-instructions","66","396001","0.0-8.0-4.0-0.0","1535","2","2","""event"",""trial"",""time""
""fullscreenenter"",""1"",""1818""
","
","
","""event"",""trial"",""time""
""fullscreenenter"",""1"",""1818""
","
","","","","","","945.0999999642372","<p> It's almost time to start the real game. </p><p> Before you start, we're going to ask you a few questions about how the game works. </p>","","0","instructions","","","","","","","","","","","","","",""
"preload","67","407375","0.0-8.0-5.0","1535","2","2","""event"",""trial"",""time""
""fullscreenenter"",""1"",""1818""
","
","
","""event"",""trial"",""time""
""fullscreenenter"",""1"",""1818""
","
","true","false","[]","[]","[]","","","","","","","","","","","","","","","","","","",""
"comp-q","68","413970","0.0-8.0-6.0-0.0","1535","2","2","""event"",""trial"",""time""
""fullscreenenter"",""1"",""1818""
","
","
","""event"",""trial"",""time""
""fullscreenenter"",""1"",""1818""
","
","","","","","","1133.5999999642372","<p> <b> True or False? </b> </p><p> If you choose the best option, you will always earn 1 point. </p>","","1","comp_question","","","","","","","","","","","true","","",""
"comp-q","69","421579","0.0-8.0-6.0-1.0","1535","2","2","""event"",""trial"",""time""
""fullscreenenter"",""1"",""1818""
","
","
","""event"",""trial"",""time""
""fullscreenenter"",""1"",""1818""
","
","","","","","","1952.699999988079","<p><b> That's right! </b> Sometimes you will lose 1 point, even if you choose the best option. </p>","","0","comp_answer","","","","","","","","","","","","","",""
"comp-q","70","426647","0.0-8.0-6.0-0.1","1535","2","2","""event"",""trial"",""time""
""fullscreenenter"",""1"",""1818""
","
","
","""event"",""trial"",""time""
""fullscreenenter"",""1"",""1818""
","
","","","","","","441.19999998807907","<p> <b> True or False? </b> </p><p> You will have as much time as you want to make each choice. </p>","","1","comp_question","","","","","","","","","","","true","","",""
"comp-q","71","432945","0.0-8.0-6.0-1.1","1535","2","2","""event"",""trial"",""time""
""fullscreenenter"",""1"",""1818""
","
","
","""event"",""trial"",""time""
""fullscreenenter"",""1"",""1818""
","
","","","","","","1489.199999988079","<p> <b> That's right! </b> You will only have 4 seconds to make each choice. </p>","","0","comp_answer","","","","","","","","","","","","","",""
"comp-q","72","440767","0.0-8.0-6.0-0.2","1535","2","2","""event"",""trial"",""time""
""fullscreenenter"",""1"",""1818""
","
","
","""event"",""trial"",""time""
""fullscreenenter"",""1"",""1818""
","
","","","","","","1671.300000011921","<p> <b> True or False? </b> </p><p> You should use the '1', '2', and '3' keys to make your choices. </p>","","0","comp_question","","","","","","","","","","","true","","",""
"comp-q","73","446338","0.0-8.0-6.0-1.2","1535","2","2","""event"",""trial"",""time""
""fullscreenenter"",""1"",""1818""
","
","
","""event"",""trial"",""time""
""fullscreenenter"",""1"",""1818""
","
","","","","","","731.4000000357628","<p> <b> That's right! </b> You should use the '1', '2', and '3' keys to make each choice. </p>","","0","comp_answer","","","","","","","","","","","","","",""
"learning-instructions","74","455652","0.0-8.0-7.0-0.0","1535","2","2","""event"",""trial"",""time""
""fullscreenenter"",""1"",""1818""
","
","
","""event"",""trial"",""time""
""fullscreenenter"",""1"",""1818""
","
","","","","","","825.4000000357628","<p> It's now time to start the real game. </p>Do your best, because the points you earn in the next rounds will influence your bonus payment. </p>","","0","instructions","","","","","","","","","","","","","",""
"preload","75","484064","0.0-9.0-0.0","1535","2","2","""event"",""trial"",""time""
""fullscreenenter"",""1"",""1818""
","
","
","""event"",""trial"",""time""
""fullscreenenter"",""1"",""1818""
","
","true","false","[]","[]","[]","","","","","","","","","","","","","","","","","","",""
"learning-instructions","76","493966","0.0-9.0-1.0-0.0","1535","2","2","""event"",""trial"",""time""
""fullscreenenter"",""1"",""1818""
","
","
","""event"",""trial"",""time""
""fullscreenenter"",""1"",""1818""
","
","","","","","","2249","<p> Your goal in this round is to return farm animals to the barns where they live. </p><p>  Different animals wandered away from different barns! </p></div>","","0","instructions","","","","","","","","","","","","","",""
"learning-instructions","77","503274","0.0-9.0-1.0-0.1","1535","2","2","""event"",""trial"",""time""
""fullscreenenter"",""1"",""1818""
","
","
","""event"",""trial"",""time""
""fullscreenenter"",""1"",""1818""
","
","","","","","","677.1999999880791","<p> On each turn, you will see a picture of a farm animal and three different barns.  </p><p> You need to select the barn where each animal lives.  </p>","","0","instructions","","","","","","","","","","","","","",""
"learning-instructions","78","511238","0.0-9.0-1.0-0.2","1535","2","2","""event"",""trial"",""time""
""fullscreenenter"",""1"",""1818""
","
","
","""event"",""trial"",""time""
""fullscreenenter"",""1"",""1818""
","
","","","","","","781","<p> You can select the barn on the left by pressing 1, the barn in the middle by pressing 2, and the barn on the right by pressing 3. </p><br><div class=""choice-instructions-grid""> <div class=""choice-option""><img src=""images/animals_choice1.png"" class=""choice-option-img"" stage=""instructions"" position=""0"" ><div class=""choice-option-text""> Press ""1."" </div></div><div class=""choice-option""><img src=""images/animals_choice2.png"" class=""choice-option-img"" stage=""instructions"" position=""1"" ><div class=""choice-option-text""> Press ""2."" </div></div><div class=""choice-option""><img src=""images/animals_choice3.png"" class=""choice-option-img"" stage=""instructions"" position=""2"" ><div class=""choice-option-text""> Press ""3."" </div></div></div>","","0","instructions","","","","","","","","","","","","","",""
"learning-instructions","79","516550","0.0-9.0-1.0-0.3","1535","2","2","""event"",""trial"",""time""
""fullscreenenter"",""1"",""1818""
","
","
","""event"",""trial"",""time""
""fullscreenenter"",""1"",""1818""
","
","","","","","","173.30000001192093","<p> If you return the farm animal to the correct barn, it will usually be happy! </p><div style='float: center;'><img src='images/check.png' width = '200' height = '200'></img>","","0","instructions","","","","","","","","","","","","","",""
"learning-instructions","80","522042","0.0-9.0-1.0-0.4","1535","2","2","""event"",""trial"",""time""
""fullscreenenter"",""1"",""1818""
","
","
","""event"",""trial"",""time""
""fullscreenenter"",""1"",""1818""
","
","","","","","","195.30000001192093","<p> But, if you return the farm animal to the wrong barn, it will usually be sad. </p><div style='float: center;'><img src='images/x.png' width = '200' height = '200'></img>","","0","instructions","","","","","","","","","","","","","",""
"learning-instructions","81","534464","0.0-9.0-1.0-0.5","1535","2","2","""event"",""trial"",""time""
""fullscreenenter"",""1"",""1818""
","
","
","""event"",""trial"",""time""
""fullscreenenter"",""1"",""1818""
","
","","","","","","1867.1000000238419","<p> Importantly, each farm animal belongs in one of the barns. </p><p> If you choose the correct barn, the farm animal will return home safely and will be more likely to be happy! </p>","","0","instructions","","","","","","","","","","","","","",""
"learning-instructions","82","547320","0.0-9.0-1.0-0.6","1535","2","2","""event"",""trial"",""time""
""fullscreenenter"",""1"",""1818""
","
","
","""event"",""trial"",""time""
""fullscreenenter"",""1"",""1818""
","
","","","","","","2343.400000035763","<p> However, even if you choose the correct barn for the farm animal, it might still feel sad. </p><p> Similarly, even if you choose the <i>wrong</i> barn, it might still feel happy.","","0","instructions","","","","","","","","","","","","","",""
"learning-instructions","83","561676","0.0-9.0-1.0-0.7","1535","2","2","""event"",""trial"",""time""
""fullscreenenter"",""1"",""1818""
","
","
","""event"",""trial"",""time""
""fullscreenenter"",""1"",""1818""
","
","","","","","","649.5","<p> Try to choose the correct barn for each farm animal, because you will <b> WIN </b> 1 point for each farm animal you make happy and <b>LOSE</b> 1 point for each farm animal you make sad. </p><p> Your bonus payment will depend on your total number of points.","","0","instructions","","","","","","","","","","","","","",""
"learning-instructions","84","571760","0.0-9.0-1.0-0.8","1535","2","2","""event"",""trial"",""time""
""fullscreenenter"",""1"",""1818""
","
","
","""event"",""trial"",""time""
""fullscreenenter"",""1"",""1818""
","
","","","","","","1963.5","<p> The position of each barn will change throughout the round. </p><p> The barn's position <i> does not </i> influence how likely it is to be the correct one. </p>","","0","instructions","","","","","","","","","","","","","",""
"learning-instructions","85","581574","0.0-9.0-1.0-0.9","1535","2","2","""event"",""trial"",""time""
""fullscreenenter"",""1"",""1818""
","
","
","""event"",""trial"",""time""
""fullscreenenter"",""1"",""1818""
","
","","","","","","517.4000000357628","<p> You will have 4 seconds to make each choice. Try to respond before time runs out! </p><p> You will lose 1 point each time you do not make a response. </p>","","0","instructions","","","","","","","","","","","","","",""
"html-keyboard-response","86","582202","0.0-9.0-2.0-0.0","1535","2","2","""event"",""trial"",""time""
""fullscreenenter"",""1"",""1818""
","
","
","""event"",""trial"",""time""
""fullscreenenter"",""1"",""1818""
","
","","","","","","null","<div style=""font-size:60px;"">+</div>","null","","fixation","","","","","","","","","","","","","",""
"learning-trial","87","586204","0.0-9.0-2.0-1.0","1535","2","2","""event"",""trial"",""time""
""fullscreenenter"",""1"",""1818""
","
","
","""event"",""trial"",""time""
""fullscreenenter"",""1"",""1818""
","
","","","","","","null","images/sheep4.png","","","learning","images/animals_choice2.png","images/animals_choice3.png","images/animals_choice1.png","[1,2,0]","0","2","null","null","-1","animals","","sheep","2","0"
"html-keyboard-response","88","586705","0.0-9.0-2.0-0.1","1535","2","2","""event"",""trial"",""time""
""fullscreenenter"",""1"",""1818""
","
","
","""event"",""trial"",""time""
""fullscreenenter"",""1"",""1818""
","
","","","","","","null","<div style=""font-size:60px;"">+</div>","null","","fixation","","","","","","","","","","","","","",""
"learning-trial","89","590722","0.0-9.0-2.0-1.1","1535","2","2","""event"",""trial"",""time""
""fullscreenenter"",""1"",""1818""
","
","
","""event"",""trial"",""time""
""fullscreenenter"",""1"",""1818""
","
","","","","","","1437.5","images/horse5.png","","","learning","images/animals_choice2.png","images/animals_choice1.png","images/animals_choice3.png","[1,0,2]","2","2","2","images/animals_choice1.png","-1","animals","","horse","2","0"
"html-keyboard-response","90","591235","0.0-9.0-2.0-0.2","1535","2","2","""event"",""trial"",""time""
""fullscreenenter"",""1"",""1818""
","
","
","""event"",""trial"",""time""
""fullscreenenter"",""1"",""1818""
","
","","","","","","null","<div style=""font-size:60px;"">+</div>","null","","fixation","","","","","","","","","","","","","",""
"learning-trial","91","595244","0.0-9.0-2.0-1.2","1535","2","2","""event"",""trial"",""time""
""fullscreenenter"",""1"",""1818""
","
","
","""event"",""trial"",""time""
""fullscreenenter"",""1"",""1818""
","
","","","","","","891.6999999880791","images/horse5.png","","","learning","images/animals_choice3.png","images/animals_choice1.png","images/animals_choice2.png","[2,0,1]","2","0","3","images/animals_choice2.png","-1","animals","","horse","2","0"
"html-keyboard-response","92","595758","0.0-9.0-2.0-0.3","1535","2","2","""event"",""trial"",""time""
""fullscreenenter"",""1"",""1818""
","
","
","""event"",""trial"",""time""
""fullscreenenter"",""1"",""1818""
","
","","","","","","null","<div style=""font-size:60px;"">+</div>","null","","fixation","","","","","","","","","","","","","",""
"learning-trial","93","599769","0.0-9.0-2.0-1.3","1535","2","2","""event"",""trial"",""time""
""fullscreenenter"",""1"",""1818""
","
","
","""event"",""trial"",""time""
""fullscreenenter"",""1"",""1818""
","
","","","","","","1201.1000000238419","images/cow4.png","","","learning","images/animals_choice2.png","images/animals_choice3.png","images/animals_choice1.png","[1,2,0]","2","1","2","images/animals_choice3.png","1","animals","","cow","2","0"
"html-keyboard-response","94","600283","0.0-9.0-2.0-0.4","1535","2","2","""event"",""trial"",""time""
""fullscreenenter"",""1"",""1818""
","
","
","""event"",""trial"",""time""
""fullscreenenter"",""1"",""1818""
","
","","","","","","null","<div style=""font-size:60px;"">+</div>","null","","fixation","","","","","","","","","","","","","",""
"learning-trial","95","604293","0.0-9.0-2.0-1.4","1535","2","2","""event"",""trial"",""time""
""fullscreenenter"",""1"",""1818""
","
","
","""event"",""trial"",""time""
""fullscreenenter"",""1"",""1818""
","
","","","","","","827.2000000476837","images/sheep1.png","","","learning","images/animals_choice2.png","images/animals_choice3.png","images/animals_choice1.png","[1,2,0]","2","1","1","images/animals_choice2.png","-1","animals","","sheep","2","0"
"html-keyboard-response","96","604807","0.0-9.0-2.0-0.5","1535","2","2","""event"",""trial"",""time""
""fullscreenenter"",""1"",""1818""
","
","
","""event"",""trial"",""time""
""fullscreenenter"",""1"",""1818""
","
","","","","","","null","<div style=""font-size:60px;"">+</div>","null","","fixation","","","","","","","","","","","","","",""
"learning-trial","97","608820","0.0-9.0-2.0-1.5","1535","2","2","""event"",""trial"",""time""
""fullscreenenter"",""1"",""1818""
","
","
","""event"",""trial"",""time""
""fullscreenenter"",""1"",""1818""
","
","","","","","","1007.9000000357628","images/sheep3.png","","","learning","images/animals_choice2.png","images/animals_choice3.png","images/animals_choice1.png","[1,2,0]","1","0","1","images/animals_choice2.png","1","animals","","sheep","2","0"
"html-keyboard-response","98","609333","0.0-9.0-2.0-0.6","1535","2","2","""event"",""trial"",""time""
""fullscreenenter"",""1"",""1818""
","
","
","""event"",""trial"",""time""
""fullscreenenter"",""1"",""1818""
","
","","","","","","null","<div style=""font-size:60px;"">+</div>","null","","fixation","","","","","","","","","","","","","",""
"learning-trial","99","613336","0.0-9.0-2.0-1.6","1535","2","2","""event"",""trial"",""time""
""fullscreenenter"",""1"",""1818""
","
","
","""event"",""trial"",""time""
""fullscreenenter"",""1"",""1818""
","
","","","","","","1193.6000000238419","images/horse2.png","","","learning","images/animals_choice1.png","images/animals_choice3.png","images/animals_choice2.png","[0,2,1]","1","2","3","images/animals_choice2.png","1","animals","","horse","2","0"
"html-keyboard-response","100","613837","0.0-9.0-2.0-0.7","1535","2","2","""event"",""trial"",""time""
""fullscreenenter"",""1"",""1818""
","
","
","""event"",""trial"",""time""
""fullscreenenter"",""1"",""1818""
","
","","","","","","null","<div style=""font-size:60px;"">+</div>","null","","fixation","","","","","","","","","","","","","",""
"learning-trial","101","617840","0.0-9.0-2.0-1.7","1535","2","2","""event"",""trial"",""time""
""fullscreenenter"",""1"",""1818""
","
","
","""event"",""trial"",""time""
""fullscreenenter"",""1"",""1818""
","
","","","","","","1177.1000000238419","images/sheep4.png","","","learning","images/animals_choice2.png","images/animals_choice3.png","images/animals_choice1.png","[1,2,0]","0","2","1","images/animals_choice2.png","-1","animals","","sheep","2","0"
"html-keyboard-response","102","618341","0.0-9.0-2.0-0.8","1535","2","2","""event"",""trial"",""time""
""fullscreenenter"",""1"",""1818""
","
","
","""event"",""trial"",""time""
""fullscreenenter"",""1"",""1818""
","
","","","","","","null","<div style=""font-size:60px;"">+</div>","null","","fixation","","","","","","","","","","","","","",""
"learning-trial","103","622343","0.0-9.0-2.0-1.8","1535","2","2","""event"",""trial"",""time""
""fullscreenenter"",""1"",""1818""
","
","
","""event"",""trial"",""time""
""fullscreenenter"",""1"",""1818""
","
","","","","","","1433.6000000238419","images/cow4.png","","","learning","images/animals_choice3.png","images/animals_choice1.png","images/animals_choice2.png","[2,0,1]","2","0","2","images/animals_choice1.png","-1","animals","","cow","2","0"
"html-keyboard-response","104","622844","0.0-9.0-2.0-0.9","1535","2","2","""event"",""trial"",""time""
""fullscreenenter"",""1"",""1818""
","
","
","""event"",""trial"",""time""
""fullscreenenter"",""1"",""1818""
","
","","","","","","null","<div style=""font-size:60px;"">+</div>","null","","fixation","","","","","","","","","","","","","",""
"learning-trial","105","626847","0.0-9.0-2.0-1.9","1535","2","2","""event"",""trial"",""time""
""fullscreenenter"",""1"",""1818""
","
","
","""event"",""trial"",""time""
""fullscreenenter"",""1"",""1818""
","
","","","","","","1507.199999988079","images/sheep3.png","","","learning","images/animals_choice2.png","images/animals_choice1.png","images/animals_choice3.png","[1,0,2]","1","0","2","images/animals_choice1.png","-1","animals","","sheep","2","0"
"html-keyboard-response","106","627351","0.0-9.0-2.0-0.10","1535","2","2","""event"",""trial"",""time""
""fullscreenenter"",""1"",""1818""
","
","
","""event"",""trial"",""time""
""fullscreenenter"",""1"",""1818""
","
","","","","","","null","<div style=""font-size:60px;"">+</div>","null","","fixation","","","","","","","","","","","","","",""
"learning-trial","107","631352","0.0-9.0-2.0-1.10","1535","2","2","""event"",""trial"",""time""
""fullscreenenter"",""1"",""1818""
","
","
","""event"",""trial"",""time""
""fullscreenenter"",""1"",""1818""
","
","","","","","","1175.800000011921","images/horse2.png","","","learning","images/animals_choice3.png","images/animals_choice2.png","images/animals_choice1.png","[2,1,0]","1","1","3","images/animals_choice1.png","-1","animals","","horse","2","0"
"html-keyboard-response","108","631854","0.0-9.0-2.0-0.11","1535","2","2","""event"",""trial"",""time""
""fullscreenenter"",""1"",""1818""
","
","
","""event"",""trial"",""time""
""fullscreenenter"",""1"",""1818""
","
","","","","","","null","<div style=""font-size:60px;"">+</div>","null","","fixation","","","","","","","","","","","","","",""
"learning-trial","109","635855","0.0-9.0-2.0-1.11","1535","2","2","""event"",""trial"",""time""
""fullscreenenter"",""1"",""1818""
","
","
","""event"",""trial"",""time""
""fullscreenenter"",""1"",""1818""
","
","","","","","","1192.6000000238419","images/cow4.png","","","learning","images/animals_choice2.png","images/animals_choice3.png","images/animals_choice1.png","[1,2,0]","2","1","1","images/animals_choice2.png","1","animals","","cow","2","0"
"html-keyboard-response","110","636356","0.0-9.0-2.0-0.12","1535","2","2","""event"",""trial"",""time""
""fullscreenenter"",""1"",""1818""
","
","
","""event"",""trial"",""time""
""fullscreenenter"",""1"",""1818""
","
","","","","","","null","<div style=""font-size:60px;"">+</div>","null","","fixation","","","","","","","","","","","","","",""
"learning-trial","111","640359","0.0-9.0-2.0-1.12","1535","2","2","""event"",""trial"",""time""
""fullscreenenter"",""1"",""1818""
","
","
","""event"",""trial"",""time""
""fullscreenenter"",""1"",""1818""
","
","","","","","","1746.7999999523163","images/cow3.png","","","learning","images/animals_choice2.png","images/animals_choice3.png","images/animals_choice1.png","[1,2,0]","0","2","2","images/animals_choice3.png","-1","animals","","cow","2","0"
"html-keyboard-response","112","640859","0.0-9.0-2.0-0.13","1535","2","2","""event"",""trial"",""time""
""fullscreenenter"",""1"",""1818""
","
","
","""event"",""trial"",""time""
""fullscreenenter"",""1"",""1818""
","
","","","","","","null","<div style=""font-size:60px;"">+</div>","null","","fixation","","","","","","","","","","","","","",""
"learning-trial","113","644861","0.0-9.0-2.0-1.13","1535","2","2","""event"",""trial"",""time""
""fullscreenenter"",""1"",""1818""
","
","
","""event"",""trial"",""time""
""fullscreenenter"",""1"",""1818""
","
","","","","","","1451","images/horse3.png","","","learning","images/animals_choice1.png","images/animals_choice2.png","images/animals_choice3.png","[0,1,2]","0","0","1","images/animals_choice1.png","1","animals","","horse","2","0"
"html-keyboard-response","114","645362","0.0-9.0-2.0-0.14","1535","2","2","""event"",""trial"",""time""
""fullscreenenter"",""1"",""1818""
","
","
","""event"",""trial"",""time""
""fullscreenenter"",""1"",""1818""
","
","","","","","","null","<div style=""font-size:60px;"">+</div>","null","","fixation","","","","","","","","","","","","","",""
"learning-trial","115","649364","0.0-9.0-2.0-1.14","1535","2","2","""event"",""trial"",""time""
""fullscreenenter"",""1"",""1818""
","
","
","""event"",""trial"",""time""
""fullscreenenter"",""1"",""1818""
","
","","","","","","1324.9000000357628","images/horse2.png","","","learning","images/animals_choice3.png","images/animals_choice2.png","images/animals_choice1.png","[2,1,0]","1","1","3","images/animals_choice1.png","-1","animals","","horse","2","0"
"html-keyboard-response","116","649866","0.0-9.0-2.0-0.15","1535","2","2","""event"",""trial"",""time""
""fullscreenenter"",""1"",""1818""
","
","
","""event"",""trial"",""time""
""fullscreenenter"",""1"",""1818""
","
","","","","","","null","<div style=""font-size:60px;"">+</div>","null","","fixation","","","","","","","","","","","","","",""
"learning-trial","117","653868","0.0-9.0-2.0-1.15","1535","2","2","""event"",""trial"",""time""
""fullscreenenter"",""1"",""1818""
","
","
","""event"",""trial"",""time""
""fullscreenenter"",""1"",""1818""
","
","","","","","","957.0999999642372","images/horse5.png","","","learning","images/animals_choice2.png","images/animals_choice3.png","images/animals_choice1.png","[1,2,0]","2","1","3","images/animals_choice1.png","-1","animals","","horse","2","0"
"html-keyboard-response","118","654369","0.0-9.0-2.0-0.16","1535","2","2","""event"",""trial"",""time""
""fullscreenenter"",""1"",""1818""
","
","
","""event"",""trial"",""time""
""fullscreenenter"",""1"",""1818""
","
","","","","","","null","<div style=""font-size:60px;"">+</div>","null","","fixation","","","","","","","","","","","","","",""
"learning-trial","119","658371","0.0-9.0-2.0-1.16","1535","2","2","""event"",""trial"",""time""
""fullscreenenter"",""1"",""1818""
","
","
","""event"",""trial"",""time""
""fullscreenenter"",""1"",""1818""
","
","","","","","","2029.3999999761581","images/horse3.png","","","learning","images/animals_choice1.png","images/animals_choice3.png","images/animals_choice2.png","[0,2,1]","0","0","2","images/animals_choice3.png","-1","animals","","horse","2","0"
"html-keyboard-response","120","658873","0.0-9.0-2.0-0.17","1535","2","2","""event"",""trial"",""time""
""fullscreenenter"",""1"",""1818""
","
","
","""event"",""trial"",""time""
""fullscreenenter"",""1"",""1818""
","
","","","","","","null","<div style=""font-size:60px;"">+</div>","null","","fixation","","","","","","","","","","","","","",""
"learning-trial","121","662875","0.0-9.0-2.0-1.17","1535","2","2","""event"",""trial"",""time""
""fullscreenenter"",""1"",""1818""
","
","
","""event"",""trial"",""time""
""fullscreenenter"",""1"",""1818""
","
","","","","","","694","images/horse3.png","","","learning","images/animals_choice1.png","images/animals_choice3.png","images/animals_choice2.png","[0,2,1]","0","0","3","images/animals_choice2.png","-1","animals","","horse","2","0"
"html-keyboard-response","122","663377","0.0-9.0-2.0-0.18","1535","2","2","""event"",""trial"",""time""
""fullscreenenter"",""1"",""1818""
","
","
","""event"",""trial"",""time""
""fullscreenenter"",""1"",""1818""
","
","","","","","","null","<div style=""font-size:60px;"">+</div>","null","","fixation","","","","","","","","","","","","","",""
"learning-trial","123","667379","0.0-9.0-2.0-1.18","1535","2","2","""event"",""trial"",""time""
""fullscreenenter"",""1"",""1818""
","
","
","""event"",""trial"",""time""
""fullscreenenter"",""1"",""1818""
","
","","","","","","1798.300000011921","images/horse5.png","","","learning","images/animals_choice3.png","images/animals_choice2.png","images/animals_choice1.png","[2,1,0]","2","0","3","images/animals_choice1.png","-1","animals","","horse","2","0"
"html-keyboard-response","124","667880","0.0-9.0-2.0-0.19","1535","2","2","""event"",""trial"",""time""
""fullscreenenter"",""1"",""1818""
","
","
","""event"",""trial"",""time""
""fullscreenenter"",""1"",""1818""
","
","","","","","","null","<div style=""font-size:60px;"">+</div>","null","","fixation","","","","","","","","","","","","","",""
"learning-trial","125","671882","0.0-9.0-2.0-1.19","1535","2","2","""event"",""trial"",""time""
""fullscreenenter"",""1"",""1818""
","
","
","""event"",""trial"",""time""
""fullscreenenter"",""1"",""1818""
","
","","","","","","1742.699999988079","images/cow3.png","","","learning","images/animals_choice2.png","images/animals_choice1.png","images/animals_choice3.png","[1,0,2]","0","1","3","images/animals_choice3.png","-1","animals","","cow","2","0"
"html-keyboard-response","126","672396","0.0-9.0-2.0-0.20","1535","2","2","""event"",""trial"",""time""
""fullscreenenter"",""1"",""1818""
","
","
","""event"",""trial"",""time""
""fullscreenenter"",""1"",""1818""
","
","","","","","","null","<div style=""font-size:60px;"">+</div>","null","","fixation","","","","","","","","","","","","","",""
"learning-trial","127","676398","0.0-9.0-2.0-1.20","1535","2","2","""event"",""trial"",""time""
""fullscreenenter"",""1"",""1818""
","
","
","""event"",""trial"",""time""
""fullscreenenter"",""1"",""1818""
","
","","","","","","1090.1000000238419","images/horse3.png","","","learning","images/animals_choice2.png","images/animals_choice3.png","images/animals_choice1.png","[1,2,0]","0","2","1","images/animals_choice2.png","-1","animals","","horse","2","0"
"html-keyboard-response","128","676899","0.0-9.0-2.0-0.21","1535","2","2","""event"",""trial"",""time""
""fullscreenenter"",""1"",""1818""
","
","
","""event"",""trial"",""time""
""fullscreenenter"",""1"",""1818""
","
","","","","","","null","<div style=""font-size:60px;"">+</div>","null","","fixation","","","","","","","","","","","","","",""
"learning-trial","129","680901","0.0-9.0-2.0-1.21","1535","2","2","""event"",""trial"",""time""
""fullscreenenter"",""1"",""1818""
","
","
","""event"",""trial"",""time""
""fullscreenenter"",""1"",""1818""
","
","","","","","","1171.0999999642372","images/cow4.png","","","learning","images/animals_choice3.png","images/animals_choice1.png","images/animals_choice2.png","[2,0,1]","2","0","1","images/animals_choice3.png","1","animals","","cow","2","0"
"html-keyboard-response","130","681401","0.0-9.0-2.0-0.22","1535","2","2","""event"",""trial"",""time""
""fullscreenenter"",""1"",""1818""
","
","
","""event"",""trial"",""time""
""fullscreenenter"",""1"",""1818""
","
","","","","","","null","<div style=""font-size:60px;"">+</div>","null","","fixation","","","","","","","","","","","","","",""
"learning-trial","131","685404","0.0-9.0-2.0-1.22","1535","2","2","""event"",""trial"",""time""
""fullscreenenter"",""1"",""1818""
","
","
","""event"",""trial"",""time""
""fullscreenenter"",""1"",""1818""
","
","","","","","","1116.4000000357628","images/sheep1.png","","","learning","images/animals_choice2.png","images/animals_choice3.png","images/animals_choice1.png","[1,2,0]","2","1","1","images/animals_choice2.png","-1","animals","","sheep","2","0"
"html-keyboard-response","132","685905","0.0-9.0-2.0-0.23","1535","2","2","""event"",""trial"",""time""
""fullscreenenter"",""1"",""1818""
","
","
","""event"",""trial"",""time""
""fullscreenenter"",""1"",""1818""
","
","","","","","","null","<div style=""font-size:60px;"">+</div>","null","","fixation","","","","","","","","","","","","","",""
"learning-trial","133","689907","0.0-9.0-2.0-1.23","1535","2","2","""event"",""trial"",""time""
""fullscreenenter"",""1"",""1818""
","
","
","""event"",""trial"",""time""
""fullscreenenter"",""1"",""1818""
","
","","","","","","812.7000000476837","images/sheep4.png","","","learning","images/animals_choice3.png","images/animals_choice2.png","images/animals_choice1.png","[2,1,0]","0","2","1","images/animals_choice3.png","-1","animals","","sheep","2","0"
"html-keyboard-response","134","690409","0.0-9.0-2.0-0.24","1535","2","2","""event"",""trial"",""time""
""fullscreenenter"",""1"",""1818""
","
","
","""event"",""trial"",""time""
""fullscreenenter"",""1"",""1818""
","
","","","","","","null","<div style=""font-size:60px;"">+</div>","null","","fixation","","","","","","","","","","","","","",""
"learning-trial","135","694411","0.0-9.0-2.0-1.24","1535","2","2","""event"",""trial"",""time""
""fullscreenenter"",""1"",""1818""
","
","
","""event"",""trial"",""time""
""fullscreenenter"",""1"",""1818""
","
","","","","","","1133.300000011921","images/sheep4.png","","","learning","images/animals_choice1.png","images/animals_choice2.png","images/animals_choice3.png","[0,1,2]","0","0","2","images/animals_choice2.png","-1","animals","","sheep","2","0"
"html-keyboard-response","136","694912","0.0-9.0-2.0-0.25","1535","2","2","""event"",""trial"",""time""
""fullscreenenter"",""1"",""1818""
","
","
","""event"",""trial"",""time""
""fullscreenenter"",""1"",""1818""
","
","","","","","","null","<div style=""font-size:60px;"">+</div>","null","","fixation","","","","","","","","","","","","","",""
"learning-trial","137","698913","0.0-9.0-2.0-1.25","1535","2","2","""event"",""trial"",""time""
""fullscreenenter"",""1"",""1818""
","
","
","""event"",""trial"",""time""
""fullscreenenter"",""1"",""1818""
","
","","","","","","1230.0999999642372","images/cow4.png","","","learning","images/animals_choice1.png","images/animals_choice2.png","images/animals_choice3.png","[0,1,2]","2","2","3","images/animals_choice3.png","1","animals","","cow","2","0"
"html-keyboard-response","138","699414","0.0-9.0-2.0-0.26","1535","2","2","""event"",""trial"",""time""
""fullscreenenter"",""1"",""1818""
","
","
","""event"",""trial"",""time""
""fullscreenenter"",""1"",""1818""
","
","","","","","","null","<div style=""font-size:60px;"">+</div>","null","","fixation","","","","","","","","","","","","","",""
"learning-trial","139","703416","0.0-9.0-2.0-1.26","1535","2","2","""event"",""trial"",""time""
""fullscreenenter"",""1"",""1818""
","
","
","""event"",""trial"",""time""
""fullscreenenter"",""1"",""1818""
","
","","","","","","1191.9000000357628","images/horse5.png","","","learning","images/animals_choice1.png","images/animals_choice2.png","images/animals_choice3.png","[0,1,2]","2","2","2","images/animals_choice2.png","-1","animals","","horse","2","0"
"html-keyboard-response","140","703918","0.0-9.0-2.0-0.27","1535","2","2","""event"",""trial"",""time""
""fullscreenenter"",""1"",""1818""
","
","
","""event"",""trial"",""time""
""fullscreenenter"",""1"",""1818""
","
","","","","","","null","<div style=""font-size:60px;"">+</div>","null","","fixation","","","","","","","","","","","","","",""
"learning-trial","141","707920","0.0-9.0-2.0-1.27","1535","2","2","""event"",""trial"",""time""
""fullscreenenter"",""1"",""1818""
","
","
","""event"",""trial"",""time""
""fullscreenenter"",""1"",""1818""
","
","","","","","","1360.5","images/cow1.png","","","learning","images/animals_choice2.png","images/animals_choice3.png","images/animals_choice1.png","[1,2,0]","1","0","3","images/animals_choice1.png","1","animals","","cow","2","0"
"html-keyboard-response","142","708422","0.0-9.0-2.0-0.28","1535","2","2","""event"",""trial"",""time""
""fullscreenenter"",""1"",""1818""
","
","
","""event"",""trial"",""time""
""fullscreenenter"",""1"",""1818""
","
","","","","","","null","<div style=""font-size:60px;"">+</div>","null","","fixation","","","","","","","","","","","","","",""
"learning-trial","143","712423","0.0-9.0-2.0-1.28","1535","2","2","""event"",""trial"",""time""
""fullscreenenter"",""1"",""1818""
","
","
","""event"",""trial"",""time""
""fullscreenenter"",""1"",""1818""
","
","","","","","","1320.2000000476837","images/horse2.png","","","learning","images/animals_choice1.png","images/animals_choice3.png","images/animals_choice2.png","[0,2,1]","1","2","1","images/animals_choice1.png","-1","animals","","horse","2","0"
"html-keyboard-response","144","712924","0.0-9.0-2.0-0.29","1535","2","2","""event"",""trial"",""time""
""fullscreenenter"",""1"",""1818""
","
","
","""event"",""trial"",""time""
""fullscreenenter"",""1"",""1818""
","
","","","","","","null","<div style=""font-size:60px;"">+</div>","null","","fixation","","","","","","","","","","","","","",""
"learning-trial","145","716926","0.0-9.0-2.0-1.29","1535","2","2","""event"",""trial"",""time""
""fullscreenenter"",""1"",""1818""
","
","
","""event"",""trial"",""time""
""fullscreenenter"",""1"",""1818""
","
","","","","","","1073.7000000476837","images/horse3.png","","","learning","images/animals_choice2.png","images/animals_choice3.png","images/animals_choice1.png","[1,2,0]","0","2","1","images/animals_choice2.png","-1","animals","","horse","2","0"
"html-keyboard-response","146","717427","0.0-9.0-2.0-0.30","1535","2","2","""event"",""trial"",""time""
""fullscreenenter"",""1"",""1818""
","
","
","""event"",""trial"",""time""
""fullscreenenter"",""1"",""1818""
","
","","","","","","null","<div style=""font-size:60px;"">+</div>","null","","fixation","","","","","","","","","","","","","",""
"learning-trial","147","721429","0.0-9.0-2.0-1.30","1535","2","2","""event"",""trial"",""time""
""fullscreenenter"",""1"",""1818""
","
","
","""event"",""trial"",""time""
""fullscreenenter"",""1"",""1818""
","
","","","","","","1059.0999999642372","images/sheep3.png","","","learning","images/animals_choice2.png","images/animals_choice3.png","images/animals_choice1.png","[1,2,0]","1","0","1","images/animals_choice2.png","-1","animals","","sheep","2","0"
"html-keyboard-response","148","721931","0.0-9.0-2.0-0.31","1535","2","2","""event"",""trial"",""time""
""fullscreenenter"",""1"",""1818""
","
","
","""event"",""trial"",""time""
""fullscreenenter"",""1"",""1818""
","
","","","","","","null","<div style=""font-size:60px;"">+</div>","null","","fixation","","","","","","","","","","","","","",""
"learning-trial","149","725933","0.0-9.0-2.0-1.31","1535","2","2","""event"",""trial"",""time""
""fullscreenenter"",""1"",""1818""
","
","
","""event"",""trial"",""time""
""fullscreenenter"",""1"",""1818""
","
","","","","","","1307.2000000476837","images/cow3.png","","","learning","images/animals_choice2.png","images/animals_choice3.png","images/animals_choice1.png","[1,2,0]","0","2","2","images/animals_choice3.png","-1","animals","","cow","2","0"
"html-keyboard-response","150","726434","0.0-9.0-2.0-0.32","1535","2","2","""event"",""trial"",""time""
""fullscreenenter"",""1"",""1818""
","
","
","""event"",""trial"",""time""
""fullscreenenter"",""1"",""1818""
","
","","","","","","null","<div style=""font-size:60px;"">+</div>","null","","fixation","","","","","","","","","","","","","",""
"learning-trial","151","730437","0.0-9.0-2.0-1.32","1535","2","2","""event"",""trial"",""time""
""fullscreenenter"",""1"",""1818""
","
","
","""event"",""trial"",""time""
""fullscreenenter"",""1"",""1818""
","
","","","","","","1067.5999999642372","images/cow3.png","","","learning","images/animals_choice2.png","images/animals_choice1.png","images/animals_choice3.png","[1,0,2]","0","1","2","images/animals_choice1.png","1","animals","","cow","2","0"
"html-keyboard-response","152","730938","0.0-9.0-2.0-0.33","1535","2","2","""event"",""trial"",""time""
""fullscreenenter"",""1"",""1818""
","
","
","""event"",""trial"",""time""
""fullscreenenter"",""1"",""1818""
","
","","","","","","null","<div style=""font-size:60px;"">+</div>","null","","fixation","","","","","","","","","","","","","",""
"learning-trial","153","734941","0.0-9.0-2.0-1.33","1535","2","2","""event"",""trial"",""time""
""fullscreenenter"",""1"",""1818""
","
","
","""event"",""trial"",""time""
""fullscreenenter"",""1"",""1818""
","
","","","","","","1108.199999988079","images/cow1.png","","","learning","images/animals_choice1.png","images/animals_choice3.png","images/animals_choice2.png","[0,2,1]","1","2","2","images/animals_choice3.png","-1","animals","","cow","2","0"
"html-keyboard-response","154","735442","0.0-9.0-2.0-0.34","1535","2","2","""event"",""trial"",""time""
""fullscreenenter"",""1"",""1818""
","
","
","""event"",""trial"",""time""
""fullscreenenter"",""1"",""1818""
","
","","","","","","null","<div style=""font-size:60px;"">+</div>","null","","fixation","","","","","","","","","","","","","",""
"learning-trial","155","739444","0.0-9.0-2.0-1.34","1535","2","2","""event"",""trial"",""time""
""fullscreenenter"",""1"",""1818""
","
","
","""event"",""trial"",""time""
""fullscreenenter"",""1"",""1818""
","
","","","","","","1004.6999999880791","images/cow3.png","","","learning","images/animals_choice3.png","images/animals_choice1.png","images/animals_choice2.png","[2,0,1]","0","1","2","images/animals_choice1.png","1","animals","","cow","2","0"
"html-keyboard-response","156","739945","0.0-9.0-2.0-0.35","1535","2","2","""event"",""trial"",""time""
""fullscreenenter"",""1"",""1818""
","
","
","""event"",""trial"",""time""
""fullscreenenter"",""1"",""1818""
","
","","","","","","null","<div style=""font-size:60px;"">+</div>","null","","fixation","","","","","","","","","","","","","",""
"learning-trial","157","743948","0.0-9.0-2.0-1.35","1535","2","2","""event"",""trial"",""time""
""fullscreenenter"",""1"",""1818""
","
","
","""event"",""trial"",""time""
""fullscreenenter"",""1"",""1818""
","
","","","","","","1132.1000000238419","images/sheep3.png","","","learning","images/animals_choice3.png","images/animals_choice1.png","images/animals_choice2.png","[2,0,1]","1","2","1","images/animals_choice3.png","-1","animals","","sheep","2","0"
"html-keyboard-response","158","744449","0.0-9.0-2.0-0.36","1535","2","2","""event"",""trial"",""time""
""fullscreenenter"",""1"",""1818""
","
","
","""event"",""trial"",""time""
""fullscreenenter"",""1"",""1818""
","
","","","","","","null","<div style=""font-size:60px;"">+</div>","null","","fixation","","","","","","","","","","","","","",""
"learning-trial","159","748452","0.0-9.0-2.0-1.36","1535","2","2","""event"",""trial"",""time""
""fullscreenenter"",""1"",""1818""
","
","
","""event"",""trial"",""time""
""fullscreenenter"",""1"",""1818""
","
","","","","","","1125.5","images/sheep4.png","","","learning","images/animals_choice3.png","images/animals_choice1.png","images/animals_choice2.png","[2,0,1]","0","1","1","images/animals_choice3.png","-1","animals","","sheep","2","0"
"html-keyboard-response","160","748953","0.0-9.0-2.0-0.37","1535","2","2","""event"",""trial"",""time""
""fullscreenenter"",""1"",""1818""
","
","
","""event"",""trial"",""time""
""fullscreenenter"",""1"",""1818""
","
","","","","","","null","<div style=""font-size:60px;"">+</div>","null","","fixation","","","","","","","","","","","","","",""
"learning-trial","161","752955","0.0-9.0-2.0-1.37","1535","2","2","""event"",""trial"",""time""
""fullscreenenter"",""1"",""1818""
","
","
","""event"",""trial"",""time""
""fullscreenenter"",""1"",""1818""
","
","","","","","","1198.1000000238419","images/horse2.png","","","learning","images/animals_choice1.png","images/animals_choice3.png","images/animals_choice2.png","[0,2,1]","1","2","1","images/animals_choice1.png","-1","animals","","horse","2","0"
"html-keyboard-response","162","753456","0.0-9.0-2.0-0.38","1535","2","2","""event"",""trial"",""time""
""fullscreenenter"",""1"",""1818""
","
","
","""event"",""trial"",""time""
""fullscreenenter"",""1"",""1818""
","
","","","","","","null","<div style=""font-size:60px;"">+</div>","null","","fixation","","","","","","","","","","","","","",""
"learning-trial","163","757458","0.0-9.0-2.0-1.38","1535","2","2","""event"",""trial"",""time""
""fullscreenenter"",""1"",""1818""
","
","
","""event"",""trial"",""time""
""fullscreenenter"",""1"",""1818""
","
","","","","","","1238.6000000238419","images/sheep3.png","","","learning","images/animals_choice3.png","images/animals_choice2.png","images/animals_choice1.png","[2,1,0]","1","1","3","images/animals_choice1.png","-1","animals","","sheep","2","0"
"html-keyboard-response","164","757959","0.0-9.0-2.0-0.39","1535","2","2","""event"",""trial"",""time""
""fullscreenenter"",""1"",""1818""
","
","
","""event"",""trial"",""time""
""fullscreenenter"",""1"",""1818""
","
","","","","","","null","<div style=""font-size:60px;"">+</div>","null","","fixation","","","","","","","","","","","","","",""
"learning-trial","165","761961","0.0-9.0-2.0-1.39","1535","2","2","""event"",""trial"",""time""
""fullscreenenter"",""1"",""1818""
","
","
","""event"",""trial"",""time""
""fullscreenenter"",""1"",""1818""
","
","","","","","","1767.3999999761581","images/cow1.png","","","learning","images/animals_choice3.png","images/animals_choice1.png","images/animals_choice2.png","[2,0,1]","1","2","2","images/animals_choice1.png","-1","animals","","cow","2","0"
"html-keyboard-response","166","762472","0.0-9.0-2.0-0.40","1535","2","2","""event"",""trial"",""time""
""fullscreenenter"",""1"",""1818""
","
","
","""event"",""trial"",""time""
""fullscreenenter"",""1"",""1818""
","
","","","","","","null","<div style=""font-size:60px;"">+</div>","null","","fixation","","","","","","","","","","","","","",""
"learning-trial","167","766487","0.0-9.0-2.0-1.40","1535","2","2","""event"",""trial"",""time""
""fullscreenenter"",""1"",""1818""
","
","
","""event"",""trial"",""time""
""fullscreenenter"",""1"",""1818""
","
","","","","","","1534.800000011921","images/sheep1.png","","","learning","images/animals_choice3.png","images/animals_choice2.png","images/animals_choice1.png","[2,1,0]","2","0","3","images/animals_choice1.png","-1","animals","","sheep","2","0"
"html-keyboard-response","168","766989","0.0-9.0-2.0-0.41","1535","2","2","""event"",""trial"",""time""
""fullscreenenter"",""1"",""1818""
","
","
","""event"",""trial"",""time""
""fullscreenenter"",""1"",""1818""
","
","","","","","","null","<div style=""font-size:60px;"">+</div>","null","","fixation","","","","","","","","","","","","","",""
"learning-trial","169","770991","0.0-9.0-2.0-1.41","1535","2","2","""event"",""trial"",""time""
""fullscreenenter"",""1"",""1818""
","
","
","""event"",""trial"",""time""
""fullscreenenter"",""1"",""1818""
","
","","","","","","1481.800000011921","images/cow1.png","","","learning","images/animals_choice1.png","images/animals_choice2.png","images/animals_choice3.png","[0,1,2]","1","1","2","images/animals_choice2.png","-1","animals","","cow","2","0"
"html-keyboard-response","170","771492","0.0-9.0-2.0-0.42","1535","2","2","""event"",""trial"",""time""
""fullscreenenter"",""1"",""1818""
","
","
","""event"",""trial"",""time""
""fullscreenenter"",""1"",""1818""
","
","","","","","","null","<div style=""font-size:60px;"">+</div>","null","","fixation","","","","","","","","","","","","","",""
"learning-trial","171","775495","0.0-9.0-2.0-1.42","1535","2","2","""event"",""trial"",""time""
""fullscreenenter"",""1"",""1818""
","
","
","""event"",""trial"",""time""
""fullscreenenter"",""1"",""1818""
","
","","","","","","1403.199999988079","images/sheep1.png","","","learning","images/animals_choice2.png","images/animals_choice1.png","images/animals_choice3.png","[1,0,2]","2","2","2","images/animals_choice1.png","-1","animals","","sheep","2","0"
"html-keyboard-response","172","776009","0.0-9.0-2.0-0.43","1535","2","2","""event"",""trial"",""time""
""fullscreenenter"",""1"",""1818""
","
","
","""event"",""trial"",""time""
""fullscreenenter"",""1"",""1818""
","
","","","","","","null","<div style=""font-size:60px;"">+</div>","null","","fixation","","","","","","","","","","","","","",""
"learning-trial","173","780010","0.0-9.0-2.0-1.43","1535","2","2","""event"",""trial"",""time""
""fullscreenenter"",""1"",""1818""
","
","
","""event"",""trial"",""time""
""fullscreenenter"",""1"",""1818""
","
","","","","","","1382","images/cow4.png","","","learning","images/animals_choice2.png","images/animals_choice3.png","images/animals_choice1.png","[1,2,0]","2","1","3","images/animals_choice1.png","-1","animals","","cow","2","0"
"html-keyboard-response","174","780511","0.0-9.0-2.0-0.44","1535","2","2","""event"",""trial"",""time""
""fullscreenenter"",""1"",""1818""
","
","
","""event"",""trial"",""time""
""fullscreenenter"",""1"",""1818""
","
","","","","","","null","<div style=""font-size:60px;"">+</div>","null","","fixation","","","","","","","","","","","","","",""
"learning-trial","175","784514","0.0-9.0-2.0-1.44","1535","2","2","""event"",""trial"",""time""
""fullscreenenter"",""1"",""1818""
","
","
","""event"",""trial"",""time""
""fullscreenenter"",""1"",""1818""
","
","","","","","","1415.1000000238419","images/sheep3.png","","","learning","images/animals_choice2.png","images/animals_choice3.png","images/animals_choice1.png","[1,2,0]","1","0","2","images/animals_choice3.png","-1","animals","","sheep","2","0"
"html-keyboard-response","176","785015","0.0-9.0-2.0-0.45","1535","2","2","""event"",""trial"",""time""
""fullscreenenter"",""1"",""1818""
","
","
","""event"",""trial"",""time""
""fullscreenenter"",""1"",""1818""
","
","","","","","","null","<div style=""font-size:60px;"">+</div>","null","","fixation","","","","","","","","","","","","","",""
"learning-trial","177","789017","0.0-9.0-2.0-1.45","1535","2","2","""event"",""trial"",""time""
""fullscreenenter"",""1"",""1818""
","
","
","""event"",""trial"",""time""
""fullscreenenter"",""1"",""1818""
","
","","","","","","1480.199999988079","images/horse3.png","","","learning","images/animals_choice1.png","images/animals_choice2.png","images/animals_choice3.png","[0,1,2]","0","0","3","images/animals_choice3.png","-1","animals","","horse","2","0"
"html-keyboard-response","178","789519","0.0-9.0-2.0-0.46","1535","2","2","""event"",""trial"",""time""
""fullscreenenter"",""1"",""1818""
","
","
","""event"",""trial"",""time""
""fullscreenenter"",""1"",""1818""
","
","","","","","","null","<div style=""font-size:60px;"">+</div>","null","","fixation","","","","","","","","","","","","","",""
"learning-trial","179","793522","0.0-9.0-2.0-1.46","1535","2","2","""event"",""trial"",""time""
""fullscreenenter"",""1"",""1818""
","
","
","""event"",""trial"",""time""
""fullscreenenter"",""1"",""1818""
","
","","","","","","887.7000000476837","images/horse2.png","","","learning","images/animals_choice2.png","images/animals_choice1.png","images/animals_choice3.png","[1,0,2]","1","0","1","images/animals_choice2.png","1","animals","","horse","2","0"
"html-keyboard-response","180","794023","0.0-9.0-2.0-0.47","1535","2","2","""event"",""trial"",""time""
""fullscreenenter"",""1"",""1818""
","
","
","""event"",""trial"",""time""
""fullscreenenter"",""1"",""1818""
","
","","","","","","null","<div style=""font-size:60px;"">+</div>","null","","fixation","","","","","","","","","","","","","",""
"learning-trial","181","798025","0.0-9.0-2.0-1.47","1535","2","2","""event"",""trial"",""time""
""fullscreenenter"",""1"",""1818""
","
","
","""event"",""trial"",""time""
""fullscreenenter"",""1"",""1818""
","
","","","","","","1135.6000000238419","images/horse3.png","","","learning","images/animals_choice1.png","images/animals_choice3.png","images/animals_choice2.png","[0,2,1]","0","0","2","images/animals_choice3.png","-1","animals","","horse","2","0"
"html-keyboard-response","182","798527","0.0-9.0-2.0-0.48","1535","2","2","""event"",""trial"",""time""
""fullscreenenter"",""1"",""1818""
","
","
","""event"",""trial"",""time""
""fullscreenenter"",""1"",""1818""
","
","","","","","","null","<div style=""font-size:60px;"">+</div>","null","","fixation","","","","","","","","","","","","","",""
"learning-trial","183","802543","0.0-9.0-2.0-1.48","1535","2","2","""event"",""trial"",""time""
""fullscreenenter"",""1"",""1818""
","
","
","""event"",""trial"",""time""
""fullscreenenter"",""1"",""1818""
","
","","","","","","1327","images/cow1.png","","","learning","images/animals_choice2.png","images/animals_choice3.png","images/animals_choice1.png","[1,2,0]","1","0","3","images/animals_choice1.png","1","animals","","cow","2","0"
"html-keyboard-response","184","803044","0.0-9.0-2.0-0.49","1535","2","2","""event"",""trial"",""time""
""fullscreenenter"",""1"",""1818""
","
","
","""event"",""trial"",""time""
""fullscreenenter"",""1"",""1818""
","
","","","","","","null","<div style=""font-size:60px;"">+</div>","null","","fixation","","","","","","","","","","","","","",""
"learning-trial","185","807047","0.0-9.0-2.0-1.49","1535","2","2","""event"",""trial"",""time""
""fullscreenenter"",""1"",""1818""
","
","
","""event"",""trial"",""time""
""fullscreenenter"",""1"",""1818""
","
","","","","","","1233.8999999761581","images/horse2.png","","","learning","images/animals_choice1.png","images/animals_choice3.png","images/animals_choice2.png","[0,2,1]","1","2","3","images/animals_choice2.png","-1","animals","","horse","2","0"
"html-keyboard-response","186","807548","0.0-9.0-2.0-0.50","1535","2","2","""event"",""trial"",""time""
""fullscreenenter"",""1"",""1818""
","
","
","""event"",""trial"",""time""
""fullscreenenter"",""1"",""1818""
","
","","","","","","null","<div style=""font-size:60px;"">+</div>","null","","fixation","","","","","","","","","","","","","",""
"learning-trial","187","811550","0.0-9.0-2.0-1.50","1535","2","2","""event"",""trial"",""time""
""fullscreenenter"",""1"",""1818""
","
","
","""event"",""trial"",""time""
""fullscreenenter"",""1"",""1818""
","
","","","","","","2131.199999988079","images/cow3.png","","","learning","images/animals_choice3.png","images/animals_choice2.png","images/animals_choice1.png","[2,1,0]","0","2","3","images/animals_choice1.png","1","animals","","cow","2","0"
"html-keyboard-response","188","812051","0.0-9.0-2.0-0.51","1535","2","2","""event"",""trial"",""time""
""fullscreenenter"",""1"",""1818""
","
","
","""event"",""trial"",""time""
""fullscreenenter"",""1"",""1818""
","
","","","","","","null","<div style=""font-size:60px;"">+</div>","null","","fixation","","","","","","","","","","","","","",""
"learning-trial","189","816053","0.0-9.0-2.0-1.51","1535","2","2","""event"",""trial"",""time""
""fullscreenenter"",""1"",""1818""
","
","
","""event"",""trial"",""time""
""fullscreenenter"",""1"",""1818""
","
","","","","","","691.5","images/cow3.png","","","learning","images/animals_choice3.png","images/animals_choice2.png","images/animals_choice1.png","[2,1,0]","0","2","3","images/animals_choice1.png","1","animals","","cow","2","0"
"html-keyboard-response","190","816568","0.0-9.0-2.0-0.52","1535","2","2","""event"",""trial"",""time""
""fullscreenenter"",""1"",""1818""
","
","
","""event"",""trial"",""time""
""fullscreenenter"",""1"",""1818""
","
","","","","","","null","<div style=""font-size:60px;"">+</div>","null","","fixation","","","","","","","","","","","","","",""
"learning-trial","191","820570","0.0-9.0-2.0-1.52","1535","2","2","""event"",""trial"",""time""
""fullscreenenter"",""1"",""1818""
","
","
","""event"",""trial"",""time""
""fullscreenenter"",""1"",""1818""
","
","","","","","","1974.5","images/sheep1.png","","","learning","images/animals_choice2.png","images/animals_choice1.png","images/animals_choice3.png","[1,0,2]","2","2","2","images/animals_choice1.png","-1","animals","","sheep","2","0"
"html-keyboard-response","192","821071","0.0-9.0-2.0-0.53","1535","2","2","""event"",""trial"",""time""
""fullscreenenter"",""1"",""1818""
","
","
","""event"",""trial"",""time""
""fullscreenenter"",""1"",""1818""
","
","","","","","","null","<div style=""font-size:60px;"">+</div>","null","","fixation","","","","","","","","","","","","","",""
"learning-trial","193","825073","0.0-9.0-2.0-1.53","1535","2","2","""event"",""trial"",""time""
""fullscreenenter"",""1"",""1818""
","
","
","""event"",""trial"",""time""
""fullscreenenter"",""1"",""1818""
","
","","","","","","1704","images/horse5.png","","","learning","images/animals_choice2.png","images/animals_choice3.png","images/animals_choice1.png","[1,2,0]","2","1","1","images/animals_choice2.png","-1","animals","","horse","2","0"
"html-keyboard-response","194","825574","0.0-9.0-2.0-0.54","1535","2","2","""event"",""trial"",""time""
""fullscreenenter"",""1"",""1818""
","
","
","""event"",""trial"",""time""
""fullscreenenter"",""1"",""1818""
","
","","","","","","null","<div style=""font-size:60px;"">+</div>","null","","fixation","","","","","","","","","","","","","",""
"learning-trial","195","829576","0.0-9.0-2.0-1.54","1535","2","2","""event"",""trial"",""time""
""fullscreenenter"",""1"",""1818""
","
","
","""event"",""trial"",""time""
""fullscreenenter"",""1"",""1818""
","
","","","","","","1568.5999999642372","images/sheep3.png","","","learning","images/animals_choice1.png","images/animals_choice3.png","images/animals_choice2.png","[0,2,1]","1","2","1","images/animals_choice1.png","-1","animals","","sheep","2","0"
"html-keyboard-response","196","830077","0.0-9.0-2.0-0.55","1535","2","2","""event"",""trial"",""time""
""fullscreenenter"",""1"",""1818""
","
","
","""event"",""trial"",""time""
""fullscreenenter"",""1"",""1818""
","
","","","","","","null","<div style=""font-size:60px;"">+</div>","null","","fixation","","","","","","","","","","","","","",""
"learning-trial","197","834078","0.0-9.0-2.0-1.55","1535","2","2","""event"",""trial"",""time""
""fullscreenenter"",""1"",""1818""
","
","
","""event"",""trial"",""time""
""fullscreenenter"",""1"",""1818""
","
","","","","","","1601.6000000238419","images/sheep3.png","","","learning","images/animals_choice3.png","images/animals_choice2.png","images/animals_choice1.png","[2,1,0]","1","1","2","images/animals_choice2.png","1","animals","","sheep","2","0"
"html-keyboard-response","198","834579","0.0-9.0-2.0-0.56","1535","2","2","""event"",""trial"",""time""
""fullscreenenter"",""1"",""1818""
","
","
","""event"",""trial"",""time""
""fullscreenenter"",""1"",""1818""
","
","","","","","","null","<div style=""font-size:60px;"">+</div>","null","","fixation","","","","","","","","","","","","","",""
"learning-trial","199","838581","0.0-9.0-2.0-1.56","1535","2","2","""event"",""trial"",""time""
""fullscreenenter"",""1"",""1818""
","
","
","""event"",""trial"",""time""
""fullscreenenter"",""1"",""1818""
","
","","","","","","1987.300000011921","images/horse3.png","","","learning","images/animals_choice2.png","images/animals_choice3.png","images/animals_choice1.png","[1,2,0]","0","2","2","images/animals_choice3.png","-1","animals","","horse","2","0"
"html-keyboard-response","200","839082","0.0-9.0-2.0-0.57","1535","2","2","""event"",""trial"",""time""
""fullscreenenter"",""1"",""1818""
","
","
","""event"",""trial"",""time""
""fullscreenenter"",""1"",""1818""
","
","","","","","","null","<div style=""font-size:60px;"">+</div>","null","","fixation","","","","","","","","","","","","","",""
"learning-trial","201","843085","0.0-9.0-2.0-1.57","1535","2","2","""event"",""trial"",""time""
""fullscreenenter"",""1"",""1818""
","
","
","""event"",""trial"",""time""
""fullscreenenter"",""1"",""1818""
","
","","","","","","1180","images/sheep4.png","","","learning","images/animals_choice3.png","images/animals_choice2.png","images/animals_choice1.png","[2,1,0]","0","2","3","images/animals_choice1.png","1","animals","","sheep","2","0"
"html-keyboard-response","202","843585","0.0-9.0-2.0-0.58","1535","2","2","""event"",""trial"",""time""
""fullscreenenter"",""1"",""1818""
","
","
","""event"",""trial"",""time""
""fullscreenenter"",""1"",""1818""
","
","","","","","","null","<div style=""font-size:60px;"">+</div>","null","","fixation","","","","","","","","","","","","","",""
"learning-trial","203","847588","0.0-9.0-2.0-1.58","1535","2","2","""event"",""trial"",""time""
""fullscreenenter"",""1"",""1818""
","
","
","""event"",""trial"",""time""
""fullscreenenter"",""1"",""1818""
","
","","","","","","1741.0999999642372","images/cow1.png","","","learning","images/animals_choice1.png","images/animals_choice3.png","images/animals_choice2.png","[0,2,1]","1","2","2","images/animals_choice3.png","-1","animals","","cow","2","0"
"html-keyboard-response","204","848089","0.0-9.0-2.0-0.59","1535","2","2","""event"",""trial"",""time""
""fullscreenenter"",""1"",""1818""
","
","
","""event"",""trial"",""time""
""fullscreenenter"",""1"",""1818""
","
","","","","","","null","<div style=""font-size:60px;"">+</div>","null","","fixation","","","","","","","","","","","","","",""
"learning-trial","205","852091","0.0-9.0-2.0-1.59","1535","2","2","""event"",""trial"",""time""
""fullscreenenter"",""1"",""1818""
","
","
","""event"",""trial"",""time""
""fullscreenenter"",""1"",""1818""
","
","","","","","","1229.800000011921","images/cow4.png","","","learning","images/animals_choice2.png","images/animals_choice1.png","images/animals_choice3.png","[1,0,2]","2","2","3","images/animals_choice3.png","1","animals","","cow","2","0"
"html-keyboard-response","206","852592","0.0-9.0-2.0-0.60","1535","2","2","""event"",""trial"",""time""
""fullscreenenter"",""1"",""1818""
","
","
","""event"",""trial"",""time""
""fullscreenenter"",""1"",""1818""
","
","","","","","","null","<div style=""font-size:60px;"">+</div>","null","","fixation","","","","","","","","","","","","","",""
"learning-trial","207","856595","0.0-9.0-2.0-1.60","1535","2","2","""event"",""trial"",""time""
""fullscreenenter"",""1"",""1818""
","
","
","""event"",""trial"",""time""
""fullscreenenter"",""1"",""1818""
","
","","","","","","1246","images/horse2.png","","","learning","images/animals_choice2.png","images/animals_choice3.png","images/animals_choice1.png","[1,2,0]","1","0","1","images/animals_choice2.png","1","animals","","horse","2","0"
"html-keyboard-response","208","857097","0.0-9.0-2.0-0.61","1535","2","2","""event"",""trial"",""time""
""fullscreenenter"",""1"",""1818""
","
","
","""event"",""trial"",""time""
""fullscreenenter"",""1"",""1818""
","
","","","","","","null","<div style=""font-size:60px;"">+</div>","null","","fixation","","","","","","","","","","","","","",""
"learning-trial","209","861099","0.0-9.0-2.0-1.61","1535","2","2","""event"",""trial"",""time""
""fullscreenenter"",""1"",""1818""
","
","
","""event"",""trial"",""time""
""fullscreenenter"",""1"",""1818""
","
","","","","","","1237.800000011921","images/sheep1.png","","","learning","images/animals_choice2.png","images/animals_choice3.png","images/animals_choice1.png","[1,2,0]","2","1","3","images/animals_choice1.png","-1","animals","","sheep","2","0"
"html-keyboard-response","210","861600","0.0-9.0-2.0-0.62","1535","2","2","""event"",""trial"",""time""
""fullscreenenter"",""1"",""1818""
","
","
","""event"",""trial"",""time""
""fullscreenenter"",""1"",""1818""
","
","","","","","","null","<div style=""font-size:60px;"">+</div>","null","","fixation","","","","","","","","","","","","","",""
"learning-trial","211","865602","0.0-9.0-2.0-1.62","1535","2","2","""event"",""trial"",""time""
""fullscreenenter"",""1"",""1818""
","
","
","""event"",""trial"",""time""
""fullscreenenter"",""1"",""1818""
","
","","","","","","1526.699999988079","images/sheep1.png","","","learning","images/animals_choice3.png","images/animals_choice1.png","images/animals_choice2.png","[2,0,1]","2","0","2","images/animals_choice1.png","-1","animals","","sheep","2","0"
"html-keyboard-response","212","866104","0.0-9.0-2.0-0.63","1535","2","2","""event"",""trial"",""time""
""fullscreenenter"",""1"",""1818""
","
","
","""event"",""trial"",""time""
""fullscreenenter"",""1"",""1818""
","
","","","","","","null","<div style=""font-size:60px;"">+</div>","null","","fixation","","","","","","","","","","","","","",""
"learning-trial","213","870106","0.0-9.0-2.0-1.63","1535","2","2","""event"",""trial"",""time""
""fullscreenenter"",""1"",""1818""
","
","
","""event"",""trial"",""time""
""fullscreenenter"",""1"",""1818""
","
","","","","","","1310.5","images/cow1.png","","","learning","images/animals_choice2.png","images/animals_choice1.png","images/animals_choice3.png","[1,0,2]","1","0","3","images/animals_choice3.png","-1","animals","","cow","2","0"
"html-keyboard-response","214","870607","0.0-9.0-2.0-0.64","1535","2","2","""event"",""trial"",""time""
""fullscreenenter"",""1"",""1818""
","
","
","""event"",""trial"",""time""
""fullscreenenter"",""1"",""1818""
","
","","","","","","null","<div style=""font-size:60px;"">+</div>","null","","fixation","","","","","","","","","","","","","",""
"learning-trial","215","874610","0.0-9.0-2.0-1.64","1535","2","2","""event"",""trial"",""time""
""fullscreenenter"",""1"",""1818""
","
","
","""event"",""trial"",""time""
""fullscreenenter"",""1"",""1818""
","
","","","","","","1064","images/cow3.png","","","learning","images/animals_choice3.png","images/animals_choice1.png","images/animals_choice2.png","[2,0,1]","0","1","2","images/animals_choice1.png","1","animals","","cow","2","0"
"html-keyboard-response","216","875111","0.0-9.0-2.0-0.65","1535","2","2","""event"",""trial"",""time""
""fullscreenenter"",""1"",""1818""
","
","
","""event"",""trial"",""time""
""fullscreenenter"",""1"",""1818""
","
","","","","","","null","<div style=""font-size:60px;"">+</div>","null","","fixation","","","","","","","","","","","","","",""
"learning-trial","217","879112","0.0-9.0-2.0-1.65","1535","2","2","""event"",""trial"",""time""
""fullscreenenter"",""1"",""1818""
","
","
","""event"",""trial"",""time""
""fullscreenenter"",""1"",""1818""
","
","","","","","","1368.300000011921","images/horse5.png","","","learning","images/animals_choice1.png","images/animals_choice3.png","images/animals_choice2.png","[0,2,1]","2","1","1","images/animals_choice1.png","-1","animals","","horse","2","0"
"html-keyboard-response","218","879614","0.0-9.0-2.0-0.66","1535","2","2","""event"",""trial"",""time""
""fullscreenenter"",""1"",""1818""
","
","
","""event"",""trial"",""time""
""fullscreenenter"",""1"",""1818""
","
","","","","","","null","<div style=""font-size:60px;"">+</div>","null","","fixation","","","","","","","","","","","","","",""
"learning-trial","219","883616","0.0-9.0-2.0-1.66","1535","2","2","""event"",""trial"",""time""
""fullscreenenter"",""1"",""1818""
","
","
","""event"",""trial"",""time""
""fullscreenenter"",""1"",""1818""
","
","","","","","","1216.3999999761581","images/cow1.png","","","learning","images/animals_choice2.png","images/animals_choice3.png","images/animals_choice1.png","[1,2,0]","1","0","1","images/animals_choice2.png","1","animals","","cow","2","0"
"html-keyboard-response","220","884121","0.0-9.0-2.0-0.67","1535","2","2","""event"",""trial"",""time""
""fullscreenenter"",""1"",""1818""
","
","
","""event"",""trial"",""time""
""fullscreenenter"",""1"",""1818""
","
","","","","","","null","<div style=""font-size:60px;"">+</div>","null","","fixation","","","","","","","","","","","","","",""
"learning-trial","221","888123","0.0-9.0-2.0-1.67","1535","2","2","""event"",""trial"",""time""
""fullscreenenter"",""1"",""1818""
","
","
","""event"",""trial"",""time""
""fullscreenenter"",""1"",""1818""
","
","","","","","","1469.8999999761581","images/sheep1.png","","","learning","images/animals_choice1.png","images/animals_choice2.png","images/animals_choice3.png","[0,1,2]","2","2","2","images/animals_choice2.png","-1","animals","","sheep","2","0"
"html-keyboard-response","222","888624","0.0-9.0-2.0-0.68","1535","2","2","""event"",""trial"",""time""
""fullscreenenter"",""1"",""1818""
","
","
","""event"",""trial"",""time""
""fullscreenenter"",""1"",""1818""
","
","","","","","","null","<div style=""font-size:60px;"">+</div>","null","","fixation","","","","","","","","","","","","","",""
"learning-trial","223","892638","0.0-9.0-2.0-1.68","1535","2","2","""event"",""trial"",""time""
""fullscreenenter"",""1"",""1818""
","
","
","""event"",""trial"",""time""
""fullscreenenter"",""1"",""1818""
","
","","","","","","1654.800000011921","images/sheep4.png","","","learning","images/animals_choice1.png","images/animals_choice3.png","images/animals_choice2.png","[0,2,1]","0","0","2","images/animals_choice3.png","-1","animals","","sheep","2","0"
"html-keyboard-response","224","893139","0.0-9.0-2.0-0.69","1535","2","2","""event"",""trial"",""time""
""fullscreenenter"",""1"",""1818""
","
","
","""event"",""trial"",""time""
""fullscreenenter"",""1"",""1818""
","
","","","","","","null","<div style=""font-size:60px;"">+</div>","null","","fixation","","","","","","","","","","","","","",""
"learning-trial","225","897143","0.0-9.0-2.0-1.69","1535","2","2","""event"",""trial"",""time""
""fullscreenenter"",""1"",""1818""
","
","
","""event"",""trial"",""time""
""fullscreenenter"",""1"",""1818""
","
","","","","","","1810","images/horse5.png","","","learning","images/animals_choice1.png","images/animals_choice2.png","images/animals_choice3.png","[0,1,2]","2","2","3","images/animals_choice3.png","1","animals","","horse","2","0"
"html-keyboard-response","226","897645","0.0-9.0-2.0-0.70","1535","2","2","""event"",""trial"",""time""
""fullscreenenter"",""1"",""1818""
","
","
","""event"",""trial"",""time""
""fullscreenenter"",""1"",""1818""
","
","","","","","","null","<div style=""font-size:60px;"">+</div>","null","","fixation","","","","","","","","","","","","","",""
"learning-trial","227","901648","0.0-9.0-2.0-1.70","1535","2","2","""event"",""trial"",""time""
""fullscreenenter"",""1"",""1818""
","
","
","""event"",""trial"",""time""
""fullscreenenter"",""1"",""1818""
","
","","","","","","1369.3999999761581","images/cow4.png","","","learning","images/animals_choice3.png","images/animals_choice2.png","images/animals_choice1.png","[2,1,0]","2","0","2","images/animals_choice2.png","-1","animals","","cow","2","0"
"html-keyboard-response","228","902150","0.0-9.0-2.0-0.71","1535","2","2","""event"",""trial"",""time""
""fullscreenenter"",""1"",""1818""
","
","
","""event"",""trial"",""time""
""fullscreenenter"",""1"",""1818""
","
","","","","","","null","<div style=""font-size:60px;"">+</div>","null","","fixation","","","","","","","","","","","","","",""
"learning-trial","229","906152","0.0-9.0-2.0-1.71","1535","2","2","""event"",""trial"",""time""
""fullscreenenter"",""1"",""1818""
","
","
","""event"",""trial"",""time""
""fullscreenenter"",""1"",""1818""
","
","","","","","","1512.9000000357628","images/sheep4.png","","","learning","images/animals_choice3.png","images/animals_choice2.png","images/animals_choice1.png","[2,1,0]","0","2","1","images/animals_choice3.png","-1","animals","","sheep","2","0"
"html-button-response","230","909758","0.0-9.0-3.0","1535","2","2","""event"",""trial"",""time""
""fullscreenenter"",""1"",""1818""
","
","
","""event"",""trial"",""time""
""fullscreenenter"",""1"",""1818""
","
","","","","","","3605.100000023842","<p> You have completed the round! <p> In this round, you earned -30 points! </p>","0","","break","","","","","","","","","","","","","",""
"html-button-response","231","910538","0.0-10.0","1535","2","2","""event"",""trial"",""time""
""fullscreenenter"",""1"",""1818""
""blur"",""232"",""914460""
""focus"",""232"",""925312""
","""event"",""trial"",""time""
""blur"",""232"",""914460""
","""event"",""trial"",""time""
""focus"",""232"",""925312""
","""event"",""trial"",""time""
""fullscreenenter"",""1"",""1818""
","
","","","","","","779.3999999761581","<p> Now it's time to play another round. </p>","0","","transition_screen","","","","","","","","","","","","","",""
"preload","232","928104","0.0-11.0-0.0","1535","2","2","""event"",""trial"",""time""
""fullscreenenter"",""1"",""1818""
""blur"",""232"",""914460""
""focus"",""232"",""925312""
""blur"",""233"",""931953""
""focus"",""233"",""936287""
","""event"",""trial"",""time""
""blur"",""232"",""914460""
""blur"",""233"",""931953""
","""event"",""trial"",""time""
""focus"",""232"",""925312""
""focus"",""233"",""936287""
","""event"",""trial"",""time""
""fullscreenenter"",""1"",""1818""
","
","true","false","[]","[]","[]","","","","","","","","","","","","","","","","","","",""
"learning-instructions","233","937722","0.0-11.0-1.0-0.0","1535","2","2","""event"",""trial"",""time""
""fullscreenenter"",""1"",""1818""
""blur"",""232"",""914460""
""focus"",""232"",""925312""
""blur"",""233"",""931953""
""focus"",""233"",""936287""
","""event"",""trial"",""time""
""blur"",""232"",""914460""
""blur"",""233"",""931953""
","""event"",""trial"",""time""
""focus"",""232"",""925312""
""focus"",""233"",""936287""
","""event"",""trial"",""time""
""fullscreenenter"",""1"",""1818""
","
","","","","","","2795.599999964237","<p> Your goal in this round is to grow a beautiful garden by watering plants. </p><p> You will need to water many different plants. </p></div>","","0","instructions","","","","","","","","","","","","","",""
"learning-instructions","234","951661","0.0-11.0-1.0-0.1","1535","2","2","""event"",""trial"",""time""
""fullscreenenter"",""1"",""1818""
""blur"",""232"",""914460""
""focus"",""232"",""925312""
""blur"",""233"",""931953""
""focus"",""233"",""936287""
","""event"",""trial"",""time""
""blur"",""232"",""914460""
""blur"",""233"",""931953""
","""event"",""trial"",""time""
""focus"",""232"",""925312""
""focus"",""233"",""936287""
","""event"",""trial"",""time""
""fullscreenenter"",""1"",""1818""
","
","","","","","","665.7000000476837","<p> On each turn, you will see a picture of one of your plants and three different watering cans.  </p><p> Each watering can has a different mixture of water and fertilizer.  </p><p> You need to select which watering can to use for each plant. </p>","","0","instructions","","","","","","","","","","","","","",""