"trial_type","trial_index","time_elapsed","internal_node_id","subject_id","condition","task_version","interactions","blur_events","focus_events","fullscreenenter_events","fullscreenexit_events","success","timeout","failed_images","failed_audio","failed_video","rt","stimulus","response","button_pressed","task_part","left_choice","middle_choice","right_choice","choice_positions","correct_response","correct_position","key_press","option_selected","points","task_block","correct","stim_cat","block_condition","block_number"
"pavlovia","0","2","0.0-0.0","2000","1","2","""event"",""trial"",""time""
""fullscreenenter"",""1"",""3655""
","
","
","""event"",""trial"",""time""
""fullscreenenter"",""1"",""3655""
","
","","","","","","","","","","","","","","","","","","","","","","","",""
"fullscreen","1","4647","0.0-1.0","2000","1","2","""event"",""trial"",""time""
""fullscreenenter"",""1"",""3655""
","
","
","""event"",""trial"",""time""
""fullscreenenter"",""1"",""3655""
","
","true","","","","","","","","","","","","","","","","","","","","","","",""
"preload","2","17513","0.0-2.0","2000","1","2","""event"",""trial"",""time""
""fullscreenenter"",""1"",""3655""
","
","
","""event"",""trial"",""time""
""fullscreenenter"",""1"",""3655""
","
","true","false","[]","[]","[]","","","","","","","","","","","","","","","","","","",""
"audio-keyboard-response","3","20891","0.0-3.0","2000","1","2","""event"",""trial"",""time""
""fullscreenenter"",""1"",""3655""
","
","
","""event"",""trial"",""time""
""fullscreenenter"",""1"",""3655""
","
","","","","","","3375.9999999999995","audio/beep_loop.wav"," ","","","","","","","","","","","","","","","",""
"audio-button-response","4","23190","0.0-4.0","2000","1","2","""event"",""trial"",""time""
""fullscreenenter"",""1"",""3655""
","
","
","""event"",""trial"",""time""
""fullscreenenter"",""1"",""3655""
","
","","","","","","2299","audio/shark.wav","4","","","","","","","","","","","","","","","",""
"audio-button-response","5","25430","0.0-5.0","2000","1","2","""event"",""trial"",""time""
""fullscreenenter"",""1"",""3655""
","
","
","""event"",""trial"",""time""
""fullscreenenter"",""1"",""3655""
","
","","","","","","1232","audio/turtle.wav","1","","","","","","","","","","","","","","","",""
"preload","6","39308","0.0-6.0","2000","1","2","""event"",""trial"",""time""
""fullscreenenter"",""1"",""3655""
","
","
","""event"",""trial"",""time""
""fullscreenenter"",""1"",""3655""
","
","true","false","[]","[]","[]","","","","","","","","","","","","","","","","","","",""
"html-keyboard-response","7","44085","0.0-7.0","2000","1","2","""event"",""trial"",""time""
""fullscreenenter"",""1"",""3655""
","
","
","""event"",""trial"",""time""
""fullscreenenter"",""1"",""3655""
","
","","","","","","4775.70000000298","Welcome to the experiment. Press any key to begin and to advance the instructions."," ","","","","","","","","","","","","","","","",""
"learning-instructions","8","54744","0.0-8.0-0.0-0.0","2000","1","2","""event"",""trial"",""time""
""fullscreenenter"",""1"",""3655""
","
","
","""event"",""trial"",""time""
""fullscreenenter"",""1"",""3655""
","
","","","","","","2909","<p> Welcome! Today you are going to play 6 different rounds of a decision-making game. </p><p> Use the mouse to click next to continue. </p>","","0","instructions","","","","","","","","","","","","","",""
"learning-instructions","9","62713","0.0-8.0-0.0-0.1","2000","1","2","""event"",""trial"",""time""
""fullscreenenter"",""1"",""3655""
","
","
","""event"",""trial"",""time""
""fullscreenenter"",""1"",""3655""
","
","","","","","","4963.4000000059605","<p> You will start with a practice round to learn the rules. </p>","","0","instructions","","","","","","","","","","","","","",""
"learning-instructions","10","72613","0.0-8.0-0.0-0.2","2000","1","2","""event"",""trial"",""time""
""fullscreenenter"",""1"",""3655""
","
","
","""event"",""trial"",""time""
""fullscreenenter"",""1"",""3655""
","
","","","","","","2159.300000011921","<p> Your goal in this round is to deliver sports equipment to three different parks. </p><p> You will need to deliver many types of equipment. </p></div>","","0","instructions","","","","","","","","","","","","","",""
"learning-instructions","11","81997","0.0-8.0-0.0-0.3","2000","1","2","""event"",""trial"",""time""
""fullscreenenter"",""1"",""3655""
","
","
","""event"",""trial"",""time""
""fullscreenenter"",""1"",""3655""
","
","","","","","","903.9000000059605","<p> On each turn, you will see one piece of sports equipment and three different parks.  </p><p> You need to select which park to deliver the equipment to.  </p>","","0","instructions","","","","","","","","","","","","","",""
"learning-instructions","12","96512","0.0-8.0-0.0-0.4","2000","1","2","""event"",""trial"",""time""
""fullscreenenter"",""1"",""3655""
","
","
","""event"",""trial"",""time""
""fullscreenenter"",""1"",""3655""
","
","","","","","","1230.699999988079","<p> You can select the park on the left by pressing the '1' key on your keyboard. <br>You can select the park in the middle by pressing the '2' key on your keyboard. <br>You can select the park on the right by pressing the '3' key on your keyboard.  </p><br><div class=""choice-instructions-grid""> <div class=""choice-option""><img src=""images/park1.png"" class=""choice-option-img"" stage=""instructions"" position=""0"" ><div class=""choice-option-text""> Press ""1."" </div></div><div class=""choice-option""><img src=""images/park2.png"" class=""choice-option-img"" stage=""instructions"" position=""1"" ><div class=""choice-option-text""> Press ""2."" </div></div><div class=""choice-option""><img src=""images/park3.png"" class=""choice-option-img"" stage=""instructions"" position=""2"" ><div class=""choice-option-text""> Press ""3."" </div></div></div>","","0","instructions","","","","","","","","","","","","","",""
"learning-instructions","13","104037","0.0-8.0-0.0-0.5","2000","1","2","""event"",""trial"",""time""
""fullscreenenter"",""1"",""3655""
","
","
","""event"",""trial"",""time""
""fullscreenenter"",""1"",""3655""
","
","","","","","","2143.4000000059605","<p> If the kids in the park you chose like the equipment, they will be very happy! </p><div style='float: center;'><img src='images/check.png' width = '200' height = '200'></img>","","0","instructions","","","","","","","","","","","","","",""
"learning-instructions","14","110791","0.0-8.0-0.0-0.6","2000","1","2","""event"",""trial"",""time""
""fullscreenenter"",""1"",""3655""
","
","
","""event"",""trial"",""time""
""fullscreenenter"",""1"",""3655""
","
","","","","","","1168.7999999970198","<p> But, if the kids in the park you chose do not like the equipment, they will be sad. </p><div style='float: center;'><img src='images/x.png' width = '200' height = '200'></img>","","0","instructions","","","","","","","","","","","","","",""
"learning-instructions","15","117839","0.0-8.0-0.0-0.7","2000","1","2","""event"",""trial"",""time""
""fullscreenenter"",""1"",""3655""
","
","
","""event"",""trial"",""time""
""fullscreenenter"",""1"",""3655""
","
","","","","","","622.4000000059605","<p> Importantly, the kids in each park like some pieces of sports equipment more than others. </p>","","0","instructions","","","","","","","","","","","","","",""
"learning-instructions","16","125874","0.0-8.0-0.0-0.8","2000","1","2","""event"",""trial"",""time""
""fullscreenenter"",""1"",""3655""
","
","
","""event"",""trial"",""time""
""fullscreenenter"",""1"",""3655""
","
","","","","","","1985.0999999940395","<p> If you choose the best park for each piece of equipment, the kids there will usually be happy. </p>","","0","instructions","","","","","","","","","","","","","",""
"learning-instructions","17","133113","0.0-8.0-0.0-0.9","2000","1","2","""event"",""trial"",""time""
""fullscreenenter"",""1"",""3655""
","
","
","""event"",""trial"",""time""
""fullscreenenter"",""1"",""3655""
","
","","","","","","600.5","<p> However, even if you choose the best park for the equipment, the kids may sometimes be sad. </p>","","0","instructions","","","","","","","","","","","","","",""
"learning-instructions","18","140809","0.0-8.0-0.0-0.10","2000","1","2","""event"",""trial"",""time""
""fullscreenenter"",""1"",""3655""
","
","
","""event"",""trial"",""time""
""fullscreenenter"",""1"",""3655""
","
","","","","","","468.09999999403954","<p> Similarly, even if you choose the <i>wrong</i> park for the equipment, the kids may still be happy sometimes.","","0","instructions","","","","","","","","","","","","","",""
"learning-instructions","19","146545","0.0-8.0-0.0-0.11","2000","1","2","""event"",""trial"",""time""
""fullscreenenter"",""1"",""3655""
","
","
","""event"",""trial"",""time""
""fullscreenenter"",""1"",""3655""
","
","","","","","","683.8999999910593","<p> For example, the best park for this soccer ball is this one.<div style='float: center;'><img src='images/i1.png' width = '500' height = '268'></img>","","0","instructions","","","","","","","","","","","","","",""
"learning-instructions","20","152847","0.0-8.0-0.0-0.12","2000","1","2","""event"",""trial"",""time""
""fullscreenenter"",""1"",""3655""
","
","
","""event"",""trial"",""time""
""fullscreenenter"",""1"",""3655""
","
","","","","","","1017.6000000089407","<p> Let's see what happens if you choose this park for the soccer ball five times.","","0","instructions","","","","","","","","","","","","","",""
"learning-instructions","21","179284","0.0-8.0-0.0-0.13","2000","1","2","""event"",""trial"",""time""
""fullscreenenter"",""1"",""3655""
","
","
","""event"",""trial"",""time""
""fullscreenenter"",""1"",""3655""
","
","","","","","","24270.79999999702","<p> The kids are happy.<div style='float: left;'><img src='images/i2.png' width = '640' height = '360'></img>","","0","instructions","","","","","","","","","","","","","",""
"learning-instructions","22","184343","0.0-8.0-0.0-0.14","2000","1","2","""event"",""trial"",""time""
""fullscreenenter"",""1"",""3655""
","
","
","""event"",""trial"",""time""
""fullscreenenter"",""1"",""3655""
","
","","","","","","2891.7999999970198","<p> The kids are happy.<div style='float: left;'><img src='images/i3.png' width = '640' height = '360'></img>","","0","instructions","","","","","","","","","","","","","",""
"learning-instructions","23","187715","0.0-8.0-0.0-0.15","2000","1","2","""event"",""trial"",""time""
""fullscreenenter"",""1"",""3655""
","
","
","""event"",""trial"",""time""
""fullscreenenter"",""1"",""3655""
","
","","","","","","1207.2999999970198","<p> The kids are happy.<div style='float: left;'><img src='images/i4.png' width = '640' height = '360'></img>","","0","instructions","","","","","","","","","","","","","",""
"learning-instructions","24","200117","0.0-8.0-0.0-0.16","2000","1","2","""event"",""trial"",""time""
""fullscreenenter"",""1"",""3655""
","
","
","""event"",""trial"",""time""
""fullscreenenter"",""1"",""3655""
","
","","","","","","10202.20000000298","<p> The kids are sad.<div style='float: left;'><img src='images/i5.png' width = '640' height = '360'></img>","","0","instructions","","","","","","","","","","","","","",""
"learning-instructions","25","202661","0.0-8.0-0.0-0.17","2000","1","2","""event"",""trial"",""time""
""fullscreenenter"",""1"",""3655""
","
","
","""event"",""trial"",""time""
""fullscreenenter"",""1"",""3655""
","
","","","","","","378.29999999701977","<p> The kids are happy.<div style='float: left;'><img src='images/i6.png' width = '640' height = '360'></img>","","0","instructions","","","","","","","","","","","","","",""
"learning-instructions","26","211420","0.0-8.0-0.0-0.18","2000","1","2","""event"",""trial"",""time""
""fullscreenenter"",""1"",""3655""
","
","
","""event"",""trial"",""time""
""fullscreenenter"",""1"",""3655""
","
","","","","","","1489.2000000029802","<p> As you can see, selecting that park for the soccer ball made the kids happy most of the time, but not all the time.","","0","instructions","","","","","","","","","","","","","",""
"learning-instructions","27","231562","0.0-8.0-0.0-0.19","2000","1","2","""event"",""trial"",""time""
""fullscreenenter"",""1"",""3655""
","
","
","""event"",""trial"",""time""
""fullscreenenter"",""1"",""3655""
","
","","","","","","14144.40000000596","<p> Now let's see what happens if you choose a DIFFERENT park for the soccer ball 5 times.","","0","instructions","","","","","","","","","","","","","",""
"learning-instructions","28","236295","0.0-8.0-0.0-0.20","2000","1","2","""event"",""trial"",""time""
""fullscreenenter"",""1"",""3655""
","
","
","""event"",""trial"",""time""
""fullscreenenter"",""1"",""3655""
","
","","","","","","2528.8999999910593","<p> The kids are sad.<div style='float: left;'><img src='images/i7.png' width = '640' height = '360'></img>","","0","instructions","","","","","","","","","","","","","",""
"learning-instructions","29","239493","0.0-8.0-0.0-0.21","2000","1","2","""event"",""trial"",""time""
""fullscreenenter"",""1"",""3655""
","
","
","""event"",""trial"",""time""
""fullscreenenter"",""1"",""3655""
","
","","","","","","996.5","<p> The kids are sad.<div style='float: left;'><img src='images/i8.png' width = '640' height = '360'></img>","","0","instructions","","","","","","","","","","","","","",""
"learning-instructions","30","242960","0.0-8.0-0.0-0.22","2000","1","2","""event"",""trial"",""time""
""fullscreenenter"",""1"",""3655""
","
","
","""event"",""trial"",""time""
""fullscreenenter"",""1"",""3655""
","
","","","","","","1300.2999999970198","<p> The kids are happy.<div style='float: left;'><img src='images/i9.png' width = '640' height = '360'></img>","","0","instructions","","","","","","","","","","","","","",""
"learning-instructions","31","247772","0.0-8.0-0.0-0.23","2000","1","2","""event"",""trial"",""time""
""fullscreenenter"",""1"",""3655""
","
","
","""event"",""trial"",""time""
""fullscreenenter"",""1"",""3655""
","
","","","","","","2608.7000000029802","<p> The kids are sad.<div style='float: left;'><img src='images/i10.png' width = '640' height = '360'></img>","","0","instructions","","","","","","","","","","","","","",""
"learning-instructions","32","250698","0.0-8.0-0.0-0.24","2000","1","2","""event"",""trial"",""time""
""fullscreenenter"",""1"",""3655""
","
","
","""event"",""trial"",""time""
""fullscreenenter"",""1"",""3655""
","
","","","","","","724","<p> The kids are sad.<div style='float: left;'><img src='images/i11.png' width = '640' height = '360'></img>","","0","instructions","","","","","","","","","","","","","",""
"learning-instructions","33","259916","0.0-8.0-0.0-0.25","2000","1","2","""event"",""trial"",""time""
""fullscreenenter"",""1"",""3655""
","
","
","""event"",""trial"",""time""
""fullscreenenter"",""1"",""3655""
","
","","","","","","1100.4000000059605","<p> As you can see, selecting the wrong park for the soccer ball made the kids sad most of the time, but not all the time.","","0","instructions","","","","","","","","","","","","","",""
"learning-instructions","34","269892","0.0-8.0-0.0-0.26","2000","1","2","""event"",""trial"",""time""
""fullscreenenter"",""1"",""3655""
","
","
","""event"",""trial"",""time""
""fullscreenenter"",""1"",""3655""
","
","","","","","","867.4000000059605","<p> The different pieces of equipment belong in different parks. You need to try to learn which is the best park for each piece of equipment.","","0","instructions","","","","","","","","","","","","","",""
"learning-instructions","35","287293","0.0-8.0-0.0-0.27","2000","1","2","""event"",""trial"",""time""
""fullscreenenter"",""1"",""3655""
","
","
","""event"",""trial"",""time""
""fullscreenenter"",""1"",""3655""
","
","","","","","","1015.5999999940395","<p> Try to choose the best park for each piece of equipment, because you will <b> WIN </b> 1 point for each time you make the kids happy and <b>LOSE</b> 1 point for each time you make them sad. </p><p> Remember, if you make the best choice, you will win 1 point most of the time, but not all the time. </p>","","0","instructions","","","","","","","","","","","","","",""
"learning-instructions","36","294795","0.0-8.0-0.0-0.28","2000","1","2","""event"",""trial"",""time""
""fullscreenenter"",""1"",""3655""
","
","
","""event"",""trial"",""time""
""fullscreenenter"",""1"",""3655""
","
","","","","","","2021.5999999940395","<p> This is just a practice round, but in the real game, your bonus payment will depend on your total number of points.","","0","instructions","","","","","","","","","","","","","",""
"learning-instructions","37","305867","0.0-8.0-0.0-0.29","2000","1","2","""event"",""trial"",""time""
""fullscreenenter"",""1"",""3655""
","
","
","""event"",""trial"",""time""
""fullscreenenter"",""1"",""3655""
","
","","","","","","752.2999999970198","<p> The position where each park appears will change throughout the game. </p><p> The position where the park appears <i> does not </i> influence how likely the kids are to be happy or sad. </p>","","0","instructions","","","","","","","","","","","","","",""
"learning-instructions","38","323824","0.0-8.0-0.0-0.30","2000","1","2","""event"",""trial"",""time""
""fullscreenenter"",""1"",""3655""
","
","
","""event"",""trial"",""time""
""fullscreenenter"",""1"",""3655""
","
","","","","","","4416.100000008941","<p> You will have 4 seconds to make each choice. Try to respond before time runs out! </p><p> You will lose 1 point each time you do not make a response. </p>","","0","instructions","","","","","","","","","","","","","",""
"learning-instructions","39","332157","0.0-8.0-0.0-0.31","2000","1","2","""event"",""trial"",""time""
""fullscreenenter"",""1"",""3655""
","
","
","""event"",""trial"",""time""
""fullscreenenter"",""1"",""3655""
","
","","","","","","1548.5","<p> Remember, you should use the 1, 2, and 3 keys to select the park for each piece of equipment. </p><br><div class=""choice-instructions-grid""> <div class=""choice-option""><img src=""images/park1.png"" class=""choice-option-img"" stage=""instructions"" position=""0"" ><div class=""choice-option-text""> Press ""1."" </div></div><div class=""choice-option""><img src=""images/park2.png"" class=""choice-option-img"" stage=""instructions"" position=""1"" ><div class=""choice-option-text""> Press ""2."" </div></div><div class=""choice-option""><img src=""images/park3.png"" class=""choice-option-img"" stage=""instructions"" position=""2"" ><div class=""choice-option-text""> Press ""3."" </div></div></div>","","0","instructions","","","","","","","","","","","","","",""
"html-button-response","40","334717","0.0-8.0-1.0","2000","1","2","""event"",""trial"",""time""
""fullscreenenter"",""1"",""3655""
","
","
","""event"",""trial"",""time""
""fullscreenenter"",""1"",""3655""
","
","","","","","","2456.5999999940395","<p> Ready to practice? </p>","0","","","","","","","","","","","","","","","",""
"html-keyboard-response","41","335325","0.0-8.0-2.0-0.0","2000","1","2","""event"",""trial"",""time""
""fullscreenenter"",""1"",""3655""
","
","
","""event"",""trial"",""time""
""fullscreenenter"",""1"",""3655""
","
","","","","","","null","<div style=""font-size:60px;"">+</div>","null","","fixation","","","","","","","","","","","","","",""
"learning-trial","42","339331","0.0-8.0-2.0-1.0","2000","1","2","""event"",""trial"",""time""
""fullscreenenter"",""1"",""3655""
","
","
","""event"",""trial"",""time""
""fullscreenenter"",""1"",""3655""
","
","","","","","","853.2000000029802","images/racket3.png","","","practice","images/park2.png","images/park1.png","images/park3.png","[1,0,2]","0","1","1","images/park2.png","-1","practice","","","",""
"html-keyboard-response","43","339837","0.0-8.0-2.0-0.1","2000","1","2","""event"",""trial"",""time""
""fullscreenenter"",""1"",""3655""
","
","
","""event"",""trial"",""time""
""fullscreenenter"",""1"",""3655""
","
","","","","","","null","<div style=""font-size:60px;"">+</div>","null","","fixation","","","","","","","","","","","","","",""
"learning-trial","44","343842","0.0-8.0-2.0-1.1","2000","1","2","""event"",""trial"",""time""
""fullscreenenter"",""1"",""3655""
","
","
","""event"",""trial"",""time""
""fullscreenenter"",""1"",""3655""
","
","","","","","","952.7999999970198","images/ball1.png","","","practice","images/park2.png","images/park1.png","images/park3.png","[1,0,2]","1","0","2","images/park1.png","-1","practice","","","",""
"html-keyboard-response","45","344349","0.0-8.0-2.0-0.2","2000","1","2","""event"",""trial"",""time""
""fullscreenenter"",""1"",""3655""
","
","
","""event"",""trial"",""time""
""fullscreenenter"",""1"",""3655""
","
","","","","","","null","<div style=""font-size:60px;"">+</div>","null","","fixation","","","","","","","","","","","","","",""
"learning-trial","46","348358","0.0-8.0-2.0-1.2","2000","1","2","""event"",""trial"",""time""
""fullscreenenter"",""1"",""3655""
","
","
","""event"",""trial"",""time""
""fullscreenenter"",""1"",""3655""
","
","","","","","","1259.5999999940395","images/ball2.png","","","practice","images/park2.png","images/park1.png","images/park3.png","[1,0,2]","2","2","2","images/park1.png","-1","practice","","","",""
"html-keyboard-response","47","348865","0.0-8.0-2.0-0.3","2000","1","2","""event"",""trial"",""time""
""fullscreenenter"",""1"",""3655""
","
","
","""event"",""trial"",""time""
""fullscreenenter"",""1"",""3655""
","
","","","","","","null","<div style=""font-size:60px;"">+</div>","null","","fixation","","","","","","","","","","","","","",""
"learning-trial","48","352871","0.0-8.0-2.0-1.3","2000","1","2","""event"",""trial"",""time""
""fullscreenenter"",""1"",""3655""
","
","
","""event"",""trial"",""time""
""fullscreenenter"",""1"",""3655""
","
","","","","","","1276.800000011921","images/racket4.png","","","practice","images/park3.png","images/park1.png","images/park2.png","[2,0,1]","0","1","3","images/park2.png","-1","practice","","","",""
"html-keyboard-response","49","353377","0.0-8.0-2.0-0.4","2000","1","2","""event"",""trial"",""time""
""fullscreenenter"",""1"",""3655""
","
","
","""event"",""trial"",""time""
""fullscreenenter"",""1"",""3655""
","
","","","","","","null","<div style=""font-size:60px;"">+</div>","null","","fixation","","","","","","","","","","","","","",""
"learning-trial","50","357383","0.0-8.0-2.0-1.4","2000","1","2","""event"",""trial"",""time""
""fullscreenenter"",""1"",""3655""
","
","
","""event"",""trial"",""time""
""fullscreenenter"",""1"",""3655""
","
","","","","","","1665.5","images/ball2.png","","","practice","images/park1.png","images/park3.png","images/park2.png","[0,2,1]","2","1","2","images/park3.png","1","practice","","","",""
"html-keyboard-response","51","357889","0.0-8.0-2.0-0.5","2000","1","2","""event"",""trial"",""time""
""fullscreenenter"",""1"",""3655""
","
","
","""event"",""trial"",""time""
""fullscreenenter"",""1"",""3655""
","
","","","","","","null","<div style=""font-size:60px;"">+</div>","null","","fixation","","","","","","","","","","","","","",""
"learning-trial","52","361895","0.0-8.0-2.0-1.5","2000","1","2","""event"",""trial"",""time""
""fullscreenenter"",""1"",""3655""
","
","
","""event"",""trial"",""time""
""fullscreenenter"",""1"",""3655""
","
","","","","","","984.7999999970198","images/ball3.png","","","practice","images/park1.png","images/park2.png","images/park3.png","[0,1,2]","2","2","2","images/park2.png","-1","practice","","","",""
"html-keyboard-response","53","362401","0.0-8.0-2.0-0.6","2000","1","2","""event"",""trial"",""time""
""fullscreenenter"",""1"",""3655""
","
","
","""event"",""trial"",""time""
""fullscreenenter"",""1"",""3655""
","
","","","","","","null","<div style=""font-size:60px;"">+</div>","null","","fixation","","","","","","","","","","","","","",""
"learning-trial","54","366407","0.0-8.0-2.0-1.6","2000","1","2","""event"",""trial"",""time""
""fullscreenenter"",""1"",""3655""
","
","
","""event"",""trial"",""time""
""fullscreenenter"",""1"",""3655""
","
","","","","","","1564.7000000029802","images/ball3.png","","","practice","images/park2.png","images/park3.png","images/park1.png","[1,2,0]","2","1","3","images/park1.png","-1","practice","","","",""
"html-keyboard-response","55","366913","0.0-8.0-2.0-0.7","2000","1","2","""event"",""trial"",""time""
""fullscreenenter"",""1"",""3655""
","
","
","""event"",""trial"",""time""
""fullscreenenter"",""1"",""3655""
","
","","","","","","null","<div style=""font-size:60px;"">+</div>","null","","fixation","","","","","","","","","","","","","",""
"learning-trial","56","370918","0.0-8.0-2.0-1.7","2000","1","2","""event"",""trial"",""time""
""fullscreenenter"",""1"",""3655""
","
","
","""event"",""trial"",""time""
""fullscreenenter"",""1"",""3655""
","
","","","","","","2452.2999999970198","images/racket3.png","","","practice","images/park1.png","images/park2.png","images/park3.png","[0,1,2]","0","0","2","images/park2.png","-1","practice","","","",""
"html-keyboard-response","57","371425","0.0-8.0-2.0-0.8","2000","1","2","""event"",""trial"",""time""
""fullscreenenter"",""1"",""3655""
","
","
","""event"",""trial"",""time""
""fullscreenenter"",""1"",""3655""
","
","","","","","","null","<div style=""font-size:60px;"">+</div>","null","","fixation","","","","","","","","","","","","","",""
"learning-trial","58","375431","0.0-8.0-2.0-1.8","2000","1","2","""event"",""trial"",""time""
""fullscreenenter"",""1"",""3655""
","
","
","""event"",""trial"",""time""
""fullscreenenter"",""1"",""3655""
","
","","","","","","1402.1000000089407","images/racket4.png","","","practice","images/park3.png","images/park2.png","images/park1.png","[2,1,0]","0","2","1","images/park3.png","-1","practice","","","",""
"html-keyboard-response","59","375937","0.0-8.0-2.0-0.9","2000","1","2","""event"",""trial"",""time""
""fullscreenenter"",""1"",""3655""
","
","
","""event"",""trial"",""time""
""fullscreenenter"",""1"",""3655""
","
","","","","","","null","<div style=""font-size:60px;"">+</div>","null","","fixation","","","","","","","","","","","","","",""
"learning-trial","60","379942","0.0-8.0-2.0-1.9","2000","1","2","""event"",""trial"",""time""
""fullscreenenter"",""1"",""3655""
","
","
","""event"",""trial"",""time""
""fullscreenenter"",""1"",""3655""
","
","","","","","","2907.3999999910593","images/ball1.png","","","practice","images/park1.png","images/park2.png","images/park3.png","[0,1,2]","1","1","1","images/park1.png","-1","practice","","","",""
"html-keyboard-response","61","380448","0.0-8.0-2.0-0.10","2000","1","2","""event"",""trial"",""time""
""fullscreenenter"",""1"",""3655""
","
","
","""event"",""trial"",""time""
""fullscreenenter"",""1"",""3655""
","
","","","","","","null","<div style=""font-size:60px;"">+</div>","null","","fixation","","","","","","","","","","","","","",""
"learning-trial","62","384454","0.0-8.0-2.0-1.10","2000","1","2","""event"",""trial"",""time""
""fullscreenenter"",""1"",""3655""
","
","
","""event"",""trial"",""time""
""fullscreenenter"",""1"",""3655""
","
","","","","","","2181","images/racket2.png","","","practice","images/park3.png","images/park2.png","images/park1.png","[2,1,0]","1","1","1","images/park3.png","-1","practice","","","",""
"html-keyboard-response","63","384960","0.0-8.0-2.0-0.11","2000","1","2","""event"",""trial"",""time""
""fullscreenenter"",""1"",""3655""
","
","
","""event"",""trial"",""time""
""fullscreenenter"",""1"",""3655""
","
","","","","","","null","<div style=""font-size:60px;"">+</div>","null","","fixation","","","","","","","","","","","","","",""
"learning-trial","64","388965","0.0-8.0-2.0-1.11","2000","1","2","""event"",""trial"",""time""
""fullscreenenter"",""1"",""3655""
","
","
","""event"",""trial"",""time""
""fullscreenenter"",""1"",""3655""
","
","","","","","","1302.6000000089407","images/racket2.png","","","practice","images/park3.png","images/park1.png","images/park2.png","[2,0,1]","1","2","2","images/park1.png","-1","practice","","","",""
"html-button-response","65","391749","0.0-8.0-3.0","2000","1","2","""event"",""trial"",""time""
""fullscreenenter"",""1"",""3655""
","
","
","""event"",""trial"",""time""
""fullscreenenter"",""1"",""3655""
","
","","","","","","2779.2000000029802","<p> You earned -10 points in the practice round! </p>","0","","break","","","","","","","","","","","","","",""
"learning-instructions","66","401111","0.0-8.0-4.0-0.0","2000","1","2","""event"",""trial"",""time""
""fullscreenenter"",""1"",""3655""
","
","
","""event"",""trial"",""time""
""fullscreenenter"",""1"",""3655""
","
","","","","","","1692","<p> It's almost time to start the real game. </p><p> Before you start, we're going to ask you a few questions about how the game works. </p>","","0","instructions","","","","","","","","","","","","","",""
"preload","67","404533","0.0-8.0-5.0","2000","1","2","""event"",""trial"",""time""
""fullscreenenter"",""1"",""3655""
","
","
","""event"",""trial"",""time""
""fullscreenenter"",""1"",""3655""
","
","true","false","[]","[]","[]","","","","","","","","","","","","","","","","","","",""
"comp-q","68","414922","0.0-8.0-6.0-0.0","2000","1","2","""event"",""trial"",""time""
""fullscreenenter"",""1"",""3655""
","
","
","""event"",""trial"",""time""
""fullscreenenter"",""1"",""3655""
","
","","","","","","4937.100000008941","<p> <b> True or False? </b> </p><p> If you choose the best option, you will always earn 1 point. </p>","","0","comp_question","","","","","","","","","","","false","","",""
"comp-q","69","421856","0.0-8.0-6.0-1.0","2000","1","2","""event"",""trial"",""time""
""fullscreenenter"",""1"",""3655""
","
","
","""event"",""trial"",""time""
""fullscreenenter"",""1"",""3655""
","
","","","","","","1381.5","<p><b> Incorrect. </b> Sometimes you will lose 1 point, even if you choose the best option. </p>","","0","comp_answer","","","","","","","","","","","","","",""
"comp-q","70","427015","0.0-8.0-6.0-0.1","2000","1","2","""event"",""trial"",""time""
""fullscreenenter"",""1"",""3655""
","
","
","""event"",""trial"",""time""
""fullscreenenter"",""1"",""3655""
","
","","","","","","529.2999999970198","<p> <b> True or False? </b> </p><p> You will have as much time as you want to make each choice. </p>","","1","comp_question","","","","","","","","","","","true","","",""
"comp-q","71","433075","0.0-8.0-6.0-1.1","2000","1","2","""event"",""trial"",""time""
""fullscreenenter"",""1"",""3655""
","
","
","""event"",""trial"",""time""
""fullscreenenter"",""1"",""3655""
","
","","","","","","1246.7999999970198","<p> <b> That's right! </b> You will only have 4 seconds to make each choice. </p>","","0","comp_answer","","","","","","","","","","","","","",""
"comp-q","72","439716","0.0-8.0-6.0-0.2","2000","1","2","""event"",""trial"",""time""
""fullscreenenter"",""1"",""3655""
","
","
","""event"",""trial"",""time""
""fullscreenenter"",""1"",""3655""
","
","","","","","","489.5","<p> <b> True or False? </b> </p><p> You should use the '1', '2', and '3' keys to make your choices. </p>","","0","comp_question","","","","","","","","","","","true","","",""
"comp-q","73","445428","0.0-8.0-6.0-1.2","2000","1","2","""event"",""trial"",""time""
""fullscreenenter"",""1"",""3655""
","
","
","""event"",""trial"",""time""
""fullscreenenter"",""1"",""3655""
","
","","","","","","867.7999999970198","<p> <b> That's right! </b> You should use the '1', '2', and '3' keys to make each choice. </p>","","0","comp_answer","","","","","","","","","","","","","",""
"learning-instructions","74","455125","0.0-8.0-7.0-0.0","2000","1","2","""event"",""trial"",""time""
""fullscreenenter"",""1"",""3655""
","
","
","""event"",""trial"",""time""
""fullscreenenter"",""1"",""3655""
","
","","","","","","1210.6000000089407","<p> It's now time to start the real game. </p>Do your best, because the points you earn in the next rounds will influence your bonus payment. </p>","","0","instructions","","","","","","","","","","","","","",""
"preload","75","462571","0.0-9.0-0.0","2000","1","2","""event"",""trial"",""time""
""fullscreenenter"",""1"",""3655""
","
","
","""event"",""trial"",""time""
""fullscreenenter"",""1"",""3655""
","
","true","false","[]","[]","[]","","","","","","","","","","","","","","","","","","",""
"learning-instructions","76","473221","0.0-9.0-1.0-0.0","2000","1","2","""event"",""trial"",""time""
""fullscreenenter"",""1"",""3655""
","
","
","""event"",""trial"",""time""
""fullscreenenter"",""1"",""3655""
","
","","","","","","2319.5999999940395","<p> Your goal in this round is to travel the world by putting fuel into different vehicles. </p><p> To travel, you will need to put fuel into many different vehicles. </p></div>","","0","instructions","","","","","","","","","","","","","",""
"learning-instructions","77","482583","0.0-9.0-1.0-0.1","2000","1","2","""event"",""trial"",""time""
""fullscreenenter"",""1"",""3655""
","
","
","""event"",""trial"",""time""
""fullscreenenter"",""1"",""3655""
","
","","","","","","577.5999999940395","<p> On each turn, you will see a picture of one of your vehicles and three different types of fuel.  </p><p> You need to select which kind of fuel to use.  </p>","","0","instructions","","","","","","","","","","","","","",""
"learning-instructions","78","489494","0.0-9.0-1.0-0.2","2000","1","2","""event"",""trial"",""time""
""fullscreenenter"",""1"",""3655""
","
","
","""event"",""trial"",""time""
""fullscreenenter"",""1"",""3655""
","
","","","","","","47.70000000298023","<p> You can select the fuel on the left by pressing 1, the fuel in the middle by pressing 2, and the fuel on the right by pressing 3. </p><br><div class=""choice-instructions-grid""> <div class=""choice-option""><img src=""images/vehicles_choice1.png"" class=""choice-option-img"" stage=""instructions"" position=""0"" ><div class=""choice-option-text""> Press ""1."" </div></div><div class=""choice-option""><img src=""images/vehicles_choice2.png"" class=""choice-option-img"" stage=""instructions"" position=""1"" ><div class=""choice-option-text""> Press ""2."" </div></div><div class=""choice-option""><img src=""images/vehicles_choice3.png"" class=""choice-option-img"" stage=""instructions"" position=""2"" ><div class=""choice-option-text""> Press ""3."" </div></div></div>","","0","instructions","","","","","","","","","","","","","",""
"learning-instructions","79","495055","0.0-9.0-1.0-0.3","2000","1","2","""event"",""trial"",""time""
""fullscreenenter"",""1"",""3655""
","
","
","""event"",""trial"",""time""
""fullscreenenter"",""1"",""3655""
","
","","","","","","334","<p> If the fuel you chose works for that vehicle, it will start, and </p><p> you will get to travel. </p><div style='float: center;'><img src='images/check.png' width = '200' height = '200'></img>","","0","instructions","","","","","","","","","","","","","",""
"learning-instructions","80","499992","0.0-9.0-1.0-0.4","2000","1","2","""event"",""trial"",""time""
""fullscreenenter"",""1"",""3655""
","
","
","""event"",""trial"",""time""
""fullscreenenter"",""1"",""3655""
","
","","","","","","396.5","<p> But, if the fuel you chose does not work, your vehicle will not move. </p><div style='float: center;'><img src='images/x.png' width = '200' height = '200'></img>","","0","instructions","","","","","","","","","","","","","",""
"learning-instructions","81","511111","0.0-9.0-1.0-0.5","2000","1","2","""event"",""trial"",""time""
""fullscreenenter"",""1"",""3655""
","
","
","""event"",""trial"",""time""
""fullscreenenter"",""1"",""3655""
","
","","","","","","444.20000000298023","<p> Importantly, each vehicle has a fuel that works best for it. </p><p> If you choose the fuel that works best for the vehicle, it will be more likely to start. </p>","","0","instructions","","","","","","","","","","","","","",""
"learning-instructions","82","521702","0.0-9.0-1.0-0.6","2000","1","2","""event"",""trial"",""time""
""fullscreenenter"",""1"",""3655""
","
","
","""event"",""trial"",""time""
""fullscreenenter"",""1"",""3655""
","
","","","","","","390","<p> However, even if you choose the best fuel for the vehicle, it may still not move. </p><p> Similarly, even if you choose the <i>wrong</i> fuel, the vehicle may still start and let you travel.","","0","instructions","","","","","","","","","","","","","",""
"learning-instructions","83","534850","0.0-9.0-1.0-0.7","2000","1","2","""event"",""trial"",""time""
""fullscreenenter"",""1"",""3655""
","
","
","""event"",""trial"",""time""
""fullscreenenter"",""1"",""3655""
","
","","","","","","796.7000000029802","<p> Try to choose the best fuel for each vehicle, because you will <b> WIN </b> 1 point each time you get to travel and <b>LOSE</b> 1 point each time a vehicle does not start. </p><p> Your bonus payment will depend on your total number of points.","","0","instructions","","","","","","","","","","","","","",""
"learning-instructions","84","543882","0.0-9.0-1.0-0.8","2000","1","2","""event"",""trial"",""time""
""fullscreenenter"",""1"",""3655""
","
","
","""event"",""trial"",""time""
""fullscreenenter"",""1"",""3655""
","
","","","","","","783.2999999970198","<p> The position of each type of fuel will change throughout the round. </p><p> The fuel's position <i> does not </i> influence how likely it is to make each vehicle start. </p>","","0","instructions","","","","","","","","","","","","","",""
"learning-instructions","85","553734","0.0-9.0-1.0-0.9","2000","1","2","""event"",""trial"",""time""
""fullscreenenter"",""1"",""3655""
","
","
","""event"",""trial"",""time""
""fullscreenenter"",""1"",""3655""
","
","","","","","","560.0999999940395","<p> You will have 4 seconds to make each choice. Try to respond before time runs out! </p><p> You will lose 1 point each time you do not make a response. </p>","","0","instructions","","","","","","","","","","","","","",""
"html-keyboard-response","86","554339","0.0-9.0-2.0-0.0","2000","1","2","""event"",""trial"",""time""
""fullscreenenter"",""1"",""3655""
","
","
","""event"",""trial"",""time""
""fullscreenenter"",""1"",""3655""
","
","","","","","","null","<div style=""font-size:60px;"">+</div>","null","","fixation","","","","","","","","","","","","","",""
"learning-trial","87","558345","0.0-9.0-2.0-1.0","2000","1","2","""event"",""trial"",""time""
""fullscreenenter"",""1"",""3655""
","
","
","""event"",""trial"",""time""
""fullscreenenter"",""1"",""3655""
","
","","","","","","1442.5","images/train3.png","","","learning","images/vehicles_choice1.png","images/vehicles_choice3.png","images/vehicles_choice2.png","[0,2,1]","2","1","1","images/vehicles_choice1.png","-1","vehicles","","train","1","0"
"html-keyboard-response","88","558850","0.0-9.0-2.0-0.1","2000","1","2","""event"",""trial"",""time""
""fullscreenenter"",""1"",""3655""
","
","
","""event"",""trial"",""time""
""fullscreenenter"",""1"",""3655""
","
","","","","","","null","<div style=""font-size:60px;"">+</div>","null","","fixation","","","","","","","","","","","","","",""
"learning-trial","89","562855","0.0-9.0-2.0-1.1","2000","1","2","""event"",""trial"",""time""
""fullscreenenter"",""1"",""3655""
","
","
","""event"",""trial"",""time""
""fullscreenenter"",""1"",""3655""
","
","","","","","","834.2999999970198","images/plane2.png","","","learning","images/vehicles_choice3.png","images/vehicles_choice1.png","images/vehicles_choice2.png","[2,0,1]","0","1","1","images/vehicles_choice3.png","-1","vehicles","","plane","1","0"
"html-keyboard-response","90","563362","0.0-9.0-2.0-0.2","2000","1","2","""event"",""trial"",""time""
""fullscreenenter"",""1"",""3655""
","
","
","""event"",""trial"",""time""
""fullscreenenter"",""1"",""3655""
","
","","","","","","null","<div style=""font-size:60px;"">+</div>","null","","fixation","","","","","","","","","","","","","",""
"learning-trial","91","567368","0.0-9.0-2.0-1.2","2000","1","2","""event"",""trial"",""time""
""fullscreenenter"",""1"",""3655""
","
","
","""event"",""trial"",""time""
""fullscreenenter"",""1"",""3655""
","
","","","","","","2036.5","images/train2.png","","","learning","images/vehicles_choice3.png","images/vehicles_choice1.png","images/vehicles_choice2.png","[2,0,1]","2","0","2","images/vehicles_choice1.png","-1","vehicles","","train","1","0"
"html-keyboard-response","92","567874","0.0-9.0-2.0-0.3","2000","1","2","""event"",""trial"",""time""
""fullscreenenter"",""1"",""3655""
","
","
","""event"",""trial"",""time""
""fullscreenenter"",""1"",""3655""
","
","","","","","","null","<div style=""font-size:60px;"">+</div>","null","","fixation","","","","","","","","","","","","","",""
"learning-trial","93","571879","0.0-9.0-2.0-1.3","2000","1","2","""event"",""trial"",""time""
""fullscreenenter"",""1"",""3655""
","
","
","""event"",""trial"",""time""
""fullscreenenter"",""1"",""3655""
","
","","","","","","729.4000000059605","images/plane5.png","","","learning","images/vehicles_choice1.png","images/vehicles_choice2.png","images/vehicles_choice3.png","[0,1,2]","0","0","1","images/vehicles_choice1.png","1","vehicles","","plane","1","0"
"html-keyboard-response","94","572384","0.0-9.0-2.0-0.4","2000","1","2","""event"",""trial"",""time""
""fullscreenenter"",""1"",""3655""
","
","
","""event"",""trial"",""time""
""fullscreenenter"",""1"",""3655""
","
","","","","","","null","<div style=""font-size:60px;"">+</div>","null","","fixation","","","","","","","","","","","","","",""
"learning-trial","95","576391","0.0-9.0-2.0-1.4","2000","1","2","""event"",""trial"",""time""
""fullscreenenter"",""1"",""3655""
","
","
","""event"",""trial"",""time""
""fullscreenenter"",""1"",""3655""
","
","","","","","","1181.0999999940395","images/truck2.png","","","learning","images/vehicles_choice3.png","images/vehicles_choice1.png","images/vehicles_choice2.png","[2,0,1]","1","2","2","images/vehicles_choice1.png","-1","vehicles","","truck","1","0"
"html-keyboard-response","96","576898","0.0-9.0-2.0-0.5","2000","1","2","""event"",""trial"",""time""
""fullscreenenter"",""1"",""3655""
","
","
","""event"",""trial"",""time""
""fullscreenenter"",""1"",""3655""
","
","","","","","","null","<div style=""font-size:60px;"">+</div>","null","","fixation","","","","","","","","","","","","","",""
"learning-trial","97","580903","0.0-9.0-2.0-1.5","2000","1","2","""event"",""trial"",""time""
""fullscreenenter"",""1"",""3655""
","
","
","""event"",""trial"",""time""
""fullscreenenter"",""1"",""3655""
","
","","","","","","1555.1000000089407","images/truck2.png","","","learning","images/vehicles_choice2.png","images/vehicles_choice3.png","images/vehicles_choice1.png","[1,2,0]","1","0","1","images/vehicles_choice2.png","1","vehicles","","truck","1","0"
"html-keyboard-response","98","581409","0.0-9.0-2.0-0.6","2000","1","2","""event"",""trial"",""time""
""fullscreenenter"",""1"",""3655""
","
","
","""event"",""trial"",""time""
""fullscreenenter"",""1"",""3655""
","
","","","","","","null","<div style=""font-size:60px;"">+</div>","null","","fixation","","","","","","","","","","","","","",""
"learning-trial","99","585415","0.0-9.0-2.0-1.6","2000","1","2","""event"",""trial"",""time""
""fullscreenenter"",""1"",""3655""
","
","
","""event"",""trial"",""time""
""fullscreenenter"",""1"",""3655""
","
","","","","","","1378.4000000059605","images/truck4.png","","","learning","images/vehicles_choice2.png","images/vehicles_choice1.png","images/vehicles_choice3.png","[1,0,2]","1","0","2","images/vehicles_choice1.png","-1","vehicles","","truck","1","0"
"html-keyboard-response","100","585921","0.0-9.0-2.0-0.7","2000","1","2","""event"",""trial"",""time""
""fullscreenenter"",""1"",""3655""
","
","
","""event"",""trial"",""time""
""fullscreenenter"",""1"",""3655""
","
","","","","","","null","<div style=""font-size:60px;"">+</div>","null","","fixation","","","","","","","","","","","","","",""
"learning-trial","101","589927","0.0-9.0-2.0-1.7","2000","1","2","""event"",""trial"",""time""
""fullscreenenter"",""1"",""3655""
","
","
","""event"",""trial"",""time""
""fullscreenenter"",""1"",""3655""
","
","","","","","","1345","images/plane2.png","","","learning","images/vehicles_choice2.png","images/vehicles_choice1.png","images/vehicles_choice3.png","[1,0,2]","0","1","3","images/vehicles_choice3.png","-1","vehicles","","plane","1","0"
"html-keyboard-response","102","590433","0.0-9.0-2.0-0.8","2000","1","2","""event"",""trial"",""time""
""fullscreenenter"",""1"",""3655""
","
","
","""event"",""trial"",""time""
""fullscreenenter"",""1"",""3655""
","
","","","","","","null","<div style=""font-size:60px;"">+</div>","null","","fixation","","","","","","","","","","","","","",""
"learning-trial","103","594438","0.0-9.0-2.0-1.8","2000","1","2","""event"",""trial"",""time""
""fullscreenenter"",""1"",""3655""
","
","
","""event"",""trial"",""time""
""fullscreenenter"",""1"",""3655""
","
","","","","","","1335.2999999970198","images/truck2.png","","","learning","images/vehicles_choice1.png","images/vehicles_choice3.png","images/vehicles_choice2.png","[0,2,1]","1","2","3","images/vehicles_choice2.png","1","vehicles","","truck","1","0"
"html-keyboard-response","104","594945","0.0-9.0-2.0-0.9","2000","1","2","""event"",""trial"",""time""
""fullscreenenter"",""1"",""3655""
","
","
","""event"",""trial"",""time""
""fullscreenenter"",""1"",""3655""
","
","","","","","","null","<div style=""font-size:60px;"">+</div>","null","","fixation","","","","","","","","","","","","","",""
"learning-trial","105","598953","0.0-9.0-2.0-1.9","2000","1","2","""event"",""trial"",""time""
""fullscreenenter"",""1"",""3655""
","
","
","""event"",""trial"",""time""
""fullscreenenter"",""1"",""3655""
","
","","","","","","1615.5","images/train3.png","","","learning","images/vehicles_choice2.png","images/vehicles_choice1.png","images/vehicles_choice3.png","[1,0,2]","2","2","1","images/vehicles_choice2.png","1","vehicles","","train","1","0"
"html-keyboard-response","106","599456","0.0-9.0-2.0-0.10","2000","1","2","""event"",""trial"",""time""
""fullscreenenter"",""1"",""3655""
","
","
","""event"",""trial"",""time""
""fullscreenenter"",""1"",""3655""
","
","","","","","","null","<div style=""font-size:60px;"">+</div>","null","","fixation","","","","","","","","","","","","","",""
"learning-trial","107","603462","0.0-9.0-2.0-1.10","2000","1","2","""event"",""trial"",""time""
""fullscreenenter"",""1"",""3655""
","
","
","""event"",""trial"",""time""
""fullscreenenter"",""1"",""3655""
","
","","","","","","887.0999999940395","images/truck2.png","","","learning","images/vehicles_choice2.png","images/vehicles_choice3.png","images/vehicles_choice1.png","[1,2,0]","1","0","1","images/vehicles_choice2.png","1","vehicles","","truck","1","0"
"html-keyboard-response","108","603968","0.0-9.0-2.0-0.11","2000","1","2","""event"",""trial"",""time""
""fullscreenenter"",""1"",""3655""
","
","
","""event"",""trial"",""time""
""fullscreenenter"",""1"",""3655""
","
","","","","","","null","<div style=""font-size:60px;"">+</div>","null","","fixation","","","","","","","","","","","","","",""
"learning-trial","109","607974","0.0-9.0-2.0-1.11","2000","1","2","""event"",""trial"",""time""
""fullscreenenter"",""1"",""3655""
","
","
","""event"",""trial"",""time""
""fullscreenenter"",""1"",""3655""
","
","","","","","","548.5","images/truck2.png","","","learning","images/vehicles_choice2.png","images/vehicles_choice1.png","images/vehicles_choice3.png","[1,0,2]","1","0","1","images/vehicles_choice2.png","1","vehicles","","truck","1","0"
"html-keyboard-response","110","608480","0.0-9.0-2.0-0.12","2000","1","2","""event"",""trial"",""time""
""fullscreenenter"",""1"",""3655""
","
","
","""event"",""trial"",""time""
""fullscreenenter"",""1"",""3655""
","
","","","","","","null","<div style=""font-size:60px;"">+</div>","null","","fixation","","","","","","","","","","","","","",""
"learning-trial","111","612485","0.0-9.0-2.0-1.12","2000","1","2","""event"",""trial"",""time""
""fullscreenenter"",""1"",""3655""
","
","
","""event"",""trial"",""time""
""fullscreenenter"",""1"",""3655""
","
","","","","","","1304","images/train1.png","","","learning","images/vehicles_choice3.png","images/vehicles_choice2.png","images/vehicles_choice1.png","[2,1,0]","2","0","1","images/vehicles_choice3.png","1","vehicles","","train","1","0"
"html-keyboard-response","112","612992","0.0-9.0-2.0-0.13","2000","1","2","""event"",""trial"",""time""
""fullscreenenter"",""1"",""3655""
","
","
","""event"",""trial"",""time""
""fullscreenenter"",""1"",""3655""
","
","","","","","","null","<div style=""font-size:60px;"">+</div>","null","","fixation","","","","","","","","","","","","","",""
"learning-trial","113","616997","0.0-9.0-2.0-1.13","2000","1","2","""event"",""trial"",""time""
""fullscreenenter"",""1"",""3655""
","
","
","""event"",""trial"",""time""
""fullscreenenter"",""1"",""3655""
","
","","","","","","922.5","images/truck1.png","","","learning","images/vehicles_choice3.png","images/vehicles_choice2.png","images/vehicles_choice1.png","[2,1,0]","1","1","3","images/vehicles_choice1.png","-1","vehicles","","truck","1","0"
"html-keyboard-response","114","617504","0.0-9.0-2.0-0.14","2000","1","2","""event"",""trial"",""time""
""fullscreenenter"",""1"",""3655""
","
","
","""event"",""trial"",""time""
""fullscreenenter"",""1"",""3655""
","
","","","","","","null","<div style=""font-size:60px;"">+</div>","null","","fixation","","","","","","","","","","","","","",""
"learning-trial","115","621509","0.0-9.0-2.0-1.14","2000","1","2","""event"",""trial"",""time""
""fullscreenenter"",""1"",""3655""
","
","
","""event"",""trial"",""time""
""fullscreenenter"",""1"",""3655""
","
","","","","","","1148.0999999940395","images/truck1.png","","","learning","images/vehicles_choice1.png","images/vehicles_choice2.png","images/vehicles_choice3.png","[0,1,2]","1","1","2","images/vehicles_choice2.png","1","vehicles","","truck","1","0"
"html-keyboard-response","116","622015","0.0-9.0-2.0-0.15","2000","1","2","""event"",""trial"",""time""
""fullscreenenter"",""1"",""3655""
","
","
","""event"",""trial"",""time""
""fullscreenenter"",""1"",""3655""
","
","","","","","","null","<div style=""font-size:60px;"">+</div>","null","","fixation","","","","","","","","","","","","","",""
"learning-trial","117","626020","0.0-9.0-2.0-1.15","2000","1","2","""event"",""trial"",""time""
""fullscreenenter"",""1"",""3655""
","
","
","""event"",""trial"",""time""
""fullscreenenter"",""1"",""3655""
","
","","","","","","785.8000000119209","images/truck1.png","","","learning","images/vehicles_choice1.png","images/vehicles_choice3.png","images/vehicles_choice2.png","[0,2,1]","1","2","3","images/vehicles_choice2.png","-1","vehicles","","truck","1","0"
"html-keyboard-response","118","626527","0.0-9.0-2.0-0.16","2000","1","2","""event"",""trial"",""time""
""fullscreenenter"",""1"",""3655""
","
","
","""event"",""trial"",""time""
""fullscreenenter"",""1"",""3655""
","
","","","","","","null","<div style=""font-size:60px;"">+</div>","null","","fixation","","","","","","","","","","","","","",""
"learning-trial","119","630534","0.0-9.0-2.0-1.16","2000","1","2","""event"",""trial"",""time""
""fullscreenenter"",""1"",""3655""
","
","
","""event"",""trial"",""time""
""fullscreenenter"",""1"",""3655""
","
","","","","","","1816","images/train3.png","","","learning","images/vehicles_choice1.png","images/vehicles_choice3.png","images/vehicles_choice2.png","[0,2,1]","2","1","3","images/vehicles_choice2.png","-1","vehicles","","train","1","0"
"html-keyboard-response","120","631039","0.0-9.0-2.0-0.17","2000","1","2","""event"",""trial"",""time""
""fullscreenenter"",""1"",""3655""
","
","
","""event"",""trial"",""time""
""fullscreenenter"",""1"",""3655""
","
","","","","","","null","<div style=""font-size:60px;"">+</div>","null","","fixation","","","","","","","","","","","","","",""
"learning-trial","121","635044","0.0-9.0-2.0-1.17","2000","1","2","""event"",""trial"",""time""
""fullscreenenter"",""1"",""3655""
","
","
","""event"",""trial"",""time""
""fullscreenenter"",""1"",""3655""
","
","","","","","","680","images/train3.png","","","learning","images/vehicles_choice3.png","images/vehicles_choice1.png","images/vehicles_choice2.png","[2,0,1]","2","0","3","images/vehicles_choice2.png","-1","vehicles","","train","1","0"
"html-keyboard-response","122","635550","0.0-9.0-2.0-0.18","2000","1","2","""event"",""trial"",""time""
""fullscreenenter"",""1"",""3655""
","
","
","""event"",""trial"",""time""
""fullscreenenter"",""1"",""3655""
","
","","","","","","null","<div style=""font-size:60px;"">+</div>","null","","fixation","","","","","","","","","","","","","",""
"learning-trial","123","639556","0.0-9.0-2.0-1.18","2000","1","2","""event"",""trial"",""time""
""fullscreenenter"",""1"",""3655""
","
","
","""event"",""trial"",""time""
""fullscreenenter"",""1"",""3655""
","
","","","","","","1929.5","images/truck1.png","","","learning","images/vehicles_choice1.png","images/vehicles_choice3.png","images/vehicles_choice2.png","[0,2,1]","1","2","1","images/vehicles_choice1.png","-1","vehicles","","truck","1","0"
"html-keyboard-response","124","640062","0.0-9.0-2.0-0.19","2000","1","2","""event"",""trial"",""time""
""fullscreenenter"",""1"",""3655""
","
","
","""event"",""trial"",""time""
""fullscreenenter"",""1"",""3655""
","
","","","","","","null","<div style=""font-size:60px;"">+</div>","null","","fixation","","","","","","","","","","","","","",""
"learning-trial","125","644068","0.0-9.0-2.0-1.19","2000","1","2","""event"",""trial"",""time""
""fullscreenenter"",""1"",""3655""
","
","
","""event"",""trial"",""time""
""fullscreenenter"",""1"",""3655""
","
","","","","","","1356.2999999970198","images/train1.png","","","learning","images/vehicles_choice3.png","images/vehicles_choice1.png","images/vehicles_choice2.png","[2,0,1]","2","0","3","images/vehicles_choice2.png","1","vehicles","","train","1","0"
"html-keyboard-response","126","644574","0.0-9.0-2.0-0.20","2000","1","2","""event"",""trial"",""time""
""fullscreenenter"",""1"",""3655""
","
","
","""event"",""trial"",""time""
""fullscreenenter"",""1"",""3655""
","
","","","","","","null","<div style=""font-size:60px;"">+</div>","null","","fixation","","","","","","","","","","","","","",""
"learning-trial","127","648579","0.0-9.0-2.0-1.20","2000","1","2","""event"",""trial"",""time""
""fullscreenenter"",""1"",""3655""
","
","
","""event"",""trial"",""time""
""fullscreenenter"",""1"",""3655""
","
","","","","","","1140.2000000029802","images/train2.png","","","learning","images/vehicles_choice2.png","images/vehicles_choice1.png","images/vehicles_choice3.png","[1,0,2]","2","2","1","images/vehicles_choice2.png","-1","vehicles","","train","1","0"
"html-keyboard-response","128","649085","0.0-9.0-2.0-0.21","2000","1","2","""event"",""trial"",""time""
""fullscreenenter"",""1"",""3655""
","
","
","""event"",""trial"",""time""
""fullscreenenter"",""1"",""3655""
","
","","","","","","null","<div style=""font-size:60px;"">+</div>","null","","fixation","","","","","","","","","","","","","",""
"learning-trial","129","653091","0.0-9.0-2.0-1.21","2000","1","2","""event"",""trial"",""time""
""fullscreenenter"",""1"",""3655""
","
","
","""event"",""trial"",""time""
""fullscreenenter"",""1"",""3655""
","
","","","","","","1166.5999999940395","images/plane2.png","","","learning","images/vehicles_choice3.png","images/vehicles_choice2.png","images/vehicles_choice1.png","[2,1,0]","0","2","3","images/vehicles_choice1.png","1","vehicles","","plane","1","0"
"html-keyboard-response","130","653597","0.0-9.0-2.0-0.22","2000","1","2","""event"",""trial"",""time""
""fullscreenenter"",""1"",""3655""
","
","
","""event"",""trial"",""time""
""fullscreenenter"",""1"",""3655""
","
","","","","","","null","<div style=""font-size:60px;"">+</div>","null","","fixation","","","","","","","","","","","","","",""
"learning-trial","131","657603","0.0-9.0-2.0-1.22","2000","1","2","""event"",""trial"",""time""
""fullscreenenter"",""1"",""3655""
","
","
","""event"",""trial"",""time""
""fullscreenenter"",""1"",""3655""
","
","","","","","","1809.7999999970198","images/plane4.png","","","learning","images/vehicles_choice2.png","images/vehicles_choice1.png","images/vehicles_choice3.png","[1,0,2]","0","1","2","images/vehicles_choice1.png","1","vehicles","","plane","1","0"
"html-keyboard-response","132","658109","0.0-9.0-2.0-0.23","2000","1","2","""event"",""trial"",""time""
""fullscreenenter"",""1"",""3655""
","
","
","""event"",""trial"",""time""
""fullscreenenter"",""1"",""3655""
","
","","","","","","null","<div style=""font-size:60px;"">+</div>","null","","fixation","","","","","","","","","","","","","",""
"learning-trial","133","662115","0.0-9.0-2.0-1.23","2000","1","2","""event"",""trial"",""time""
""fullscreenenter"",""1"",""3655""
","
","
","""event"",""trial"",""time""
""fullscreenenter"",""1"",""3655""
","
","","","","","","946.5","images/train1.png","","","learning","images/vehicles_choice1.png","images/vehicles_choice3.png","images/vehicles_choice2.png","[0,2,1]","2","1","3","images/vehicles_choice2.png","-1","vehicles","","train","1","0"
"html-keyboard-response","134","662621","0.0-9.0-2.0-0.24","2000","1","2","""event"",""trial"",""time""
""fullscreenenter"",""1"",""3655""
","
","
","""event"",""trial"",""time""
""fullscreenenter"",""1"",""3655""
","
","","","","","","null","<div style=""font-size:60px;"">+</div>","null","","fixation","","","","","","","","","","","","","",""
"learning-trial","135","666626","0.0-9.0-2.0-1.24","2000","1","2","""event"",""trial"",""time""
""fullscreenenter"",""1"",""3655""
","
","
","""event"",""trial"",""time""
""fullscreenenter"",""1"",""3655""
","
","","","","","","1535.1000000089407","images/plane5.png","","","learning","images/vehicles_choice1.png","images/vehicles_choice2.png","images/vehicles_choice3.png","[0,1,2]","0","0","1","images/vehicles_choice1.png","1","vehicles","","plane","1","0"
"html-keyboard-response","136","667133","0.0-9.0-2.0-0.25","2000","1","2","""event"",""trial"",""time""
""fullscreenenter"",""1"",""3655""
","
","
","""event"",""trial"",""time""
""fullscreenenter"",""1"",""3655""
","
","","","","","","null","<div style=""font-size:60px;"">+</div>","null","","fixation","","","","","","","","","","","","","",""
"learning-trial","137","671139","0.0-9.0-2.0-1.25","2000","1","2","""event"",""trial"",""time""
""fullscreenenter"",""1"",""3655""
","
","
","""event"",""trial"",""time""
""fullscreenenter"",""1"",""3655""
","
","","","","","","1641.5","images/plane2.png","","","learning","images/vehicles_choice1.png","images/vehicles_choice3.png","images/vehicles_choice2.png","[0,2,1]","0","0","1","images/vehicles_choice1.png","1","vehicles","","plane","1","0"
"html-keyboard-response","138","671644","0.0-9.0-2.0-0.26","2000","1","2","""event"",""trial"",""time""
""fullscreenenter"",""1"",""3655""
","
","
","""event"",""trial"",""time""
""fullscreenenter"",""1"",""3655""
","
","","","","","","null","<div style=""font-size:60px;"">+</div>","null","","fixation","","","","","","","","","","","","","",""
"learning-trial","139","675650","0.0-9.0-2.0-1.26","2000","1","2","""event"",""trial"",""time""
""fullscreenenter"",""1"",""3655""
","
","
","""event"",""trial"",""time""
""fullscreenenter"",""1"",""3655""
","
","","","","","","772.7999999970198","images/plane2.png","","","learning","images/vehicles_choice2.png","images/vehicles_choice1.png","images/vehicles_choice3.png","[1,0,2]","0","1","2","images/vehicles_choice1.png","1","vehicles","","plane","1","0"
"html-keyboard-response","140","676156","0.0-9.0-2.0-0.27","2000","1","2","""event"",""trial"",""time""
""fullscreenenter"",""1"",""3655""
","
","
","""event"",""trial"",""time""
""fullscreenenter"",""1"",""3655""
","
","","","","","","null","<div style=""font-size:60px;"">+</div>","null","","fixation","","","","","","","","","","","","","",""
"learning-trial","141","680162","0.0-9.0-2.0-1.27","2000","1","2","""event"",""trial"",""time""
""fullscreenenter"",""1"",""3655""
","
","
","""event"",""trial"",""time""
""fullscreenenter"",""1"",""3655""
","
","","","","","","1050.800000011921","images/truck4.png","","","learning","images/vehicles_choice2.png","images/vehicles_choice1.png","images/vehicles_choice3.png","[1,0,2]","1","0","3","images/vehicles_choice3.png","-1","vehicles","","truck","1","0"
"html-keyboard-response","142","680668","0.0-9.0-2.0-0.28","2000","1","2","""event"",""trial"",""time""
""fullscreenenter"",""1"",""3655""
","
","
","""event"",""trial"",""time""
""fullscreenenter"",""1"",""3655""
","
","","","","","","null","<div style=""font-size:60px;"">+</div>","null","","fixation","","","","","","","","","","","","","",""
"learning-trial","143","684674","0.0-9.0-2.0-1.28","2000","1","2","""event"",""trial"",""time""
""fullscreenenter"",""1"",""3655""
","
","
","""event"",""trial"",""time""
""fullscreenenter"",""1"",""3655""
","
","","","","","","1118.2000000029802","images/truck4.png","","","learning","images/vehicles_choice3.png","images/vehicles_choice2.png","images/vehicles_choice1.png","[2,1,0]","1","1","2","images/vehicles_choice2.png","1","vehicles","","truck","1","0"
"html-keyboard-response","144","685180","0.0-9.0-2.0-0.29","2000","1","2","""event"",""trial"",""time""
""fullscreenenter"",""1"",""3655""
","
","
","""event"",""trial"",""time""
""fullscreenenter"",""1"",""3655""
","
","","","","","","null","<div style=""font-size:60px;"">+</div>","null","","fixation","","","","","","","","","","","","","",""
"learning-trial","145","689185","0.0-9.0-2.0-1.29","2000","1","2","""event"",""trial"",""time""
""fullscreenenter"",""1"",""3655""
","
","
","""event"",""trial"",""time""
""fullscreenenter"",""1"",""3655""
","
","","","","","","879.2999999970198","images/truck4.png","","","learning","images/vehicles_choice3.png","images/vehicles_choice1.png","images/vehicles_choice2.png","[2,0,1]","1","2","3","images/vehicles_choice2.png","1","vehicles","","truck","1","0"
"html-keyboard-response","146","689692","0.0-9.0-2.0-0.30","2000","1","2","""event"",""trial"",""time""
""fullscreenenter"",""1"",""3655""
","
","
","""event"",""trial"",""time""
""fullscreenenter"",""1"",""3655""
","
","","","","","","null","<div style=""font-size:60px;"">+</div>","null","","fixation","","","","","","","","","","","","","",""
"learning-trial","147","693697","0.0-9.0-2.0-1.30","2000","1","2","""event"",""trial"",""time""
""fullscreenenter"",""1"",""3655""
","
","
","""event"",""trial"",""time""
""fullscreenenter"",""1"",""3655""
","
","","","","","","998.1000000089407","images/plane4.png","","","learning","images/vehicles_choice2.png","images/vehicles_choice1.png","images/vehicles_choice3.png","[1,0,2]","0","1","2","images/vehicles_choice1.png","1","vehicles","","plane","1","0"
"html-keyboard-response","148","694204","0.0-9.0-2.0-0.31","2000","1","2","""event"",""trial"",""time""
""fullscreenenter"",""1"",""3655""
","
","
","""event"",""trial"",""time""
""fullscreenenter"",""1"",""3655""
","
","","","","","","null","<div style=""font-size:60px;"">+</div>","null","","fixation","","","","","","","","","","","","","",""
"learning-trial","149","698209","0.0-9.0-2.0-1.31","2000","1","2","""event"",""trial"",""time""
""fullscreenenter"",""1"",""3655""
","
","
","""event"",""trial"",""time""
""fullscreenenter"",""1"",""3655""
","
","","","","","","968.7000000029802","images/plane2.png","","","learning","images/vehicles_choice1.png","images/vehicles_choice3.png","images/vehicles_choice2.png","[0,2,1]","0","0","1","images/vehicles_choice1.png","1","vehicles","","plane","1","0"
"html-keyboard-response","150","698715","0.0-9.0-2.0-0.32","2000","1","2","""event"",""trial"",""time""
""fullscreenenter"",""1"",""3655""
","
","
","""event"",""trial"",""time""
""fullscreenenter"",""1"",""3655""
","
","","","","","","null","<div style=""font-size:60px;"">+</div>","null","","fixation","","","","","","","","","","","","","",""
"learning-trial","151","702721","0.0-9.0-2.0-1.32","2000","1","2","""event"",""trial"",""time""
""fullscreenenter"",""1"",""3655""
","
","
","""event"",""trial"",""time""
""fullscreenenter"",""1"",""3655""
","
","","","","","","1052.0999999940395","images/truck1.png","","","learning","images/vehicles_choice2.png","images/vehicles_choice1.png","images/vehicles_choice3.png","[1,0,2]","1","0","1","images/vehicles_choice2.png","1","vehicles","","truck","1","0"
"html-keyboard-response","152","703227","0.0-9.0-2.0-0.33","2000","1","2","""event"",""trial"",""time""
""fullscreenenter"",""1"",""3655""
","
","
","""event"",""trial"",""time""
""fullscreenenter"",""1"",""3655""
","
","","","","","","null","<div style=""font-size:60px;"">+</div>","null","","fixation","","","","","","","","","","","","","",""
"learning-trial","153","707233","0.0-9.0-2.0-1.33","2000","1","2","""event"",""trial"",""time""
""fullscreenenter"",""1"",""3655""
","
","
","""event"",""trial"",""time""
""fullscreenenter"",""1"",""3655""
","
","","","","","","928","images/truck1.png","","","learning","images/vehicles_choice3.png","images/vehicles_choice1.png","images/vehicles_choice2.png","[2,0,1]","1","2","3","images/vehicles_choice2.png","1","vehicles","","truck","1","0"
"html-keyboard-response","154","707739","0.0-9.0-2.0-0.34","2000","1","2","""event"",""trial"",""time""
""fullscreenenter"",""1"",""3655""
","
","
","""event"",""trial"",""time""
""fullscreenenter"",""1"",""3655""
","
","","","","","","null","<div style=""font-size:60px;"">+</div>","null","","fixation","","","","","","","","","","","","","",""
"learning-trial","155","711747","0.0-9.0-2.0-1.34","2000","1","2","""event"",""trial"",""time""
""fullscreenenter"",""1"",""3655""
","
","
","""event"",""trial"",""time""
""fullscreenenter"",""1"",""3655""
","
","","","","","","1781.7000000029802","images/train2.png","","","learning","images/vehicles_choice1.png","images/vehicles_choice2.png","images/vehicles_choice3.png","[0,1,2]","2","2","1","images/vehicles_choice1.png","-1","vehicles","","train","1","0"
"html-keyboard-response","156","712251","0.0-9.0-2.0-0.35","2000","1","2","""event"",""trial"",""time""
""fullscreenenter"",""1"",""3655""
","
","
","""event"",""trial"",""time""
""fullscreenenter"",""1"",""3655""
","
","","","","","","null","<div style=""font-size:60px;"">+</div>","null","","fixation","","","","","","","","","","","","","",""
"learning-trial","157","716256","0.0-9.0-2.0-1.35","2000","1","2","""event"",""trial"",""time""
""fullscreenenter"",""1"",""3655""
","
","
","""event"",""trial"",""time""
""fullscreenenter"",""1"",""3655""
","
","","","","","","1328.2000000029802","images/truck2.png","","","learning","images/vehicles_choice3.png","images/vehicles_choice1.png","images/vehicles_choice2.png","[2,0,1]","1","2","3","images/vehicles_choice2.png","1","vehicles","","truck","1","0"
"html-keyboard-response","158","716763","0.0-9.0-2.0-0.36","2000","1","2","""event"",""trial"",""time""
""fullscreenenter"",""1"",""3655""
","
","
","""event"",""trial"",""time""
""fullscreenenter"",""1"",""3655""
","
","","","","","","null","<div style=""font-size:60px;"">+</div>","null","","fixation","","","","","","","","","","","","","",""
"learning-trial","159","720768","0.0-9.0-2.0-1.36","2000","1","2","""event"",""trial"",""time""
""fullscreenenter"",""1"",""3655""
","
","
","""event"",""trial"",""time""
""fullscreenenter"",""1"",""3655""
","
","","","","","","905","images/plane5.png","","","learning","images/vehicles_choice3.png","images/vehicles_choice1.png","images/vehicles_choice2.png","[2,0,1]","0","1","2","images/vehicles_choice1.png","1","vehicles","","plane","1","0"
"html-keyboard-response","160","721274","0.0-9.0-2.0-0.37","2000","1","2","""event"",""trial"",""time""
""fullscreenenter"",""1"",""3655""
","
","
","""event"",""trial"",""time""
""fullscreenenter"",""1"",""3655""
","
","","","","","","null","<div style=""font-size:60px;"">+</div>","null","","fixation","","","","","","","","","","","","","",""
"learning-trial","161","725280","0.0-9.0-2.0-1.37","2000","1","2","""event"",""trial"",""time""
""fullscreenenter"",""1"",""3655""
","
","
","""event"",""trial"",""time""
""fullscreenenter"",""1"",""3655""
","
","","","","","","1579.2999999970198","images/train3.png","","","learning","images/vehicles_choice2.png","images/vehicles_choice1.png","images/vehicles_choice3.png","[1,0,2]","2","2","2","images/vehicles_choice1.png","-1","vehicles","","train","1","0"
"html-keyboard-response","162","725786","0.0-9.0-2.0-0.38","2000","1","2","""event"",""trial"",""time""
""fullscreenenter"",""1"",""3655""
","
","
","""event"",""trial"",""time""
""fullscreenenter"",""1"",""3655""
","
","","","","","","null","<div style=""font-size:60px;"">+</div>","null","","fixation","","","","","","","","","","","","","",""
"learning-trial","163","729792","0.0-9.0-2.0-1.38","2000","1","2","""event"",""trial"",""time""
""fullscreenenter"",""1"",""3655""
","
","
","""event"",""trial"",""time""
""fullscreenenter"",""1"",""3655""
","
","","","","","","988.2999999970198","images/plane4.png","","","learning","images/vehicles_choice1.png","images/vehicles_choice2.png","images/vehicles_choice3.png","[0,1,2]","0","0","1","images/vehicles_choice1.png","1","vehicles","","plane","1","0"
"html-keyboard-response","164","730298","0.0-9.0-2.0-0.39","2000","1","2","""event"",""trial"",""time""
""fullscreenenter"",""1"",""3655""
","
","
","""event"",""trial"",""time""
""fullscreenenter"",""1"",""3655""
","
","","","","","","null","<div style=""font-size:60px;"">+</div>","null","","fixation","","","","","","","","","","","","","",""
"learning-trial","165","734303","0.0-9.0-2.0-1.39","2000","1","2","""event"",""trial"",""time""
""fullscreenenter"",""1"",""3655""
","
","
","""event"",""trial"",""time""
""fullscreenenter"",""1"",""3655""
","
","","","","","","1387.5","images/train1.png","","","learning","images/vehicles_choice2.png","images/vehicles_choice1.png","images/vehicles_choice3.png","[1,0,2]","2","2","1","images/vehicles_choice2.png","-1","vehicles","","train","1","0"
"html-keyboard-response","166","734810","0.0-9.0-2.0-0.40","2000","1","2","""event"",""trial"",""time""
""fullscreenenter"",""1"",""3655""
","
","
","""event"",""trial"",""time""
""fullscreenenter"",""1"",""3655""
","
","","","","","","null","<div style=""font-size:60px;"">+</div>","null","","fixation","","","","","","","","","","","","","",""
"learning-trial","167","738815","0.0-9.0-2.0-1.40","2000","1","2","""event"",""trial"",""time""
""fullscreenenter"",""1"",""3655""
","
","
","""event"",""trial"",""time""
""fullscreenenter"",""1"",""3655""
","
","","","","","","1384.7999999970198","images/train2.png","","","learning","images/vehicles_choice3.png","images/vehicles_choice1.png","images/vehicles_choice2.png","[2,0,1]","2","0","1","images/vehicles_choice3.png","1","vehicles","","train","1","0"
"html-keyboard-response","168","739322","0.0-9.0-2.0-0.41","2000","1","2","""event"",""trial"",""time""
""fullscreenenter"",""1"",""3655""
","
","
","""event"",""trial"",""time""
""fullscreenenter"",""1"",""3655""
","
","","","","","","null","<div style=""font-size:60px;"">+</div>","null","","fixation","","","","","","","","","","","","","",""
"learning-trial","169","743327","0.0-9.0-2.0-1.41","2000","1","2","""event"",""trial"",""time""
""fullscreenenter"",""1"",""3655""
","
","
","""event"",""trial"",""time""
""fullscreenenter"",""1"",""3655""
","
","","","","","","1175.5","images/truck1.png","","","learning","images/vehicles_choice2.png","images/vehicles_choice1.png","images/vehicles_choice3.png","[1,0,2]","1","0","1","images/vehicles_choice2.png","1","vehicles","","truck","1","0"
"html-keyboard-response","170","743833","0.0-9.0-2.0-0.42","2000","1","2","""event"",""trial"",""time""
""fullscreenenter"",""1"",""3655""
","
","
","""event"",""trial"",""time""
""fullscreenenter"",""1"",""3655""
","
","","","","","","null","<div style=""font-size:60px;"">+</div>","null","","fixation","","","","","","","","","","","","","",""
"learning-trial","171","747839","0.0-9.0-2.0-1.42","2000","1","2","""event"",""trial"",""time""
""fullscreenenter"",""1"",""3655""
","
","
","""event"",""trial"",""time""
""fullscreenenter"",""1"",""3655""
","
","","","","","","767.2999999970198","images/plane4.png","","","learning","images/vehicles_choice2.png","images/vehicles_choice1.png","images/vehicles_choice3.png","[1,0,2]","0","1","2","images/vehicles_choice1.png","1","vehicles","","plane","1","0"
"html-keyboard-response","172","748345","0.0-9.0-2.0-0.43","2000","1","2","""event"",""trial"",""time""
""fullscreenenter"",""1"",""3655""
","
","
","""event"",""trial"",""time""
""fullscreenenter"",""1"",""3655""
","
","","","","","","null","<div style=""font-size:60px;"">+</div>","null","","fixation","","","","","","","","","","","","","",""
"learning-trial","173","752351","0.0-9.0-2.0-1.43","2000","1","2","""event"",""trial"",""time""
""fullscreenenter"",""1"",""3655""
","
","
","""event"",""trial"",""time""
""fullscreenenter"",""1"",""3655""
","
","","","","","","848.2000000029802","images/plane4.png","","","learning","images/vehicles_choice3.png","images/vehicles_choice2.png","images/vehicles_choice1.png","[2,1,0]","0","2","3","images/vehicles_choice1.png","1","vehicles","","plane","1","0"
"html-keyboard-response","174","752857","0.0-9.0-2.0-0.44","2000","1","2","""event"",""trial"",""time""
""fullscreenenter"",""1"",""3655""
","
","
","""event"",""trial"",""time""
""fullscreenenter"",""1"",""3655""
","
","","","","","","null","<div style=""font-size:60px;"">+</div>","null","","fixation","","","","","","","","","","","","","",""
"learning-trial","175","756863","0.0-9.0-2.0-1.44","2000","1","2","""event"",""trial"",""time""
""fullscreenenter"",""1"",""3655""
","
","
","""event"",""trial"",""time""
""fullscreenenter"",""1"",""3655""
","
","","","","","","895.2000000029802","images/plane5.png","","","learning","images/vehicles_choice2.png","images/vehicles_choice3.png","images/vehicles_choice1.png","[1,2,0]","0","2","3","images/vehicles_choice1.png","-1","vehicles","","plane","1","0"
"html-keyboard-response","176","757368","0.0-9.0-2.0-0.45","2000","1","2","""event"",""trial"",""time""
""fullscreenenter"",""1"",""3655""
","
","
","""event"",""trial"",""time""
""fullscreenenter"",""1"",""3655""
","
","","","","","","null","<div style=""font-size:60px;"">+</div>","null","","fixation","","","","","","","","","","","","","",""
"learning-trial","177","761376","0.0-9.0-2.0-1.45","2000","1","2","""event"",""trial"",""time""
""fullscreenenter"",""1"",""3655""
","
","
","""event"",""trial"",""time""
""fullscreenenter"",""1"",""3655""
","
","","","","","","1070.300000011921","images/plane2.png","","","learning","images/vehicles_choice1.png","images/vehicles_choice2.png","images/vehicles_choice3.png","[0,1,2]","0","0","1","images/vehicles_choice1.png","-1","vehicles","","plane","1","0"
"html-keyboard-response","178","761880","0.0-9.0-2.0-0.46","2000","1","2","""event"",""trial"",""time""
""fullscreenenter"",""1"",""3655""
","
","
","""event"",""trial"",""time""
""fullscreenenter"",""1"",""3655""
","
","","","","","","null","<div style=""font-size:60px;"">+</div>","null","","fixation","","","","","","","","","","","","","",""
"learning-trial","179","765886","0.0-9.0-2.0-1.46","2000","1","2","""event"",""trial"",""time""
""fullscreenenter"",""1"",""3655""
","
","
","""event"",""trial"",""time""
""fullscreenenter"",""1"",""3655""
","
","","","","","","1194.3999999910593","images/truck4.png","","","learning","images/vehicles_choice1.png","images/vehicles_choice2.png","images/vehicles_choice3.png","[0,1,2]","1","1","2","images/vehicles_choice2.png","1","vehicles","","truck","1","0"
"html-keyboard-response","180","766392","0.0-9.0-2.0-0.47","2000","1","2","""event"",""trial"",""time""
""fullscreenenter"",""1"",""3655""
","
","
","""event"",""trial"",""time""
""fullscreenenter"",""1"",""3655""
","
","","","","","","null","<div style=""font-size:60px;"">+</div>","null","","fixation","","","","","","","","","","","","","",""
"learning-trial","181","770398","0.0-9.0-2.0-1.47","2000","1","2","""event"",""trial"",""time""
""fullscreenenter"",""1"",""3655""
","
","
","""event"",""trial"",""time""
""fullscreenenter"",""1"",""3655""
","
","","","","","","786.3999999910593","images/plane4.png","","","learning","images/vehicles_choice1.png","images/vehicles_choice3.png","images/vehicles_choice2.png","[0,2,1]","0","0","1","images/vehicles_choice1.png","1","vehicles","","plane","1","0"
"html-keyboard-response","182","770904","0.0-9.0-2.0-0.48","2000","1","2","""event"",""trial"",""time""
""fullscreenenter"",""1"",""3655""
","
","
","""event"",""trial"",""time""
""fullscreenenter"",""1"",""3655""
","
","","","","","","null","<div style=""font-size:60px;"">+</div>","null","","fixation","","","","","","","","","","","","","",""
"learning-trial","183","774909","0.0-9.0-2.0-1.48","2000","1","2","""event"",""trial"",""time""
""fullscreenenter"",""1"",""3655""
","
","
","""event"",""trial"",""time""
""fullscreenenter"",""1"",""3655""
","
","","","","","","808.5","images/plane2.png","","","learning","images/vehicles_choice1.png","images/vehicles_choice3.png","images/vehicles_choice2.png","[0,2,1]","0","0","1","images/vehicles_choice1.png","1","vehicles","","plane","1","0"
"html-keyboard-response","184","775416","0.0-9.0-2.0-0.49","2000","1","2","""event"",""trial"",""time""
""fullscreenenter"",""1"",""3655""
","
","
","""event"",""trial"",""time""
""fullscreenenter"",""1"",""3655""
","
","","","","","","null","<div style=""font-size:60px;"">+</div>","null","","fixation","","","","","","","","","","","","","",""
"learning-trial","185","779421","0.0-9.0-2.0-1.49","2000","1","2","""event"",""trial"",""time""
""fullscreenenter"",""1"",""3655""
","
","
","""event"",""trial"",""time""
""fullscreenenter"",""1"",""3655""
","
","","","","","","1402.800000011921","images/truck4.png","","","learning","images/vehicles_choice2.png","images/vehicles_choice1.png","images/vehicles_choice3.png","[1,0,2]","1","0","1","images/vehicles_choice2.png","1","vehicles","","truck","1","0"
"html-keyboard-response","186","779928","0.0-9.0-2.0-0.50","2000","1","2","""event"",""trial"",""time""
""fullscreenenter"",""1"",""3655""
","
","
","""event"",""trial"",""time""
""fullscreenenter"",""1"",""3655""
","
","","","","","","null","<div style=""font-size:60px;"">+</div>","null","","fixation","","","","","","","","","","","","","",""
"learning-trial","187","783934","0.0-9.0-2.0-1.50","2000","1","2","""event"",""trial"",""time""
""fullscreenenter"",""1"",""3655""
","
","
","""event"",""trial"",""time""
""fullscreenenter"",""1"",""3655""
","
","","","","","","1206.7999999970198","images/truck2.png","","","learning","images/vehicles_choice3.png","images/vehicles_choice2.png","images/vehicles_choice1.png","[2,1,0]","1","1","2","images/vehicles_choice2.png","1","vehicles","","truck","1","0"
"html-keyboard-response","188","784439","0.0-9.0-2.0-0.51","2000","1","2","""event"",""trial"",""time""
""fullscreenenter"",""1"",""3655""
","
","
","""event"",""trial"",""time""
""fullscreenenter"",""1"",""3655""
","
","","","","","","null","<div style=""font-size:60px;"">+</div>","null","","fixation","","","","","","","","","","","","","",""
"learning-trial","189","788445","0.0-9.0-2.0-1.51","2000","1","2","""event"",""trial"",""time""
""fullscreenenter"",""1"",""3655""
","
","
","""event"",""trial"",""time""
""fullscreenenter"",""1"",""3655""
","
","","","","","","916.2999999970198","images/plane5.png","","","learning","images/vehicles_choice3.png","images/vehicles_choice1.png","images/vehicles_choice2.png","[2,0,1]","0","1","2","images/vehicles_choice1.png","1","vehicles","","plane","1","0"
"html-keyboard-response","190","788951","0.0-9.0-2.0-0.52","2000","1","2","""event"",""trial"",""time""
""fullscreenenter"",""1"",""3655""
","
","
","""event"",""trial"",""time""
""fullscreenenter"",""1"",""3655""
","
","","","","","","null","<div style=""font-size:60px;"">+</div>","null","","fixation","","","","","","","","","","","","","",""
"learning-trial","191","792957","0.0-9.0-2.0-1.52","2000","1","2","""event"",""trial"",""time""
""fullscreenenter"",""1"",""3655""
","
","
","""event"",""trial"",""time""
""fullscreenenter"",""1"",""3655""
","
","","","","","","722.0999999940395","images/truck2.png","","","learning","images/vehicles_choice2.png","images/vehicles_choice3.png","images/vehicles_choice1.png","[1,2,0]","1","0","1","images/vehicles_choice2.png","1","vehicles","","truck","1","0"
"html-keyboard-response","192","793463","0.0-9.0-2.0-0.53","2000","1","2","""event"",""trial"",""time""
""fullscreenenter"",""1"",""3655""
","
","
","""event"",""trial"",""time""
""fullscreenenter"",""1"",""3655""
","
","","","","","","null","<div style=""font-size:60px;"">+</div>","null","","fixation","","","","","","","","","","","","","",""
"learning-trial","193","797468","0.0-9.0-2.0-1.53","2000","1","2","""event"",""trial"",""time""
""fullscreenenter"",""1"",""3655""
","
","
","""event"",""trial"",""time""
""fullscreenenter"",""1"",""3655""
","
","","","","","","2270.3999999910593","images/train1.png","","","learning","images/vehicles_choice3.png","images/vehicles_choice1.png","images/vehicles_choice2.png","[2,0,1]","2","0","1","images/vehicles_choice3.png","1","vehicles","","train","1","0"
"html-keyboard-response","194","797974","0.0-9.0-2.0-0.54","2000","1","2","""event"",""trial"",""time""
""fullscreenenter"",""1"",""3655""
","
","
","""event"",""trial"",""time""
""fullscreenenter"",""1"",""3655""
","
","","","","","","null","<div style=""font-size:60px;"">+</div>","null","","fixation","","","","","","","","","","","","","",""
"learning-trial","195","801980","0.0-9.0-2.0-1.54","2000","1","2","""event"",""trial"",""time""
""fullscreenenter"",""1"",""3655""
","
","
","""event"",""trial"",""time""
""fullscreenenter"",""1"",""3655""
","
","","","","","","921.5999999940395","images/train1.png","","","learning","images/vehicles_choice2.png","images/vehicles_choice1.png","images/vehicles_choice3.png","[1,0,2]","2","2","3","images/vehicles_choice3.png","1","vehicles","","train","1","0"
"html-keyboard-response","196","802487","0.0-9.0-2.0-0.55","2000","1","2","""event"",""trial"",""time""
""fullscreenenter"",""1"",""3655""
","
","
","""event"",""trial"",""time""
""fullscreenenter"",""1"",""3655""
","
","","","","","","null","<div style=""font-size:60px;"">+</div>","null","","fixation","","","","","","","","","","","","","",""
"learning-trial","197","806492","0.0-9.0-2.0-1.55","2000","1","2","""event"",""trial"",""time""
""fullscreenenter"",""1"",""3655""
","
","
","""event"",""trial"",""time""
""fullscreenenter"",""1"",""3655""
","
","","","","","","1108","images/train3.png","","","learning","images/vehicles_choice3.png","images/vehicles_choice1.png","images/vehicles_choice2.png","[2,0,1]","2","0","1","images/vehicles_choice3.png","1","vehicles","","train","1","0"
"html-keyboard-response","198","806998","0.0-9.0-2.0-0.56","2000","1","2","""event"",""trial"",""time""
""fullscreenenter"",""1"",""3655""
","
","
","""event"",""trial"",""time""
""fullscreenenter"",""1"",""3655""
","
","","","","","","null","<div style=""font-size:60px;"">+</div>","null","","fixation","","","","","","","","","","","","","",""
"learning-trial","199","811004","0.0-9.0-2.0-1.56","2000","1","2","""event"",""trial"",""time""
""fullscreenenter"",""1"",""3655""
","
","
","""event"",""trial"",""time""
""fullscreenenter"",""1"",""3655""
","
","","","","","","988.6999999880791","images/truck4.png","","","learning","images/vehicles_choice1.png","images/vehicles_choice2.png","images/vehicles_choice3.png","[0,1,2]","1","1","2","images/vehicles_choice2.png","-1","vehicles","","truck","1","0"
"html-keyboard-response","200","811510","0.0-9.0-2.0-0.57","2000","1","2","""event"",""trial"",""time""
""fullscreenenter"",""1"",""3655""
","
","
","""event"",""trial"",""time""
""fullscreenenter"",""1"",""3655""
","
","","","","","","null","<div style=""font-size:60px;"">+</div>","null","","fixation","","","","","","","","","","","","","",""
"learning-trial","201","815516","0.0-9.0-2.0-1.57","2000","1","2","""event"",""trial"",""time""
""fullscreenenter"",""1"",""3655""
","
","
","""event"",""trial"",""time""
""fullscreenenter"",""1"",""3655""
","
","","","","","","925.5999999940395","images/plane5.png","","","learning","images/vehicles_choice3.png","images/vehicles_choice2.png","images/vehicles_choice1.png","[2,1,0]","0","2","3","images/vehicles_choice1.png","-1","vehicles","","plane","1","0"
"html-keyboard-response","202","816022","0.0-9.0-2.0-0.58","2000","1","2","""event"",""trial"",""time""
""fullscreenenter"",""1"",""3655""
","
","
","""event"",""trial"",""time""
""fullscreenenter"",""1"",""3655""
","
","","","","","","null","<div style=""font-size:60px;"">+</div>","null","","fixation","","","","","","","","","","","","","",""
"learning-trial","203","820027","0.0-9.0-2.0-1.58","2000","1","2","""event"",""trial"",""time""
""fullscreenenter"",""1"",""3655""
","
","
","""event"",""trial"",""time""
""fullscreenenter"",""1"",""3655""
","
","","","","","","875.7000000029802","images/plane4.png","","","learning","images/vehicles_choice1.png","images/vehicles_choice2.png","images/vehicles_choice3.png","[0,1,2]","0","0","1","images/vehicles_choice1.png","1","vehicles","","plane","1","0"
"html-keyboard-response","204","820534","0.0-9.0-2.0-0.59","2000","1","2","""event"",""trial"",""time""
""fullscreenenter"",""1"",""3655""
","
","
","""event"",""trial"",""time""
""fullscreenenter"",""1"",""3655""
","
","","","","","","null","<div style=""font-size:60px;"">+</div>","null","","fixation","","","","","","","","","","","","","",""
"learning-trial","205","824541","0.0-9.0-2.0-1.59","2000","1","2","""event"",""trial"",""time""
""fullscreenenter"",""1"",""3655""
","
","
","""event"",""trial"",""time""
""fullscreenenter"",""1"",""3655""
","
","","","","","","1352.5","images/train2.png","","","learning","images/vehicles_choice1.png","images/vehicles_choice2.png","images/vehicles_choice3.png","[0,1,2]","2","2","3","images/vehicles_choice3.png","1","vehicles","","train","1","0"
"html-keyboard-response","206","825045","0.0-9.0-2.0-0.60","2000","1","2","""event"",""trial"",""time""
""fullscreenenter"",""1"",""3655""
","
","
","""event"",""trial"",""time""
""fullscreenenter"",""1"",""3655""
","
","","","","","","null","<div style=""font-size:60px;"">+</div>","null","","fixation","","","","","","","","","","","","","",""
"learning-trial","207","829051","0.0-9.0-2.0-1.60","2000","1","2","""event"",""trial"",""time""
""fullscreenenter"",""1"",""3655""
","
","
","""event"",""trial"",""time""
""fullscreenenter"",""1"",""3655""
","
","","","","","","874.7999999970198","images/train3.png","","","learning","images/vehicles_choice2.png","images/vehicles_choice1.png","images/vehicles_choice3.png","[1,0,2]","2","2","3","images/vehicles_choice3.png","1","vehicles","","train","1","0"
"html-keyboard-response","208","829557","0.0-9.0-2.0-0.61","2000","1","2","""event"",""trial"",""time""
""fullscreenenter"",""1"",""3655""
","
","
","""event"",""trial"",""time""
""fullscreenenter"",""1"",""3655""
","
","","","","","","null","<div style=""font-size:60px;"">+</div>","null","","fixation","","","","","","","","","","","","","",""
"learning-trial","209","833562","0.0-9.0-2.0-1.61","2000","1","2","""event"",""trial"",""time""
""fullscreenenter"",""1"",""3655""
","
","
","""event"",""trial"",""time""
""fullscreenenter"",""1"",""3655""
","
","","","","","","912.5","images/train3.png","","","learning","images/vehicles_choice1.png","images/vehicles_choice3.png","images/vehicles_choice2.png","[0,2,1]","2","1","2","images/vehicles_choice3.png","1","vehicles","","train","1","0"
"html-keyboard-response","210","834069","0.0-9.0-2.0-0.62","2000","1","2","""event"",""trial"",""time""
""fullscreenenter"",""1"",""3655""
","
","
","""event"",""trial"",""time""
""fullscreenenter"",""1"",""3655""
","
","","","","","","null","<div style=""font-size:60px;"">+</div>","null","","fixation","","","","","","","","","","","","","",""
"learning-trial","211","838076","0.0-9.0-2.0-1.62","2000","1","2","""event"",""trial"",""time""
""fullscreenenter"",""1"",""3655""
","
","
","""event"",""trial"",""time""
""fullscreenenter"",""1"",""3655""
","
","","","","","","2028.7000000029802","images/truck1.png","","","learning","images/vehicles_choice3.png","images/vehicles_choice2.png","images/vehicles_choice1.png","[2,1,0]","1","1","2","images/vehicles_choice2.png","1","vehicles","","truck","1","0"
"html-keyboard-response","212","838580","0.0-9.0-2.0-0.63","2000","1","2","""event"",""trial"",""time""
""fullscreenenter"",""1"",""3655""
","
","
","""event"",""trial"",""time""
""fullscreenenter"",""1"",""3655""
","
","","","","","","null","<div style=""font-size:60px;"">+</div>","null","","fixation","","","","","","","","","","","","","",""
"learning-trial","213","842586","0.0-9.0-2.0-1.63","2000","1","2","""event"",""trial"",""time""
""fullscreenenter"",""1"",""3655""
","
","
","""event"",""trial"",""time""
""fullscreenenter"",""1"",""3655""
","
","","","","","","1053.2999999970198","images/train1.png","","","learning","images/vehicles_choice3.png","images/vehicles_choice2.png","images/vehicles_choice1.png","[2,1,0]","2","0","1","images/vehicles_choice3.png","1","vehicles","","train","1","0"
"html-keyboard-response","214","843092","0.0-9.0-2.0-0.64","2000","1","2","""event"",""trial"",""time""
""fullscreenenter"",""1"",""3655""
","
","
","""event"",""trial"",""time""
""fullscreenenter"",""1"",""3655""
","
","","","","","","null","<div style=""font-size:60px;"">+</div>","null","","fixation","","","","","","","","","","","","","",""
"learning-trial","215","847098","0.0-9.0-2.0-1.64","2000","1","2","""event"",""trial"",""time""
""fullscreenenter"",""1"",""3655""
","
","
","""event"",""trial"",""time""
""fullscreenenter"",""1"",""3655""
","
","","","","","","762.4000000059605","images/plane5.png","","","learning","images/vehicles_choice2.png","images/vehicles_choice3.png","images/vehicles_choice1.png","[1,2,0]","0","2","3","images/vehicles_choice1.png","1","vehicles","","plane","1","0"
"html-keyboard-response","216","847604","0.0-9.0-2.0-0.65","2000","1","2","""event"",""trial"",""time""
""fullscreenenter"",""1"",""3655""
","
","
","""event"",""trial"",""time""
""fullscreenenter"",""1"",""3655""
","
","","","","","","null","<div style=""font-size:60px;"">+</div>","null","","fixation","","","","","","","","","","","","","",""
"learning-trial","217","851609","0.0-9.0-2.0-1.65","2000","1","2","""event"",""trial"",""time""
""fullscreenenter"",""1"",""3655""
","
","
","""event"",""trial"",""time""
""fullscreenenter"",""1"",""3655""
","
","","","","","","1457.8999999910593","images/train2.png","","","learning","images/vehicles_choice3.png","images/vehicles_choice1.png","images/vehicles_choice2.png","[2,0,1]","2","0","1","images/vehicles_choice3.png","1","vehicles","","train","1","0"
"html-keyboard-response","218","852116","0.0-9.0-2.0-0.66","2000","1","2","""event"",""trial"",""time""
""fullscreenenter"",""1"",""3655""
","
","
","""event"",""trial"",""time""
""fullscreenenter"",""1"",""3655""
","
","","","","","","null","<div style=""font-size:60px;"">+</div>","null","","fixation","","","","","","","","","","","","","",""
"learning-trial","219","856121","0.0-9.0-2.0-1.66","2000","1","2","""event"",""trial"",""time""
""fullscreenenter"",""1"",""3655""
","
","
","""event"",""trial"",""time""
""fullscreenenter"",""1"",""3655""
","
","","","","","","849.2999999970198","images/train2.png","","","learning","images/vehicles_choice1.png","images/vehicles_choice3.png","images/vehicles_choice2.png","[0,2,1]","2","1","2","images/vehicles_choice3.png","1","vehicles","","train","1","0"
"html-keyboard-response","220","856628","0.0-9.0-2.0-0.67","2000","1","2","""event"",""trial"",""time""
""fullscreenenter"",""1"",""3655""
","
","
","""event"",""trial"",""time""
""fullscreenenter"",""1"",""3655""
","
","","","","","","null","<div style=""font-size:60px;"">+</div>","null","","fixation","","","","","","","","","","","","","",""
"learning-trial","221","860633","0.0-9.0-2.0-1.67","2000","1","2","""event"",""trial"",""time""
""fullscreenenter"",""1"",""3655""
","
","
","""event"",""trial"",""time""
""fullscreenenter"",""1"",""3655""
","
","","","","","","2311.5999999940395","images/train1.png","","","learning","images/vehicles_choice1.png","images/vehicles_choice2.png","images/vehicles_choice3.png","[0,1,2]","2","2","3","images/vehicles_choice3.png","1","vehicles","","train","1","0"
"html-keyboard-response","222","861139","0.0-9.0-2.0-0.68","2000","1","2","""event"",""trial"",""time""
""fullscreenenter"",""1"",""3655""
","
","
","""event"",""trial"",""time""
""fullscreenenter"",""1"",""3655""
","
","","","","","","null","<div style=""font-size:60px;"">+</div>","null","","fixation","","","","","","","","","","","","","",""
"learning-trial","223","865145","0.0-9.0-2.0-1.68","2000","1","2","""event"",""trial"",""time""
""fullscreenenter"",""1"",""3655""
","
","
","""event"",""trial"",""time""
""fullscreenenter"",""1"",""3655""
","
","","","","","","778","images/plane5.png","","","learning","images/vehicles_choice3.png","images/vehicles_choice1.png","images/vehicles_choice2.png","[2,0,1]","0","1","2","images/vehicles_choice1.png","1","vehicles","","plane","1","0"
"html-keyboard-response","224","865651","0.0-9.0-2.0-0.69","2000","1","2","""event"",""trial"",""time""
""fullscreenenter"",""1"",""3655""
","
","
","""event"",""trial"",""time""
""fullscreenenter"",""1"",""3655""
","
","","","","","","null","<div style=""font-size:60px;"">+</div>","null","","fixation","","","","","","","","","","","","","",""
"learning-trial","225","869657","0.0-9.0-2.0-1.69","2000","1","2","""event"",""trial"",""time""
""fullscreenenter"",""1"",""3655""
","
","
","""event"",""trial"",""time""
""fullscreenenter"",""1"",""3655""
","
","","","","","","1482.7000000029802","images/train2.png","","","learning","images/vehicles_choice1.png","images/vehicles_choice2.png","images/vehicles_choice3.png","[0,1,2]","2","2","3","images/vehicles_choice3.png","1","vehicles","","train","1","0"
"html-keyboard-response","226","870163","0.0-9.0-2.0-0.70","2000","1","2","""event"",""trial"",""time""
""fullscreenenter"",""1"",""3655""
","
","
","""event"",""trial"",""time""
""fullscreenenter"",""1"",""3655""
","
","","","","","","null","<div style=""font-size:60px;"">+</div>","null","","fixation","","","","","","","","","","","","","",""
"learning-trial","227","874170","0.0-9.0-2.0-1.70","2000","1","2","""event"",""trial"",""time""
""fullscreenenter"",""1"",""3655""
","
","
","""event"",""trial"",""time""
""fullscreenenter"",""1"",""3655""
","
","","","","","","859.5","images/truck4.png","","","learning","images/vehicles_choice2.png","images/vehicles_choice1.png","images/vehicles_choice3.png","[1,0,2]","1","0","1","images/vehicles_choice2.png","1","vehicles","","truck","1","0"
"html-keyboard-response","228","874675","0.0-9.0-2.0-0.71","2000","1","2","""event"",""trial"",""time""
""fullscreenenter"",""1"",""3655""
","
","
","""event"",""trial"",""time""
""fullscreenenter"",""1"",""3655""
","
","","","","","","null","<div style=""font-size:60px;"">+</div>","null","","fixation","","","","","","","","","","","","","",""
"learning-trial","229","878680","0.0-9.0-2.0-1.71","2000","1","2","""event"",""trial"",""time""
""fullscreenenter"",""1"",""3655""
","
","
","""event"",""trial"",""time""
""fullscreenenter"",""1"",""3655""
","
","","","","","","738.9000000059605","images/plane4.png","","","learning","images/vehicles_choice3.png","images/vehicles_choice1.png","images/vehicles_choice2.png","[2,0,1]","0","1","2","images/vehicles_choice1.png","1","vehicles","","plane","1","0"
"html-button-response","230","881028","0.0-9.0-3.0","2000","1","2","""event"",""trial"",""time""
""fullscreenenter"",""1"",""3655""
","
","
","""event"",""trial"",""time""
""fullscreenenter"",""1"",""3655""
","
","","","","","","2345.4000000059605","<p> You have completed the round! <p> In this round, you earned 30 points! </p>","0","","break","","","","","","","","","","","","","",""
"html-button-response","231","884769","0.0-10.0","2000","1","2","""event"",""trial"",""time""
""fullscreenenter"",""1"",""3655""
","
","
","""event"",""trial"",""time""
""fullscreenenter"",""1"",""3655""
","
","","","","","","3739.300000011921","<p> Now it's time to play another round. </p>","0","","transition_screen","","","","","","","","","","","","","",""
"preload","232","887720","0.0-11.0-0.0","2000","1","2","""event"",""trial"",""time""
""fullscreenenter"",""1"",""3655""
","
","
","""event"",""trial"",""time""
""fullscreenenter"",""1"",""3655""
","
","true","false","[]","[]","[]","","","","","","","","","","","","","","","","","","",""
"learning-instructions","233","896160","0.0-11.0-1.0-0.0","2000","1","2","""event"",""trial"",""time""
""fullscreenenter"",""1"",""3655""
","
","
","""event"",""trial"",""time""
""fullscreenenter"",""1"",""3655""
","
","","","","","","1984","<p> Your goal in this round is to feed all of your pets with the foods they like. </p><p> You will need to feed many pets. </p></div>","","0","instructions","","","","","","","","","","","","","",""
"learning-instructions","234","904685","0.0-11.0-1.0-0.1","2000","1","2","""event"",""trial"",""time""
""fullscreenenter"",""1"",""3655""
","
","
","""event"",""trial"",""time""
""fullscreenenter"",""1"",""3655""
","
","","","","","","536.3000000119209","<p> On each turn, you will see a picture of one of your pets and three different types of foods.  </p><p> You need to select the food that you want to give to your pet.  </p>","","0","instructions","","","","","","","","","","","","","",""
"learning-instructions","235","911770","0.0-11.0-1.0-0.2","2000","1","2","""event"",""trial"",""time""
""fullscreenenter"",""1"",""3655""
","
","
","""event"",""trial"",""time""
""fullscreenenter"",""1"",""3655""
","
