"trial_type","trial_index","time_elapsed","internal_node_id","subject_id","condition","task_version","interactions","blur_events","focus_events","fullscreenenter_events","fullscreenexit_events","success","timeout","failed_images","failed_audio","failed_video","rt","stimulus","response","button_pressed","task_part","left_choice","middle_choice","right_choice","choice_positions","correct_response","correct_position","key_press","option_selected","points","task_block","correct","stim_cat","block_condition","block_number"
"pavlovia","0","5","0.0-0.0","1922","1","2","""event"",""trial"",""time""
""fullscreenenter"",""1"",""381771""
","
","
","""event"",""trial"",""time""
""fullscreenenter"",""1"",""381771""
","
","","","","","","","","","","","","","","","","","","","","","","","",""
"fullscreen","1","382722","0.0-1.0","1922","1","2","""event"",""trial"",""time""
""fullscreenenter"",""1"",""381771""
","
","
","""event"",""trial"",""time""
""fullscreenenter"",""1"",""381771""
","
","true","","","","","","","","","","","","","","","","","","","","","","",""
"preload","2","385130","0.0-2.0","1922","1","2","""event"",""trial"",""time""
""fullscreenenter"",""1"",""381771""
""fullscreenexit"",""3"",""389123""
","
","
","""event"",""trial"",""time""
""fullscreenenter"",""1"",""381771""
","""event"",""trial"",""time""
""fullscreenexit"",""3"",""389123""
","true","false","[]","[]","[]","","","","","","","","","","","","","","","","","","",""
"audio-keyboard-response","3","393828","0.0-3.0","1922","1","2","""event"",""trial"",""time""
""fullscreenenter"",""1"",""381771""
""fullscreenexit"",""3"",""389123""
","
","
","""event"",""trial"",""time""
""fullscreenenter"",""1"",""381771""
","""event"",""trial"",""time""
""fullscreenexit"",""3"",""389123""
","","","","","","8687.999999999998","audio/beep_loop.wav"," ","","","","","","","","","","","","","","","",""
"audio-button-response","4","399992","0.0-4.0","1922","1","2","""event"",""trial"",""time""
""fullscreenenter"",""1"",""381771""
""fullscreenexit"",""3"",""389123""
","
","
","""event"",""trial"",""time""
""fullscreenenter"",""1"",""381771""
","""event"",""trial"",""time""
""fullscreenexit"",""3"",""389123""
","","","","","","6160","audio/shark.wav","0","","","","","","","","","","","","","","","",""
"audio-button-response","5","407047","0.0-5.0","1922","1","2","""event"",""trial"",""time""
""fullscreenenter"",""1"",""381771""
""fullscreenexit"",""3"",""389123""
","
","
","""event"",""trial"",""time""
""fullscreenenter"",""1"",""381771""
","""event"",""trial"",""time""
""fullscreenexit"",""3"",""389123""
","","","","","","6051","audio/turtle.wav","2","","","","","","","","","","","","","","","",""
"preload","6","410065","0.0-6.0","1922","1","2","""event"",""trial"",""time""
""fullscreenenter"",""1"",""381771""
""fullscreenexit"",""3"",""389123""
""blur"",""7"",""418564""
""focus"",""7"",""420983""
","""event"",""trial"",""time""
""blur"",""7"",""418564""
","""event"",""trial"",""time""
""focus"",""7"",""420983""
","""event"",""trial"",""time""
""fullscreenenter"",""1"",""381771""
","""event"",""trial"",""time""
""fullscreenexit"",""3"",""389123""
","true","false","[]","[]","[]","","","","","","","","","","","","","","","","","","",""
"html-keyboard-response","7","423689","0.0-7.0","1922","1","2","""event"",""trial"",""time""
""fullscreenenter"",""1"",""381771""
""fullscreenexit"",""3"",""389123""
""blur"",""7"",""418564""
""focus"",""7"",""420983""
","""event"",""trial"",""time""
""blur"",""7"",""418564""
","""event"",""trial"",""time""
""focus"",""7"",""420983""
","""event"",""trial"",""time""
""fullscreenenter"",""1"",""381771""
","""event"",""trial"",""time""
""fullscreenexit"",""3"",""389123""
","","","","","","13622.300000011921","Welcome to the experiment. Press any key to begin and to advance the instructions.","shift","","","","","","","","","","","","","","","",""
"learning-instructions","8","433144","0.0-8.0-0.0-0.0","1922","1","2","""event"",""trial"",""time""
""fullscreenenter"",""1"",""381771""
""fullscreenexit"",""3"",""389123""
""blur"",""7"",""418564""
""focus"",""7"",""420983""
","""event"",""trial"",""time""
""blur"",""7"",""418564""
","""event"",""trial"",""time""
""focus"",""7"",""420983""
","""event"",""trial"",""time""
""fullscreenenter"",""1"",""381771""
","""event"",""trial"",""time""
""fullscreenexit"",""3"",""389123""
","","","","","","1708.699999988079","<p> Welcome! Today you are going to play 6 different rounds of a decision-making game. </p><p> Use the mouse to click next to continue. </p>","","0","instructions","","","","","","","","","","","","","",""
"learning-instructions","9","436326","0.0-8.0-0.0-0.1","1922","1","2","""event"",""trial"",""time""
""fullscreenenter"",""1"",""381771""
""fullscreenexit"",""3"",""389123""
""blur"",""7"",""418564""
""focus"",""7"",""420983""
","""event"",""trial"",""time""
""blur"",""7"",""418564""
","""event"",""trial"",""time""
""focus"",""7"",""420983""
","""event"",""trial"",""time""
""fullscreenenter"",""1"",""381771""
","""event"",""trial"",""time""
""fullscreenexit"",""3"",""389123""
","","","","","","160.39999997615814","<p> You will start with a practice round to learn the rules. </p>","","0","instructions","","","","","","","","","","","","","",""
"learning-instructions","10","453082","0.0-8.0-0.0-0.2","1922","1","2","""event"",""trial"",""time""
""fullscreenenter"",""1"",""381771""
""fullscreenexit"",""3"",""389123""
""blur"",""7"",""418564""
""focus"",""7"",""420983""
""blur"",""11"",""457175""
""focus"",""11"",""458032""
","""event"",""trial"",""time""
""blur"",""7"",""418564""
""blur"",""11"",""457175""
","""event"",""trial"",""time""
""focus"",""7"",""420983""
""focus"",""11"",""458032""
","""event"",""trial"",""time""
""fullscreenenter"",""1"",""381771""
","""event"",""trial"",""time""
""fullscreenexit"",""3"",""389123""
","","","","","","9020.300000011921","<p> Your goal in this round is to deliver sports equipment to three different parks. </p><p> You will need to deliver many types of equipment. </p></div>","","0","instructions","","","","","","","","","","","","","",""
"learning-instructions","11","466141","0.0-8.0-0.0-0.3","1922","1","2","""event"",""trial"",""time""
""fullscreenenter"",""1"",""381771""
""fullscreenexit"",""3"",""389123""
""blur"",""7"",""418564""
""focus"",""7"",""420983""
""blur"",""11"",""457175""
""focus"",""11"",""458032""
","""event"",""trial"",""time""
""blur"",""7"",""418564""
""blur"",""11"",""457175""
","""event"",""trial"",""time""
""focus"",""7"",""420983""
""focus"",""11"",""458032""
","""event"",""trial"",""time""
""fullscreenenter"",""1"",""381771""
","""event"",""trial"",""time""
""fullscreenexit"",""3"",""389123""
","","","","","","4557.699999988079","<p> On each turn, you will see one piece of sports equipment and three different parks.  </p><p> You need to select which park to deliver the equipment to.  </p>","","0","instructions","","","","","","","","","","","","","",""
"learning-instructions","12","500406","0.0-8.0-0.0-0.4","1922","1","2","""event"",""trial"",""time""
""fullscreenenter"",""1"",""381771""
""fullscreenexit"",""3"",""389123""
""blur"",""7"",""418564""
""focus"",""7"",""420983""
""blur"",""11"",""457175""
""focus"",""11"",""458032""
""blur"",""13"",""505836""
""focus"",""13"",""508249""
","""event"",""trial"",""time""
""blur"",""7"",""418564""
""blur"",""11"",""457175""
""blur"",""13"",""505836""
","""event"",""trial"",""time""
""focus"",""7"",""420983""
""focus"",""11"",""458032""
""focus"",""13"",""508249""
","""event"",""trial"",""time""
""fullscreenenter"",""1"",""381771""
","""event"",""trial"",""time""
""fullscreenexit"",""3"",""389123""
","","","","","","20959.900000035763","<p> You can select the park on the left by pressing the '1' key on your keyboard. <br>You can select the park in the middle by pressing the '2' key on your keyboard. <br>You can select the park on the right by pressing the '3' key on your keyboard.  </p><br><div class=""choice-instructions-grid""> <div class=""choice-option""><img src=""images/park1.png"" class=""choice-option-img"" stage=""instructions"" position=""0"" ><div class=""choice-option-text""> Press ""1."" </div></div><div class=""choice-option""><img src=""images/park2.png"" class=""choice-option-img"" stage=""instructions"" position=""1"" ><div class=""choice-option-text""> Press ""2."" </div></div><div class=""choice-option""><img src=""images/park3.png"" class=""choice-option-img"" stage=""instructions"" position=""2"" ><div class=""choice-option-text""> Press ""3."" </div></div></div>","","0","instructions","","","","","","","","","","","","","",""
"learning-instructions","13","508308","0.0-8.0-0.0-0.5","1922","1","2","""event"",""trial"",""time""
""fullscreenenter"",""1"",""381771""
""fullscreenexit"",""3"",""389123""
""blur"",""7"",""418564""
""focus"",""7"",""420983""
""blur"",""11"",""457175""
""focus"",""11"",""458032""
""blur"",""13"",""505836""
""focus"",""13"",""508249""
","""event"",""trial"",""time""
""blur"",""7"",""418564""
""blur"",""11"",""457175""
""blur"",""13"",""505836""
","""event"",""trial"",""time""
""focus"",""7"",""420983""
""focus"",""11"",""458032""
""focus"",""13"",""508249""
","""event"",""trial"",""time""
""fullscreenenter"",""1"",""381771""
","""event"",""trial"",""time""
""fullscreenexit"",""3"",""389123""
","","","","","","2514.600000023842","<p> If the kids in the park you chose like the equipment, they will be very happy! </p><div style='float: center;'><img src='images/check.png' width = '200' height = '200'></img>","","0","instructions","","","","","","","","","","","","","",""
"learning-instructions","14","527628","0.0-8.0-0.0-0.6","1922","1","2","""event"",""trial"",""time""
""fullscreenenter"",""1"",""381771""
""fullscreenexit"",""3"",""389123""
""blur"",""7"",""418564""
""focus"",""7"",""420983""
""blur"",""11"",""457175""
""focus"",""11"",""458032""
""blur"",""13"",""505836""
""focus"",""13"",""508249""
","""event"",""trial"",""time""
""blur"",""7"",""418564""
""blur"",""11"",""457175""
""blur"",""13"",""505836""
","""event"",""trial"",""time""
""focus"",""7"",""420983""
""focus"",""11"",""458032""
""focus"",""13"",""508249""
","""event"",""trial"",""time""
""fullscreenenter"",""1"",""381771""
","""event"",""trial"",""time""
""fullscreenexit"",""3"",""389123""
","","","","","","13725.5","<p> But, if the kids in the park you chose do not like the equipment, they will be sad. </p><div style='float: center;'><img src='images/x.png' width = '200' height = '200'></img>","","0","instructions","","","","","","","","","","","","","",""
"learning-instructions","15","540719","0.0-8.0-0.0-0.7","1922","1","2","""event"",""trial"",""time""
""fullscreenenter"",""1"",""381771""
""fullscreenexit"",""3"",""389123""
""blur"",""7"",""418564""
""focus"",""7"",""420983""
""blur"",""11"",""457175""
""focus"",""11"",""458032""
""blur"",""13"",""505836""
""focus"",""13"",""508249""
","""event"",""trial"",""time""
""blur"",""7"",""418564""
""blur"",""11"",""457175""
""blur"",""13"",""505836""
","""event"",""trial"",""time""
""focus"",""7"",""420983""
""focus"",""11"",""458032""
""focus"",""13"",""508249""
","""event"",""trial"",""time""
""fullscreenenter"",""1"",""381771""
","""event"",""trial"",""time""
""fullscreenexit"",""3"",""389123""
","","","","","","6646.600000023842","<p> Importantly, the kids in each park like some pieces of sports equipment more than others. </p>","","0","instructions","","","","","","","","","","","","","",""
"learning-instructions","16","553022","0.0-8.0-0.0-0.8","1922","1","2","""event"",""trial"",""time""
""fullscreenenter"",""1"",""381771""
""fullscreenexit"",""3"",""389123""
""blur"",""7"",""418564""
""focus"",""7"",""420983""
""blur"",""11"",""457175""
""focus"",""11"",""458032""
""blur"",""13"",""505836""
""focus"",""13"",""508249""
""blur"",""17"",""555167""
""focus"",""17"",""557129""
","""event"",""trial"",""time""
""blur"",""7"",""418564""
""blur"",""11"",""457175""
""blur"",""13"",""505836""
""blur"",""17"",""555167""
","""event"",""trial"",""time""
""focus"",""7"",""420983""
""focus"",""11"",""458032""
""focus"",""13"",""508249""
""focus"",""17"",""557129""
","""event"",""trial"",""time""
""fullscreenenter"",""1"",""381771""
","""event"",""trial"",""time""
""fullscreenexit"",""3"",""389123""
","","","","","","6236.399999976158","<p> If you choose the best park for each piece of equipment, the kids there will usually be happy. </p>","","0","instructions","","","","","","","","","","","","","",""
"learning-instructions","17","561492","0.0-8.0-0.0-0.9","1922","1","2","""event"",""trial"",""time""
""fullscreenenter"",""1"",""381771""
""fullscreenexit"",""3"",""389123""
""blur"",""7"",""418564""
""focus"",""7"",""420983""
""blur"",""11"",""457175""
""focus"",""11"",""458032""
""blur"",""13"",""505836""
""focus"",""13"",""508249""
""blur"",""17"",""555167""
""focus"",""17"",""557129""
","""event"",""trial"",""time""
""blur"",""7"",""418564""
""blur"",""11"",""457175""
""blur"",""13"",""505836""
""blur"",""17"",""555167""
","""event"",""trial"",""time""
""focus"",""7"",""420983""
""focus"",""11"",""458032""
""focus"",""13"",""508249""
""focus"",""17"",""557129""
","""event"",""trial"",""time""
""fullscreenenter"",""1"",""381771""
","""event"",""trial"",""time""
""fullscreenexit"",""3"",""389123""
","","","","","","1807.5","<p> However, even if you choose the best park for the equipment, the kids may sometimes be sad. </p>","","0","instructions","","","","","","","","","","","","","",""
"learning-instructions","18","577385","0.0-8.0-0.0-0.10","1922","1","2","""event"",""trial"",""time""
""fullscreenenter"",""1"",""381771""
""fullscreenexit"",""3"",""389123""
""blur"",""7"",""418564""
""focus"",""7"",""420983""
""blur"",""11"",""457175""
""focus"",""11"",""458032""
""blur"",""13"",""505836""
""focus"",""13"",""508249""
""blur"",""17"",""555167""
""focus"",""17"",""557129""
","""event"",""trial"",""time""
""blur"",""7"",""418564""
""blur"",""11"",""457175""
""blur"",""13"",""505836""
""blur"",""17"",""555167""
","""event"",""trial"",""time""
""focus"",""7"",""420983""
""focus"",""11"",""458032""
""focus"",""13"",""508249""
""focus"",""17"",""557129""
","""event"",""trial"",""time""
""fullscreenenter"",""1"",""381771""
","""event"",""trial"",""time""
""fullscreenexit"",""3"",""389123""
","","","","","","8650","<p> Similarly, even if you choose the <i>wrong</i> park for the equipment, the kids may still be happy sometimes.","","0","instructions","","","","","","","","","","","","","",""
"learning-instructions","19","587876","0.0-8.0-0.0-0.11","1922","1","2","""event"",""trial"",""time""
""fullscreenenter"",""1"",""381771""
""fullscreenexit"",""3"",""389123""
""blur"",""7"",""418564""
""focus"",""7"",""420983""
""blur"",""11"",""457175""
""focus"",""11"",""458032""
""blur"",""13"",""505836""
""focus"",""13"",""508249""
""blur"",""17"",""555167""
""focus"",""17"",""557129""
","""event"",""trial"",""time""
""blur"",""7"",""418564""
""blur"",""11"",""457175""
""blur"",""13"",""505836""
""blur"",""17"",""555167""
","""event"",""trial"",""time""
""focus"",""7"",""420983""
""focus"",""11"",""458032""
""focus"",""13"",""508249""
""focus"",""17"",""557129""
","""event"",""trial"",""time""
""fullscreenenter"",""1"",""381771""
","""event"",""trial"",""time""
""fullscreenexit"",""3"",""389123""
","","","","","","5433.100000023842","<p> For example, the best park for this soccer ball is this one.<div style='float: center;'><img src='images/i1.png' width = '500' height = '268'></img>","","0","instructions","","","","","","","","","","","","","",""
"learning-instructions","20","594191","0.0-8.0-0.0-0.12","1922","1","2","""event"",""trial"",""time""
""fullscreenenter"",""1"",""381771""
""fullscreenexit"",""3"",""389123""
""blur"",""7"",""418564""
""focus"",""7"",""420983""
""blur"",""11"",""457175""
""focus"",""11"",""458032""
""blur"",""13"",""505836""
""focus"",""13"",""508249""
""blur"",""17"",""555167""
""focus"",""17"",""557129""
","""event"",""trial"",""time""
""blur"",""7"",""418564""
""blur"",""11"",""457175""
""blur"",""13"",""505836""
""blur"",""17"",""555167""
","""event"",""trial"",""time""
""focus"",""7"",""420983""
""focus"",""11"",""458032""
""focus"",""13"",""508249""
""focus"",""17"",""557129""
","""event"",""trial"",""time""
""fullscreenenter"",""1"",""381771""
","""event"",""trial"",""time""
""fullscreenexit"",""3"",""389123""
","","","","","","1006.9000000357628","<p> Let's see what happens if you choose this park for the soccer ball five times.","","0","instructions","","","","","","","","","","","","","",""
"learning-instructions","21","597168","0.0-8.0-0.0-0.13","1922","1","2","""event"",""trial"",""time""
""fullscreenenter"",""1"",""381771""
""fullscreenexit"",""3"",""389123""
""blur"",""7"",""418564""
""focus"",""7"",""420983""
""blur"",""11"",""457175""
""focus"",""11"",""458032""
""blur"",""13"",""505836""
""focus"",""13"",""508249""
""blur"",""17"",""555167""
""focus"",""17"",""557129""
","""event"",""trial"",""time""
""blur"",""7"",""418564""
""blur"",""11"",""457175""
""blur"",""13"",""505836""
""blur"",""17"",""555167""
","""event"",""trial"",""time""
""focus"",""7"",""420983""
""focus"",""11"",""458032""
""focus"",""13"",""508249""
""focus"",""17"",""557129""
","""event"",""trial"",""time""
""fullscreenenter"",""1"",""381771""
","""event"",""trial"",""time""
""fullscreenexit"",""3"",""389123""
","","","","","","793","<p> The kids are happy.<div style='float: left;'><img src='images/i2.png' width = '640' height = '360'></img>","","0","instructions","","","","","","","","","","","","","",""
"learning-instructions","22","599848","0.0-8.0-0.0-0.14","1922","1","2","""event"",""trial"",""time""
""fullscreenenter"",""1"",""381771""
""fullscreenexit"",""3"",""389123""
""blur"",""7"",""418564""
""focus"",""7"",""420983""
""blur"",""11"",""457175""
""focus"",""11"",""458032""
""blur"",""13"",""505836""
""focus"",""13"",""508249""
""blur"",""17"",""555167""
""focus"",""17"",""557129""
""blur"",""23"",""601334""
""focus"",""23"",""603599""
","""event"",""trial"",""time""
""blur"",""7"",""418564""
""blur"",""11"",""457175""
""blur"",""13"",""505836""
""blur"",""17"",""555167""
""blur"",""23"",""601334""
","""event"",""trial"",""time""
""focus"",""7"",""420983""
""focus"",""11"",""458032""
""focus"",""13"",""508249""
""focus"",""17"",""557129""
""focus"",""23"",""603599""
","""event"",""trial"",""time""
""fullscreenenter"",""1"",""381771""
","""event"",""trial"",""time""
""fullscreenexit"",""3"",""389123""
","","","","","","523.6000000238419","<p> The kids are happy.<div style='float: left;'><img src='images/i3.png' width = '640' height = '360'></img>","","0","instructions","","","","","","","","","","","","","",""
"learning-instructions","23","603701","0.0-8.0-0.0-0.15","1922","1","2","""event"",""trial"",""time""
""fullscreenenter"",""1"",""381771""
""fullscreenexit"",""3"",""389123""
""blur"",""7"",""418564""
""focus"",""7"",""420983""
""blur"",""11"",""457175""
""focus"",""11"",""458032""
""blur"",""13"",""505836""
""focus"",""13"",""508249""
""blur"",""17"",""555167""
""focus"",""17"",""557129""
""blur"",""23"",""601334""
""focus"",""23"",""603599""
","""event"",""trial"",""time""
""blur"",""7"",""418564""
""blur"",""11"",""457175""
""blur"",""13"",""505836""
""blur"",""17"",""555167""
""blur"",""23"",""601334""
","""event"",""trial"",""time""
""focus"",""7"",""420983""
""focus"",""11"",""458032""
""focus"",""13"",""508249""
""focus"",""17"",""557129""
""focus"",""23"",""603599""
","""event"",""trial"",""time""
""fullscreenenter"",""1"",""381771""
","""event"",""trial"",""time""
""fullscreenexit"",""3"",""389123""
","","","","","","1690.2000000476837","<p> The kids are happy.<div style='float: left;'><img src='images/i4.png' width = '640' height = '360'></img>","","0","instructions","","","","","","","","","","","","","",""
"learning-instructions","24","606577","0.0-8.0-0.0-0.16","1922","1","2","""event"",""trial"",""time""
""fullscreenenter"",""1"",""381771""
""fullscreenexit"",""3"",""389123""
""blur"",""7"",""418564""
""focus"",""7"",""420983""
""blur"",""11"",""457175""
""focus"",""11"",""458032""
""blur"",""13"",""505836""
""focus"",""13"",""508249""
""blur"",""17"",""555167""
""focus"",""17"",""557129""
""blur"",""23"",""601334""
""focus"",""23"",""603599""
","""event"",""trial"",""time""
""blur"",""7"",""418564""
""blur"",""11"",""457175""
""blur"",""13"",""505836""
""blur"",""17"",""555167""
""blur"",""23"",""601334""
","""event"",""trial"",""time""
""focus"",""7"",""420983""
""focus"",""11"",""458032""
""focus"",""13"",""508249""
""focus"",""17"",""557129""
""focus"",""23"",""603599""
","""event"",""trial"",""time""
""fullscreenenter"",""1"",""381771""
","""event"",""trial"",""time""
""fullscreenexit"",""3"",""389123""
","","","","","","654.6999999880791","<p> The kids are sad.<div style='float: left;'><img src='images/i5.png' width = '640' height = '360'></img>","","0","instructions","","","","","","","","","","","","","",""
"learning-instructions","25","609293","0.0-8.0-0.0-0.17","1922","1","2","""event"",""trial"",""time""
""fullscreenenter"",""1"",""381771""
""fullscreenexit"",""3"",""389123""
""blur"",""7"",""418564""
""focus"",""7"",""420983""
""blur"",""11"",""457175""
""focus"",""11"",""458032""
""blur"",""13"",""505836""
""focus"",""13"",""508249""
""blur"",""17"",""555167""
""focus"",""17"",""557129""
""blur"",""23"",""601334""
""focus"",""23"",""603599""
","""event"",""trial"",""time""
""blur"",""7"",""418564""
""blur"",""11"",""457175""
""blur"",""13"",""505836""
""blur"",""17"",""555167""
""blur"",""23"",""601334""
","""event"",""trial"",""time""
""focus"",""7"",""420983""
""focus"",""11"",""458032""
""focus"",""13"",""508249""
""focus"",""17"",""557129""
""focus"",""23"",""603599""
","""event"",""trial"",""time""
""fullscreenenter"",""1"",""381771""
","""event"",""trial"",""time""
""fullscreenexit"",""3"",""389123""
","","","","","","541.6999999880791","<p> The kids are happy.<div style='float: left;'><img src='images/i6.png' width = '640' height = '360'></img>","","0","instructions","","","","","","","","","","","","","",""
"learning-instructions","26","624641","0.0-8.0-0.0-0.18","1922","1","2","""event"",""trial"",""time""
""fullscreenenter"",""1"",""381771""
""fullscreenexit"",""3"",""389123""
""blur"",""7"",""418564""
""focus"",""7"",""420983""
""blur"",""11"",""457175""
""focus"",""11"",""458032""
""blur"",""13"",""505836""
""focus"",""13"",""508249""
""blur"",""17"",""555167""
""focus"",""17"",""557129""
""blur"",""23"",""601334""
""focus"",""23"",""603599""
","""event"",""trial"",""time""
""blur"",""7"",""418564""
""blur"",""11"",""457175""
""blur"",""13"",""505836""
""blur"",""17"",""555167""
""blur"",""23"",""601334""
","""event"",""trial"",""time""
""focus"",""7"",""420983""
""focus"",""11"",""458032""
""focus"",""13"",""508249""
""focus"",""17"",""557129""
""focus"",""23"",""603599""
","""event"",""trial"",""time""
""fullscreenenter"",""1"",""381771""
","""event"",""trial"",""time""
""fullscreenexit"",""3"",""389123""
","","","","","","8076","<p> As you can see, selecting that park for the soccer ball made the kids happy most of the time, but not all the time.","","0","instructions","","","","","","","","","","","","","",""
"learning-instructions","27","636084","0.0-8.0-0.0-0.19","1922","1","2","""event"",""trial"",""time""
""fullscreenenter"",""1"",""381771""
""fullscreenexit"",""3"",""389123""
""blur"",""7"",""418564""
""focus"",""7"",""420983""
""blur"",""11"",""457175""
""focus"",""11"",""458032""
""blur"",""13"",""505836""
""focus"",""13"",""508249""
""blur"",""17"",""555167""
""focus"",""17"",""557129""
""blur"",""23"",""601334""
""focus"",""23"",""603599""
","""event"",""trial"",""time""
""blur"",""7"",""418564""
""blur"",""11"",""457175""
""blur"",""13"",""505836""
""blur"",""17"",""555167""
""blur"",""23"",""601334""
","""event"",""trial"",""time""
""focus"",""7"",""420983""
""focus"",""11"",""458032""
""focus"",""13"",""508249""
""focus"",""17"",""557129""
""focus"",""23"",""603599""
","""event"",""trial"",""time""
""fullscreenenter"",""1"",""381771""
","""event"",""trial"",""time""
""fullscreenexit"",""3"",""389123""
","","","","","","5421.099999964237","<p> Now let's see what happens if you choose a DIFFERENT park for the soccer ball 5 times.","","0","instructions","","","","","","","","","","","","","",""
"learning-instructions","28","638867","0.0-8.0-0.0-0.20","1922","1","2","""event"",""trial"",""time""
""fullscreenenter"",""1"",""381771""
""fullscreenexit"",""3"",""389123""
""blur"",""7"",""418564""
""focus"",""7"",""420983""
""blur"",""11"",""457175""
""focus"",""11"",""458032""
""blur"",""13"",""505836""
""focus"",""13"",""508249""
""blur"",""17"",""555167""
""focus"",""17"",""557129""
""blur"",""23"",""601334""
""focus"",""23"",""603599""
","""event"",""trial"",""time""
""blur"",""7"",""418564""
""blur"",""11"",""457175""
""blur"",""13"",""505836""
""blur"",""17"",""555167""
""blur"",""23"",""601334""
","""event"",""trial"",""time""
""focus"",""7"",""420983""
""focus"",""11"",""458032""
""focus"",""13"",""508249""
""focus"",""17"",""557129""
""focus"",""23"",""603599""
","""event"",""trial"",""time""
""fullscreenenter"",""1"",""381771""
","""event"",""trial"",""time""
""fullscreenexit"",""3"",""389123""
","","","","","","553.5","<p> The kids are sad.<div style='float: left;'><img src='images/i7.png' width = '640' height = '360'></img>","","0","instructions","","","","","","","","","","","","","",""
"learning-instructions","29","641557","0.0-8.0-0.0-0.21","1922","1","2","""event"",""trial"",""time""
""fullscreenenter"",""1"",""381771""
""fullscreenexit"",""3"",""389123""
""blur"",""7"",""418564""
""focus"",""7"",""420983""
""blur"",""11"",""457175""
""focus"",""11"",""458032""
""blur"",""13"",""505836""
""focus"",""13"",""508249""
""blur"",""17"",""555167""
""focus"",""17"",""557129""
""blur"",""23"",""601334""
""focus"",""23"",""603599""
","""event"",""trial"",""time""
""blur"",""7"",""418564""
""blur"",""11"",""457175""
""blur"",""13"",""505836""
""blur"",""17"",""555167""
""blur"",""23"",""601334""
","""event"",""trial"",""time""
""focus"",""7"",""420983""
""focus"",""11"",""458032""
""focus"",""13"",""508249""
""focus"",""17"",""557129""
""focus"",""23"",""603599""
","""event"",""trial"",""time""
""fullscreenenter"",""1"",""381771""
","""event"",""trial"",""time""
""fullscreenexit"",""3"",""389123""
","","","","","","473.30000001192093","<p> The kids are sad.<div style='float: left;'><img src='images/i8.png' width = '640' height = '360'></img>","","0","instructions","","","","","","","","","","","","","",""
"learning-instructions","30","644863","0.0-8.0-0.0-0.22","1922","1","2","""event"",""trial"",""time""
""fullscreenenter"",""1"",""381771""
""fullscreenexit"",""3"",""389123""
""blur"",""7"",""418564""
""focus"",""7"",""420983""
""blur"",""11"",""457175""
""focus"",""11"",""458032""
""blur"",""13"",""505836""
""focus"",""13"",""508249""
""blur"",""17"",""555167""
""focus"",""17"",""557129""
""blur"",""23"",""601334""
""focus"",""23"",""603599""
","""event"",""trial"",""time""
""blur"",""7"",""418564""
""blur"",""11"",""457175""
""blur"",""13"",""505836""
""blur"",""17"",""555167""
""blur"",""23"",""601334""
","""event"",""trial"",""time""
""focus"",""7"",""420983""
""focus"",""11"",""458032""
""focus"",""13"",""508249""
""focus"",""17"",""557129""
""focus"",""23"",""603599""
","""event"",""trial"",""time""
""fullscreenenter"",""1"",""381771""
","""event"",""trial"",""time""
""fullscreenexit"",""3"",""389123""
","","","","","","1130.7000000476837","<p> The kids are happy.<div style='float: left;'><img src='images/i9.png' width = '640' height = '360'></img>","","0","instructions","","","","","","","","","","","","","",""
"learning-instructions","31","647861","0.0-8.0-0.0-0.23","1922","1","2","""event"",""trial"",""time""
""fullscreenenter"",""1"",""381771""
""fullscreenexit"",""3"",""389123""
""blur"",""7"",""418564""
""focus"",""7"",""420983""
""blur"",""11"",""457175""
""focus"",""11"",""458032""
""blur"",""13"",""505836""
""focus"",""13"",""508249""
""blur"",""17"",""555167""
""focus"",""17"",""557129""
""blur"",""23"",""601334""
""focus"",""23"",""603599""
","""event"",""trial"",""time""
""blur"",""7"",""418564""
""blur"",""11"",""457175""
""blur"",""13"",""505836""
""blur"",""17"",""555167""
""blur"",""23"",""601334""
","""event"",""trial"",""time""
""focus"",""7"",""420983""
""focus"",""11"",""458032""
""focus"",""13"",""508249""
""focus"",""17"",""557129""
""focus"",""23"",""603599""
","""event"",""trial"",""time""
""fullscreenenter"",""1"",""381771""
","""event"",""trial"",""time""
""fullscreenexit"",""3"",""389123""
","","","","","","777","<p> The kids are sad.<div style='float: left;'><img src='images/i10.png' width = '640' height = '360'></img>","","0","instructions","","","","","","","","","","","","","",""
"learning-instructions","32","650584","0.0-8.0-0.0-0.24","1922","1","2","""event"",""trial"",""time""
""fullscreenenter"",""1"",""381771""
""fullscreenexit"",""3"",""389123""
""blur"",""7"",""418564""
""focus"",""7"",""420983""
""blur"",""11"",""457175""
""focus"",""11"",""458032""
""blur"",""13"",""505836""
""focus"",""13"",""508249""
""blur"",""17"",""555167""
""focus"",""17"",""557129""
""blur"",""23"",""601334""
""focus"",""23"",""603599""
","""event"",""trial"",""time""
""blur"",""7"",""418564""
""blur"",""11"",""457175""
""blur"",""13"",""505836""
""blur"",""17"",""555167""
""blur"",""23"",""601334""
","""event"",""trial"",""time""
""focus"",""7"",""420983""
""focus"",""11"",""458032""
""focus"",""13"",""508249""
""focus"",""17"",""557129""
""focus"",""23"",""603599""
","""event"",""trial"",""time""
""fullscreenenter"",""1"",""381771""
","""event"",""trial"",""time""
""fullscreenexit"",""3"",""389123""
","","","","","","512.1999999880791","<p> The kids are sad.<div style='float: left;'><img src='images/i11.png' width = '640' height = '360'></img>","","0","instructions","","","","","","","","","","","","","",""
"learning-instructions","33","675098","0.0-8.0-0.0-0.25","1922","1","2","""event"",""trial"",""time""
""fullscreenenter"",""1"",""381771""
""fullscreenexit"",""3"",""389123""
""blur"",""7"",""418564""
""focus"",""7"",""420983""
""blur"",""11"",""457175""
""focus"",""11"",""458032""
""blur"",""13"",""505836""
""focus"",""13"",""508249""
""blur"",""17"",""555167""
""focus"",""17"",""557129""
""blur"",""23"",""601334""
""focus"",""23"",""603599""
","""event"",""trial"",""time""
""blur"",""7"",""418564""
""blur"",""11"",""457175""
""blur"",""13"",""505836""
""blur"",""17"",""555167""
""blur"",""23"",""601334""
","""event"",""trial"",""time""
""focus"",""7"",""420983""
""focus"",""11"",""458032""
""focus"",""13"",""508249""
""focus"",""17"",""557129""
""focus"",""23"",""603599""
","""event"",""trial"",""time""
""fullscreenenter"",""1"",""381771""
","""event"",""trial"",""time""
""fullscreenexit"",""3"",""389123""
","","","","","","16386.69999998808","<p> As you can see, selecting the wrong park for the soccer ball made the kids sad most of the time, but not all the time.","","0","instructions","","","","","","","","","","","","","",""
"learning-instructions","34","705438","0.0-8.0-0.0-0.26","1922","1","2","""event"",""trial"",""time""
""fullscreenenter"",""1"",""381771""
""fullscreenexit"",""3"",""389123""
""blur"",""7"",""418564""
""focus"",""7"",""420983""
""blur"",""11"",""457175""
""focus"",""11"",""458032""
""blur"",""13"",""505836""
""focus"",""13"",""508249""
""blur"",""17"",""555167""
""focus"",""17"",""557129""
""blur"",""23"",""601334""
""focus"",""23"",""603599""
","""event"",""trial"",""time""
""blur"",""7"",""418564""
""blur"",""11"",""457175""
""blur"",""13"",""505836""
""blur"",""17"",""555167""
""blur"",""23"",""601334""
","""event"",""trial"",""time""
""focus"",""7"",""420983""
""focus"",""11"",""458032""
""focus"",""13"",""508249""
""focus"",""17"",""557129""
""focus"",""23"",""603599""
","""event"",""trial"",""time""
""fullscreenenter"",""1"",""381771""
","""event"",""trial"",""time""
""fullscreenexit"",""3"",""389123""
","","","","","","21225.80000001192","<p> The different pieces of equipment belong in different parks. You need to try to learn which is the best park for each piece of equipment.","","0","instructions","","","","","","","","","","","","","",""
"learning-instructions","35","724992","0.0-8.0-0.0-0.27","1922","1","2","""event"",""trial"",""time""
""fullscreenenter"",""1"",""381771""
""fullscreenexit"",""3"",""389123""
""blur"",""7"",""418564""
""focus"",""7"",""420983""
""blur"",""11"",""457175""
""focus"",""11"",""458032""
""blur"",""13"",""505836""
""focus"",""13"",""508249""
""blur"",""17"",""555167""
""focus"",""17"",""557129""
""blur"",""23"",""601334""
""focus"",""23"",""603599""
","""event"",""trial"",""time""
""blur"",""7"",""418564""
""blur"",""11"",""457175""
""blur"",""13"",""505836""
""blur"",""17"",""555167""
""blur"",""23"",""601334""
","""event"",""trial"",""time""
""focus"",""7"",""420983""
""focus"",""11"",""458032""
""focus"",""13"",""508249""
""focus"",""17"",""557129""
""focus"",""23"",""603599""
","""event"",""trial"",""time""
""fullscreenenter"",""1"",""381771""
","""event"",""trial"",""time""
""fullscreenexit"",""3"",""389123""
","","","","","","3167.600000023842","<p> Try to choose the best park for each piece of equipment, because you will <b> WIN </b> 1 point for each time you make the kids happy and <b>LOSE</b> 1 point for each time you make them sad. </p><p> Remember, if you make the best choice, you will win 1 point most of the time, but not all the time. </p>","","0","instructions","","","","","","","","","","","","","",""
"learning-instructions","36","731215","0.0-8.0-0.0-0.28","1922","1","2","""event"",""trial"",""time""
""fullscreenenter"",""1"",""381771""
""fullscreenexit"",""3"",""389123""
""blur"",""7"",""418564""
""focus"",""7"",""420983""
""blur"",""11"",""457175""
""focus"",""11"",""458032""
""blur"",""13"",""505836""
""focus"",""13"",""508249""
""blur"",""17"",""555167""
""focus"",""17"",""557129""
""blur"",""23"",""601334""
""focus"",""23"",""603599""
","""event"",""trial"",""time""
""blur"",""7"",""418564""
""blur"",""11"",""457175""
""blur"",""13"",""505836""
""blur"",""17"",""555167""
""blur"",""23"",""601334""
","""event"",""trial"",""time""
""focus"",""7"",""420983""
""focus"",""11"",""458032""
""focus"",""13"",""508249""
""focus"",""17"",""557129""
""focus"",""23"",""603599""
","""event"",""trial"",""time""
""fullscreenenter"",""1"",""381771""
","""event"",""trial"",""time""
""fullscreenexit"",""3"",""389123""
","","","","","","720.3999999761581","<p> This is just a practice round, but in the real game, your bonus payment will depend on your total number of points.","","0","instructions","","","","","","","","","","","","","",""
"learning-instructions","37","743342","0.0-8.0-0.0-0.29","1922","1","2","""event"",""trial"",""time""
""fullscreenenter"",""1"",""381771""
""fullscreenexit"",""3"",""389123""
""blur"",""7"",""418564""
""focus"",""7"",""420983""
""blur"",""11"",""457175""
""focus"",""11"",""458032""
""blur"",""13"",""505836""
""focus"",""13"",""508249""
""blur"",""17"",""555167""
""focus"",""17"",""557129""
""blur"",""23"",""601334""
""focus"",""23"",""603599""
","""event"",""trial"",""time""
""blur"",""7"",""418564""
""blur"",""11"",""457175""
""blur"",""13"",""505836""
""blur"",""17"",""555167""
""blur"",""23"",""601334""
","""event"",""trial"",""time""
""focus"",""7"",""420983""
""focus"",""11"",""458032""
""focus"",""13"",""508249""
""focus"",""17"",""557129""
""focus"",""23"",""603599""
","""event"",""trial"",""time""
""fullscreenenter"",""1"",""381771""
","""event"",""trial"",""time""
""fullscreenexit"",""3"",""389123""
","","","","","","1787.5","<p> The position where each park appears will change throughout the game. </p><p> The position where the park appears <i> does not </i> influence how likely the kids are to be happy or sad. </p>","","0","instructions","","","","","","","","","","","","","",""
"learning-instructions","38","757926","0.0-8.0-0.0-0.30","1922","1","2","""event"",""trial"",""time""
""fullscreenenter"",""1"",""381771""
""fullscreenexit"",""3"",""389123""
""blur"",""7"",""418564""
""focus"",""7"",""420983""
""blur"",""11"",""457175""
""focus"",""11"",""458032""
""blur"",""13"",""505836""
""focus"",""13"",""508249""
""blur"",""17"",""555167""
""focus"",""17"",""557129""
""blur"",""23"",""601334""
""focus"",""23"",""603599""
","""event"",""trial"",""time""
""blur"",""7"",""418564""
""blur"",""11"",""457175""
""blur"",""13"",""505836""
""blur"",""17"",""555167""
""blur"",""23"",""601334""
","""event"",""trial"",""time""
""focus"",""7"",""420983""
""focus"",""11"",""458032""
""focus"",""13"",""508249""
""focus"",""17"",""557129""
""focus"",""23"",""603599""
","""event"",""trial"",""time""
""fullscreenenter"",""1"",""381771""
","""event"",""trial"",""time""
""fullscreenexit"",""3"",""389123""
","","","","","","4253.800000011921","<p> You will have 4 seconds to make each choice. Try to respond before time runs out! </p><p> You will lose 1 point each time you do not make a response. </p>","","0","instructions","","","","","","","","","","","","","",""
"learning-instructions","39","769798","0.0-8.0-0.0-0.31","1922","1","2","""event"",""trial"",""time""
""fullscreenenter"",""1"",""381771""
""fullscreenexit"",""3"",""389123""
""blur"",""7"",""418564""
""focus"",""7"",""420983""
""blur"",""11"",""457175""
""focus"",""11"",""458032""
""blur"",""13"",""505836""
""focus"",""13"",""508249""
""blur"",""17"",""555167""
""focus"",""17"",""557129""
""blur"",""23"",""601334""
""focus"",""23"",""603599""
","""event"",""trial"",""time""
""blur"",""7"",""418564""
""blur"",""11"",""457175""
""blur"",""13"",""505836""
""blur"",""17"",""555167""
""blur"",""23"",""601334""
","""event"",""trial"",""time""
""focus"",""7"",""420983""
""focus"",""11"",""458032""
""focus"",""13"",""508249""
""focus"",""17"",""557129""
""focus"",""23"",""603599""
","""event"",""trial"",""time""
""fullscreenenter"",""1"",""381771""
","""event"",""trial"",""time""
""fullscreenexit"",""3"",""389123""
","","","","","","5063.600000023842","<p> Remember, you should use the 1, 2, and 3 keys to select the park for each piece of equipment. </p><br><div class=""choice-instructions-grid""> <div class=""choice-option""><img src=""images/park1.png"" class=""choice-option-img"" stage=""instructions"" position=""0"" ><div class=""choice-option-text""> Press ""1."" </div></div><div class=""choice-option""><img src=""images/park2.png"" class=""choice-option-img"" stage=""instructions"" position=""1"" ><div class=""choice-option-text""> Press ""2."" </div></div><div class=""choice-option""><img src=""images/park3.png"" class=""choice-option-img"" stage=""instructions"" position=""2"" ><div class=""choice-option-text""> Press ""3."" </div></div></div>","","0","instructions","","","","","","","","","","","","","",""
"html-button-response","40","771102","0.0-8.0-1.0","1922","1","2","""event"",""trial"",""time""
""fullscreenenter"",""1"",""381771""
""fullscreenexit"",""3"",""389123""
""blur"",""7"",""418564""
""focus"",""7"",""420983""
""blur"",""11"",""457175""
""focus"",""11"",""458032""
""blur"",""13"",""505836""
""focus"",""13"",""508249""
""blur"",""17"",""555167""
""focus"",""17"",""557129""
""blur"",""23"",""601334""
""focus"",""23"",""603599""
","""event"",""trial"",""time""
""blur"",""7"",""418564""
""blur"",""11"",""457175""
""blur"",""13"",""505836""
""blur"",""17"",""555167""
""blur"",""23"",""601334""
","""event"",""trial"",""time""
""focus"",""7"",""420983""
""focus"",""11"",""458032""
""focus"",""13"",""508249""
""focus"",""17"",""557129""
""focus"",""23"",""603599""
","""event"",""trial"",""time""
""fullscreenenter"",""1"",""381771""
","""event"",""trial"",""time""
""fullscreenexit"",""3"",""389123""
","","","","","","1199.5","<p> Ready to practice? </p>","0","","","","","","","","","","","","","","","",""
"html-keyboard-response","41","771741","0.0-8.0-2.0-0.0","1922","1","2","""event"",""trial"",""time""
""fullscreenenter"",""1"",""381771""
""fullscreenexit"",""3"",""389123""
""blur"",""7"",""418564""
""focus"",""7"",""420983""
""blur"",""11"",""457175""
""focus"",""11"",""458032""
""blur"",""13"",""505836""
""focus"",""13"",""508249""
""blur"",""17"",""555167""
""focus"",""17"",""557129""
""blur"",""23"",""601334""
""focus"",""23"",""603599""
","""event"",""trial"",""time""
""blur"",""7"",""418564""
""blur"",""11"",""457175""
""blur"",""13"",""505836""
""blur"",""17"",""555167""
""blur"",""23"",""601334""
","""event"",""trial"",""time""
""focus"",""7"",""420983""
""focus"",""11"",""458032""
""focus"",""13"",""508249""
""focus"",""17"",""557129""
""focus"",""23"",""603599""
","""event"",""trial"",""time""
""fullscreenenter"",""1"",""381771""
","""event"",""trial"",""time""
""fullscreenexit"",""3"",""389123""
","","","","","","null","<div style=""font-size:60px;"">+</div>","null","","fixation","","","","","","","","","","","","","",""
"learning-trial","42","775749","0.0-8.0-2.0-1.0","1922","1","2","""event"",""trial"",""time""
""fullscreenenter"",""1"",""381771""
""fullscreenexit"",""3"",""389123""
""blur"",""7"",""418564""
""focus"",""7"",""420983""
""blur"",""11"",""457175""
""focus"",""11"",""458032""
""blur"",""13"",""505836""
""focus"",""13"",""508249""
""blur"",""17"",""555167""
""focus"",""17"",""557129""
""blur"",""23"",""601334""
""focus"",""23"",""603599""
","""event"",""trial"",""time""
""blur"",""7"",""418564""
""blur"",""11"",""457175""
""blur"",""13"",""505836""
""blur"",""17"",""555167""
""blur"",""23"",""601334""
","""event"",""trial"",""time""
""focus"",""7"",""420983""
""focus"",""11"",""458032""
""focus"",""13"",""508249""
""focus"",""17"",""557129""
""focus"",""23"",""603599""
","""event"",""trial"",""time""
""fullscreenenter"",""1"",""381771""
","""event"",""trial"",""time""
""fullscreenexit"",""3"",""389123""
","","","","","","1696.800000011921","images/racket1.png","","","practice","images/park1.png","images/park3.png","images/park2.png","[0,2,1]","1","2","2","images/park3.png","-1","practice","","","",""
"html-keyboard-response","43","776260","0.0-8.0-2.0-0.1","1922","1","2","""event"",""trial"",""time""
""fullscreenenter"",""1"",""381771""
""fullscreenexit"",""3"",""389123""
""blur"",""7"",""418564""
""focus"",""7"",""420983""
""blur"",""11"",""457175""
""focus"",""11"",""458032""
""blur"",""13"",""505836""
""focus"",""13"",""508249""
""blur"",""17"",""555167""
""focus"",""17"",""557129""
""blur"",""23"",""601334""
""focus"",""23"",""603599""
","""event"",""trial"",""time""
""blur"",""7"",""418564""
""blur"",""11"",""457175""
""blur"",""13"",""505836""
""blur"",""17"",""555167""
""blur"",""23"",""601334""
","""event"",""trial"",""time""
""focus"",""7"",""420983""
""focus"",""11"",""458032""
""focus"",""13"",""508249""
""focus"",""17"",""557129""
""focus"",""23"",""603599""
","""event"",""trial"",""time""
""fullscreenenter"",""1"",""381771""
","""event"",""trial"",""time""
""fullscreenexit"",""3"",""389123""
","","","","","","null","<div style=""font-size:60px;"">+</div>","null","","fixation","","","","","","","","","","","","","",""
"learning-trial","44","780270","0.0-8.0-2.0-1.1","1922","1","2","""event"",""trial"",""time""
""fullscreenenter"",""1"",""381771""
""fullscreenexit"",""3"",""389123""
""blur"",""7"",""418564""
""focus"",""7"",""420983""
""blur"",""11"",""457175""
""focus"",""11"",""458032""
""blur"",""13"",""505836""
""focus"",""13"",""508249""
""blur"",""17"",""555167""
""focus"",""17"",""557129""
""blur"",""23"",""601334""
""focus"",""23"",""603599""
","""event"",""trial"",""time""
""blur"",""7"",""418564""
""blur"",""11"",""457175""
""blur"",""13"",""505836""
""blur"",""17"",""555167""
""blur"",""23"",""601334""
","""event"",""trial"",""time""
""focus"",""7"",""420983""
""focus"",""11"",""458032""
""focus"",""13"",""508249""
""focus"",""17"",""557129""
""focus"",""23"",""603599""
","""event"",""trial"",""time""
""fullscreenenter"",""1"",""381771""
","""event"",""trial"",""time""
""fullscreenexit"",""3"",""389123""
","","","","","","1433","images/racket4.png","","","practice","images/park2.png","images/park3.png","images/park1.png","[1,2,0]","1","0","3","images/park1.png","-1","practice","","","",""
"html-keyboard-response","45","780790","0.0-8.0-2.0-0.2","1922","1","2","""event"",""trial"",""time""
""fullscreenenter"",""1"",""381771""
""fullscreenexit"",""3"",""389123""
""blur"",""7"",""418564""
""focus"",""7"",""420983""
""blur"",""11"",""457175""
""focus"",""11"",""458032""
""blur"",""13"",""505836""
""focus"",""13"",""508249""
""blur"",""17"",""555167""
""focus"",""17"",""557129""
""blur"",""23"",""601334""
""focus"",""23"",""603599""
","""event"",""trial"",""time""
""blur"",""7"",""418564""
""blur"",""11"",""457175""
""blur"",""13"",""505836""
""blur"",""17"",""555167""
""blur"",""23"",""601334""
","""event"",""trial"",""time""
""focus"",""7"",""420983""
""focus"",""11"",""458032""
""focus"",""13"",""508249""
""focus"",""17"",""557129""
""focus"",""23"",""603599""
","""event"",""trial"",""time""
""fullscreenenter"",""1"",""381771""
","""event"",""trial"",""time""
""fullscreenexit"",""3"",""389123""
","","","","","","null","<div style=""font-size:60px;"">+</div>","null","","fixation","","","","","","","","","","","","","",""
"learning-trial","46","784810","0.0-8.0-2.0-1.2","1922","1","2","""event"",""trial"",""time""
""fullscreenenter"",""1"",""381771""
""fullscreenexit"",""3"",""389123""
""blur"",""7"",""418564""
""focus"",""7"",""420983""
""blur"",""11"",""457175""
""focus"",""11"",""458032""
""blur"",""13"",""505836""
""focus"",""13"",""508249""
""blur"",""17"",""555167""
""focus"",""17"",""557129""
""blur"",""23"",""601334""
""focus"",""23"",""603599""
","""event"",""trial"",""time""
""blur"",""7"",""418564""
""blur"",""11"",""457175""
""blur"",""13"",""505836""
""blur"",""17"",""555167""
""blur"",""23"",""601334""
","""event"",""trial"",""time""
""focus"",""7"",""420983""
""focus"",""11"",""458032""
""focus"",""13"",""508249""
""focus"",""17"",""557129""
""focus"",""23"",""603599""
","""event"",""trial"",""time""
""fullscreenenter"",""1"",""381771""
","""event"",""trial"",""time""
""fullscreenexit"",""3"",""389123""
","","","","","","1268.5","images/racket2.png","","","practice","images/park3.png","images/park2.png","images/park1.png","[2,1,0]","2","0","1","images/park3.png","1","practice","","","",""
"html-keyboard-response","47","785329","0.0-8.0-2.0-0.3","1922","1","2","""event"",""trial"",""time""
""fullscreenenter"",""1"",""381771""
""fullscreenexit"",""3"",""389123""
""blur"",""7"",""418564""
""focus"",""7"",""420983""
""blur"",""11"",""457175""
""focus"",""11"",""458032""
""blur"",""13"",""505836""
""focus"",""13"",""508249""
""blur"",""17"",""555167""
""focus"",""17"",""557129""
""blur"",""23"",""601334""
""focus"",""23"",""603599""
","""event"",""trial"",""time""
""blur"",""7"",""418564""
""blur"",""11"",""457175""
""blur"",""13"",""505836""
""blur"",""17"",""555167""
""blur"",""23"",""601334""
","""event"",""trial"",""time""
""focus"",""7"",""420983""
""focus"",""11"",""458032""
""focus"",""13"",""508249""
""focus"",""17"",""557129""
""focus"",""23"",""603599""
","""event"",""trial"",""time""
""fullscreenenter"",""1"",""381771""
","""event"",""trial"",""time""
""fullscreenexit"",""3"",""389123""
","","","","","","null","<div style=""font-size:60px;"">+</div>","null","","fixation","","","","","","","","","","","","","",""
"learning-trial","48","789351","0.0-8.0-2.0-1.3","1922","1","2","""event"",""trial"",""time""
""fullscreenenter"",""1"",""381771""
""fullscreenexit"",""3"",""389123""
""blur"",""7"",""418564""
""focus"",""7"",""420983""
""blur"",""11"",""457175""
""focus"",""11"",""458032""
""blur"",""13"",""505836""
""focus"",""13"",""508249""
""blur"",""17"",""555167""
""focus"",""17"",""557129""
""blur"",""23"",""601334""
""focus"",""23"",""603599""
","""event"",""trial"",""time""
""blur"",""7"",""418564""
""blur"",""11"",""457175""
""blur"",""13"",""505836""
""blur"",""17"",""555167""
""blur"",""23"",""601334""
","""event"",""trial"",""time""
""focus"",""7"",""420983""
""focus"",""11"",""458032""
""focus"",""13"",""508249""
""focus"",""17"",""557129""
""focus"",""23"",""603599""
","""event"",""trial"",""time""
""fullscreenenter"",""1"",""381771""
","""event"",""trial"",""time""
""fullscreenexit"",""3"",""389123""
","","","","","","1111.5","images/racket3.png","","","practice","images/park2.png","images/park3.png","images/park1.png","[1,2,0]","0","2","2","images/park3.png","-1","practice","","","",""
"html-keyboard-response","49","789870","0.0-8.0-2.0-0.4","1922","1","2","""event"",""trial"",""time""
""fullscreenenter"",""1"",""381771""
""fullscreenexit"",""3"",""389123""
""blur"",""7"",""418564""
""focus"",""7"",""420983""
""blur"",""11"",""457175""
""focus"",""11"",""458032""
""blur"",""13"",""505836""
""focus"",""13"",""508249""
""blur"",""17"",""555167""
""focus"",""17"",""557129""
""blur"",""23"",""601334""
""focus"",""23"",""603599""
","""event"",""trial"",""time""
""blur"",""7"",""418564""
""blur"",""11"",""457175""
""blur"",""13"",""505836""
""blur"",""17"",""555167""
""blur"",""23"",""601334""
","""event"",""trial"",""time""
""focus"",""7"",""420983""
""focus"",""11"",""458032""
""focus"",""13"",""508249""
""focus"",""17"",""557129""
""focus"",""23"",""603599""
","""event"",""trial"",""time""
""fullscreenenter"",""1"",""381771""
","""event"",""trial"",""time""
""fullscreenexit"",""3"",""389123""
","","","","","","null","<div style=""font-size:60px;"">+</div>","null","","fixation","","","","","","","","","","","","","",""
"learning-trial","50","793882","0.0-8.0-2.0-1.4","1922","1","2","""event"",""trial"",""time""
""fullscreenenter"",""1"",""381771""
""fullscreenexit"",""3"",""389123""
""blur"",""7"",""418564""
""focus"",""7"",""420983""
""blur"",""11"",""457175""
""focus"",""11"",""458032""
""blur"",""13"",""505836""
""focus"",""13"",""508249""
""blur"",""17"",""555167""
""focus"",""17"",""557129""
""blur"",""23"",""601334""
""focus"",""23"",""603599""
","""event"",""trial"",""time""
""blur"",""7"",""418564""
""blur"",""11"",""457175""
""blur"",""13"",""505836""
""blur"",""17"",""555167""
""blur"",""23"",""601334""
","""event"",""trial"",""time""
""focus"",""7"",""420983""
""focus"",""11"",""458032""
""focus"",""13"",""508249""
""focus"",""17"",""557129""
""focus"",""23"",""603599""
","""event"",""trial"",""time""
""fullscreenenter"",""1"",""381771""
","""event"",""trial"",""time""
""fullscreenexit"",""3"",""389123""
","","","","","","1001.6999999880791","images/racket3.png","","","practice","images/park2.png","images/park3.png","images/park1.png","[1,2,0]","0","2","2","images/park3.png","-1","practice","","","",""
"html-keyboard-response","51","794400","0.0-8.0-2.0-0.5","1922","1","2","""event"",""trial"",""time""
""fullscreenenter"",""1"",""381771""
""fullscreenexit"",""3"",""389123""
""blur"",""7"",""418564""
""focus"",""7"",""420983""
""blur"",""11"",""457175""
""focus"",""11"",""458032""
""blur"",""13"",""505836""
""focus"",""13"",""508249""
""blur"",""17"",""555167""
""focus"",""17"",""557129""
""blur"",""23"",""601334""
""focus"",""23"",""603599""
","""event"",""trial"",""time""
""blur"",""7"",""418564""
""blur"",""11"",""457175""
""blur"",""13"",""505836""
""blur"",""17"",""555167""
""blur"",""23"",""601334""
","""event"",""trial"",""time""
""focus"",""7"",""420983""
""focus"",""11"",""458032""
""focus"",""13"",""508249""
""focus"",""17"",""557129""
""focus"",""23"",""603599""
","""event"",""trial"",""time""
""fullscreenenter"",""1"",""381771""
","""event"",""trial"",""time""
""fullscreenexit"",""3"",""389123""
","","","","","","null","<div style=""font-size:60px;"">+</div>","null","","fixation","","","","","","","","","","","","","",""
"learning-trial","52","798401","0.0-8.0-2.0-1.5","1922","1","2","""event"",""trial"",""time""
""fullscreenenter"",""1"",""381771""
""fullscreenexit"",""3"",""389123""
""blur"",""7"",""418564""
""focus"",""7"",""420983""
""blur"",""11"",""457175""
""focus"",""11"",""458032""
""blur"",""13"",""505836""
""focus"",""13"",""508249""
""blur"",""17"",""555167""
""focus"",""17"",""557129""
""blur"",""23"",""601334""
""focus"",""23"",""603599""
","""event"",""trial"",""time""
""blur"",""7"",""418564""
""blur"",""11"",""457175""
""blur"",""13"",""505836""
""blur"",""17"",""555167""
""blur"",""23"",""601334""
","""event"",""trial"",""time""
""focus"",""7"",""420983""
""focus"",""11"",""458032""
""focus"",""13"",""508249""
""focus"",""17"",""557129""
""focus"",""23"",""603599""
","""event"",""trial"",""time""
""fullscreenenter"",""1"",""381771""
","""event"",""trial"",""time""
""fullscreenexit"",""3"",""389123""
","","","","","","1523.6000000238419","images/racket4.png","","","practice","images/park2.png","images/park1.png","images/park3.png","[1,0,2]","1","0","1","images/park2.png","1","practice","","","",""
"html-keyboard-response","53","798904","0.0-8.0-2.0-0.6","1922","1","2","""event"",""trial"",""time""
""fullscreenenter"",""1"",""381771""
""fullscreenexit"",""3"",""389123""
""blur"",""7"",""418564""
""focus"",""7"",""420983""
""blur"",""11"",""457175""
""focus"",""11"",""458032""
""blur"",""13"",""505836""
""focus"",""13"",""508249""
""blur"",""17"",""555167""
""focus"",""17"",""557129""
""blur"",""23"",""601334""
""focus"",""23"",""603599""
","""event"",""trial"",""time""
""blur"",""7"",""418564""
""blur"",""11"",""457175""
""blur"",""13"",""505836""
""blur"",""17"",""555167""
""blur"",""23"",""601334""
","""event"",""trial"",""time""
""focus"",""7"",""420983""
""focus"",""11"",""458032""
""focus"",""13"",""508249""
""focus"",""17"",""557129""
""focus"",""23"",""603599""
","""event"",""trial"",""time""
""fullscreenenter"",""1"",""381771""
","""event"",""trial"",""time""
""fullscreenexit"",""3"",""389123""
","","","","","","null","<div style=""font-size:60px;"">+</div>","null","","fixation","","","","","","","","","","","","","",""
"learning-trial","54","802910","0.0-8.0-2.0-1.6","1922","1","2","""event"",""trial"",""time""
""fullscreenenter"",""1"",""381771""
""fullscreenexit"",""3"",""389123""
""blur"",""7"",""418564""
""focus"",""7"",""420983""
""blur"",""11"",""457175""
""focus"",""11"",""458032""
""blur"",""13"",""505836""
""focus"",""13"",""508249""
""blur"",""17"",""555167""
""focus"",""17"",""557129""
""blur"",""23"",""601334""
""focus"",""23"",""603599""
","""event"",""trial"",""time""
""blur"",""7"",""418564""
""blur"",""11"",""457175""
""blur"",""13"",""505836""
""blur"",""17"",""555167""
""blur"",""23"",""601334""
","""event"",""trial"",""time""
""focus"",""7"",""420983""
""focus"",""11"",""458032""
""focus"",""13"",""508249""
""focus"",""17"",""557129""
""focus"",""23"",""603599""
","""event"",""trial"",""time""
""fullscreenenter"",""1"",""381771""
","""event"",""trial"",""time""
""fullscreenexit"",""3"",""389123""
","","","","","","1306.300000011921","images/ball4.png","","","practice","images/park3.png","images/park1.png","images/park2.png","[2,0,1]","0","1","2","images/park1.png","1","practice","","","",""
"html-keyboard-response","55","803414","0.0-8.0-2.0-0.7","1922","1","2","""event"",""trial"",""time""
""fullscreenenter"",""1"",""381771""
""fullscreenexit"",""3"",""389123""
""blur"",""7"",""418564""
""focus"",""7"",""420983""
""blur"",""11"",""457175""
""focus"",""11"",""458032""
""blur"",""13"",""505836""
""focus"",""13"",""508249""
""blur"",""17"",""555167""
""focus"",""17"",""557129""
""blur"",""23"",""601334""
""focus"",""23"",""603599""
","""event"",""trial"",""time""
""blur"",""7"",""418564""
""blur"",""11"",""457175""
""blur"",""13"",""505836""
""blur"",""17"",""555167""
""blur"",""23"",""601334""
","""event"",""trial"",""time""
""focus"",""7"",""420983""
""focus"",""11"",""458032""
""focus"",""13"",""508249""
""focus"",""17"",""557129""
""focus"",""23"",""603599""
","""event"",""trial"",""time""
""fullscreenenter"",""1"",""381771""
","""event"",""trial"",""time""
""fullscreenexit"",""3"",""389123""
","","","","","","null","<div style=""font-size:60px;"">+</div>","null","","fixation","","","","","","","","","","","","","",""
"learning-trial","56","807422","0.0-8.0-2.0-1.7","1922","1","2","""event"",""trial"",""time""
""fullscreenenter"",""1"",""381771""
""fullscreenexit"",""3"",""389123""
""blur"",""7"",""418564""
""focus"",""7"",""420983""
""blur"",""11"",""457175""
""focus"",""11"",""458032""
""blur"",""13"",""505836""
""focus"",""13"",""508249""
""blur"",""17"",""555167""
""focus"",""17"",""557129""
""blur"",""23"",""601334""
""focus"",""23"",""603599""
","""event"",""trial"",""time""
""blur"",""7"",""418564""
""blur"",""11"",""457175""
""blur"",""13"",""505836""
""blur"",""17"",""555167""
""blur"",""23"",""601334""
","""event"",""trial"",""time""
""focus"",""7"",""420983""
""focus"",""11"",""458032""
""focus"",""13"",""508249""
""focus"",""17"",""557129""
""focus"",""23"",""603599""
","""event"",""trial"",""time""
""fullscreenenter"",""1"",""381771""
","""event"",""trial"",""time""
""fullscreenexit"",""3"",""389123""
","","","","","","1230","images/ball2.png","","","practice","images/park2.png","images/park3.png","images/park1.png","[1,2,0]","2","1","3","images/park1.png","-1","practice","","","",""
"html-keyboard-response","57","807925","0.0-8.0-2.0-0.8","1922","1","2","""event"",""trial"",""time""
""fullscreenenter"",""1"",""381771""
""fullscreenexit"",""3"",""389123""
""blur"",""7"",""418564""
""focus"",""7"",""420983""
""blur"",""11"",""457175""
""focus"",""11"",""458032""
""blur"",""13"",""505836""
""focus"",""13"",""508249""
""blur"",""17"",""555167""
""focus"",""17"",""557129""
""blur"",""23"",""601334""
""focus"",""23"",""603599""
","""event"",""trial"",""time""
""blur"",""7"",""418564""
""blur"",""11"",""457175""
""blur"",""13"",""505836""
""blur"",""17"",""555167""
""blur"",""23"",""601334""
","""event"",""trial"",""time""
""focus"",""7"",""420983""
""focus"",""11"",""458032""
""focus"",""13"",""508249""
""focus"",""17"",""557129""
""focus"",""23"",""603599""
","""event"",""trial"",""time""
""fullscreenenter"",""1"",""381771""
","""event"",""trial"",""time""
""fullscreenexit"",""3"",""389123""
","","","","","","null","<div style=""font-size:60px;"">+</div>","null","","fixation","","","","","","","","","","","","","",""
"learning-trial","58","811935","0.0-8.0-2.0-1.8","1922","1","2","""event"",""trial"",""time""
""fullscreenenter"",""1"",""381771""
""fullscreenexit"",""3"",""389123""
""blur"",""7"",""418564""
""focus"",""7"",""420983""
""blur"",""11"",""457175""
""focus"",""11"",""458032""
""blur"",""13"",""505836""
""focus"",""13"",""508249""
""blur"",""17"",""555167""
""focus"",""17"",""557129""
""blur"",""23"",""601334""
""focus"",""23"",""603599""
","""event"",""trial"",""time""
""blur"",""7"",""418564""
""blur"",""11"",""457175""
""blur"",""13"",""505836""
""blur"",""17"",""555167""
""blur"",""23"",""601334""
","""event"",""trial"",""time""
""focus"",""7"",""420983""
""focus"",""11"",""458032""
""focus"",""13"",""508249""
""focus"",""17"",""557129""
""focus"",""23"",""603599""
","""event"",""trial"",""time""
""fullscreenenter"",""1"",""381771""
","""event"",""trial"",""time""
""fullscreenexit"",""3"",""389123""
","","","","","","1343.6000000238419","images/ball4.png","","","practice","images/park1.png","images/park2.png","images/park3.png","[0,1,2]","0","0","1","images/park1.png","1","practice","","","",""
"html-keyboard-response","59","812439","0.0-8.0-2.0-0.9","1922","1","2","""event"",""trial"",""time""
""fullscreenenter"",""1"",""381771""
""fullscreenexit"",""3"",""389123""
""blur"",""7"",""418564""
""focus"",""7"",""420983""
""blur"",""11"",""457175""
""focus"",""11"",""458032""
""blur"",""13"",""505836""
""focus"",""13"",""508249""
""blur"",""17"",""555167""
""focus"",""17"",""557129""
""blur"",""23"",""601334""
""focus"",""23"",""603599""
","""event"",""trial"",""time""
""blur"",""7"",""418564""
""blur"",""11"",""457175""
""blur"",""13"",""505836""
""blur"",""17"",""555167""
""blur"",""23"",""601334""
","""event"",""trial"",""time""
""focus"",""7"",""420983""
""focus"",""11"",""458032""
""focus"",""13"",""508249""
""focus"",""17"",""557129""
""focus"",""23"",""603599""
","""event"",""trial"",""time""
""fullscreenenter"",""1"",""381771""
","""event"",""trial"",""time""
""fullscreenexit"",""3"",""389123""
","","","","","","null","<div style=""font-size:60px;"">+</div>","null","","fixation","","","","","","","","","","","","","",""
"learning-trial","60","816443","0.0-8.0-2.0-1.9","1922","1","2","""event"",""trial"",""time""
""fullscreenenter"",""1"",""381771""
""fullscreenexit"",""3"",""389123""
""blur"",""7"",""418564""
""focus"",""7"",""420983""
""blur"",""11"",""457175""
""focus"",""11"",""458032""
""blur"",""13"",""505836""
""focus"",""13"",""508249""
""blur"",""17"",""555167""
""focus"",""17"",""557129""
""blur"",""23"",""601334""
""focus"",""23"",""603599""
","""event"",""trial"",""time""
""blur"",""7"",""418564""
""blur"",""11"",""457175""
""blur"",""13"",""505836""
""blur"",""17"",""555167""
""blur"",""23"",""601334""
","""event"",""trial"",""time""
""focus"",""7"",""420983""
""focus"",""11"",""458032""
""focus"",""13"",""508249""
""focus"",""17"",""557129""
""focus"",""23"",""603599""
","""event"",""trial"",""time""
""fullscreenenter"",""1"",""381771""
","""event"",""trial"",""time""
""fullscreenexit"",""3"",""389123""
","","","","","","1603.800000011921","images/ball2.png","","","practice","images/park1.png","images/park3.png","images/park2.png","[0,2,1]","2","1","2","images/park3.png","1","practice","","","",""
"html-keyboard-response","61","816945","0.0-8.0-2.0-0.10","1922","1","2","""event"",""trial"",""time""
""fullscreenenter"",""1"",""381771""
""fullscreenexit"",""3"",""389123""
""blur"",""7"",""418564""
""focus"",""7"",""420983""
""blur"",""11"",""457175""
""focus"",""11"",""458032""
""blur"",""13"",""505836""
""focus"",""13"",""508249""
""blur"",""17"",""555167""
""focus"",""17"",""557129""
""blur"",""23"",""601334""
""focus"",""23"",""603599""
","""event"",""trial"",""time""
""blur"",""7"",""418564""
""blur"",""11"",""457175""
""blur"",""13"",""505836""
""blur"",""17"",""555167""
""blur"",""23"",""601334""
","""event"",""trial"",""time""
""focus"",""7"",""420983""
""focus"",""11"",""458032""
""focus"",""13"",""508249""
""focus"",""17"",""557129""
""focus"",""23"",""603599""
","""event"",""trial"",""time""
""fullscreenenter"",""1"",""381771""
","""event"",""trial"",""time""
""fullscreenexit"",""3"",""389123""
","","","","","","null","<div style=""font-size:60px;"">+</div>","null","","fixation","","","","","","","","","","","","","",""
"learning-trial","62","820947","0.0-8.0-2.0-1.10","1922","1","2","""event"",""trial"",""time""
""fullscreenenter"",""1"",""381771""
""fullscreenexit"",""3"",""389123""
""blur"",""7"",""418564""
""focus"",""7"",""420983""
""blur"",""11"",""457175""
""focus"",""11"",""458032""
""blur"",""13"",""505836""
""focus"",""13"",""508249""
""blur"",""17"",""555167""
""focus"",""17"",""557129""
""blur"",""23"",""601334""
""focus"",""23"",""603599""
","""event"",""trial"",""time""
""blur"",""7"",""418564""
""blur"",""11"",""457175""
""blur"",""13"",""505836""
""blur"",""17"",""555167""
""blur"",""23"",""601334""
","""event"",""trial"",""time""
""focus"",""7"",""420983""
""focus"",""11"",""458032""
""focus"",""13"",""508249""
""focus"",""17"",""557129""
""focus"",""23"",""603599""
","""event"",""trial"",""time""
""fullscreenenter"",""1"",""381771""
","""event"",""trial"",""time""
""fullscreenexit"",""3"",""389123""
","","","","","","1235.5","images/racket1.png","","","practice","images/park3.png","images/park1.png","images/park2.png","[2,0,1]","1","2","1","images/park3.png","-1","practice","","","",""
"html-keyboard-response","63","821449","0.0-8.0-2.0-0.11","1922","1","2","""event"",""trial"",""time""
""fullscreenenter"",""1"",""381771""
""fullscreenexit"",""3"",""389123""
""blur"",""7"",""418564""
""focus"",""7"",""420983""
""blur"",""11"",""457175""
""focus"",""11"",""458032""
""blur"",""13"",""505836""
""focus"",""13"",""508249""
""blur"",""17"",""555167""
""focus"",""17"",""557129""
""blur"",""23"",""601334""
""focus"",""23"",""603599""
","""event"",""trial"",""time""
""blur"",""7"",""418564""
""blur"",""11"",""457175""
""blur"",""13"",""505836""
""blur"",""17"",""555167""
""blur"",""23"",""601334""
","""event"",""trial"",""time""
""focus"",""7"",""420983""
""focus"",""11"",""458032""
""focus"",""13"",""508249""
""focus"",""17"",""557129""
""focus"",""23"",""603599""
","""event"",""trial"",""time""
""fullscreenenter"",""1"",""381771""
","""event"",""trial"",""time""
""fullscreenexit"",""3"",""389123""
","","","","","","null","<div style=""font-size:60px;"">+</div>","null","","fixation","","","","","","","","","","","","","",""
"learning-trial","64","825455","0.0-8.0-2.0-1.11","1922","1","2","""event"",""trial"",""time""
""fullscreenenter"",""1"",""381771""
""fullscreenexit"",""3"",""389123""
""blur"",""7"",""418564""
""focus"",""7"",""420983""
""blur"",""11"",""457175""
""focus"",""11"",""458032""
""blur"",""13"",""505836""
""focus"",""13"",""508249""
""blur"",""17"",""555167""
""focus"",""17"",""557129""
""blur"",""23"",""601334""
""focus"",""23"",""603599""
","""event"",""trial"",""time""
""blur"",""7"",""418564""
""blur"",""11"",""457175""
""blur"",""13"",""505836""
""blur"",""17"",""555167""
""blur"",""23"",""601334""
","""event"",""trial"",""time""
""focus"",""7"",""420983""
""focus"",""11"",""458032""
""focus"",""13"",""508249""
""focus"",""17"",""557129""
""focus"",""23"",""603599""
","""event"",""trial"",""time""
""fullscreenenter"",""1"",""381771""
","""event"",""trial"",""time""
""fullscreenexit"",""3"",""389123""
","","","","","","1095.6000000238419","images/racket2.png","","","practice","images/park2.png","images/park1.png","images/park3.png","[1,0,2]","2","2","2","images/park1.png","1","practice","","","",""
"html-button-response","65","906865","0.0-8.0-3.0","1922","1","2","""event"",""trial"",""time""
""fullscreenenter"",""1"",""381771""
""fullscreenexit"",""3"",""389123""
""blur"",""7"",""418564""
""focus"",""7"",""420983""
""blur"",""11"",""457175""
""focus"",""11"",""458032""
""blur"",""13"",""505836""
""focus"",""13"",""508249""
""blur"",""17"",""555167""
""focus"",""17"",""557129""
""blur"",""23"",""601334""
""focus"",""23"",""603599""
""blur"",""66"",""909773""
""focus"",""66"",""912093""
","""event"",""trial"",""time""
""blur"",""7"",""418564""
""blur"",""11"",""457175""
""blur"",""13"",""505836""
""blur"",""17"",""555167""
""blur"",""23"",""601334""
""blur"",""66"",""909773""
","""event"",""trial"",""time""
""focus"",""7"",""420983""
""focus"",""11"",""458032""
""focus"",""13"",""508249""
""focus"",""17"",""557129""
""focus"",""23"",""603599""
""focus"",""66"",""912093""
","""event"",""trial"",""time""
""fullscreenenter"",""1"",""381771""
","""event"",""trial"",""time""
""fullscreenexit"",""3"",""389123""
","","","","","","81407","<p> You earned 0 points in the practice round! </p>","0","","break","","","","","","","","","","","","","",""
"learning-instructions","66","916438","0.0-8.0-4.0-0.0","1922","1","2","""event"",""trial"",""time""
""fullscreenenter"",""1"",""381771""
""fullscreenexit"",""3"",""389123""
""blur"",""7"",""418564""
""focus"",""7"",""420983""
""blur"",""11"",""457175""
""focus"",""11"",""458032""
""blur"",""13"",""505836""
""focus"",""13"",""508249""
""blur"",""17"",""555167""
""focus"",""17"",""557129""
""blur"",""23"",""601334""
""focus"",""23"",""603599""
""blur"",""66"",""909773""
""focus"",""66"",""912093""
","""event"",""trial"",""time""
""blur"",""7"",""418564""
""blur"",""11"",""457175""
""blur"",""13"",""505836""
""blur"",""17"",""555167""
""blur"",""23"",""601334""
""blur"",""66"",""909773""
","""event"",""trial"",""time""
""focus"",""7"",""420983""
""focus"",""11"",""458032""
""focus"",""13"",""508249""
""focus"",""17"",""557129""
""focus"",""23"",""603599""
""focus"",""66"",""912093""
","""event"",""trial"",""time""
""fullscreenenter"",""1"",""381771""
","""event"",""trial"",""time""
""fullscreenexit"",""3"",""389123""
","","","","","","1689.9000000357628","<p> It's almost time to start the real game. </p><p> Before you start, we're going to ask you a few questions about how the game works. </p>","","0","instructions","","","","","","","","","","","","","",""
"preload","67","917566","0.0-8.0-5.0","1922","1","2","""event"",""trial"",""time""
""fullscreenenter"",""1"",""381771""
""fullscreenexit"",""3"",""389123""
""blur"",""7"",""418564""
""focus"",""7"",""420983""
""blur"",""11"",""457175""
""focus"",""11"",""458032""
""blur"",""13"",""505836""
""focus"",""13"",""508249""
""blur"",""17"",""555167""
""focus"",""17"",""557129""
""blur"",""23"",""601334""
""focus"",""23"",""603599""
""blur"",""66"",""909773""
""focus"",""66"",""912093""
","""event"",""trial"",""time""
""blur"",""7"",""418564""
""blur"",""11"",""457175""
""blur"",""13"",""505836""
""blur"",""17"",""555167""
""blur"",""23"",""601334""
""blur"",""66"",""909773""
","""event"",""trial"",""time""
""focus"",""7"",""420983""
""focus"",""11"",""458032""
""focus"",""13"",""508249""
""focus"",""17"",""557129""
""focus"",""23"",""603599""
""focus"",""66"",""912093""
","""event"",""trial"",""time""
""fullscreenenter"",""1"",""381771""
","""event"",""trial"",""time""
""fullscreenexit"",""3"",""389123""
","true","false","[]","[]","[]","","","","","","","","","","","","","","","","","","",""
"comp-q","68","923933","0.0-8.0-6.0-0.0","1922","1","2","""event"",""trial"",""time""
""fullscreenenter"",""1"",""381771""
""fullscreenexit"",""3"",""389123""
""blur"",""7"",""418564""
""focus"",""7"",""420983""
""blur"",""11"",""457175""
""focus"",""11"",""458032""
""blur"",""13"",""505836""
""focus"",""13"",""508249""
""blur"",""17"",""555167""
""focus"",""17"",""557129""
""blur"",""23"",""601334""
""focus"",""23"",""603599""
""blur"",""66"",""909773""
""focus"",""66"",""912093""
","""event"",""trial"",""time""
""blur"",""7"",""418564""
""blur"",""11"",""457175""
""blur"",""13"",""505836""
""blur"",""17"",""555167""
""blur"",""23"",""601334""
""blur"",""66"",""909773""
","""event"",""trial"",""time""
""focus"",""7"",""420983""
""focus"",""11"",""458032""
""focus"",""13"",""508249""
""focus"",""17"",""557129""
""focus"",""23"",""603599""
""focus"",""66"",""912093""
","""event"",""trial"",""time""
""fullscreenenter"",""1"",""381771""
","""event"",""trial"",""time""
""fullscreenexit"",""3"",""389123""
","","","","","","917.3999999761581","<p> <b> True or False? </b> </p><p> If you choose the best option, you will always earn 1 point. </p>","","0","comp_question","","","","","","","","","","","false","","",""
"comp-q","69","930874","0.0-8.0-6.0-1.0","1922","1","2","""event"",""trial"",""time""
""fullscreenenter"",""1"",""381771""
""fullscreenexit"",""3"",""389123""
""blur"",""7"",""418564""
""focus"",""7"",""420983""
""blur"",""11"",""457175""
""focus"",""11"",""458032""
""blur"",""13"",""505836""
""focus"",""13"",""508249""
""blur"",""17"",""555167""
""focus"",""17"",""557129""
""blur"",""23"",""601334""
""focus"",""23"",""603599""
""blur"",""66"",""909773""
""focus"",""66"",""912093""
","""event"",""trial"",""time""
""blur"",""7"",""418564""
""blur"",""11"",""457175""
""blur"",""13"",""505836""
""blur"",""17"",""555167""
""blur"",""23"",""601334""
""blur"",""66"",""909773""
","""event"",""trial"",""time""
""focus"",""7"",""420983""
""focus"",""11"",""458032""
""focus"",""13"",""508249""
""focus"",""17"",""557129""
""focus"",""23"",""603599""
""focus"",""66"",""912093""
","""event"",""trial"",""time""
""fullscreenenter"",""1"",""381771""
","""event"",""trial"",""time""
""fullscreenexit"",""3"",""389123""
","","","","","","1386.8999999761581","<p><b> Incorrect. </b> Sometimes you will lose 1 point, even if you choose the best option. </p>","","0","comp_answer","","","","","","","","","","","","","",""
"comp-q","70","936117","0.0-8.0-6.0-0.1","1922","1","2","""event"",""trial"",""time""
""fullscreenenter"",""1"",""381771""
""fullscreenexit"",""3"",""389123""
""blur"",""7"",""418564""
""focus"",""7"",""420983""
""blur"",""11"",""457175""
""focus"",""11"",""458032""
""blur"",""13"",""505836""
""focus"",""13"",""508249""
""blur"",""17"",""555167""
""focus"",""17"",""557129""
""blur"",""23"",""601334""
""focus"",""23"",""603599""
""blur"",""66"",""909773""
""focus"",""66"",""912093""
","""event"",""trial"",""time""
""blur"",""7"",""418564""
""blur"",""11"",""457175""
""blur"",""13"",""505836""
""blur"",""17"",""555167""
""blur"",""23"",""601334""
""blur"",""66"",""909773""
","""event"",""trial"",""time""
""focus"",""7"",""420983""
""focus"",""11"",""458032""
""focus"",""13"",""508249""
""focus"",""17"",""557129""
""focus"",""23"",""603599""
""focus"",""66"",""912093""
","""event"",""trial"",""time""
""fullscreenenter"",""1"",""381771""
","""event"",""trial"",""time""
""fullscreenexit"",""3"",""389123""
","","","","","","610.0999999642372","<p> <b> True or False? </b> </p><p> You will have as much time as you want to make each choice. </p>","","1","comp_question","","","","","","","","","","","true","","",""
"comp-q","71","942031","0.0-8.0-6.0-1.1","1922","1","2","""event"",""trial"",""time""
""fullscreenenter"",""1"",""381771""
""fullscreenexit"",""3"",""389123""
""blur"",""7"",""418564""
""focus"",""7"",""420983""
""blur"",""11"",""457175""
""focus"",""11"",""458032""
""blur"",""13"",""505836""
""focus"",""13"",""508249""
""blur"",""17"",""555167""
""focus"",""17"",""557129""
""blur"",""23"",""601334""
""focus"",""23"",""603599""
""blur"",""66"",""909773""
""focus"",""66"",""912093""
","""event"",""trial"",""time""
""blur"",""7"",""418564""
""blur"",""11"",""457175""
""blur"",""13"",""505836""
""blur"",""17"",""555167""
""blur"",""23"",""601334""
""blur"",""66"",""909773""
","""event"",""trial"",""time""
""focus"",""7"",""420983""
""focus"",""11"",""458032""
""focus"",""13"",""508249""
""focus"",""17"",""557129""
""focus"",""23"",""603599""
""focus"",""66"",""912093""
","""event"",""trial"",""time""
""fullscreenenter"",""1"",""381771""
","""event"",""trial"",""time""
""fullscreenexit"",""3"",""389123""
","","","","","","1094.699999988079","<p> <b> That's right! </b> You will only have 4 seconds to make each choice. </p>","","0","comp_answer","","","","","","","","","","","","","",""
"comp-q","72","948807","0.0-8.0-6.0-0.2","1922","1","2","""event"",""trial"",""time""
""fullscreenenter"",""1"",""381771""
""fullscreenexit"",""3"",""389123""
""blur"",""7"",""418564""
""focus"",""7"",""420983""
""blur"",""11"",""457175""
""focus"",""11"",""458032""
""blur"",""13"",""505836""
""focus"",""13"",""508249""
""blur"",""17"",""555167""
""focus"",""17"",""557129""
""blur"",""23"",""601334""
""focus"",""23"",""603599""
""blur"",""66"",""909773""
""focus"",""66"",""912093""
","""event"",""trial"",""time""
""blur"",""7"",""418564""
""blur"",""11"",""457175""
""blur"",""13"",""505836""
""blur"",""17"",""555167""
""blur"",""23"",""601334""
""blur"",""66"",""909773""
","""event"",""trial"",""time""
""focus"",""7"",""420983""
""focus"",""11"",""458032""
""focus"",""13"",""508249""
""focus"",""17"",""557129""
""focus"",""23"",""603599""
""focus"",""66"",""912093""
","""event"",""trial"",""time""
""fullscreenenter"",""1"",""381771""
","""event"",""trial"",""time""
""fullscreenexit"",""3"",""389123""
","","","","","","618.3999999761581","<p> <b> True or False? </b> </p><p> You should use the '1', '2', and '3' keys to make your choices. </p>","","0","comp_question","","","","","","","","","","","true","","",""
"comp-q","73","965047","0.0-8.0-6.0-1.2","1922","1","2","""event"",""trial"",""time""
""fullscreenenter"",""1"",""381771""
""fullscreenexit"",""3"",""389123""
""blur"",""7"",""418564""
""focus"",""7"",""420983""
""blur"",""11"",""457175""
""focus"",""11"",""458032""
""blur"",""13"",""505836""
""focus"",""13"",""508249""
""blur"",""17"",""555167""
""focus"",""17"",""557129""
""blur"",""23"",""601334""
""focus"",""23"",""603599""
""blur"",""66"",""909773""
""focus"",""66"",""912093""
","""event"",""trial"",""time""
""blur"",""7"",""418564""
""blur"",""11"",""457175""
""blur"",""13"",""505836""
""blur"",""17"",""555167""
""blur"",""23"",""601334""
""blur"",""66"",""909773""
","""event"",""trial"",""time""
""focus"",""7"",""420983""
""focus"",""11"",""458032""
""focus"",""13"",""508249""
""focus"",""17"",""557129""
""focus"",""23"",""603599""
""focus"",""66"",""912093""
","""event"",""trial"",""time""
""fullscreenenter"",""1"",""381771""
","""event"",""trial"",""time""
""fullscreenexit"",""3"",""389123""
","","","","","","11380.5","<p> <b> That's right! </b> You should use the '1', '2', and '3' keys to make each choice. </p>","","0","comp_answer","","","","","","","","","","","","","",""
"learning-instructions","74","979920","0.0-8.0-7.0-0.0","1922","1","2","""event"",""trial"",""time""
""fullscreenenter"",""1"",""381771""
""fullscreenexit"",""3"",""389123""
""blur"",""7"",""418564""
""focus"",""7"",""420983""
""blur"",""11"",""457175""
""focus"",""11"",""458032""
""blur"",""13"",""505836""
""focus"",""13"",""508249""
""blur"",""17"",""555167""
""focus"",""17"",""557129""
""blur"",""23"",""601334""
""focus"",""23"",""603599""
""blur"",""66"",""909773""
""focus"",""66"",""912093""
","""event"",""trial"",""time""
""blur"",""7"",""418564""
""blur"",""11"",""457175""
""blur"",""13"",""505836""
""blur"",""17"",""555167""
""blur"",""23"",""601334""
""blur"",""66"",""909773""
","""event"",""trial"",""time""
""focus"",""7"",""420983""
""focus"",""11"",""458032""
""focus"",""13"",""508249""
""focus"",""17"",""557129""
""focus"",""23"",""603599""
""focus"",""66"",""912093""
","""event"",""trial"",""time""
""fullscreenenter"",""1"",""381771""
","""event"",""trial"",""time""
""fullscreenexit"",""3"",""389123""
","","","","","","6381.5","<p> It's now time to start the real game. </p>Do your best, because the points you earn in the next rounds will influence your bonus payment. </p>","","0","instructions","","","","","","","","","","","","","",""
"preload","75","981750","0.0-9.0-0.0","1922","1","2","""event"",""trial"",""time""
""fullscreenenter"",""1"",""381771""
""fullscreenexit"",""3"",""389123""
""blur"",""7"",""418564""
""focus"",""7"",""420983""
""blur"",""11"",""457175""
""focus"",""11"",""458032""
""blur"",""13"",""505836""
""focus"",""13"",""508249""
""blur"",""17"",""555167""
""focus"",""17"",""557129""
""blur"",""23"",""601334""
""focus"",""23"",""603599""
""blur"",""66"",""909773""
""focus"",""66"",""912093""
","""event"",""trial"",""time""
""blur"",""7"",""418564""
""blur"",""11"",""457175""
""blur"",""13"",""505836""
""blur"",""17"",""555167""
""blur"",""23"",""601334""
""blur"",""66"",""909773""
","""event"",""trial"",""time""
""focus"",""7"",""420983""
""focus"",""11"",""458032""
""focus"",""13"",""508249""
""focus"",""17"",""557129""
""focus"",""23"",""603599""
""focus"",""66"",""912093""
","""event"",""trial"",""time""
""fullscreenenter"",""1"",""381771""
","""event"",""trial"",""time""
""fullscreenexit"",""3"",""389123""
","true","false","[]","[]","[]","","","","","","","","","","","","","","","","","","",""
"learning-instructions","76","988953","0.0-9.0-1.0-0.0","1922","1","2","""event"",""trial"",""time""
""fullscreenenter"",""1"",""381771""
""fullscreenexit"",""3"",""389123""
""blur"",""7"",""418564""
""focus"",""7"",""420983""
""blur"",""11"",""457175""
""focus"",""11"",""458032""
""blur"",""13"",""505836""
""focus"",""13"",""508249""
""blur"",""17"",""555167""
""focus"",""17"",""557129""
""blur"",""23"",""601334""
""focus"",""23"",""603599""
""blur"",""66"",""909773""
""focus"",""66"",""912093""
","""event"",""trial"",""time""
""blur"",""7"",""418564""
""blur"",""11"",""457175""
""blur"",""13"",""505836""
""blur"",""17"",""555167""
""blur"",""23"",""601334""
""blur"",""66"",""909773""
","""event"",""trial"",""time""
""focus"",""7"",""420983""
""focus"",""11"",""458032""
""focus"",""13"",""508249""
""focus"",""17"",""557129""
""focus"",""23"",""603599""
""focus"",""66"",""912093""
","""event"",""trial"",""time""
""fullscreenenter"",""1"",""381771""
","""event"",""trial"",""time""
""fullscreenexit"",""3"",""389123""
","","","","","","745.1999999880791","<p> Your goal in this round is to feed all of your pets with the foods they like. </p><p> You will need to feed many pets. </p></div>","","0","instructions","","","","","","","","","","","","","",""
"learning-instructions","77","1001465","0.0-9.0-1.0-0.1","1922","1","2","""event"",""trial"",""time""
""fullscreenenter"",""1"",""381771""
""fullscreenexit"",""3"",""389123""
""blur"",""7"",""418564""
""focus"",""7"",""420983""
""blur"",""11"",""457175""
""focus"",""11"",""458032""
""blur"",""13"",""505836""
""focus"",""13"",""508249""
""blur"",""17"",""555167""
""focus"",""17"",""557129""
""blur"",""23"",""601334""
""focus"",""23"",""603599""
""blur"",""66"",""909773""
""focus"",""66"",""912093""
","""event"",""trial"",""time""
""blur"",""7"",""418564""
""blur"",""11"",""457175""
""blur"",""13"",""505836""
""blur"",""17"",""555167""
""blur"",""23"",""601334""
""blur"",""66"",""909773""
","""event"",""trial"",""time""
""focus"",""7"",""420983""
""focus"",""11"",""458032""
""focus"",""13"",""508249""
""focus"",""17"",""557129""
""focus"",""23"",""603599""
""focus"",""66"",""912093""
","""event"",""trial"",""time""
""fullscreenenter"",""1"",""381771""
","""event"",""trial"",""time""
""fullscreenexit"",""3"",""389123""
","","","","","","4516.899999976158","<p> On each turn, you will see a picture of one of your pets and three different types of foods.  </p><p> You need to select the food that you want to give to your pet.  </p>","","0","instructions","","","","","","","","","","","","","",""
"learning-instructions","78","1012343","0.0-9.0-1.0-0.2","1922","1","2","""event"",""trial"",""time""
""fullscreenenter"",""1"",""381771""
""fullscreenexit"",""3"",""389123""
""blur"",""7"",""418564""
""focus"",""7"",""420983""
""blur"",""11"",""457175""
""focus"",""11"",""458032""
""blur"",""13"",""505836""
""focus"",""13"",""508249""
""blur"",""17"",""555167""
""focus"",""17"",""557129""
""blur"",""23"",""601334""
""focus"",""23"",""603599""
""blur"",""66"",""909773""
""focus"",""66"",""912093""
","""event"",""trial"",""time""
""blur"",""7"",""418564""
""blur"",""11"",""457175""
""blur"",""13"",""505836""
""blur"",""17"",""555167""
""blur"",""23"",""601334""
""blur"",""66"",""909773""
","""event"",""trial"",""time""
""focus"",""7"",""420983""
""focus"",""11"",""458032""
""focus"",""13"",""508249""
""focus"",""17"",""557129""
""focus"",""23"",""603599""
""focus"",""66"",""912093""
","""event"",""trial"",""time""
""fullscreenenter"",""1"",""381771""
","""event"",""trial"",""time""
""fullscreenexit"",""3"",""389123""
","","","","","","4164.399999976158","<p> You can select the food on the left by pressing 1, the food in the middle by pressing 2, and the food on the right by pressing 3. </p><br><div class=""choice-instructions-grid""> <div class=""choice-option""><img src=""images/pets_choice1.png"" class=""choice-option-img"" stage=""instructions"" position=""0"" ><div class=""choice-option-text""> Press ""1."" </div></div><div class=""choice-option""><img src=""images/pets_choice2.png"" class=""choice-option-img"" stage=""instructions"" position=""1"" ><div class=""choice-option-text""> Press ""2."" </div></div><div class=""choice-option""><img src=""images/pets_choice3.png"" class=""choice-option-img"" stage=""instructions"" position=""2"" ><div class=""choice-option-text""> Press ""3."" </div></div></div>","","0","instructions","","","","","","","","","","","","","",""
"learning-instructions","79","1017739","0.0-9.0-1.0-0.3","1922","1","2","""event"",""trial"",""time""
""fullscreenenter"",""1"",""381771""
""fullscreenexit"",""3"",""389123""
""blur"",""7"",""418564""
""focus"",""7"",""420983""
""blur"",""11"",""457175""
""focus"",""11"",""458032""
""blur"",""13"",""505836""
""focus"",""13"",""508249""
""blur"",""17"",""555167""
""focus"",""17"",""557129""
""blur"",""23"",""601334""
""focus"",""23"",""603599""
""blur"",""66"",""909773""
""focus"",""66"",""912093""
","""event"",""trial"",""time""
""blur"",""7"",""418564""
""blur"",""11"",""457175""
""blur"",""13"",""505836""
""blur"",""17"",""555167""
""blur"",""23"",""601334""
""blur"",""66"",""909773""
","""event"",""trial"",""time""
""focus"",""7"",""420983""
""focus"",""11"",""458032""
""focus"",""13"",""508249""
""focus"",""17"",""557129""
""focus"",""23"",""603599""
""focus"",""66"",""912093""
","""event"",""trial"",""time""
""fullscreenenter"",""1"",""381771""
","""event"",""trial"",""time""
""fullscreenexit"",""3"",""389123""
","","","","","","1371.699999988079","<p> If your pet likes the food you chose, it will be very happy! </p><div style='float: center;'><img src='images/check.png' width = '200' height = '200'></img>","","0","instructions","","","","","","","","","","","","","",""
"learning-instructions","80","1023817","0.0-9.0-1.0-0.4","1922","1","2","""event"",""trial"",""time""
""fullscreenenter"",""1"",""381771""
""fullscreenexit"",""3"",""389123""
""blur"",""7"",""418564""
""focus"",""7"",""420983""
""blur"",""11"",""457175""
""focus"",""11"",""458032""
""blur"",""13"",""505836""
""focus"",""13"",""508249""
""blur"",""17"",""555167""
""focus"",""17"",""557129""
""blur"",""23"",""601334""
""focus"",""23"",""603599""
""blur"",""66"",""909773""
""focus"",""66"",""912093""
","""event"",""trial"",""time""
""blur"",""7"",""418564""
""blur"",""11"",""457175""
""blur"",""13"",""505836""
""blur"",""17"",""555167""
""blur"",""23"",""601334""
""blur"",""66"",""909773""
","""event"",""trial"",""time""
""focus"",""7"",""420983""
""focus"",""11"",""458032""
""focus"",""13"",""508249""
""focus"",""17"",""557129""
""focus"",""23"",""603599""
""focus"",""66"",""912093""
","""event"",""trial"",""time""
""fullscreenenter"",""1"",""381771""
","""event"",""trial"",""time""
""fullscreenexit"",""3"",""389123""
","","","","","","1648.699999988079","<p> But, if your pet does not like the food you chose, it will feel sick. </p><div style='float: center;'><img src='images/x.png' width = '200' height = '200'></img>","","0","instructions","","","","","","","","","","","","","",""
"learning-instructions","81","1033344","0.0-9.0-1.0-0.5","1922","1","2","""event"",""trial"",""time""
""fullscreenenter"",""1"",""381771""
""fullscreenexit"",""3"",""389123""
""blur"",""7"",""418564""
""focus"",""7"",""420983""
""blur"",""11"",""457175""
""focus"",""11"",""458032""
""blur"",""13"",""505836""
""focus"",""13"",""508249""
""blur"",""17"",""555167""
""focus"",""17"",""557129""
""blur"",""23"",""601334""
""focus"",""23"",""603599""
""blur"",""66"",""909773""
""focus"",""66"",""912093""
","""event"",""trial"",""time""
""blur"",""7"",""418564""
""blur"",""11"",""457175""
""blur"",""13"",""505836""
""blur"",""17"",""555167""
""blur"",""23"",""601334""
""blur"",""66"",""909773""
","""event"",""trial"",""time""
""focus"",""7"",""420983""
""focus"",""11"",""458032""
""focus"",""13"",""508249""
""focus"",""17"",""557129""
""focus"",""23"",""603599""
""focus"",""66"",""912093""
","""event"",""trial"",""time""
""fullscreenenter"",""1"",""381771""
","""event"",""trial"",""time""
""fullscreenexit"",""3"",""389123""
","","","","","","1866.699999988079","<p> Importantly, each pet has a food that it prefers. </p><p> If you choose the food that the pet prefers, it will be more likely to be happy! </p>","","0","instructions","","","","","","","","","","","","","",""
"learning-instructions","82","1046455","0.0-9.0-1.0-0.6","1922","1","2","""event"",""trial"",""time""
""fullscreenenter"",""1"",""381771""
""fullscreenexit"",""3"",""389123""
""blur"",""7"",""418564""
""focus"",""7"",""420983""
""blur"",""11"",""457175""
""focus"",""11"",""458032""
""blur"",""13"",""505836""
""focus"",""13"",""508249""
""blur"",""17"",""555167""
""focus"",""17"",""557129""
""blur"",""23"",""601334""
""focus"",""23"",""603599""
""blur"",""66"",""909773""
""focus"",""66"",""912093""
","""event"",""trial"",""time""
""blur"",""7"",""418564""
""blur"",""11"",""457175""
""blur"",""13"",""505836""
""blur"",""17"",""555167""
""blur"",""23"",""601334""
""blur"",""66"",""909773""
","""event"",""trial"",""time""
""focus"",""7"",""420983""
""focus"",""11"",""458032""
""focus"",""13"",""508249""
""focus"",""17"",""557129""
""focus"",""23"",""603599""
""focus"",""66"",""912093""
","""event"",""trial"",""time""
""fullscreenenter"",""1"",""381771""
","""event"",""trial"",""time""
""fullscreenexit"",""3"",""389123""
","","","","","","3477.5","<p> However, even if you choose the food the pet prefers, it may still feel sick sometimes. </p><p> Similarly, even if you choose the <i>wrong</i> food, it may still feel happy.","","0","instructions","","","","","","","","","","","","","",""
"learning-instructions","83","1060914","0.0-9.0-1.0-0.7","1922","1","2","""event"",""trial"",""time""
""fullscreenenter"",""1"",""381771""
""fullscreenexit"",""3"",""389123""
""blur"",""7"",""418564""
""focus"",""7"",""420983""
""blur"",""11"",""457175""
""focus"",""11"",""458032""
""blur"",""13"",""505836""
""focus"",""13"",""508249""
""blur"",""17"",""555167""
""focus"",""17"",""557129""
""blur"",""23"",""601334""
""focus"",""23"",""603599""
""blur"",""66"",""909773""
""focus"",""66"",""912093""
","""event"",""trial"",""time""
""blur"",""7"",""418564""
""blur"",""11"",""457175""
""blur"",""13"",""505836""
""blur"",""17"",""555167""
""blur"",""23"",""601334""
""blur"",""66"",""909773""
","""event"",""trial"",""time""
""focus"",""7"",""420983""
""focus"",""11"",""458032""
""focus"",""13"",""508249""
""focus"",""17"",""557129""
""focus"",""23"",""603599""
""focus"",""66"",""912093""
","""event"",""trial"",""time""
""fullscreenenter"",""1"",""381771""
","""event"",""trial"",""time""
""fullscreenexit"",""3"",""389123""
","","","","","","1646.3999999761581","<p> Try to choose the food each pet prefers, because you will <b> WIN </b> 1 point each time the pet is happy and <b>LOSE</b>  1 point each time the pet feels sick. </p><p> Your bonus payment will depend on your total number of points.","","0","instructions","","","","","","","","","","","","","",""
"learning-instructions","84","1072239","0.0-9.0-1.0-0.8","1922","1","2","""event"",""trial"",""time""
""fullscreenenter"",""1"",""381771""
""fullscreenexit"",""3"",""389123""
""blur"",""7"",""418564""
""focus"",""7"",""420983""
""blur"",""11"",""457175""
""focus"",""11"",""458032""
""blur"",""13"",""505836""
""focus"",""13"",""508249""
""blur"",""17"",""555167""
""focus"",""17"",""557129""
""blur"",""23"",""601334""
""focus"",""23"",""603599""
""blur"",""66"",""909773""
""focus"",""66"",""912093""
","""event"",""trial"",""time""
""blur"",""7"",""418564""
""blur"",""11"",""457175""
""blur"",""13"",""505836""
""blur"",""17"",""555167""
""blur"",""23"",""601334""
""blur"",""66"",""909773""
","""event"",""trial"",""time""
""focus"",""7"",""420983""
""focus"",""11"",""458032""
""focus"",""13"",""508249""
""focus"",""17"",""557129""
""focus"",""23"",""603599""
""focus"",""66"",""912093""
","""event"",""trial"",""time""
""fullscreenenter"",""1"",""381771""
","""event"",""trial"",""time""
""fullscreenexit"",""3"",""389123""
","","","","","","2692.099999964237","<p> The position of each food will change throughout the round. </p><p> The food's position <i> does not </i> influence how likely the pet is to feel happy or sick. </p>","","0","instructions","","","","","","","","","","","","","",""
"learning-instructions","85","1084798","0.0-9.0-1.0-0.9","1922","1","2","""event"",""trial"",""time""
""fullscreenenter"",""1"",""381771""
""fullscreenexit"",""3"",""389123""
""blur"",""7"",""418564""
""focus"",""7"",""420983""
""blur"",""11"",""457175""
""focus"",""11"",""458032""
""blur"",""13"",""505836""
""focus"",""13"",""508249""
""blur"",""17"",""555167""
""focus"",""17"",""557129""
""blur"",""23"",""601334""
""focus"",""23"",""603599""
""blur"",""66"",""909773""
""focus"",""66"",""912093""
","""event"",""trial"",""time""
""blur"",""7"",""418564""
""blur"",""11"",""457175""
""blur"",""13"",""505836""
""blur"",""17"",""555167""
""blur"",""23"",""601334""
""blur"",""66"",""909773""
","""event"",""trial"",""time""
""focus"",""7"",""420983""
""focus"",""11"",""458032""
""focus"",""13"",""508249""
""focus"",""17"",""557129""
""focus"",""23"",""603599""
""focus"",""66"",""912093""
","""event"",""trial"",""time""
""fullscreenenter"",""1"",""381771""
","""event"",""trial"",""time""
""fullscreenexit"",""3"",""389123""
","","","","","","3260.899999976158","<p> You will have 4 seconds to make each choice. Try to respond before time runs out! </p><p> You will lose 1 point each time you do not make a response. </p>","","0","instructions","","","","","","","","","","","","","",""
"html-keyboard-response","86","1085413","0.0-9.0-2.0-0.0","1922","1","2","""event"",""trial"",""time""
""fullscreenenter"",""1"",""381771""
""fullscreenexit"",""3"",""389123""
""blur"",""7"",""418564""
""focus"",""7"",""420983""
""blur"",""11"",""457175""
""focus"",""11"",""458032""
""blur"",""13"",""505836""
""focus"",""13"",""508249""
""blur"",""17"",""555167""
""focus"",""17"",""557129""
""blur"",""23"",""601334""
""focus"",""23"",""603599""
""blur"",""66"",""909773""
""focus"",""66"",""912093""
","""event"",""trial"",""time""
""blur"",""7"",""418564""
""blur"",""11"",""457175""
""blur"",""13"",""505836""
""blur"",""17"",""555167""
""blur"",""23"",""601334""
""blur"",""66"",""909773""
","""event"",""trial"",""time""
""focus"",""7"",""420983""
""focus"",""11"",""458032""
""focus"",""13"",""508249""
""focus"",""17"",""557129""
""focus"",""23"",""603599""
""focus"",""66"",""912093""
","""event"",""trial"",""time""
""fullscreenenter"",""1"",""381771""
","""event"",""trial"",""time""
""fullscreenexit"",""3"",""389123""
","","","","","","null","<div style=""font-size:60px;"">+</div>","null","","fixation","","","","","","","","","","","","","",""
"learning-trial","87","1089434","0.0-9.0-2.0-1.0","1922","1","2","""event"",""trial"",""time""
""fullscreenenter"",""1"",""381771""
""fullscreenexit"",""3"",""389123""
""blur"",""7"",""418564""
""focus"",""7"",""420983""
""blur"",""11"",""457175""
""focus"",""11"",""458032""
""blur"",""13"",""505836""
""focus"",""13"",""508249""
""blur"",""17"",""555167""
""focus"",""17"",""557129""
""blur"",""23"",""601334""
""focus"",""23"",""603599""
""blur"",""66"",""909773""
""focus"",""66"",""912093""
","""event"",""trial"",""time""
""blur"",""7"",""418564""
""blur"",""11"",""457175""
""blur"",""13"",""505836""
""blur"",""17"",""555167""
""blur"",""23"",""601334""
""blur"",""66"",""909773""
","""event"",""trial"",""time""
""focus"",""7"",""420983""
""focus"",""11"",""458032""
""focus"",""13"",""508249""
""focus"",""17"",""557129""
""focus"",""23"",""603599""
""focus"",""66"",""912093""
","""event"",""trial"",""time""
""fullscreenenter"",""1"",""381771""
","""event"",""trial"",""time""
""fullscreenexit"",""3"",""389123""
","","","","","","984.5","images/rabbit2.png","","","learning","images/pets_choice3.png","images/pets_choice1.png","images/pets_choice2.png","[2,0,1]","2","0","2","images/pets_choice1.png","-1","pets","","rabbit","1","0"
"html-keyboard-response","88","1089954","0.0-9.0-2.0-0.1","1922","1","2","""event"",""trial"",""time""
""fullscreenenter"",""1"",""381771""
""fullscreenexit"",""3"",""389123""
""blur"",""7"",""418564""
""focus"",""7"",""420983""
""blur"",""11"",""457175""
""focus"",""11"",""458032""
""blur"",""13"",""505836""
""focus"",""13"",""508249""
""blur"",""17"",""555167""
""focus"",""17"",""557129""
""blur"",""23"",""601334""
""focus"",""23"",""603599""
""blur"",""66"",""909773""
""focus"",""66"",""912093""
","""event"",""trial"",""time""
""blur"",""7"",""418564""
""blur"",""11"",""457175""
""blur"",""13"",""505836""
""blur"",""17"",""555167""
""blur"",""23"",""601334""
""blur"",""66"",""909773""
","""event"",""trial"",""time""
""focus"",""7"",""420983""
""focus"",""11"",""458032""
""focus"",""13"",""508249""
""focus"",""17"",""557129""
""focus"",""23"",""603599""
""focus"",""66"",""912093""
","""event"",""trial"",""time""
""fullscreenenter"",""1"",""381771""
","""event"",""trial"",""time""
""fullscreenexit"",""3"",""389123""
","","","","","","null","<div style=""font-size:60px;"">+</div>","null","","fixation","","","","","","","","","","","","","",""
"learning-trial","89","1093963","0.0-9.0-2.0-1.1","1922","1","2","""event"",""trial"",""time""
""fullscreenenter"",""1"",""381771""
""fullscreenexit"",""3"",""389123""
""blur"",""7"",""418564""
""focus"",""7"",""420983""
""blur"",""11"",""457175""
""focus"",""11"",""458032""
""blur"",""13"",""505836""
""focus"",""13"",""508249""
""blur"",""17"",""555167""
""focus"",""17"",""557129""
""blur"",""23"",""601334""
""focus"",""23"",""603599""
""blur"",""66"",""909773""
""focus"",""66"",""912093""
","""event"",""trial"",""time""
""blur"",""7"",""418564""
""blur"",""11"",""457175""
""blur"",""13"",""505836""
""blur"",""17"",""555167""
""blur"",""23"",""601334""
""blur"",""66"",""909773""
","""event"",""trial"",""time""
""focus"",""7"",""420983""
""focus"",""11"",""458032""
""focus"",""13"",""508249""
""focus"",""17"",""557129""
""focus"",""23"",""603599""
""focus"",""66"",""912093""
","""event"",""trial"",""time""
""fullscreenenter"",""1"",""381771""
","""event"",""trial"",""time""
""fullscreenexit"",""3"",""389123""
