"trial_type","trial_index","time_elapsed","internal_node_id","subject_id","condition","task_version","interactions","blur_events","focus_events","fullscreenenter_events","fullscreenexit_events","success","timeout","failed_images","failed_audio","failed_video","rt","stimulus","response","button_pressed","task_part","left_choice","middle_choice","right_choice","choice_positions","correct_response","correct_position","key_press","option_selected","points","task_block","correct","stim_cat","block_condition","block_number"
"pavlovia","0","5","0.0-0.0","1586","2","2","""event"",""trial"",""time""
""fullscreenenter"",""1"",""3235""
","
","
","""event"",""trial"",""time""
""fullscreenenter"",""1"",""3235""
","
","","","","","","","","","","","","","","","","","","","","","","","",""
"fullscreen","1","4196","0.0-1.0","1586","2","2","""event"",""trial"",""time""
""fullscreenenter"",""1"",""3235""
","
","
","""event"",""trial"",""time""
""fullscreenenter"",""1"",""3235""
","
","true","","","","","","","","","","","","","","","","","","","","","","",""
"preload","2","7198","0.0-2.0","1586","2","2","""event"",""trial"",""time""
""fullscreenenter"",""1"",""3235""
","
","
","""event"",""trial"",""time""
""fullscreenenter"",""1"",""3235""
","
","true","false","[]","[]","[]","","","","","","","","","","","","","","","","","","",""
"audio-keyboard-response","3","12333","0.0-3.0","1586","2","2","""event"",""trial"",""time""
""fullscreenenter"",""1"",""3235""
","
","
","""event"",""trial"",""time""
""fullscreenenter"",""1"",""3235""
","
","","","","","","5136.000000000001","audio/beep_loop.wav"," ","","","","","","","","","","","","","","","",""
"audio-button-response","4","16906","0.0-4.0","1586","2","2","""event"",""trial"",""time""
""fullscreenenter"",""1"",""3235""
","
","
","""event"",""trial"",""time""
""fullscreenenter"",""1"",""3235""
","
","","","","","","4571","audio/shark.wav","4","","","","","","","","","","","","","","","",""
"audio-button-response","5","19551","0.0-5.0","1586","2","2","""event"",""trial"",""time""
""fullscreenenter"",""1"",""3235""
","
","
","""event"",""trial"",""time""
""fullscreenenter"",""1"",""3235""
","
","","","","","","1637","audio/turtle.wav","1","","","","","","","","","","","","","","","",""
"preload","6","23073","0.0-6.0","1586","2","2","""event"",""trial"",""time""
""fullscreenenter"",""1"",""3235""
","
","
","""event"",""trial"",""time""
""fullscreenenter"",""1"",""3235""
","
","true","false","[]","[]","[]","","","","","","","","","","","","","","","","","","",""
"html-keyboard-response","7","26753","0.0-7.0","1586","2","2","""event"",""trial"",""time""
""fullscreenenter"",""1"",""3235""
","
","
","""event"",""trial"",""time""
""fullscreenenter"",""1"",""3235""
","
","","","","","","3678.899999976158","Welcome to the experiment. Press any key to begin and to advance the instructions."," ","","","","","","","","","","","","","","","",""
"learning-instructions","8","36550","0.0-8.0-0.0-0.0","1586","2","2","""event"",""trial"",""time""
""fullscreenenter"",""1"",""3235""
","
","
","""event"",""trial"",""time""
""fullscreenenter"",""1"",""3235""
","
","","","","","","2045.9000000059605","<p> Welcome! Today you are going to play 6 different rounds of a decision-making game. </p><p> Use the mouse to click next to continue. </p>","","0","instructions","","","","","","","","","","","","","",""
"learning-instructions","9","45612","0.0-8.0-0.0-0.1","1586","2","2","""event"",""trial"",""time""
""fullscreenenter"",""1"",""3235""
","
","
","""event"",""trial"",""time""
""fullscreenenter"",""1"",""3235""
","
","","","","","","6058.699999988079","<p> You will start with a practice round to learn the rules. </p>","","0","instructions","","","","","","","","","","","","","",""
"learning-instructions","10","54443","0.0-8.0-0.0-0.2","1586","2","2","""event"",""trial"",""time""
""fullscreenenter"",""1"",""3235""
","
","
","""event"",""trial"",""time""
""fullscreenenter"",""1"",""3235""
","
","","","","","","1092.5","<p> Your goal in this round is to deliver sports equipment to three different parks. </p><p> You will need to deliver many types of equipment. </p></div>","","0","instructions","","","","","","","","","","","","","",""
"learning-instructions","11","64342","0.0-8.0-0.0-0.3","1586","2","2","""event"",""trial"",""time""
""fullscreenenter"",""1"",""3235""
","
","
","""event"",""trial"",""time""
""fullscreenenter"",""1"",""3235""
","
","","","","","","1418.800000011921","<p> On each turn, you will see one piece of sports equipment and three different parks.  </p><p> You need to select which park to deliver the equipment to.  </p>","","0","instructions","","","","","","","","","","","","","",""
"learning-instructions","12","79088","0.0-8.0-0.0-0.4","1586","2","2","""event"",""trial"",""time""
""fullscreenenter"",""1"",""3235""
","
","
","""event"",""trial"",""time""
""fullscreenenter"",""1"",""3235""
","
","","","","","","1460.7999999821186","<p> You can select the park on the left by pressing the '1' key on your keyboard. <br>You can select the park in the middle by pressing the '2' key on your keyboard. <br>You can select the park on the right by pressing the '3' key on your keyboard.  </p><br><div class=""choice-instructions-grid""> <div class=""choice-option""><img src=""images/park1.png"" class=""choice-option-img"" stage=""instructions"" position=""0"" ><div class=""choice-option-text""> Press ""1."" </div></div><div class=""choice-option""><img src=""images/park2.png"" class=""choice-option-img"" stage=""instructions"" position=""1"" ><div class=""choice-option-text""> Press ""2."" </div></div><div class=""choice-option""><img src=""images/park3.png"" class=""choice-option-img"" stage=""instructions"" position=""2"" ><div class=""choice-option-text""> Press ""3."" </div></div></div>","","0","instructions","","","","","","","","","","","","","",""
"learning-instructions","13","86288","0.0-8.0-0.0-0.5","1586","2","2","""event"",""trial"",""time""
""fullscreenenter"",""1"",""3235""
","
","
","""event"",""trial"",""time""
""fullscreenenter"",""1"",""3235""
","
","","","","","","1818.0999999940395","<p> If the kids in the park you chose like the equipment, they will be very happy! </p><div style='float: center;'><img src='images/check.png' width = '200' height = '200'></img>","","0","instructions","","","","","","","","","","","","","",""
"learning-instructions","14","92917","0.0-8.0-0.0-0.6","1586","2","2","""event"",""trial"",""time""
""fullscreenenter"",""1"",""3235""
","
","
","""event"",""trial"",""time""
""fullscreenenter"",""1"",""3235""
","
","","","","","","1039.5","<p> But, if the kids in the park you chose do not like the equipment, they will be sad. </p><div style='float: center;'><img src='images/x.png' width = '200' height = '200'></img>","","0","instructions","","","","","","","","","","","","","",""
"learning-instructions","15","100247","0.0-8.0-0.0-0.7","1586","2","2","""event"",""trial"",""time""
""fullscreenenter"",""1"",""3235""
","
","
","""event"",""trial"",""time""
""fullscreenenter"",""1"",""3235""
","
","","","","","","899","<p> Importantly, the kids in each park like some pieces of sports equipment more than others. </p>","","0","instructions","","","","","","","","","","","","","",""
"learning-instructions","16","107800","0.0-8.0-0.0-0.8","1586","2","2","""event"",""trial"",""time""
""fullscreenenter"",""1"",""3235""
","
","
","""event"",""trial"",""time""
""fullscreenenter"",""1"",""3235""
","
","","","","","","1502.5","<p> If you choose the best park for each piece of equipment, the kids there will usually be happy. </p>","","0","instructions","","","","","","","","","","","","","",""
"learning-instructions","17","115525","0.0-8.0-0.0-0.9","1586","2","2","""event"",""trial"",""time""
""fullscreenenter"",""1"",""3235""
","
","
","""event"",""trial"",""time""
""fullscreenenter"",""1"",""3235""
","
","","","","","","1084.199999988079","<p> However, even if you choose the best park for the equipment, the kids may sometimes be sad. </p>","","0","instructions","","","","","","","","","","","","","",""
"learning-instructions","18","124647","0.0-8.0-0.0-0.10","1586","2","2","""event"",""trial"",""time""
""fullscreenenter"",""1"",""3235""
","
","
","""event"",""trial"",""time""
""fullscreenenter"",""1"",""3235""
","
","","","","","","1896.5","<p> Similarly, even if you choose the <i>wrong</i> park for the equipment, the kids may still be happy sometimes.","","0","instructions","","","","","","","","","","","","","",""
"learning-instructions","19","130907","0.0-8.0-0.0-0.11","1586","2","2","""event"",""trial"",""time""
""fullscreenenter"",""1"",""3235""
","
","
","""event"",""trial"",""time""
""fullscreenenter"",""1"",""3235""
","
","","","","","","1206.9000000059605","<p> For example, the best park for this soccer ball is this one.<div style='float: center;'><img src='images/i1.png' width = '500' height = '268'></img>","","0","instructions","","","","","","","","","","","","","",""
"learning-instructions","20","137711","0.0-8.0-0.0-0.12","1586","2","2","""event"",""trial"",""time""
""fullscreenenter"",""1"",""3235""
","
","
","""event"",""trial"",""time""
""fullscreenenter"",""1"",""3235""
","
","","","","","","1516.4000000059605","<p> Let's see what happens if you choose this park for the soccer ball five times.","","0","instructions","","","","","","","","","","","","","",""
"learning-instructions","21","141364","0.0-8.0-0.0-0.13","1586","2","2","""event"",""trial"",""time""
""fullscreenenter"",""1"",""3235""
","
","
","""event"",""trial"",""time""
""fullscreenenter"",""1"",""3235""
","
","","","","","","1483.5","<p> The kids are happy.<div style='float: left;'><img src='images/i2.png' width = '640' height = '360'></img>","","0","instructions","","","","","","","","","","","","","",""
"learning-instructions","22","144149","0.0-8.0-0.0-0.14","1586","2","2","""event"",""trial"",""time""
""fullscreenenter"",""1"",""3235""
","
","
","""event"",""trial"",""time""
""fullscreenenter"",""1"",""3235""
","
","","","","","","615.5","<p> The kids are happy.<div style='float: left;'><img src='images/i3.png' width = '640' height = '360'></img>","","0","instructions","","","","","","","","","","","","","",""
"learning-instructions","23","147056","0.0-8.0-0.0-0.15","1586","2","2","""event"",""trial"",""time""
""fullscreenenter"",""1"",""3235""
","
","
","""event"",""trial"",""time""
""fullscreenenter"",""1"",""3235""
","
","","","","","","738.6999999880791","<p> The kids are happy.<div style='float: left;'><img src='images/i4.png' width = '640' height = '360'></img>","","0","instructions","","","","","","","","","","","","","",""
"learning-instructions","24","151881","0.0-8.0-0.0-0.16","1586","2","2","""event"",""trial"",""time""
""fullscreenenter"",""1"",""3235""
","
","
","""event"",""trial"",""time""
""fullscreenenter"",""1"",""3235""
","
","","","","","","2620","<p> The kids are sad.<div style='float: left;'><img src='images/i5.png' width = '640' height = '360'></img>","","0","instructions","","","","","","","","","","","","","",""
"learning-instructions","25","155780","0.0-8.0-0.0-0.17","1586","2","2","""event"",""trial"",""time""
""fullscreenenter"",""1"",""3235""
","
","
","""event"",""trial"",""time""
""fullscreenenter"",""1"",""3235""
","
","","","","","","1729.5999999940395","<p> The kids are happy.<div style='float: left;'><img src='images/i6.png' width = '640' height = '360'></img>","","0","instructions","","","","","","","","","","","","","",""
"learning-instructions","26","165117","0.0-8.0-0.0-0.18","1586","2","2","""event"",""trial"",""time""
""fullscreenenter"",""1"",""3235""
","
","
","""event"",""trial"",""time""
""fullscreenenter"",""1"",""3235""
","
","","","","","","2069.4000000059605","<p> As you can see, selecting that park for the soccer ball made the kids happy most of the time, but not all the time.","","0","instructions","","","","","","","","","","","","","",""
"learning-instructions","27","172705","0.0-8.0-0.0-0.19","1586","2","2","""event"",""trial"",""time""
""fullscreenenter"",""1"",""3235""
","
","
","""event"",""trial"",""time""
""fullscreenenter"",""1"",""3235""
","
","","","","","","1583.800000011921","<p> Now let's see what happens if you choose a DIFFERENT park for the soccer ball 5 times.","","0","instructions","","","","","","","","","","","","","",""
"learning-instructions","28","175829","0.0-8.0-0.0-0.20","1586","2","2","""event"",""trial"",""time""
""fullscreenenter"",""1"",""3235""
","
","
","""event"",""trial"",""time""
""fullscreenenter"",""1"",""3235""
","
","","","","","","921.1000000238419","<p> The kids are sad.<div style='float: left;'><img src='images/i7.png' width = '640' height = '360'></img>","","0","instructions","","","","","","","","","","","","","",""
"learning-instructions","29","178662","0.0-8.0-0.0-0.21","1586","2","2","""event"",""trial"",""time""
""fullscreenenter"",""1"",""3235""
","
","
","""event"",""trial"",""time""
""fullscreenenter"",""1"",""3235""
","
","","","","","","628.1999999880791","<p> The kids are sad.<div style='float: left;'><img src='images/i8.png' width = '640' height = '360'></img>","","0","instructions","","","","","","","","","","","","","",""
"learning-instructions","30","181891","0.0-8.0-0.0-0.22","1586","2","2","""event"",""trial"",""time""
""fullscreenenter"",""1"",""3235""
","
","
","""event"",""trial"",""time""
""fullscreenenter"",""1"",""3235""
","
","","","","","","1063.199999988079","<p> The kids are happy.<div style='float: left;'><img src='images/i9.png' width = '640' height = '360'></img>","","0","instructions","","","","","","","","","","","","","",""
"learning-instructions","31","184927","0.0-8.0-0.0-0.23","1586","2","2","""event"",""trial"",""time""
""fullscreenenter"",""1"",""3235""
","
","
","""event"",""trial"",""time""
""fullscreenenter"",""1"",""3235""
","
","","","","","","829.8999999761581","<p> The kids are sad.<div style='float: left;'><img src='images/i10.png' width = '640' height = '360'></img>","","0","instructions","","","","","","","","","","","","","",""
"learning-instructions","32","187876","0.0-8.0-0.0-0.24","1586","2","2","""event"",""trial"",""time""
""fullscreenenter"",""1"",""3235""
","
","
","""event"",""trial"",""time""
""fullscreenenter"",""1"",""3235""
","
","","","","","","744.4000000059605","<p> The kids are sad.<div style='float: left;'><img src='images/i11.png' width = '640' height = '360'></img>","","0","instructions","","","","","","","","","","","","","",""
"learning-instructions","33","198460","0.0-8.0-0.0-0.25","1586","2","2","""event"",""trial"",""time""
""fullscreenenter"",""1"",""3235""
","
","
","""event"",""trial"",""time""
""fullscreenenter"",""1"",""3235""
","
","","","","","","2464.7999999821186","<p> As you can see, selecting the wrong park for the soccer ball made the kids sad most of the time, but not all the time.","","0","instructions","","","","","","","","","","","","","",""
"learning-instructions","34","208158","0.0-8.0-0.0-0.26","1586","2","2","""event"",""trial"",""time""
""fullscreenenter"",""1"",""3235""
","
","
","""event"",""trial"",""time""
""fullscreenenter"",""1"",""3235""
","
","","","","","","584.4000000059605","<p> The different pieces of equipment belong in different parks. You need to try to learn which is the best park for each piece of equipment.","","0","instructions","","","","","","","","","","","","","",""
"learning-instructions","35","226230","0.0-8.0-0.0-0.27","1586","2","2","""event"",""trial"",""time""
""fullscreenenter"",""1"",""3235""
","
","
","""event"",""trial"",""time""
""fullscreenenter"",""1"",""3235""
","
","","","","","","1686.300000011921","<p> Try to choose the best park for each piece of equipment, because you will <b> WIN </b> 1 point for each time you make the kids happy and <b>LOSE</b> 1 point for each time you make them sad. </p><p> Remember, if you make the best choice, you will win 1 point most of the time, but not all the time. </p>","","0","instructions","","","","","","","","","","","","","",""
"learning-instructions","36","234149","0.0-8.0-0.0-0.28","1586","2","2","""event"",""trial"",""time""
""fullscreenenter"",""1"",""3235""
","
","
","""event"",""trial"",""time""
""fullscreenenter"",""1"",""3235""
","
","","","","","","2437.5","<p> This is just a practice round, but in the real game, your bonus payment will depend on your total number of points.","","0","instructions","","","","","","","","","","","","","",""
"learning-instructions","37","249785","0.0-8.0-0.0-0.29","1586","2","2","""event"",""trial"",""time""
""fullscreenenter"",""1"",""3235""
","
","
","""event"",""trial"",""time""
""fullscreenenter"",""1"",""3235""
","
","","","","","","5316.5999999940395","<p> The position where each park appears will change throughout the game. </p><p> The position where the park appears <i> does not </i> influence how likely the kids are to be happy or sad. </p>","","0","instructions","","","","","","","","","","","","","",""
"learning-instructions","38","261856","0.0-8.0-0.0-0.30","1586","2","2","""event"",""trial"",""time""
""fullscreenenter"",""1"",""3235""
","
","
","""event"",""trial"",""time""
""fullscreenenter"",""1"",""3235""
","
","","","","","","1526.9000000059605","<p> You will have 4 seconds to make each choice. Try to respond before time runs out! </p><p> You will lose 1 point each time you do not make a response. </p>","","0","instructions","","","","","","","","","","","","","",""
"learning-instructions","39","270395","0.0-8.0-0.0-0.31","1586","2","2","""event"",""trial"",""time""
""fullscreenenter"",""1"",""3235""
","
","
","""event"",""trial"",""time""
""fullscreenenter"",""1"",""3235""
","
","","","","","","1750.5999999940395","<p> Remember, you should use the 1, 2, and 3 keys to select the park for each piece of equipment. </p><br><div class=""choice-instructions-grid""> <div class=""choice-option""><img src=""images/park1.png"" class=""choice-option-img"" stage=""instructions"" position=""0"" ><div class=""choice-option-text""> Press ""1."" </div></div><div class=""choice-option""><img src=""images/park2.png"" class=""choice-option-img"" stage=""instructions"" position=""1"" ><div class=""choice-option-text""> Press ""2."" </div></div><div class=""choice-option""><img src=""images/park3.png"" class=""choice-option-img"" stage=""instructions"" position=""2"" ><div class=""choice-option-text""> Press ""3."" </div></div></div>","","0","instructions","","","","","","","","","","","","","",""
"html-button-response","40","272219","0.0-8.0-1.0","1586","2","2","""event"",""trial"",""time""
""fullscreenenter"",""1"",""3235""
","
","
","""event"",""trial"",""time""
""fullscreenenter"",""1"",""3235""
","
","","","","","","1718.6000000238419","<p> Ready to practice? </p>","0","","","","","","","","","","","","","","","",""
"html-keyboard-response","41","272825","0.0-8.0-2.0-0.0","1586","2","2","""event"",""trial"",""time""
""fullscreenenter"",""1"",""3235""
","
","
","""event"",""trial"",""time""
""fullscreenenter"",""1"",""3235""
","
","","","","","","null","<div style=""font-size:60px;"">+</div>","null","","fixation","","","","","","","","","","","","","",""
"learning-trial","42","276830","0.0-8.0-2.0-1.0","1586","2","2","""event"",""trial"",""time""
""fullscreenenter"",""1"",""3235""
","
","
","""event"",""trial"",""time""
""fullscreenenter"",""1"",""3235""
","
","","","","","","3220.9000000059605","images/ball4.png","","","practice","images/park3.png","images/park1.png","images/park2.png","[2,0,1]","0","1","2","images/park1.png","1","practice","","","",""
"html-keyboard-response","43","277334","0.0-8.0-2.0-0.1","1586","2","2","""event"",""trial"",""time""
""fullscreenenter"",""1"",""3235""
","
","
","""event"",""trial"",""time""
""fullscreenenter"",""1"",""3235""
","
","","","","","","null","<div style=""font-size:60px;"">+</div>","null","","fixation","","","","","","","","","","","","","",""
"learning-trial","44","281343","0.0-8.0-2.0-1.1","1586","2","2","""event"",""trial"",""time""
""fullscreenenter"",""1"",""3235""
","
","
","""event"",""trial"",""time""
""fullscreenenter"",""1"",""3235""
","
","","","","","","null","images/racket2.png","","","practice","images/park2.png","images/park3.png","images/park1.png","[1,2,0]","0","2","null","null","-1","practice","","","",""
"html-keyboard-response","45","281846","0.0-8.0-2.0-0.2","1586","2","2","""event"",""trial"",""time""
""fullscreenenter"",""1"",""3235""
","
","
","""event"",""trial"",""time""
""fullscreenenter"",""1"",""3235""
","
","","","","","","null","<div style=""font-size:60px;"">+</div>","null","","fixation","","","","","","","","","","","","","",""
"learning-trial","46","285852","0.0-8.0-2.0-1.2","1586","2","2","""event"",""trial"",""time""
""fullscreenenter"",""1"",""3235""
","
","
","""event"",""trial"",""time""
""fullscreenenter"",""1"",""3235""
","
","","","","","","2370.5","images/racket1.png","","","practice","images/park2.png","images/park3.png","images/park1.png","[1,2,0]","1","0","3","images/park1.png","1","practice","","","",""
"html-keyboard-response","47","286355","0.0-8.0-2.0-0.3","1586","2","2","""event"",""trial"",""time""
""fullscreenenter"",""1"",""3235""
","
","
","""event"",""trial"",""time""
""fullscreenenter"",""1"",""3235""
","
","","","","","","null","<div style=""font-size:60px;"">+</div>","null","","fixation","","","","","","","","","","","","","",""
"learning-trial","48","290363","0.0-8.0-2.0-1.3","1586","2","2","""event"",""trial"",""time""
""fullscreenenter"",""1"",""3235""
","
","
","""event"",""trial"",""time""
""fullscreenenter"",""1"",""3235""
","
","","","","","","2750.2000000178814","images/racket3.png","","","practice","images/park3.png","images/park1.png","images/park2.png","[2,0,1]","2","0","3","images/park2.png","-1","practice","","","",""
"html-keyboard-response","49","290867","0.0-8.0-2.0-0.4","1586","2","2","""event"",""trial"",""time""
""fullscreenenter"",""1"",""3235""
","
","
","""event"",""trial"",""time""
""fullscreenenter"",""1"",""3235""
","
","","","","","","null","<div style=""font-size:60px;"">+</div>","null","","fixation","","","","","","","","","","","","","",""
"learning-trial","50","294872","0.0-8.0-2.0-1.4","1586","2","2","""event"",""trial"",""time""
""fullscreenenter"",""1"",""3235""
","
","
","""event"",""trial"",""time""
""fullscreenenter"",""1"",""3235""
","
","","","","","","2145.4000000059605","images/racket3.png","","","practice","images/park2.png","images/park3.png","images/park1.png","[1,2,0]","2","1","3","images/park1.png","1","practice","","","",""
"html-keyboard-response","51","295378","0.0-8.0-2.0-0.5","1586","2","2","""event"",""trial"",""time""
""fullscreenenter"",""1"",""3235""
","
","
","""event"",""trial"",""time""
""fullscreenenter"",""1"",""3235""
","
","","","","","","null","<div style=""font-size:60px;"">+</div>","null","","fixation","","","","","","","","","","","","","",""
"learning-trial","52","299384","0.0-8.0-2.0-1.5","1586","2","2","""event"",""trial"",""time""
""fullscreenenter"",""1"",""3235""
","
","
","""event"",""trial"",""time""
""fullscreenenter"",""1"",""3235""
","
","","","","","","1645.9000000059605","images/ball4.png","","","practice","images/park1.png","images/park2.png","images/park3.png","[0,1,2]","0","0","2","images/park2.png","1","practice","","","",""
"html-keyboard-response","53","299889","0.0-8.0-2.0-0.6","1586","2","2","""event"",""trial"",""time""
""fullscreenenter"",""1"",""3235""
","
","
","""event"",""trial"",""time""
""fullscreenenter"",""1"",""3235""
","
","","","","","","null","<div style=""font-size:60px;"">+</div>","null","","fixation","","","","","","","","","","","","","",""
"learning-trial","54","303896","0.0-8.0-2.0-1.6","1586","2","2","""event"",""trial"",""time""
""fullscreenenter"",""1"",""3235""
","
","
","""event"",""trial"",""time""
""fullscreenenter"",""1"",""3235""
","
","","","","","","1307","images/racket4.png","","","practice","images/park1.png","images/park2.png","images/park3.png","[0,1,2]","1","1","1","images/park1.png","-1","practice","","","",""
"html-keyboard-response","55","304397","0.0-8.0-2.0-0.7","1586","2","2","""event"",""trial"",""time""
""fullscreenenter"",""1"",""3235""
","
","
","""event"",""trial"",""time""
""fullscreenenter"",""1"",""3235""
","
","","","","","","null","<div style=""font-size:60px;"">+</div>","null","","fixation","","","","","","","","","","","","","",""
"learning-trial","56","308403","0.0-8.0-2.0-1.7","1586","2","2","""event"",""trial"",""time""
""fullscreenenter"",""1"",""3235""
","
","
","""event"",""trial"",""time""
""fullscreenenter"",""1"",""3235""
","
","","","","","","1964.5","images/racket4.png","","","practice","images/park3.png","images/park2.png","images/park1.png","[2,1,0]","1","1","3","images/park1.png","-1","practice","","","",""
"html-keyboard-response","57","308909","0.0-8.0-2.0-0.8","1586","2","2","""event"",""trial"",""time""
""fullscreenenter"",""1"",""3235""
","
","
","""event"",""trial"",""time""
""fullscreenenter"",""1"",""3235""
","
","","","","","","null","<div style=""font-size:60px;"">+</div>","null","","fixation","","","","","","","","","","","","","",""
"learning-trial","58","312915","0.0-8.0-2.0-1.8","1586","2","2","""event"",""trial"",""time""
""fullscreenenter"",""1"",""3235""
","
","
","""event"",""trial"",""time""
""fullscreenenter"",""1"",""3235""
","
","","","","","","2287.2000000178814","images/ball2.png","","","practice","images/park1.png","images/park2.png","images/park3.png","[0,1,2]","2","2","1","images/park1.png","-1","practice","","","",""
"html-keyboard-response","59","313417","0.0-8.0-2.0-0.9","1586","2","2","""event"",""trial"",""time""
""fullscreenenter"",""1"",""3235""
","
","
","""event"",""trial"",""time""
""fullscreenenter"",""1"",""3235""
","
","","","","","","null","<div style=""font-size:60px;"">+</div>","null","","fixation","","","","","","","","","","","","","",""
"learning-trial","60","317421","0.0-8.0-2.0-1.9","1586","2","2","""event"",""trial"",""time""
""fullscreenenter"",""1"",""3235""
","
","
","""event"",""trial"",""time""
""fullscreenenter"",""1"",""3235""
","
","","","","","","2892.5999999940395","images/racket2.png","","","practice","images/park2.png","images/park1.png","images/park3.png","[1,0,2]","0","1","1","images/park2.png","-1","practice","","","",""
"html-keyboard-response","61","317927","0.0-8.0-2.0-0.10","1586","2","2","""event"",""trial"",""time""
""fullscreenenter"",""1"",""3235""
","
","
","""event"",""trial"",""time""
""fullscreenenter"",""1"",""3235""
","
","","","","","","null","<div style=""font-size:60px;"">+</div>","null","","fixation","","","","","","","","","","","","","",""
"learning-trial","62","321933","0.0-8.0-2.0-1.10","1586","2","2","""event"",""trial"",""time""
""fullscreenenter"",""1"",""3235""
","
","
","""event"",""trial"",""time""
""fullscreenenter"",""1"",""3235""
","
","","","","","","1879.3999999761581","images/racket1.png","","","practice","images/park2.png","images/park3.png","images/park1.png","[1,2,0]","1","0","3","images/park1.png","-1","practice","","","",""
"html-keyboard-response","63","322434","0.0-8.0-2.0-0.11","1586","2","2","""event"",""trial"",""time""
""fullscreenenter"",""1"",""3235""
","
","
","""event"",""trial"",""time""
""fullscreenenter"",""1"",""3235""
","
","","","","","","null","<div style=""font-size:60px;"">+</div>","null","","fixation","","","","","","","","","","","","","",""
"learning-trial","64","326440","0.0-8.0-2.0-1.11","1586","2","2","""event"",""trial"",""time""
""fullscreenenter"",""1"",""3235""
","
","
","""event"",""trial"",""time""
""fullscreenenter"",""1"",""3235""
","
","","","","","","1643.699999988079","images/ball2.png","","","practice","images/park3.png","images/park1.png","images/park2.png","[2,0,1]","2","0","2","images/park1.png","-1","practice","","","",""
"html-button-response","65","328347","0.0-8.0-3.0","1586","2","2","""event"",""trial"",""time""
""fullscreenenter"",""1"",""3235""
","
","
","""event"",""trial"",""time""
""fullscreenenter"",""1"",""3235""
","
","","","","","","1903.5","<p> You earned -4 points in the practice round! </p>","0","","break","","","","","","","","","","","","","",""
"learning-instructions","66","337900","0.0-8.0-4.0-0.0","1586","2","2","""event"",""trial"",""time""
""fullscreenenter"",""1"",""3235""
","
","
","""event"",""trial"",""time""
""fullscreenenter"",""1"",""3235""
","
","","","","","","1852.4000000059605","<p> It's almost time to start the real game. </p><p> Before you start, we're going to ask you a few questions about how the game works. </p>","","0","instructions","","","","","","","","","","","","","",""
"preload","67","339425","0.0-8.0-5.0","1586","2","2","""event"",""trial"",""time""
""fullscreenenter"",""1"",""3235""
","
","
","""event"",""trial"",""time""
""fullscreenenter"",""1"",""3235""
","
","true","false","[]","[]","[]","","","","","","","","","","","","","","","","","","",""
"comp-q","68","345889","0.0-8.0-6.0-0.0","1586","2","2","""event"",""trial"",""time""
""fullscreenenter"",""1"",""3235""
","
","
","""event"",""trial"",""time""
""fullscreenenter"",""1"",""3235""
","
","","","","","","1015.3000000119209","<p> <b> True or False? </b> </p><p> If you choose the best option, you will always earn 1 point. </p>","","0","comp_question","","","","","","","","","","","false","","",""
"comp-q","69","352985","0.0-8.0-6.0-1.0","1586","2","2","""event"",""trial"",""time""
""fullscreenenter"",""1"",""3235""
","
","
","""event"",""trial"",""time""
""fullscreenenter"",""1"",""3235""
","
","","","","","","1541.5","<p><b> Incorrect. </b> Sometimes you will lose 1 point, even if you choose the best option. </p>","","0","comp_answer","","","","","","","","","","","","","",""
"comp-q","70","358414","0.0-8.0-6.0-0.1","1586","2","2","""event"",""trial"",""time""
""fullscreenenter"",""1"",""3235""
","
","
","""event"",""trial"",""time""
""fullscreenenter"",""1"",""3235""
","
","","","","","","800.3000000119209","<p> <b> True or False? </b> </p><p> You will have as much time as you want to make each choice. </p>","","1","comp_question","","","","","","","","","","","true","","",""
"comp-q","71","365258","0.0-8.0-6.0-1.1","1586","2","2","""event"",""trial"",""time""
""fullscreenenter"",""1"",""3235""
","
","
","""event"",""trial"",""time""
""fullscreenenter"",""1"",""3235""
","
","","","","","","2028","<p> <b> That's right! </b> You will only have 4 seconds to make each choice. </p>","","0","comp_answer","","","","","","","","","","","","","",""
"comp-q","72","372393","0.0-8.0-6.0-0.2","1586","2","2","""event"",""trial"",""time""
""fullscreenenter"",""1"",""3235""
","
","
","""event"",""trial"",""time""
""fullscreenenter"",""1"",""3235""
","
","","","","","","982.0999999940395","<p> <b> True or False? </b> </p><p> You should use the '1', '2', and '3' keys to make your choices. </p>","","0","comp_question","","","","","","","","","","","true","","",""
"comp-q","73","381653","0.0-8.0-6.0-1.2","1586","2","2","""event"",""trial"",""time""
""fullscreenenter"",""1"",""3235""
","
","
","""event"",""trial"",""time""
""fullscreenenter"",""1"",""3235""
","
","","","","","","4412.5","<p> <b> That's right! </b> You should use the '1', '2', and '3' keys to make each choice. </p>","","0","comp_answer","","","","","","","","","","","","","",""
"learning-instructions","74","395540","0.0-8.0-7.0-0.0","1586","2","2","""event"",""trial"",""time""
""fullscreenenter"",""1"",""3235""
","
","
","""event"",""trial"",""time""
""fullscreenenter"",""1"",""3235""
","
","","","","","","5398.799999982119","<p> It's now time to start the real game. </p>Do your best, because the points you earn in the next rounds will influence your bonus payment. </p>","","0","instructions","","","","","","","","","","","","","",""
"preload","75","397354","0.0-9.0-0.0","1586","2","2","""event"",""trial"",""time""
""fullscreenenter"",""1"",""3235""
","
","
","""event"",""trial"",""time""
""fullscreenenter"",""1"",""3235""
","
","true","false","[]","[]","[]","","","","","","","","","","","","","","","","","","",""
"learning-instructions","76","407507","0.0-9.0-1.0-0.0","1586","2","2","""event"",""trial"",""time""
""fullscreenenter"",""1"",""3235""
","
","
","""event"",""trial"",""time""
""fullscreenenter"",""1"",""3235""
","
","","","","","","2368.5","<p> Your goal in this round is to deliver furniture to three different buildings. </p><p> You will need to deliver many pieces of furniture. </p></div>","","0","instructions","","","","","","","","","","","","","",""
"learning-instructions","77","434840","0.0-9.0-1.0-0.1","1586","2","2","""event"",""trial"",""time""
""fullscreenenter"",""1"",""3235""
","
","
","""event"",""trial"",""time""
""fullscreenenter"",""1"",""3235""
","
","","","","","","19899.90000000596","<p> On each turn, you will see a picture of a furniture item and three different buildings.  </p><p> You need to select the building that you want to deliver the furniture to.  </p>","","0","instructions","","","","","","","","","","","","","",""
"learning-instructions","78","444044","0.0-9.0-1.0-0.2","1586","2","2","""event"",""trial"",""time""
""fullscreenenter"",""1"",""3235""
","
","
","""event"",""trial"",""time""
""fullscreenenter"",""1"",""3235""
","
","","","","","","918.4000000059605","<p> You can select the building on the left by pressing 1, the building in the middle by pressing 2, and the building on the right by pressing 3.  </p><br><div class=""choice-instructions-grid""> <div class=""choice-option""><img src=""images/furniture_choice1.png"" class=""choice-option-img"" stage=""instructions"" position=""0"" ><div class=""choice-option-text""> Press ""1."" </div></div><div class=""choice-option""><img src=""images/furniture_choice2.png"" class=""choice-option-img"" stage=""instructions"" position=""1"" ><div class=""choice-option-text""> Press ""2."" </div></div><div class=""choice-option""><img src=""images/furniture_choice3.png"" class=""choice-option-img"" stage=""instructions"" position=""2"" ><div class=""choice-option-text""> Press ""3."" </div></div></div>","","0","instructions","","","","","","","","","","","","","",""
"learning-instructions","79","451235","0.0-9.0-1.0-0.3","1586","2","2","""event"",""trial"",""time""
""fullscreenenter"",""1"",""3235""
","
","
","""event"",""trial"",""time""
""fullscreenenter"",""1"",""3235""
","
","","","","","","1164.8999999761581","<p> If the furniture belongs in the building you chose, the building owner will likely be very happy! </p><div style='float: center;'><img src='images/check.png' width = '200' height = '200'></img>","","0","instructions","","","","","","","","","","","","","",""
"learning-instructions","80","462050","0.0-9.0-1.0-0.4","1586","2","2","""event"",""trial"",""time""
""fullscreenenter"",""1"",""3235""
","
","
","""event"",""trial"",""time""
""fullscreenenter"",""1"",""3235""
","
","","","","","","4823.300000011921","<p> But, if the furniture does not belong in the building you chose, the owner will likely be mad. </p><div style='float: center;'><img src='images/x.png' width = '200' height = '200'></img>","","0","instructions","","","","","","","","","","","","","",""
"learning-instructions","81","476499","0.0-9.0-1.0-0.5","1586","2","2","""event"",""trial"",""time""
""fullscreenenter"",""1"",""3235""
","
","
","""event"",""trial"",""time""
""fullscreenenter"",""1"",""3235""
","
","","","","","","3236","<p> Importantly, each piece of furniture belongs in one of the three buildings. </p><p> If you choose the correct building for the piece of furniture, you will be more likely to make the building owner happy! </p>","","0","instructions","","","","","","","","","","","","","",""
"learning-instructions","82","490074","0.0-9.0-1.0-0.6","1586","2","2","""event"",""trial"",""time""
""fullscreenenter"",""1"",""3235""
","
","
","""event"",""trial"",""time""
""fullscreenenter"",""1"",""3235""
","
","","","","","","2065","<p> However, even if you choose the best building for the furniture, the owner may still be mad sometimes. </p><p> Similarly, even if you choose the <i>wrong</i> building, the owner may still be happy.","","0","instructions","","","","","","","","","","","","","",""
"learning-instructions","83","506443","0.0-9.0-1.0-0.7","1586","2","2","""event"",""trial"",""time""
""fullscreenenter"",""1"",""3235""
","
","
","""event"",""trial"",""time""
""fullscreenenter"",""1"",""3235""
","
","","","","","","3127.300000011921","<p> Try to choose the best building for each piece of furniture, because you will <b> WIN </b> 1 point each time a building owner is happy and <b>LOSE</b>  1 point each time a building owner is mad. </p><p> Your bonus payment will depend on your total number of points.","","0","instructions","","","","","","","","","","","","","",""
"learning-instructions","84","518133","0.0-9.0-1.0-0.8","1586","2","2","""event"",""trial"",""time""
""fullscreenenter"",""1"",""3235""
","
","
","""event"",""trial"",""time""
""fullscreenenter"",""1"",""3235""
","
","","","","","","2727.199999988079","<p> The position of each building will change throughout the round. </p><p> The building's position <i> does not </i> influence how likely the owner is to be happy or mad. </p>","","0","instructions","","","","","","","","","","","","","",""
"learning-instructions","85","528586","0.0-9.0-1.0-0.9","1586","2","2","""event"",""trial"",""time""
""fullscreenenter"",""1"",""3235""
","
","
","""event"",""trial"",""time""
""fullscreenenter"",""1"",""3235""
","
","","","","","","1159.5999999940395","<p> You will have 4 seconds to make each choice. Try to respond before time runs out! </p><p> You will lose 1 point each time you do not make a response. </p>","","0","instructions","","","","","","","","","","","","","",""
"html-keyboard-response","86","529196","0.0-9.0-2.0-0.0","1586","2","2","""event"",""trial"",""time""
""fullscreenenter"",""1"",""3235""
","
","
","""event"",""trial"",""time""
""fullscreenenter"",""1"",""3235""
","
","","","","","","null","<div style=""font-size:60px;"">+</div>","null","","fixation","","","","","","","","","","","","","",""
"learning-trial","87","533202","0.0-9.0-2.0-1.0","1586","2","2","""event"",""trial"",""time""
""fullscreenenter"",""1"",""3235""
","
","
","""event"",""trial"",""time""
""fullscreenenter"",""1"",""3235""
","
","","","","","","null","images/sofa1.png","","","learning","images/furniture_choice2.png","images/furniture_choice3.png","images/furniture_choice1.png","[1,2,0]","2","1","null","null","-1","furniture","","sofa","2","0"
"html-keyboard-response","88","533705","0.0-9.0-2.0-0.1","1586","2","2","""event"",""trial"",""time""
""fullscreenenter"",""1"",""3235""
","
","
","""event"",""trial"",""time""
""fullscreenenter"",""1"",""3235""
","
","","","","","","null","<div style=""font-size:60px;"">+</div>","null","","fixation","","","","","","","","","","","","","",""
"learning-trial","89","537712","0.0-9.0-2.0-1.1","1586","2","2","""event"",""trial"",""time""
""fullscreenenter"",""1"",""3235""
","
","
","""event"",""trial"",""time""
""fullscreenenter"",""1"",""3235""
","
","","","","","","1399.3999999761581","images/sofa3.png","","","learning","images/furniture_choice3.png","images/furniture_choice2.png","images/furniture_choice1.png","[2,1,0]","0","2","2","images/furniture_choice2.png","-1","furniture","","sofa","2","0"
"html-keyboard-response","90","538217","0.0-9.0-2.0-0.2","1586","2","2","""event"",""trial"",""time""
""fullscreenenter"",""1"",""3235""
","
","
","""event"",""trial"",""time""
""fullscreenenter"",""1"",""3235""
","
","","","","","","null","<div style=""font-size:60px;"">+</div>","null","","fixation","","","","","","","","","","","","","",""
"learning-trial","91","542224","0.0-9.0-2.0-1.2","1586","2","2","""event"",""trial"",""time""
""fullscreenenter"",""1"",""3235""
","
","
","""event"",""trial"",""time""
""fullscreenenter"",""1"",""3235""
","
","","","","","","1756.800000011921","images/chair5.png","","","learning","images/furniture_choice1.png","images/furniture_choice3.png","images/furniture_choice2.png","[0,2,1]","0","0","2","images/furniture_choice3.png","-1","furniture","","chair","2","0"
"html-keyboard-response","92","542727","0.0-9.0-2.0-0.3","1586","2","2","""event"",""trial"",""time""
""fullscreenenter"",""1"",""3235""
","
","
","""event"",""trial"",""time""
""fullscreenenter"",""1"",""3235""
","
","","","","","","null","<div style=""font-size:60px;"">+</div>","null","","fixation","","","","","","","","","","","","","",""
"learning-trial","93","546734","0.0-9.0-2.0-1.3","1586","2","2","""event"",""trial"",""time""
""fullscreenenter"",""1"",""3235""
","
","
","""event"",""trial"",""time""
""fullscreenenter"",""1"",""3235""
","
","","","","","","515.6000000238419","images/bed2.png","","","learning","images/furniture_choice1.png","images/furniture_choice2.png","images/furniture_choice3.png","[0,1,2]","0","0","1","images/furniture_choice1.png","1","furniture","","bed","2","0"
"html-keyboard-response","94","547238","0.0-9.0-2.0-0.4","1586","2","2","""event"",""trial"",""time""
""fullscreenenter"",""1"",""3235""
","
","
","""event"",""trial"",""time""
""fullscreenenter"",""1"",""3235""
","
","","","","","","null","<div style=""font-size:60px;"">+</div>","null","","fixation","","","","","","","","","","","","","",""
"learning-trial","95","551244","0.0-9.0-2.0-1.4","1586","2","2","""event"",""trial"",""time""
""fullscreenenter"",""1"",""3235""
","
","
","""event"",""trial"",""time""
""fullscreenenter"",""1"",""3235""
","
","","","","","","499.7999999821186","images/sofa3.png","","","learning","images/furniture_choice2.png","images/furniture_choice1.png","images/furniture_choice3.png","[1,0,2]","0","1","3","images/furniture_choice3.png","-1","furniture","","sofa","2","0"
"html-keyboard-response","96","551745","0.0-9.0-2.0-0.5","1586","2","2","""event"",""trial"",""time""
""fullscreenenter"",""1"",""3235""
","
","
","""event"",""trial"",""time""
""fullscreenenter"",""1"",""3235""
","
","","","","","","null","<div style=""font-size:60px;"">+</div>","null","","fixation","","","","","","","","","","","","","",""
"learning-trial","97","555754","0.0-9.0-2.0-1.5","1586","2","2","""event"",""trial"",""time""
""fullscreenenter"",""1"",""3235""
","
","
","""event"",""trial"",""time""
""fullscreenenter"",""1"",""3235""
","
","","","","","","471.40000000596046","images/bed1.png","","","learning","images/furniture_choice1.png","images/furniture_choice2.png","images/furniture_choice3.png","[0,1,2]","1","1","2","images/furniture_choice2.png","1","furniture","","bed","2","0"
"html-keyboard-response","98","556257","0.0-9.0-2.0-0.6","1586","2","2","""event"",""trial"",""time""
""fullscreenenter"",""1"",""3235""
","
","
","""event"",""trial"",""time""
""fullscreenenter"",""1"",""3235""
","
","","","","","","null","<div style=""font-size:60px;"">+</div>","null","","fixation","","","","","","","","","","","","","",""
"learning-trial","99","560263","0.0-9.0-2.0-1.6","1586","2","2","""event"",""trial"",""time""
""fullscreenenter"",""1"",""3235""
","
","
","""event"",""trial"",""time""
""fullscreenenter"",""1"",""3235""
","
","","","","","","463.5","images/chair5.png","","","learning","images/furniture_choice2.png","images/furniture_choice1.png","images/furniture_choice3.png","[1,0,2]","0","1","1","images/furniture_choice2.png","-1","furniture","","chair","2","0"
"html-keyboard-response","100","560767","0.0-9.0-2.0-0.7","1586","2","2","""event"",""trial"",""time""
""fullscreenenter"",""1"",""3235""
","
","
","""event"",""trial"",""time""
""fullscreenenter"",""1"",""3235""
","
","","","","","","null","<div style=""font-size:60px;"">+</div>","null","","fixation","","","","","","","","","","","","","",""
"learning-trial","101","564775","0.0-9.0-2.0-1.7","1586","2","2","""event"",""trial"",""time""
""fullscreenenter"",""1"",""3235""
","
","
","""event"",""trial"",""time""
""fullscreenenter"",""1"",""3235""
","
","","","","","","2236.7000000178814","images/bed3.png","","","learning","images/furniture_choice3.png","images/furniture_choice2.png","images/furniture_choice1.png","[2,1,0]","2","0","1","images/furniture_choice3.png","1","furniture","","bed","2","0"
"html-keyboard-response","102","565276","0.0-9.0-2.0-0.8","1586","2","2","""event"",""trial"",""time""
""fullscreenenter"",""1"",""3235""
","
","
","""event"",""trial"",""time""
""fullscreenenter"",""1"",""3235""
","
","","","","","","null","<div style=""font-size:60px;"">+</div>","null","","fixation","","","","","","","","","","","","","",""
"learning-trial","103","569282","0.0-9.0-2.0-1.8","1586","2","2","""event"",""trial"",""time""
""fullscreenenter"",""1"",""3235""
","
","
","""event"",""trial"",""time""
""fullscreenenter"",""1"",""3235""
","
","","","","","","1539.5999999940395","images/bed2.png","","","learning","images/furniture_choice1.png","images/furniture_choice2.png","images/furniture_choice3.png","[0,1,2]","0","0","2","images/furniture_choice2.png","-1","furniture","","bed","2","0"
"html-keyboard-response","104","569783","0.0-9.0-2.0-0.9","1586","2","2","""event"",""trial"",""time""
""fullscreenenter"",""1"",""3235""
","
","
","""event"",""trial"",""time""
""fullscreenenter"",""1"",""3235""
","
","","","","","","null","<div style=""font-size:60px;"">+</div>","null","","fixation","","","","","","","","","","","","","",""
"learning-trial","105","573788","0.0-9.0-2.0-1.9","1586","2","2","""event"",""trial"",""time""
""fullscreenenter"",""1"",""3235""
","
","
","""event"",""trial"",""time""
""fullscreenenter"",""1"",""3235""
","
","","","","","","446.7000000178814","images/sofa5.png","","","learning","images/furniture_choice3.png","images/furniture_choice1.png","images/furniture_choice2.png","[2,0,1]","1","2","3","images/furniture_choice2.png","1","furniture","","sofa","2","0"
"html-keyboard-response","106","574293","0.0-9.0-2.0-0.10","1586","2","2","""event"",""trial"",""time""
""fullscreenenter"",""1"",""3235""
","
","
","""event"",""trial"",""time""
""fullscreenenter"",""1"",""3235""
","
","","","","","","null","<div style=""font-size:60px;"">+</div>","null","","fixation","","","","","","","","","","","","","",""
"learning-trial","107","578300","0.0-9.0-2.0-1.10","1586","2","2","""event"",""trial"",""time""
""fullscreenenter"",""1"",""3235""
","
","
","""event"",""trial"",""time""
""fullscreenenter"",""1"",""3235""
","
","","","","","","466.40000000596046","images/sofa3.png","","","learning","images/furniture_choice3.png","images/furniture_choice1.png","images/furniture_choice2.png","[2,0,1]","0","1","1","images/furniture_choice3.png","1","furniture","","sofa","2","0"
"html-keyboard-response","108","578801","0.0-9.0-2.0-0.11","1586","2","2","""event"",""trial"",""time""
""fullscreenenter"",""1"",""3235""
","
","
","""event"",""trial"",""time""
""fullscreenenter"",""1"",""3235""
","
","","","","","","null","<div style=""font-size:60px;"">+</div>","null","","fixation","","","","","","","","","","","","","",""
"learning-trial","109","582807","0.0-9.0-2.0-1.11","1586","2","2","""event"",""trial"",""time""
""fullscreenenter"",""1"",""3235""
","
","
","""event"",""trial"",""time""
""fullscreenenter"",""1"",""3235""
","
","","","","","","1424.7000000178814","images/sofa5.png","","","learning","images/furniture_choice1.png","images/furniture_choice2.png","images/furniture_choice3.png","[0,1,2]","1","1","2","images/furniture_choice2.png","1","furniture","","sofa","2","0"
"html-keyboard-response","110","583311","0.0-9.0-2.0-0.12","1586","2","2","""event"",""trial"",""time""
""fullscreenenter"",""1"",""3235""
","
","
","""event"",""trial"",""time""
""fullscreenenter"",""1"",""3235""
","
","","","","","","null","<div style=""font-size:60px;"">+</div>","null","","fixation","","","","","","","","","","","","","",""
"learning-trial","111","587319","0.0-9.0-2.0-1.12","1586","2","2","""event"",""trial"",""time""
""fullscreenenter"",""1"",""3235""
","
","
","""event"",""trial"",""time""
""fullscreenenter"",""1"",""3235""
","
","","","","","","910.8000000119209","images/sofa5.png","","","learning","images/furniture_choice2.png","images/furniture_choice3.png","images/furniture_choice1.png","[1,2,0]","1","0","3","images/furniture_choice1.png","-1","furniture","","sofa","2","0"
"html-keyboard-response","112","587825","0.0-9.0-2.0-0.13","1586","2","2","""event"",""trial"",""time""
""fullscreenenter"",""1"",""3235""
","
","
","""event"",""trial"",""time""
""fullscreenenter"",""1"",""3235""
","
","","","","","","null","<div style=""font-size:60px;"">+</div>","null","","fixation","","","","","","","","","","","","","",""
"learning-trial","113","591831","0.0-9.0-2.0-1.13","1586","2","2","""event"",""trial"",""time""
""fullscreenenter"",""1"",""3235""
","
","
","""event"",""trial"",""time""
""fullscreenenter"",""1"",""3235""
","
","","","","","","29.200000017881393","images/sofa3.png","","","learning","images/furniture_choice2.png","images/furniture_choice3.png","images/furniture_choice1.png","[1,2,0]","0","2","1","images/furniture_choice2.png","1","furniture","","sofa","2","0"
"html-keyboard-response","114","592332","0.0-9.0-2.0-0.14","1586","2","2","""event"",""trial"",""time""
""fullscreenenter"",""1"",""3235""
","
","
","""event"",""trial"",""time""
""fullscreenenter"",""1"",""3235""
","
","","","","","","null","<div style=""font-size:60px;"">+</div>","null","","fixation","","","","","","","","","","","","","",""
"learning-trial","115","596337","0.0-9.0-2.0-1.14","1586","2","2","""event"",""trial"",""time""
""fullscreenenter"",""1"",""3235""
","
","
","""event"",""trial"",""time""
""fullscreenenter"",""1"",""3235""
","
","","","","","","347.90000000596046","images/bed1.png","","","learning","images/furniture_choice2.png","images/furniture_choice3.png","images/furniture_choice1.png","[1,2,0]","1","0","2","images/furniture_choice3.png","-1","furniture","","bed","2","0"
"html-keyboard-response","116","596838","0.0-9.0-2.0-0.15","1586","2","2","""event"",""trial"",""time""
""fullscreenenter"",""1"",""3235""
","
","
","""event"",""trial"",""time""
""fullscreenenter"",""1"",""3235""
","
","","","","","","null","<div style=""font-size:60px;"">+</div>","null","","fixation","","","","","","","","","","","","","",""
"learning-trial","117","600844","0.0-9.0-2.0-1.15","1586","2","2","""event"",""trial"",""time""
""fullscreenenter"",""1"",""3235""
","
","
","""event"",""trial"",""time""
""fullscreenenter"",""1"",""3235""
","
","","","","","","692.2999999821186","images/bed2.png","","","learning","images/furniture_choice2.png","images/furniture_choice1.png","images/furniture_choice3.png","[1,0,2]","0","1","3","images/furniture_choice3.png","-1","furniture","","bed","2","0"
"html-keyboard-response","118","601345","0.0-9.0-2.0-0.16","1586","2","2","""event"",""trial"",""time""
""fullscreenenter"",""1"",""3235""
","
","
","""event"",""trial"",""time""
""fullscreenenter"",""1"",""3235""
","
","","","","","","null","<div style=""font-size:60px;"">+</div>","null","","fixation","","","","","","","","","","","","","",""
"learning-trial","119","605350","0.0-9.0-2.0-1.16","1586","2","2","""event"",""trial"",""time""
""fullscreenenter"",""1"",""3235""
","
","
","""event"",""trial"",""time""
""fullscreenenter"",""1"",""3235""
","
","","","","","","389.40000000596046","images/chair3.png","","","learning","images/furniture_choice2.png","images/furniture_choice1.png","images/furniture_choice3.png","[1,0,2]","2","2","1","images/furniture_choice2.png","-1","furniture","","chair","2","0"
"html-keyboard-response","120","605857","0.0-9.0-2.0-0.17","1586","2","2","""event"",""trial"",""time""
""fullscreenenter"",""1"",""3235""
","
","
","""event"",""trial"",""time""
""fullscreenenter"",""1"",""3235""
","
","","","","","","null","<div style=""font-size:60px;"">+</div>","null","","fixation","","","","","","","","","","","","","",""
"learning-trial","121","609862","0.0-9.0-2.0-1.17","1586","2","2","""event"",""trial"",""time""
""fullscreenenter"",""1"",""3235""
","
","
","""event"",""trial"",""time""
""fullscreenenter"",""1"",""3235""
","
","","","","","","480.2999999821186","images/chair1.png","","","learning","images/furniture_choice2.png","images/furniture_choice1.png","images/furniture_choice3.png","[1,0,2]","1","0","2","images/furniture_choice1.png","-1","furniture","","chair","2","0"
"html-keyboard-response","122","610369","0.0-9.0-2.0-0.18","1586","2","2","""event"",""trial"",""time""
""fullscreenenter"",""1"",""3235""
","
","
","""event"",""trial"",""time""
""fullscreenenter"",""1"",""3235""
","
","","","","","","null","<div style=""font-size:60px;"">+</div>","null","","fixation","","","","","","","","","","","","","",""
"learning-trial","123","614374","0.0-9.0-2.0-1.18","1586","2","2","""event"",""trial"",""time""
""fullscreenenter"",""1"",""3235""
","
","
","""event"",""trial"",""time""
""fullscreenenter"",""1"",""3235""
","
","","","","","","490.59999999403954","images/chair1.png","","","learning","images/furniture_choice1.png","images/furniture_choice3.png","images/furniture_choice2.png","[0,2,1]","1","2","1","images/furniture_choice1.png","-1","furniture","","chair","2","0"
"html-keyboard-response","124","614880","0.0-9.0-2.0-0.19","1586","2","2","""event"",""trial"",""time""
""fullscreenenter"",""1"",""3235""
","
","
","""event"",""trial"",""time""
""fullscreenenter"",""1"",""3235""
","
","","","","","","null","<div style=""font-size:60px;"">+</div>","null","","fixation","","","","","","","","","","","","","",""
"learning-trial","125","618886","0.0-9.0-2.0-1.19","1586","2","2","""event"",""trial"",""time""
""fullscreenenter"",""1"",""3235""
","
","
","""event"",""trial"",""time""
""fullscreenenter"",""1"",""3235""
","
","","","","","","469.7000000178814","images/chair3.png","","","learning","images/furniture_choice1.png","images/furniture_choice3.png","images/furniture_choice2.png","[0,2,1]","2","1","2","images/furniture_choice3.png","1","furniture","","chair","2","0"
"html-keyboard-response","126","619388","0.0-9.0-2.0-0.20","1586","2","2","""event"",""trial"",""time""
""fullscreenenter"",""1"",""3235""
","
","
","""event"",""trial"",""time""
""fullscreenenter"",""1"",""3235""
","
","","","","","","null","<div style=""font-size:60px;"">+</div>","null","","fixation","","","","","","","","","","","","","",""
"learning-trial","127","623392","0.0-9.0-2.0-1.20","1586","2","2","""event"",""trial"",""time""
""fullscreenenter"",""1"",""3235""
","
","
","""event"",""trial"",""time""
""fullscreenenter"",""1"",""3235""
","
","","","","","","904.6999999880791","images/bed2.png","","","learning","images/furniture_choice1.png","images/furniture_choice2.png","images/furniture_choice3.png","[0,1,2]","0","0","3","images/furniture_choice3.png","-1","furniture","","bed","2","0"
"html-keyboard-response","128","623894","0.0-9.0-2.0-0.21","1586","2","2","""event"",""trial"",""time""
""fullscreenenter"",""1"",""3235""
","
","
","""event"",""trial"",""time""
""fullscreenenter"",""1"",""3235""
","
","","","","","","null","<div style=""font-size:60px;"">+</div>","null","","fixation","","","","","","","","","","","","","",""
"learning-trial","129","627899","0.0-9.0-2.0-1.21","1586","2","2","""event"",""trial"",""time""
""fullscreenenter"",""1"",""3235""
","
","
","""event"",""trial"",""time""
""fullscreenenter"",""1"",""3235""
","
","","","","","","622.6000000238419","images/sofa1.png","","","learning","images/furniture_choice3.png","images/furniture_choice2.png","images/furniture_choice1.png","[2,1,0]","2","0","2","images/furniture_choice2.png","-1","furniture","","sofa","2","0"
"html-keyboard-response","130","628404","0.0-9.0-2.0-0.22","1586","2","2","""event"",""trial"",""time""
""fullscreenenter"",""1"",""3235""
","
","
","""event"",""trial"",""time""
""fullscreenenter"",""1"",""3235""
","
","","","","","","null","<div style=""font-size:60px;"">+</div>","null","","fixation","","","","","","","","","","","","","",""
"learning-trial","131","632411","0.0-9.0-2.0-1.22","1586","2","2","""event"",""trial"",""time""
""fullscreenenter"",""1"",""3235""
","
","
","""event"",""trial"",""time""
""fullscreenenter"",""1"",""3235""
","
","","","","","","400.40000000596046","images/bed1.png","","","learning","images/furniture_choice2.png","images/furniture_choice3.png","images/furniture_choice1.png","[1,2,0]","1","0","1","images/furniture_choice2.png","1","furniture","","bed","2","0"
"html-keyboard-response","132","632918","0.0-9.0-2.0-0.23","1586","2","2","""event"",""trial"",""time""
""fullscreenenter"",""1"",""3235""
","
","
","""event"",""trial"",""time""
""fullscreenenter"",""1"",""3235""
","
","","","","","","null","<div style=""font-size:60px;"">+</div>","null","","fixation","","","","","","","","","","","","","",""
"learning-trial","133","636923","0.0-9.0-2.0-1.23","1586","2","2","""event"",""trial"",""time""
""fullscreenenter"",""1"",""3235""
","
","
","""event"",""trial"",""time""
""fullscreenenter"",""1"",""3235""
","
","","","","","","386.80000001192093","images/sofa1.png","","","learning","images/furniture_choice3.png","images/furniture_choice2.png","images/furniture_choice1.png","[2,1,0]","2","0","2","images/furniture_choice2.png","-1","furniture","","sofa","2","0"
"html-keyboard-response","134","637424","0.0-9.0-2.0-0.24","1586","2","2","""event"",""trial"",""time""
""fullscreenenter"",""1"",""3235""
","
","
","""event"",""trial"",""time""
""fullscreenenter"",""1"",""3235""
","
","","","","","","null","<div style=""font-size:60px;"">+</div>","null","","fixation","","","","","","","","","","","","","",""
"learning-trial","135","641430","0.0-9.0-2.0-1.24","1586","2","2","""event"",""trial"",""time""
""fullscreenenter"",""1"",""3235""
","
","
","""event"",""trial"",""time""
""fullscreenenter"",""1"",""3235""
","
","","","","","","370.09999999403954","images/sofa1.png","","","learning","images/furniture_choice3.png","images/furniture_choice2.png","images/furniture_choice1.png","[2,1,0]","2","0","3","images/furniture_choice1.png","-1","furniture","","sofa","2","0"
"html-keyboard-response","136","641934","0.0-9.0-2.0-0.25","1586","2","2","""event"",""trial"",""time""
""fullscreenenter"",""1"",""3235""
","
","
","""event"",""trial"",""time""
""fullscreenenter"",""1"",""3235""
","
","","","","","","null","<div style=""font-size:60px;"">+</div>","null","","fixation","","","","","","","","","","","","","",""
"learning-trial","137","645942","0.0-9.0-2.0-1.25","1586","2","2","""event"",""trial"",""time""
""fullscreenenter"",""1"",""3235""
","
","
","""event"",""trial"",""time""
""fullscreenenter"",""1"",""3235""
","
","","","","","","419.69999998807907","images/bed3.png","","","learning","images/furniture_choice1.png","images/furniture_choice2.png","images/furniture_choice3.png","[0,1,2]","2","2","2","images/furniture_choice2.png","-1","furniture","","bed","2","0"
"html-keyboard-response","138","646448","0.0-9.0-2.0-0.26","1586","2","2","""event"",""trial"",""time""
""fullscreenenter"",""1"",""3235""
","
","
","""event"",""trial"",""time""
""fullscreenenter"",""1"",""3235""
","
","","","","","","null","<div style=""font-size:60px;"">+</div>","null","","fixation","","","","","","","","","","","","","",""
"learning-trial","139","650453","0.0-9.0-2.0-1.26","1586","2","2","""event"",""trial"",""time""
""fullscreenenter"",""1"",""3235""
","
","
","""event"",""trial"",""time""
""fullscreenenter"",""1"",""3235""
","
","","","","","","400.80000001192093","images/chair3.png","","","learning","images/furniture_choice3.png","images/furniture_choice1.png","images/furniture_choice2.png","[2,0,1]","2","0","1","images/furniture_choice3.png","1","furniture","","chair","2","0"
"html-keyboard-response","140","650955","0.0-9.0-2.0-0.27","1586","2","2","""event"",""trial"",""time""
""fullscreenenter"",""1"",""3235""
","
","
","""event"",""trial"",""time""
""fullscreenenter"",""1"",""3235""
","
","","","","","","null","<div style=""font-size:60px;"">+</div>","null","","fixation","","","","","","","","","","","","","",""
"learning-trial","141","654961","0.0-9.0-2.0-1.27","1586","2","2","""event"",""trial"",""time""
""fullscreenenter"",""1"",""3235""
","
","
","""event"",""trial"",""time""
""fullscreenenter"",""1"",""3235""
","
","","","","","","419.2000000178814","images/bed1.png","","","learning","images/furniture_choice1.png","images/furniture_choice2.png","images/furniture_choice3.png","[0,1,2]","1","1","3","images/furniture_choice3.png","-1","furniture","","bed","2","0"
"html-keyboard-response","142","655466","0.0-9.0-2.0-0.28","1586","2","2","""event"",""trial"",""time""
""fullscreenenter"",""1"",""3235""
","
","
","""event"",""trial"",""time""
""fullscreenenter"",""1"",""3235""
","
","","","","","","null","<div style=""font-size:60px;"">+</div>","null","","fixation","","","","","","","","","","","","","",""
"learning-trial","143","659472","0.0-9.0-2.0-1.28","1586","2","2","""event"",""trial"",""time""
""fullscreenenter"",""1"",""3235""
","
","
","""event"",""trial"",""time""
""fullscreenenter"",""1"",""3235""
","
","","","","","","318.30000001192093","images/bed2.png","","","learning","images/furniture_choice3.png","images/furniture_choice1.png","images/furniture_choice2.png","[2,0,1]","0","1","2","images/furniture_choice1.png","1","furniture","","bed","2","0"
"html-keyboard-response","144","659976","0.0-9.0-2.0-0.29","1586","2","2","""event"",""trial"",""time""
""fullscreenenter"",""1"",""3235""
","
","
","""event"",""trial"",""time""
""fullscreenenter"",""1"",""3235""
","
","","","","","","null","<div style=""font-size:60px;"">+</div>","null","","fixation","","","","","","","","","","","","","",""
"learning-trial","145","663984","0.0-9.0-2.0-1.29","1586","2","2","""event"",""trial"",""time""
""fullscreenenter"",""1"",""3235""
","
","
","""event"",""trial"",""time""
""fullscreenenter"",""1"",""3235""
","
","","","","","","368.7000000178814","images/bed1.png","","","learning","images/furniture_choice3.png","images/furniture_choice2.png","images/furniture_choice1.png","[2,1,0]","1","1","3","images/furniture_choice1.png","-1","furniture","","bed","2","0"
"html-keyboard-response","146","664485","0.0-9.0-2.0-0.30","1586","2","2","""event"",""trial"",""time""
""fullscreenenter"",""1"",""3235""
","
","
","""event"",""trial"",""time""
""fullscreenenter"",""1"",""3235""
","
","","","","","","null","<div style=""font-size:60px;"">+</div>","null","","fixation","","","","","","","","","","","","","",""
"learning-trial","147","668490","0.0-9.0-2.0-1.30","1586","2","2","""event"",""trial"",""time""
""fullscreenenter"",""1"",""3235""
","
","
","""event"",""trial"",""time""
""fullscreenenter"",""1"",""3235""
","
","","","","","","457.59999999403954","images/bed3.png","","","learning","images/furniture_choice2.png","images/furniture_choice3.png","images/furniture_choice1.png","[1,2,0]","2","1","2","images/furniture_choice3.png","1","furniture","","bed","2","0"
"html-keyboard-response","148","668992","0.0-9.0-2.0-0.31","1586","2","2","""event"",""trial"",""time""
""fullscreenenter"",""1"",""3235""
","
","
","""event"",""trial"",""time""
""fullscreenenter"",""1"",""3235""
","
","","","","","","null","<div style=""font-size:60px;"">+</div>","null","","fixation","","","","","","","","","","","","","",""
"learning-trial","149","672997","0.0-9.0-2.0-1.31","1586","2","2","""event"",""trial"",""time""
""fullscreenenter"",""1"",""3235""
","
","
","""event"",""trial"",""time""
""fullscreenenter"",""1"",""3235""
","
","","","","","","405.2999999821186","images/chair5.png","","","learning","images/furniture_choice3.png","images/furniture_choice1.png","images/furniture_choice2.png","[2,0,1]","0","1","1","images/furniture_choice3.png","1","furniture","","chair","2","0"
"html-keyboard-response","150","673501","0.0-9.0-2.0-0.32","1586","2","2","""event"",""trial"",""time""
""fullscreenenter"",""1"",""3235""
","
","
","""event"",""trial"",""time""
""fullscreenenter"",""1"",""3235""
","
","","","","","","null","<div style=""font-size:60px;"">+</div>","null","","fixation","","","","","","","","","","","","","",""
"learning-trial","151","677509","0.0-9.0-2.0-1.32","1586","2","2","""event"",""trial"",""time""
""fullscreenenter"",""1"",""3235""
","
","
","""event"",""trial"",""time""
""fullscreenenter"",""1"",""3235""
","
","","","","","","381.30000001192093","images/chair5.png","","","learning","images/furniture_choice2.png","images/furniture_choice1.png","images/furniture_choice3.png","[1,0,2]","0","1","2","images/furniture_choice1.png","1","furniture","","chair","2","0"
"html-keyboard-response","152","678010","0.0-9.0-2.0-0.33","1586","2","2","""event"",""trial"",""time""
""fullscreenenter"",""1"",""3235""
","
","
","""event"",""trial"",""time""
""fullscreenenter"",""1"",""3235""
","
","","","","","","null","<div style=""font-size:60px;"">+</div>","null","","fixation","","","","","","","","","","","","","",""
"learning-trial","153","682016","0.0-9.0-2.0-1.33","1586","2","2","""event"",""trial"",""time""
""fullscreenenter"",""1"",""3235""
","
","
","""event"",""trial"",""time""
""fullscreenenter"",""1"",""3235""
","
","","","","","","696.5999999940395","images/sofa1.png","","","learning","images/furniture_choice1.png","images/furniture_choice3.png","images/furniture_choice2.png","[0,2,1]","2","1","1","images/furniture_choice1.png","-1","furniture","","sofa","2","0"
"html-keyboard-response","154","682520","0.0-9.0-2.0-0.34","1586","2","2","""event"",""trial"",""time""
""fullscreenenter"",""1"",""3235""
","
","
","""event"",""trial"",""time""
""fullscreenenter"",""1"",""3235""
","
","","","","","","null","<div style=""font-size:60px;"">+</div>","null","","fixation","","","","","","","","","","","","","",""
"learning-trial","155","686527","0.0-9.0-2.0-1.34","1586","2","2","""event"",""trial"",""time""
""fullscreenenter"",""1"",""3235""
","
","
","""event"",""trial"",""time""
""fullscreenenter"",""1"",""3235""
","
","","","","","","425.30000001192093","images/bed3.png","","","learning","images/furniture_choice1.png","images/furniture_choice3.png","images/furniture_choice2.png","[0,2,1]","2","1","3","images/furniture_choice2.png","-1","furniture","","bed","2","0"
"html-keyboard-response","156","687029","0.0-9.0-2.0-0.35","1586","2","2","""event"",""trial"",""time""
""fullscreenenter"",""1"",""3235""
","
","
","""event"",""trial"",""time""
""fullscreenenter"",""1"",""3235""
","
","","","","","","null","<div style=""font-size:60px;"">+</div>","null","","fixation","","","","","","","","","","","","","",""
"learning-trial","157","691034","0.0-9.0-2.0-1.35","1586","2","2","""event"",""trial"",""time""
""fullscreenenter"",""1"",""3235""
","
","
","""event"",""trial"",""time""
""fullscreenenter"",""1"",""3235""
","
","","","","","","1070.699999988079","images/bed2.png","","","learning","images/furniture_choice2.png","images/furniture_choice1.png","images/furniture_choice3.png","[1,0,2]","0","1","2","images/furniture_choice1.png","1","furniture","","bed","2","0"
"html-keyboard-response","158","691539","0.0-9.0-2.0-0.36","1586","2","2","""event"",""trial"",""time""
""fullscreenenter"",""1"",""3235""
","
","
","""event"",""trial"",""time""
""fullscreenenter"",""1"",""3235""
","
","","","","","","null","<div style=""font-size:60px;"">+</div>","null","","fixation","","","","","","","","","","","","","",""
"learning-trial","159","695546","0.0-9.0-2.0-1.36","1586","2","2","""event"",""trial"",""time""
""fullscreenenter"",""1"",""3235""
","
","
","""event"",""trial"",""time""
""fullscreenenter"",""1"",""3235""
","
","","","","","","712.9000000059605","images/bed2.png","","","learning","images/furniture_choice1.png","images/furniture_choice3.png","images/furniture_choice2.png","[0,2,1]","0","0","3","images/furniture_choice2.png","-1","furniture","","bed","2","0"
"html-keyboard-response","160","696048","0.0-9.0-2.0-0.37","1586","2","2","""event"",""trial"",""time""
""fullscreenenter"",""1"",""3235""
","
","
","""event"",""trial"",""time""
""fullscreenenter"",""1"",""3235""
","
","","","","","","null","<div style=""font-size:60px;"">+</div>","null","","fixation","","","","","","","","","","","","","",""
"learning-trial","161","700052","0.0-9.0-2.0-1.37","1586","2","2","""event"",""trial"",""time""
""fullscreenenter"",""1"",""3235""
","
","
","""event"",""trial"",""time""
""fullscreenenter"",""1"",""3235""
","
","","","","","","1349.4000000059605","images/sofa5.png","","","learning","images/furniture_choice3.png","images/furniture_choice1.png","images/furniture_choice2.png","[2,0,1]","1","2","2","images/furniture_choice1.png","-1","furniture","","sofa","2","0"
"html-keyboard-response","162","700554","0.0-9.0-2.0-0.38","1586","2","2","""event"",""trial"",""time""
""fullscreenenter"",""1"",""3235""
","
","
","""event"",""trial"",""time""
""fullscreenenter"",""1"",""3235""
","
","","","","","","null","<div style=""font-size:60px;"">+</div>","null","","fixation","","","","","","","","","","","","","",""
"learning-trial","163","704562","0.0-9.0-2.0-1.38","1586","2","2","""event"",""trial"",""time""
""fullscreenenter"",""1"",""3235""
","
","
","""event"",""trial"",""time""
""fullscreenenter"",""1"",""3235""
","
","","","","","","451.2999999821186","images/chair3.png","","","learning","images/furniture_choice1.png","images/furniture_choice2.png","images/furniture_choice3.png","[0,1,2]","2","2","1","images/furniture_choice1.png","-1","furniture","","chair","2","0"
"html-keyboard-response","164","705067","0.0-9.0-2.0-0.39","1586","2","2","""event"",""trial"",""time""
""fullscreenenter"",""1"",""3235""
","
","
","""event"",""trial"",""time""
""fullscreenenter"",""1"",""3235""
","
","","","","","","null","<div style=""font-size:60px;"">+</div>","null","","fixation","","","","","","","","","","","","","",""
"learning-trial","165","709071","0.0-9.0-2.0-1.39","1586","2","2","""event"",""trial"",""time""
""fullscreenenter"",""1"",""3235""
","
","
","""event"",""trial"",""time""
""fullscreenenter"",""1"",""3235""
","
","","","","","","395.30000001192093","images/bed3.png","","","learning","images/furniture_choice2.png","images/furniture_choice3.png","images/furniture_choice1.png","[1,2,0]","2","1","3","images/furniture_choice1.png","-1","furniture","","bed","2","0"
"html-keyboard-response","166","709572","0.0-9.0-2.0-0.40","1586","2","2","""event"",""trial"",""time""
""fullscreenenter"",""1"",""3235""
","
","
","""event"",""trial"",""time""
""fullscreenenter"",""1"",""3235""
","
","","","","","","null","<div style=""font-size:60px;"">+</div>","null","","fixation","","","","","","","","","","","","","",""
"learning-trial","167","713580","0.0-9.0-2.0-1.40","1586","2","2","""event"",""trial"",""time""
""fullscreenenter"",""1"",""3235""
","
","
","""event"",""trial"",""time""
""fullscreenenter"",""1"",""3235""
","
","","","","","","1295.8999999761581","images/sofa3.png","","","learning","images/furniture_choice1.png","images/furniture_choice2.png","images/furniture_choice3.png","[0,1,2]","0","0","2","images/furniture_choice2.png","-1","furniture","","sofa","2","0"
"html-keyboard-response","168","714083","0.0-9.0-2.0-0.41","1586","2","2","""event"",""trial"",""time""
""fullscreenenter"",""1"",""3235""
","
","
","""event"",""trial"",""time""
""fullscreenenter"",""1"",""3235""
","
","","","","","","null","<div style=""font-size:60px;"">+</div>","null","","fixation","","","","","","","","","","","","","",""
"learning-trial","169","718089","0.0-9.0-2.0-1.41","1586","2","2","""event"",""trial"",""time""
""fullscreenenter"",""1"",""3235""
","
","
","""event"",""trial"",""time""
""fullscreenenter"",""1"",""3235""
","
","","","","","","1640.199999988079","images/sofa1.png","","","learning","images/furniture_choice1.png","images/furniture_choice2.png","images/furniture_choice3.png","[0,1,2]","2","2","1","images/furniture_choice1.png","-1","furniture","","sofa","2","0"
"html-keyboard-response","170","718591","0.0-9.0-2.0-0.42","1586","2","2","""event"",""trial"",""time""
""fullscreenenter"",""1"",""3235""
","
","
","""event"",""trial"",""time""
""fullscreenenter"",""1"",""3235""
","
","","","","","","null","<div style=""font-size:60px;"">+</div>","null","","fixation","","","","","","","","","","","","","",""
"learning-trial","171","722598","0.0-9.0-2.0-1.42","1586","2","2","""event"",""trial"",""time""
""fullscreenenter"",""1"",""3235""
","
","
","""event"",""trial"",""time""
""fullscreenenter"",""1"",""3235""
","
","","","","","","821","images/bed2.png","","","learning","images/furniture_choice2.png","images/furniture_choice3.png","images/furniture_choice1.png","[1,2,0]","0","2","2","images/furniture_choice3.png","1","furniture","","bed","2","0"
"html-keyboard-response","172","723103","0.0-9.0-2.0-0.43","1586","2","2","""event"",""trial"",""time""
""fullscreenenter"",""1"",""3235""
","
","
","""event"",""trial"",""time""
""fullscreenenter"",""1"",""3235""
","
","","","","","","null","<div style=""font-size:60px;"">+</div>","null","","fixation","","","","","","","","","","","","","",""
"learning-trial","173","727108","0.0-9.0-2.0-1.43","1586","2","2","""event"",""trial"",""time""
""fullscreenenter"",""1"",""3235""
","
","
","""event"",""trial"",""time""
""fullscreenenter"",""1"",""3235""
","
","","","","","","861.6999999880791","images/chair5.png","","","learning","images/furniture_choice1.png","images/furniture_choice2.png","images/furniture_choice3.png","[0,1,2]","0","0","3","images/furniture_choice3.png","-1","furniture","","chair","2","0"
"html-keyboard-response","174","727609","0.0-9.0-2.0-0.44","1586","2","2","""event"",""trial"",""time""
""fullscreenenter"",""1"",""3235""
","
","
","""event"",""trial"",""time""
""fullscreenenter"",""1"",""3235""
","
","","","","","","null","<div style=""font-size:60px;"">+</div>","null","","fixation","","","","","","","","","","","","","",""
"learning-trial","175","731614","0.0-9.0-2.0-1.44","1586","2","2","""event"",""trial"",""time""
""fullscreenenter"",""1"",""3235""
","
","
","""event"",""trial"",""time""
""fullscreenenter"",""1"",""3235""
","
","","","","","","1984.7999999821186","images/chair3.png","","","learning","images/furniture_choice3.png","images/furniture_choice2.png","images/furniture_choice1.png","[2,1,0]","2","0","1","images/furniture_choice3.png","-1","furniture","","chair","2","0"
"html-keyboard-response","176","732116","0.0-9.0-2.0-0.45","1586","2","2","""event"",""trial"",""time""
""fullscreenenter"",""1"",""3235""
","
","
","""event"",""trial"",""time""
""fullscreenenter"",""1"",""3235""
","
","","","","","","null","<div style=""font-size:60px;"">+</div>","null","","fixation","","","","","","","","","","","","","",""
"learning-trial","177","736124","0.0-9.0-2.0-1.45","1586","2","2","""event"",""trial"",""time""
""fullscreenenter"",""1"",""3235""
","
","
","""event"",""trial"",""time""
""fullscreenenter"",""1"",""3235""
","
","","","","","","1358","images/sofa1.png","","","learning","images/furniture_choice3.png","images/furniture_choice1.png","images/furniture_choice2.png","[2,0,1]","2","0","2","images/furniture_choice1.png","-1","furniture","","sofa","2","0"
"html-keyboard-response","178","736629","0.0-9.0-2.0-0.46","1586","2","2","""event"",""trial"",""time""
""fullscreenenter"",""1"",""3235""
","
","
","""event"",""trial"",""time""
""fullscreenenter"",""1"",""3235""
","
","","","","","","null","<div style=""font-size:60px;"">+</div>","null","","fixation","","","","","","","","","","","","","",""
"learning-trial","179","740638","0.0-9.0-2.0-1.46","1586","2","2","""event"",""trial"",""time""
""fullscreenenter"",""1"",""3235""
","
","
","""event"",""trial"",""time""
""fullscreenenter"",""1"",""3235""
","
","","","","","","1673.800000011921","images/sofa5.png","","","learning","images/furniture_choice1.png","images/furniture_choice3.png","images/furniture_choice2.png","[0,2,1]","1","2","2","images/furniture_choice3.png","1","furniture","","sofa","2","0"
"html-keyboard-response","180","741141","0.0-9.0-2.0-0.47","1586","2","2","""event"",""trial"",""time""
""fullscreenenter"",""1"",""3235""
","
","
","""event"",""trial"",""time""
""fullscreenenter"",""1"",""3235""
","
","","","","","","null","<div style=""font-size:60px;"">+</div>","null","","fixation","","","","","","","","","","","","","",""
"learning-trial","181","745147","0.0-9.0-2.0-1.47","1586","2","2","""event"",""trial"",""time""
""fullscreenenter"",""1"",""3235""
","
","
","""event"",""trial"",""time""
""fullscreenenter"",""1"",""3235""
","
","","","","","","2420.5","images/sofa5.png","","","learning","images/furniture_choice2.png","images/furniture_choice1.png","images/furniture_choice3.png","[1,0,2]","1","0","2","images/furniture_choice1.png","-1","furniture","","sofa","2","0"
"html-keyboard-response","182","745653","0.0-9.0-2.0-0.48","1586","2","2","""event"",""trial"",""time""
""fullscreenenter"",""1"",""3235""
","
","
","""event"",""trial"",""time""
""fullscreenenter"",""1"",""3235""
","
","","","","","","null","<div style=""font-size:60px;"">+</div>","null","","fixation","","","","","","","","","","","","","",""
"learning-trial","183","749660","0.0-9.0-2.0-1.48","1586","2","2","""event"",""trial"",""time""
""fullscreenenter"",""1"",""3235""
","
","
","""event"",""trial"",""time""
""fullscreenenter"",""1"",""3235""
","
","","","","","","1541.5999999940395","images/sofa5.png","","","learning","images/furniture_choice3.png","images/furniture_choice2.png","images/furniture_choice1.png","[2,1,0]","1","1","1","images/furniture_choice3.png","-1","furniture","","sofa","2","0"
"html-keyboard-response","184","750163","0.0-9.0-2.0-0.49","1586","2","2","""event"",""trial"",""time""
""fullscreenenter"",""1"",""3235""
","
","
","""event"",""trial"",""time""
""fullscreenenter"",""1"",""3235""
","
","","","","","","null","<div style=""font-size:60px;"">+</div>","null","","fixation","","","","","","","","","","","","","",""
"learning-trial","185","754170","0.0-9.0-2.0-1.49","1586","2","2","""event"",""trial"",""time""
""fullscreenenter"",""1"",""3235""
","
","
","""event"",""trial"",""time""
""fullscreenenter"",""1"",""3235""
","
","","","","","","452.7999999821186","images/sofa5.png","","","learning","images/furniture_choice2.png","images/furniture_choice3.png","images/furniture_choice1.png","[1,2,0]","1","0","3","images/furniture_choice1.png","-1","furniture","","sofa","2","0"
"html-keyboard-response","186","754675","0.0-9.0-2.0-0.50","1586","2","2","""event"",""trial"",""time""
""fullscreenenter"",""1"",""3235""
","
","
","""event"",""trial"",""time""
""fullscreenenter"",""1"",""3235""
","
","","","","","","null","<div style=""font-size:60px;"">+</div>","null","","fixation","","","","","","","","","","","","","",""
"learning-trial","187","758681","0.0-9.0-2.0-1.50","1586","2","2","""event"",""trial"",""time""
""fullscreenenter"",""1"",""3235""
","
","
","""event"",""trial"",""time""
""fullscreenenter"",""1"",""3235""
","
","","","","","","392.2999999821186","images/sofa3.png","","","learning","images/furniture_choice3.png","images/furniture_choice1.png","images/furniture_choice2.png","[2,0,1]","0","1","2","images/furniture_choice1.png","1","furniture","","sofa","2","0"
"html-keyboard-response","188","759187","0.0-9.0-2.0-0.51","1586","2","2","""event"",""trial"",""time""
""fullscreenenter"",""1"",""3235""
","
","
","""event"",""trial"",""time""
""fullscreenenter"",""1"",""3235""
","
","","","","","","null","<div style=""font-size:60px;"">+</div>","null","","fixation","","","","","","","","","","","","","",""
"learning-trial","189","763193","0.0-9.0-2.0-1.51","1586","2","2","""event"",""trial"",""time""
""fullscreenenter"",""1"",""3235""
","
","
","""event"",""trial"",""time""
""fullscreenenter"",""1"",""3235""
","
","","","","","","472.19999998807907","images/chair1.png","","","learning","images/furniture_choice2.png","images/furniture_choice1.png","images/furniture_choice3.png","[1,0,2]","1","0","3","images/furniture_choice3.png","-1","furniture","","chair","2","0"
"html-keyboard-response","190","763694","0.0-9.0-2.0-0.52","1586","2","2","""event"",""trial"",""time""
""fullscreenenter"",""1"",""3235""
","
","
","""event"",""trial"",""time""
""fullscreenenter"",""1"",""3235""
","
","","","","","","null","<div style=""font-size:60px;"">+</div>","null","","fixation","","","","","","","","","","","","","",""
"learning-trial","191","767699","0.0-9.0-2.0-1.52","1586","2","2","""event"",""trial"",""time""
""fullscreenenter"",""1"",""3235""
","
","
","""event"",""trial"",""time""
""fullscreenenter"",""1"",""3235""
","
","","","","","","395.90000000596046","images/bed3.png","","","learning","images/furniture_choice2.png","images/furniture_choice3.png","images/furniture_choice1.png","[1,2,0]","2","1","2","images/furniture_choice3.png","1","furniture","","bed","2","0"
"html-keyboard-response","192","768203","0.0-9.0-2.0-0.53","1586","2","2","""event"",""trial"",""time""
""fullscreenenter"",""1"",""3235""
","
","
","""event"",""trial"",""time""
""fullscreenenter"",""1"",""3235""
","
","","","","","","null","<div style=""font-size:60px;"">+</div>","null","","fixation","","","","","","","","","","","","","",""
"learning-trial","193","772211","0.0-9.0-2.0-1.53","1586","2","2","""event"",""trial"",""time""
""fullscreenenter"",""1"",""3235""
","
","
","""event"",""trial"",""time""
""fullscreenenter"",""1"",""3235""
","
","","","","","","688.8000000119209","images/chair1.png","","","learning","images/furniture_choice1.png","images/furniture_choice3.png","images/furniture_choice2.png","[0,2,1]","1","2","1","images/furniture_choice1.png","-1","furniture","","chair","2","0"
"html-keyboard-response","194","772713","0.0-9.0-2.0-0.54","1586","2","2","""event"",""trial"",""time""
""fullscreenenter"",""1"",""3235""
","
","
","""event"",""trial"",""time""
""fullscreenenter"",""1"",""3235""
","
","","","","","","null","<div style=""font-size:60px;"">+</div>","null","","fixation","","","","","","","","","","","","","",""
"learning-trial","195","776718","0.0-9.0-2.0-1.54","1586","2","2","""event"",""trial"",""time""
""fullscreenenter"",""1"",""3235""
","
","
","""event"",""trial"",""time""
""fullscreenenter"",""1"",""3235""
","
","","","","","","339.2000000178814","images/bed1.png","","","learning","images/furniture_choice2.png","images/furniture_choice1.png","images/furniture_choice3.png","[1,0,2]","1","0","2","images/furniture_choice1.png","-1","furniture","","bed","2","0"
"html-keyboard-response","196","777223","0.0-9.0-2.0-0.55","1586","2","2","""event"",""trial"",""time""
""fullscreenenter"",""1"",""3235""
","
","
","""event"",""trial"",""time""
""fullscreenenter"",""1"",""3235""
","
","","","","","","null","<div style=""font-size:60px;"">+</div>","null","","fixation","","","","","","","","","","","","","",""
"learning-trial","197","781230","0.0-9.0-2.0-1.55","1586","2","2","""event"",""trial"",""time""
""fullscreenenter"",""1"",""3235""
","
","
","""event"",""trial"",""time""
""fullscreenenter"",""1"",""3235""
","
","","","","","","319.5","images/bed3.png","","","learning","images/furniture_choice1.png","images/furniture_choice2.png","images/furniture_choice3.png","[0,1,2]","2","2","3","images/furniture_choice3.png","1","furniture","","bed","2","0"
"html-keyboard-response","198","781731","0.0-9.0-2.0-0.56","1586","2","2","""event"",""trial"",""time""
""fullscreenenter"",""1"",""3235""
","
","
","""event"",""trial"",""time""
""fullscreenenter"",""1"",""3235""
","
","","","","","","null","<div style=""font-size:60px;"">+</div>","null","","fixation","","","","","","","","","","","","","",""
"learning-trial","199","785736","0.0-9.0-2.0-1.56","1586","2","2","""event"",""trial"",""time""
""fullscreenenter"",""1"",""3235""
","
","
","""event"",""trial"",""time""
""fullscreenenter"",""1"",""3235""
","
","","","","","","360.40000000596046","images/chair3.png","","","learning","images/furniture_choice3.png","images/furniture_choice2.png","images/furniture_choice1.png","[2,1,0]","2","0","2","images/furniture_choice2.png","-1","furniture","","chair","2","0"
"html-keyboard-response","200","786242","0.0-9.0-2.0-0.57","1586","2","2","""event"",""trial"",""time""
""fullscreenenter"",""1"",""3235""
","
","
","""event"",""trial"",""time""
""fullscreenenter"",""1"",""3235""
","
","","","","","","null","<div style=""font-size:60px;"">+</div>","null","","fixation","","","","","","","","","","","","","",""
"learning-trial","201","790248","0.0-9.0-2.0-1.57","1586","2","2","""event"",""trial"",""time""
""fullscreenenter"",""1"",""3235""
","
","
","""event"",""trial"",""time""
""fullscreenenter"",""1"",""3235""
","
","","","","","","383.89999997615814","images/chair1.png","","","learning","images/furniture_choice2.png","images/furniture_choice3.png","images/furniture_choice1.png","[1,2,0]","1","0","1","images/furniture_choice2.png","-1","furniture","","chair","2","0"
"html-keyboard-response","202","790755","0.0-9.0-2.0-0.58","1586","2","2","""event"",""trial"",""time""
""fullscreenenter"",""1"",""3235""
","
","
","""event"",""trial"",""time""
""fullscreenenter"",""1"",""3235""
","
","","","","","","null","<div style=""font-size:60px;"">+</div>","null","","fixation","","","","","","","","","","","","","",""
"learning-trial","203","794761","0.0-9.0-2.0-1.58","1586","2","2","""event"",""trial"",""time""
""fullscreenenter"",""1"",""3235""
","
","
","""event"",""trial"",""time""
""fullscreenenter"",""1"",""3235""
","
","","","","","","322.60000002384186","images/bed1.png","","","learning","images/furniture_choice1.png","images/furniture_choice3.png","images/furniture_choice2.png","[0,2,1]","1","2","3","images/furniture_choice2.png","1","furniture","","bed","2","0"
"html-keyboard-response","204","795267","0.0-9.0-2.0-0.59","1586","2","2","""event"",""trial"",""time""
""fullscreenenter"",""1"",""3235""
","
","
","""event"",""trial"",""time""
""fullscreenenter"",""1"",""3235""
","
","","","","","","null","<div style=""font-size:60px;"">+</div>","null","","fixation","","","","","","","","","","","","","",""
"learning-trial","205","799272","0.0-9.0-2.0-1.59","1586","2","2","""event"",""trial"",""time""
""fullscreenenter"",""1"",""3235""
","
","
","""event"",""trial"",""time""
""fullscreenenter"",""1"",""3235""
","
","","","","","","372.2000000178814","images/chair1.png","","","learning","images/furniture_choice3.png","images/furniture_choice2.png","images/furniture_choice1.png","[2,1,0]","1","1","2","images/furniture_choice2.png","1","furniture","","chair","2","0"
"html-keyboard-response","206","799774","0.0-9.0-2.0-0.60","1586","2","2","""event"",""trial"",""time""
""fullscreenenter"",""1"",""3235""
","
","
","""event"",""trial"",""time""
""fullscreenenter"",""1"",""3235""
","
","","","","","","null","<div style=""font-size:60px;"">+</div>","null","","fixation","","","","","","","","","","","","","",""
"learning-trial","207","803779","0.0-9.0-2.0-1.60","1586","2","2","""event"",""trial"",""time""
""fullscreenenter"",""1"",""3235""
","
","
","""event"",""trial"",""time""
""fullscreenenter"",""1"",""3235""
","
","","","","","","314.89999997615814","images/chair5.png","","","learning","images/furniture_choice2.png","images/furniture_choice3.png","images/furniture_choice1.png","[1,2,0]","0","2","3","images/furniture_choice1.png","1","furniture","","chair","2","0"
"html-keyboard-response","208","804285","0.0-9.0-2.0-0.61","1586","2","2","""event"",""trial"",""time""
""fullscreenenter"",""1"",""3235""
","
","
","""event"",""trial"",""time""
""fullscreenenter"",""1"",""3235""
","
","","","","","","null","<div style=""font-size:60px;"">+</div>","null","","fixation","","","","","","","","","","","","","",""
"learning-trial","209","808293","0.0-9.0-2.0-1.61","1586","2","2","""event"",""trial"",""time""
""fullscreenenter"",""1"",""3235""
","
","
","""event"",""trial"",""time""
""fullscreenenter"",""1"",""3235""
","
","","","","","","995.1999999880791","images/sofa1.png","","","learning","images/furniture_choice1.png","images/furniture_choice3.png","images/furniture_choice2.png","[0,2,1]","2","1","2","images/furniture_choice3.png","1","furniture","","sofa","2","0"
"html-keyboard-response","210","808797","0.0-9.0-2.0-0.62","1586","2","2","""event"",""trial"",""time""
""fullscreenenter"",""1"",""3235""
","
","
","""event"",""trial"",""time""
""fullscreenenter"",""1"",""3235""
","
","","","","","","null","<div style=""font-size:60px;"">+</div>","null","","fixation","","","","","","","","","","","","","",""
"learning-trial","211","812802","0.0-9.0-2.0-1.62","1586","2","2","""event"",""trial"",""time""
""fullscreenenter"",""1"",""3235""
","
","
","""event"",""trial"",""time""
""fullscreenenter"",""1"",""3235""
","
","","","","","","432.2000000178814","images/chair1.png","","","learning","images/furniture_choice1.png","images/furniture_choice2.png","images/furniture_choice3.png","[0,1,2]","1","1","1","images/furniture_choice1.png","1","furniture","","chair","2","0"
"html-keyboard-response","212","813306","0.0-9.0-2.0-0.63","1586","2","2","""event"",""trial"",""time""
""fullscreenenter"",""1"",""3235""
","
","
","""event"",""trial"",""time""
""fullscreenenter"",""1"",""3235""
","
","","","","","","null","<div style=""font-size:60px;"">+</div>","null","","fixation","","","","","","","","","","","","","",""
"learning-trial","213","817314","0.0-9.0-2.0-1.63","1586","2","2","""event"",""trial"",""time""
""fullscreenenter"",""1"",""3235""
","
","
","""event"",""trial"",""time""
""fullscreenenter"",""1"",""3235""
","
","","","","","","557.2999999821186","images/chair5.png","","","learning","images/furniture_choice2.png","images/furniture_choice1.png","images/furniture_choice3.png","[1,0,2]","0","1","2","images/furniture_choice1.png","1","furniture","","chair","2","0"
"html-keyboard-response","214","817815","0.0-9.0-2.0-0.64","1586","2","2","""event"",""trial"",""time""
""fullscreenenter"",""1"",""3235""
","
","
","""event"",""trial"",""time""
""fullscreenenter"",""1"",""3235""
","
","","","","","","null","<div style=""font-size:60px;"">+</div>","null","","fixation","","","","","","","","","","","","","",""
"learning-trial","215","821821","0.0-9.0-2.0-1.64","1586","2","2","""event"",""trial"",""time""
""fullscreenenter"",""1"",""3235""
","
","
","""event"",""trial"",""time""
""fullscreenenter"",""1"",""3235""
","
","","","","","","347.7999999821186","images/chair1.png","","","learning","images/furniture_choice3.png","images/furniture_choice2.png","images/furniture_choice1.png","[2,1,0]","1","1","3","images/furniture_choice1.png","-1","furniture","","chair","2","0"
"html-keyboard-response","216","822327","0.0-9.0-2.0-0.65","1586","2","2","""event"",""trial"",""time""
""fullscreenenter"",""1"",""3235""
","
","
","""event"",""trial"",""time""
""fullscreenenter"",""1"",""3235""
","
","","","","","","null","<div style=""font-size:60px;"">+</div>","null","","fixation","","","","","","","","","","","","","",""
"learning-trial","217","826333","0.0-9.0-2.0-1.65","1586","2","2","""event"",""trial"",""time""
""fullscreenenter"",""1"",""3235""
","
","
","""event"",""trial"",""time""
""fullscreenenter"",""1"",""3235""
","
","","","","","","443","images/sofa3.png","","","learning","images/furniture_choice1.png","images/furniture_choice2.png","images/furniture_choice3.png","[0,1,2]","0","0","2","images/furniture_choice2.png","-1","furniture","","sofa","2","0"
"html-keyboard-response","218","826837","0.0-9.0-2.0-0.66","1586","2","2","""event"",""trial"",""time""
""fullscreenenter"",""1"",""3235""
","
","
","""event"",""trial"",""time""
""fullscreenenter"",""1"",""3235""
","
","","","","","","null","<div style=""font-size:60px;"">+</div>","null","","fixation","","","","","","","","","","","","","",""
"learning-trial","219","830844","0.0-9.0-2.0-1.66","1586","2","2","""event"",""trial"",""time""
""fullscreenenter"",""1"",""3235""
","
","
","""event"",""trial"",""time""
""fullscreenenter"",""1"",""3235""
","
","","","","","","579.0999999940395","images/sofa3.png","","","learning","images/furniture_choice3.png","images/furniture_choice1.png","images/furniture_choice2.png","[2,0,1]","0","1","1","images/furniture_choice3.png","1","furniture","","sofa","2","0"
"html-keyboard-response","220","831349","0.0-9.0-2.0-0.67","1586","2","2","""event"",""trial"",""time""
""fullscreenenter"",""1"",""3235""
","
","
","""event"",""trial"",""time""
""fullscreenenter"",""1"",""3235""
","
","","","","","","null","<div style=""font-size:60px;"">+</div>","null","","fixation","","","","","","","","","","","","","",""
"learning-trial","221","835357","0.0-9.0-2.0-1.67","1586","2","2","""event"",""trial"",""time""
""fullscreenenter"",""1"",""3235""
","
","
","""event"",""trial"",""time""
""fullscreenenter"",""1"",""3235""
","
","","","","","","1345.0999999940395","images/bed1.png","","","learning","images/furniture_choice1.png","images/furniture_choice3.png","images/furniture_choice2.png","[0,2,1]","1","2","2","images/furniture_choice3.png","-1","furniture","","bed","2","0"
"html-keyboard-response","222","835863","0.0-9.0-2.0-0.68","1586","2","2","""event"",""trial"",""time""
""fullscreenenter"",""1"",""3235""
","
","
","""event"",""trial"",""time""
""fullscreenenter"",""1"",""3235""
","
","","","","","","null","<div style=""font-size:60px;"">+</div>","null","","fixation","","","","","","","","","","","","","",""
"learning-trial","223","839869","0.0-9.0-2.0-1.68","1586","2","2","""event"",""trial"",""time""
""fullscreenenter"",""1"",""3235""
","
","
","""event"",""trial"",""time""
""fullscreenenter"",""1"",""3235""
","
","","","","","","1044.800000011921","images/chair5.png","","","learning","images/furniture_choice3.png","images/furniture_choice2.png","images/furniture_choice1.png","[2,1,0]","0","2","3","images/furniture_choice1.png","1","furniture","","chair","2","0"
"html-keyboard-response","224","840374","0.0-9.0-2.0-0.69","1586","2","2","""event"",""trial"",""time""
""fullscreenenter"",""1"",""3235""
","
","
","""event"",""trial"",""time""
""fullscreenenter"",""1"",""3235""
","
","","","","","","null","<div style=""font-size:60px;"">+</div>","null","","fixation","","","","","","","","","","","","","",""
"learning-trial","225","844380","0.0-9.0-2.0-1.69","1586","2","2","""event"",""trial"",""time""
""fullscreenenter"",""1"",""3235""
","
","
","""event"",""trial"",""time""
""fullscreenenter"",""1"",""3235""
","
","","","","","","1499.9000000059605","images/chair3.png","","","learning","images/furniture_choice1.png","images/furniture_choice3.png","images/furniture_choice2.png","[0,2,1]","2","1","2","images/furniture_choice3.png","1","furniture","","chair","2","0"
"html-keyboard-response","226","844885","0.0-9.0-2.0-0.70","1586","2","2","""event"",""trial"",""time""
""fullscreenenter"",""1"",""3235""
","
","
","""event"",""trial"",""time""
""fullscreenenter"",""1"",""3235""
","
","","","","","","null","<div style=""font-size:60px;"">+</div>","null","","fixation","","","","","","","","","","","","","",""
"learning-trial","227","848892","0.0-9.0-2.0-1.70","1586","2","2","""event"",""trial"",""time""
""fullscreenenter"",""1"",""3235""
","
","
","""event"",""trial"",""time""
""fullscreenenter"",""1"",""3235""
","
","","","","","","1894.4000000059605","images/chair3.png","","","learning","images/furniture_choice2.png","images/furniture_choice1.png","images/furniture_choice3.png","[1,0,2]","2","2","3","images/furniture_choice3.png","1","furniture","","chair","2","0"
"html-keyboard-response","228","849394","0.0-9.0-2.0-0.71","1586","2","2","""event"",""trial"",""time""
""fullscreenenter"",""1"",""3235""
","
","
","""event"",""trial"",""time""
""fullscreenenter"",""1"",""3235""
","
","","","","","","null","<div style=""font-size:60px;"">+</div>","null","","fixation","","","","","","","","","","","","","",""
"learning-trial","229","853399","0.0-9.0-2.0-1.71","1586","2","2","""event"",""trial"",""time""
""fullscreenenter"",""1"",""3235""
","
","
","""event"",""trial"",""time""
""fullscreenenter"",""1"",""3235""
","
","","","","","","1932.699999988079","images/bed3.png","","","learning","images/furniture_choice2.png","images/furniture_choice3.png","images/furniture_choice1.png","[1,2,0]","2","1","2","images/furniture_choice3.png","1","furniture","","bed","2","0"
"html-button-response","230","856106","0.0-9.0-3.0","1586","2","2","""event"",""trial"",""time""
""fullscreenenter"",""1"",""3235""
","
","
","""event"",""trial"",""time""
""fullscreenenter"",""1"",""3235""
","
","","","","","","2704.4000000059605","<p> You have completed the round! <p> In this round, you earned -10 points! </p>","0","","break","","","","","","","","","","","","","",""
"html-button-response","231","857432","0.0-10.0","1586","2","2","""event"",""trial"",""time""
""fullscreenenter"",""1"",""3235""
","
","
","""event"",""trial"",""time""
""fullscreenenter"",""1"",""3235""
","
","","","","","","1325.0999999940395","<p> Now it's time to play another round. </p>","0","","transition_screen","","","","","","","","","","","","","",""
"preload","232","859408","0.0-11.0-0.0","1586","2","2","""event"",""trial"",""time""
""fullscreenenter"",""1"",""3235""
","
","
","""event"",""trial"",""time""
""fullscreenenter"",""1"",""3235""
","
","true","false","[]","[]","[]","","","","","","","","","","","","","","","","","","",""
"learning-instructions","233","868897","0.0-11.0-1.0-0.0","1586","2","2","""event"",""trial"",""time""
""fullscreenenter"",""1"",""3235""
","
","
","""event"",""trial"",""time""
""fullscreenenter"",""1"",""3235""
","
","","","","","","3006.5","<p> Your goal in this round is to feed all of your pets with the foods they like. </p><p> You will need to feed many pets. </p></div>","","0","instructions","","","","","","","","","","","","","",""
"learning-instructions","234","880908","0.0-11.0-1.0-0.1","1586","2","2","""event"",""trial"",""time""
""fullscreenenter"",""1"",""3235""
","
","
","""event"",""trial"",""time""
""fullscreenenter"",""1"",""3235""
","
","","","","","","4021.2999999821186","<p> On each turn, you will see a picture of one of your pets and three different types of foods.  </p><p> You need to select the food that you want to give to your pet.  </p>","","0","instructions","","","","","","","","","","","","","",""
"learning-instructions","235","894453","0.0-11.0-1.0-0.2","1586","2","2","""event"",""trial"",""time""
""fullscreenenter"",""1"",""3235""
","
","
","""event"",""trial"",""time""
""fullscreenenter"",""1"",""3235""
","
