"trial_type","trial_index","time_elapsed","internal_node_id","subject_id","condition","task_version","interactions","blur_events","focus_events","fullscreenenter_events","fullscreenexit_events","success","timeout","failed_images","failed_audio","failed_video","rt","stimulus","response","button_pressed","task_part","left_choice","middle_choice","right_choice","choice_positions","correct_response","correct_position","key_press","option_selected","points","task_block","correct","stim_cat","block_condition","block_number"
"pavlovia","0","7","0.0-0.0","1617","2","2","""event"",""trial"",""time""
""fullscreenenter"",""1"",""3335""
","
","
","""event"",""trial"",""time""
""fullscreenenter"",""1"",""3335""
","
","","","","","","","","","","","","","","","","","","","","","","","",""
"fullscreen","1","4313","0.0-1.0","1617","2","2","""event"",""trial"",""time""
""fullscreenenter"",""1"",""3335""
","
","
","""event"",""trial"",""time""
""fullscreenenter"",""1"",""3335""
","
","true","","","","","","","","","","","","","","","","","","","","","","",""
"preload","2","14448","0.0-2.0","1617","2","2","""event"",""trial"",""time""
""fullscreenenter"",""1"",""3335""
","
","
","""event"",""trial"",""time""
""fullscreenenter"",""1"",""3335""
","
","true","false","[]","[]","[]","","","","","","","","","","","","","","","","","","",""
"audio-keyboard-response","3","17318","0.0-3.0","1617","2","2","""event"",""trial"",""time""
""fullscreenenter"",""1"",""3335""
","
","
","""event"",""trial"",""time""
""fullscreenenter"",""1"",""3335""
","
","","","","","","2867.6643990929715","audio/beep_loop.wav"," ","","","","","","","","","","","","","","","",""
"audio-button-response","4","19360","0.0-4.0","1617","2","2","""event"",""trial"",""time""
""fullscreenenter"",""1"",""3335""
","
","
","""event"",""trial"",""time""
""fullscreenenter"",""1"",""3335""
","
","","","","","","2040","audio/shark.wav","4","","","","","","","","","","","","","","","",""
"audio-button-response","5","22234","0.0-5.0","1617","2","2","""event"",""trial"",""time""
""fullscreenenter"",""1"",""3335""
","
","
","""event"",""trial"",""time""
""fullscreenenter"",""1"",""3335""
","
","","","","","","1860","audio/turtle.wav","1","","","","","","","","","","","","","","","",""
"preload","6","30519","0.0-6.0","1617","2","2","""event"",""trial"",""time""
""fullscreenenter"",""1"",""3335""
","
","
","""event"",""trial"",""time""
""fullscreenenter"",""1"",""3335""
","
","true","false","[]","[]","[]","","","","","","","","","","","","","","","","","","",""
"html-keyboard-response","7","31978","0.0-7.0","1617","2","2","""event"",""trial"",""time""
""fullscreenenter"",""1"",""3335""
","
","
","""event"",""trial"",""time""
""fullscreenenter"",""1"",""3335""
","
","","","","","","1458.5","Welcome to the experiment. Press any key to begin and to advance the instructions."," ","","","","","","","","","","","","","","","",""
"learning-instructions","8","41302","0.0-8.0-0.0-0.0","1617","2","2","""event"",""trial"",""time""
""fullscreenenter"",""1"",""3335""
","
","
","""event"",""trial"",""time""
""fullscreenenter"",""1"",""3335""
","
","","","","","","1576.8000000715256","<p> Welcome! Today you are going to play 6 different rounds of a decision-making game. </p><p> Use the mouse to click next to continue. </p>","","0","instructions","","","","","","","","","","","","","",""
"learning-instructions","9","45212","0.0-8.0-0.0-0.1","1617","2","2","""event"",""trial"",""time""
""fullscreenenter"",""1"",""3335""
","
","
","""event"",""trial"",""time""
""fullscreenenter"",""1"",""3335""
","
","","","","","","906.3999999761581","<p> You will start with a practice round to learn the rules. </p>","","0","instructions","","","","","","","","","","","","","",""
"learning-instructions","10","53362","0.0-8.0-0.0-0.2","1617","2","2","""event"",""trial"",""time""
""fullscreenenter"",""1"",""3335""
","
","
","""event"",""trial"",""time""
""fullscreenenter"",""1"",""3335""
","
","","","","","","397.10000002384186","<p> Your goal in this round is to deliver sports equipment to three different parks. </p><p> You will need to deliver many types of equipment. </p></div>","","0","instructions","","","","","","","","","","","","","",""
"learning-instructions","11","62339","0.0-8.0-0.0-0.3","1617","2","2","""event"",""trial"",""time""
""fullscreenenter"",""1"",""3335""
","
","
","""event"",""trial"",""time""
""fullscreenenter"",""1"",""3335""
","
","","","","","","482.89999997615814","<p> On each turn, you will see one piece of sports equipment and three different parks.  </p><p> You need to select which park to deliver the equipment to.  </p>","","0","instructions","","","","","","","","","","","","","",""
"learning-instructions","12","76379","0.0-8.0-0.0-0.4","1617","2","2","""event"",""trial"",""time""
""fullscreenenter"",""1"",""3335""
","
","
","""event"",""trial"",""time""
""fullscreenenter"",""1"",""3335""
","
","","","","","","741.7000000476837","<p> You can select the park on the left by pressing the '1' key on your keyboard. <br>You can select the park in the middle by pressing the '2' key on your keyboard. <br>You can select the park on the right by pressing the '3' key on your keyboard.  </p><br><div class=""choice-instructions-grid""> <div class=""choice-option""><img src=""images/park1.png"" class=""choice-option-img"" stage=""instructions"" position=""0"" ><div class=""choice-option-text""> Press ""1."" </div></div><div class=""choice-option""><img src=""images/park2.png"" class=""choice-option-img"" stage=""instructions"" position=""1"" ><div class=""choice-option-text""> Press ""2."" </div></div><div class=""choice-option""><img src=""images/park3.png"" class=""choice-option-img"" stage=""instructions"" position=""2"" ><div class=""choice-option-text""> Press ""3."" </div></div></div>","","0","instructions","","","","","","","","","","","","","",""
"learning-instructions","13","82637","0.0-8.0-0.0-0.5","1617","2","2","""event"",""trial"",""time""
""fullscreenenter"",""1"",""3335""
","
","
","""event"",""trial"",""time""
""fullscreenenter"",""1"",""3335""
","
","","","","","","870.5","<p> If the kids in the park you chose like the equipment, they will be very happy! </p><div style='float: center;'><img src='images/check.png' width = '200' height = '200'></img>","","0","instructions","","","","","","","","","","","","","",""
"learning-instructions","14","88787","0.0-8.0-0.0-0.6","1617","2","2","""event"",""trial"",""time""
""fullscreenenter"",""1"",""3335""
","
","
","""event"",""trial"",""time""
""fullscreenenter"",""1"",""3335""
","
","","","","","","540.3999999761581","<p> But, if the kids in the park you chose do not like the equipment, they will be sad. </p><div style='float: center;'><img src='images/x.png' width = '200' height = '200'></img>","","0","instructions","","","","","","","","","","","","","",""
"learning-instructions","15","96507","0.0-8.0-0.0-0.7","1617","2","2","""event"",""trial"",""time""
""fullscreenenter"",""1"",""3335""
","
","
","""event"",""trial"",""time""
""fullscreenenter"",""1"",""3335""
","
","","","","","","1280.5","<p> Importantly, the kids in each park like some pieces of sports equipment more than others. </p>","","0","instructions","","","","","","","","","","","","","",""
"learning-instructions","16","103040","0.0-8.0-0.0-0.8","1617","2","2","""event"",""trial"",""time""
""fullscreenenter"",""1"",""3335""
","
","
","""event"",""trial"",""time""
""fullscreenenter"",""1"",""3335""
","
","","","","","","483.5","<p> If you choose the best park for each piece of equipment, the kids there will usually be happy. </p>","","0","instructions","","","","","","","","","","","","","",""
"learning-instructions","17","110329","0.0-8.0-0.0-0.9","1617","2","2","""event"",""trial"",""time""
""fullscreenenter"",""1"",""3335""
","
","
","""event"",""trial"",""time""
""fullscreenenter"",""1"",""3335""
","
","","","","","","632.3999999761581","<p> However, even if you choose the best park for the equipment, the kids may sometimes be sad. </p>","","0","instructions","","","","","","","","","","","","","",""
"learning-instructions","18","117987","0.0-8.0-0.0-0.10","1617","2","2","""event"",""trial"",""time""
""fullscreenenter"",""1"",""3335""
","
","
","""event"",""trial"",""time""
""fullscreenenter"",""1"",""3335""
","
","","","","","","410.5","<p> Similarly, even if you choose the <i>wrong</i> park for the equipment, the kids may still be happy sometimes.","","0","instructions","","","","","","","","","","","","","",""
"learning-instructions","19","123741","0.0-8.0-0.0-0.11","1617","2","2","""event"",""trial"",""time""
""fullscreenenter"",""1"",""3335""
","
","
","""event"",""trial"",""time""
""fullscreenenter"",""1"",""3335""
","
","","","","","","694.8000000715256","<p> For example, the best park for this soccer ball is this one.<div style='float: center;'><img src='images/i1.png' width = '500' height = '268'></img>","","0","instructions","","","","","","","","","","","","","",""
"learning-instructions","20","130673","0.0-8.0-0.0-0.12","1617","2","2","""event"",""trial"",""time""
""fullscreenenter"",""1"",""3335""
","
","
","""event"",""trial"",""time""
""fullscreenenter"",""1"",""3335""
","
","","","","","","1636.3000000715256","<p> Let's see what happens if you choose this park for the soccer ball five times.","","0","instructions","","","","","","","","","","","","","",""
"learning-instructions","21","134279","0.0-8.0-0.0-0.13","1617","2","2","""event"",""trial"",""time""
""fullscreenenter"",""1"",""3335""
","
","
","""event"",""trial"",""time""
""fullscreenenter"",""1"",""3335""
","
","","","","","","1442.5","<p> The kids are happy.<div style='float: left;'><img src='images/i2.png' width = '640' height = '360'></img>","","0","instructions","","","","","","","","","","","","","",""
"learning-instructions","22","136948","0.0-8.0-0.0-0.14","1617","2","2","""event"",""trial"",""time""
""fullscreenenter"",""1"",""3335""
","
","
","""event"",""trial"",""time""
""fullscreenenter"",""1"",""3335""
","
","","","","","","492.2999999523163","<p> The kids are happy.<div style='float: left;'><img src='images/i3.png' width = '640' height = '360'></img>","","0","instructions","","","","","","","","","","","","","",""
"learning-instructions","23","139579","0.0-8.0-0.0-0.15","1617","2","2","""event"",""trial"",""time""
""fullscreenenter"",""1"",""3335""
","
","
","""event"",""trial"",""time""
""fullscreenenter"",""1"",""3335""
","
","","","","","","452.2999999523163","<p> The kids are happy.<div style='float: left;'><img src='images/i4.png' width = '640' height = '360'></img>","","0","instructions","","","","","","","","","","","","","",""
"learning-instructions","24","142217","0.0-8.0-0.0-0.16","1617","2","2","""event"",""trial"",""time""
""fullscreenenter"",""1"",""3335""
","
","
","""event"",""trial"",""time""
""fullscreenenter"",""1"",""3335""
","
","","","","","","420.6999999284744","<p> The kids are sad.<div style='float: left;'><img src='images/i5.png' width = '640' height = '360'></img>","","0","instructions","","","","","","","","","","","","","",""
"learning-instructions","25","145105","0.0-8.0-0.0-0.17","1617","2","2","""event"",""trial"",""time""
""fullscreenenter"",""1"",""3335""
","
","
","""event"",""trial"",""time""
""fullscreenenter"",""1"",""3335""
","
","","","","","","717.8999999761581","<p> The kids are happy.<div style='float: left;'><img src='images/i6.png' width = '640' height = '360'></img>","","0","instructions","","","","","","","","","","","","","",""
"learning-instructions","26","153129","0.0-8.0-0.0-0.18","1617","2","2","""event"",""trial"",""time""
""fullscreenenter"",""1"",""3335""
","
","
","""event"",""trial"",""time""
""fullscreenenter"",""1"",""3335""
","
","","","","","","742.5","<p> As you can see, selecting that park for the soccer ball made the kids happy most of the time, but not all the time.","","0","instructions","","","","","","","","","","","","","",""
"learning-instructions","27","159693","0.0-8.0-0.0-0.19","1617","2","2","""event"",""trial"",""time""
""fullscreenenter"",""1"",""3335""
","
","
","""event"",""trial"",""time""
""fullscreenenter"",""1"",""3335""
","
","","","","","","566.8000000715256","<p> Now let's see what happens if you choose a DIFFERENT park for the soccer ball 5 times.","","0","instructions","","","","","","","","","","","","","",""
"learning-instructions","28","163033","0.0-8.0-0.0-0.20","1617","2","2","""event"",""trial"",""time""
""fullscreenenter"",""1"",""3335""
","
","
","""event"",""trial"",""time""
""fullscreenenter"",""1"",""3335""
","
","","","","","","1136.8999999761581","<p> The kids are sad.<div style='float: left;'><img src='images/i7.png' width = '640' height = '360'></img>","","0","instructions","","","","","","","","","","","","","",""
"learning-instructions","29","165609","0.0-8.0-0.0-0.21","1617","2","2","""event"",""trial"",""time""
""fullscreenenter"",""1"",""3335""
","
","
","""event"",""trial"",""time""
""fullscreenenter"",""1"",""3335""
","
","","","","","","362.3000000715256","<p> The kids are sad.<div style='float: left;'><img src='images/i8.png' width = '640' height = '360'></img>","","0","instructions","","","","","","","","","","","","","",""
"learning-instructions","30","168247","0.0-8.0-0.0-0.22","1617","2","2","""event"",""trial"",""time""
""fullscreenenter"",""1"",""3335""
","
","
","""event"",""trial"",""time""
""fullscreenenter"",""1"",""3335""
","
","","","","","","460.2999999523163","<p> The kids are happy.<div style='float: left;'><img src='images/i9.png' width = '640' height = '360'></img>","","0","instructions","","","","","","","","","","","","","",""
"learning-instructions","31","170799","0.0-8.0-0.0-0.23","1617","2","2","""event"",""trial"",""time""
""fullscreenenter"",""1"",""3335""
","
","
","""event"",""trial"",""time""
""fullscreenenter"",""1"",""3335""
","
","","","","","","322.7999999523163","<p> The kids are sad.<div style='float: left;'><img src='images/i10.png' width = '640' height = '360'></img>","","0","instructions","","","","","","","","","","","","","",""
"learning-instructions","32","174445","0.0-8.0-0.0-0.24","1617","2","2","""event"",""trial"",""time""
""fullscreenenter"",""1"",""3335""
","
","
","""event"",""trial"",""time""
""fullscreenenter"",""1"",""3335""
","
","","","","","","1439.1000000238419","<p> The kids are sad.<div style='float: left;'><img src='images/i11.png' width = '640' height = '360'></img>","","0","instructions","","","","","","","","","","","","","",""
"learning-instructions","33","184147","0.0-8.0-0.0-0.25","1617","2","2","""event"",""trial"",""time""
""fullscreenenter"",""1"",""3335""
","
","
","""event"",""trial"",""time""
""fullscreenenter"",""1"",""3335""
","
","","","","","","1560.2999999523163","<p> As you can see, selecting the wrong park for the soccer ball made the kids sad most of the time, but not all the time.","","0","instructions","","","","","","","","","","","","","",""
"learning-instructions","34","193897","0.0-8.0-0.0-0.26","1617","2","2","""event"",""trial"",""time""
""fullscreenenter"",""1"",""3335""
","
","
","""event"",""trial"",""time""
""fullscreenenter"",""1"",""3335""
","
","","","","","","620.3999999761581","<p> The different pieces of equipment belong in different parks. You need to try to learn which is the best park for each piece of equipment.","","0","instructions","","","","","","","","","","","","","",""
"learning-instructions","35","212303","0.0-8.0-0.0-0.27","1617","2","2","""event"",""trial"",""time""
""fullscreenenter"",""1"",""3335""
","
","
","""event"",""trial"",""time""
""fullscreenenter"",""1"",""3335""
","
","","","","","","2006.1000000238419","<p> Try to choose the best park for each piece of equipment, because you will <b> WIN </b> 1 point for each time you make the kids happy and <b>LOSE</b> 1 point for each time you make them sad. </p><p> Remember, if you make the best choice, you will win 1 point most of the time, but not all the time. </p>","","0","instructions","","","","","","","","","","","","","",""
"learning-instructions","36","218507","0.0-8.0-0.0-0.28","1617","2","2","""event"",""trial"",""time""
""fullscreenenter"",""1"",""3335""
","
","
","""event"",""trial"",""time""
""fullscreenenter"",""1"",""3335""
","
","","","","","","730.2999999523163","<p> This is just a practice round, but in the real game, your bonus payment will depend on your total number of points.","","0","instructions","","","","","","","","","","","","","",""
"learning-instructions","37","229261","0.0-8.0-0.0-0.29","1617","2","2","""event"",""trial"",""time""
""fullscreenenter"",""1"",""3335""
","
","
","""event"",""trial"",""time""
""fullscreenenter"",""1"",""3335""
","
","","","","","","435.09999990463257","<p> The position where each park appears will change throughout the game. </p><p> The position where the park appears <i> does not </i> influence how likely the kids are to be happy or sad. </p>","","0","instructions","","","","","","","","","","","","","",""
"learning-instructions","38","241236","0.0-8.0-0.0-0.30","1617","2","2","""event"",""trial"",""time""
""fullscreenenter"",""1"",""3335""
","
","
","""event"",""trial"",""time""
""fullscreenenter"",""1"",""3335""
","
","","","","","","1298.5","<p> You will have 4 seconds to make each choice. Try to respond before time runs out! </p><p> You will lose 1 point each time you do not make a response. </p>","","0","instructions","","","","","","","","","","","","","",""
"learning-instructions","39","249345","0.0-8.0-0.0-0.31","1617","2","2","""event"",""trial"",""time""
""fullscreenenter"",""1"",""3335""
","
","
","""event"",""trial"",""time""
""fullscreenenter"",""1"",""3335""
","
","","","","","","1308.6000000238419","<p> Remember, you should use the 1, 2, and 3 keys to select the park for each piece of equipment. </p><br><div class=""choice-instructions-grid""> <div class=""choice-option""><img src=""images/park1.png"" class=""choice-option-img"" stage=""instructions"" position=""0"" ><div class=""choice-option-text""> Press ""1."" </div></div><div class=""choice-option""><img src=""images/park2.png"" class=""choice-option-img"" stage=""instructions"" position=""1"" ><div class=""choice-option-text""> Press ""2."" </div></div><div class=""choice-option""><img src=""images/park3.png"" class=""choice-option-img"" stage=""instructions"" position=""2"" ><div class=""choice-option-text""> Press ""3."" </div></div></div>","","0","instructions","","","","","","","","","","","","","",""
"html-button-response","40","250945","0.0-8.0-1.0","1617","2","2","""event"",""trial"",""time""
""fullscreenenter"",""1"",""3335""
","
","
","""event"",""trial"",""time""
""fullscreenenter"",""1"",""3335""
","
","","","","","","1498.3999999761581","<p> Ready to practice? </p>","0","","","","","","","","","","","","","","","",""
"html-keyboard-response","41","251566","0.0-8.0-2.0-0.0","1617","2","2","""event"",""trial"",""time""
""fullscreenenter"",""1"",""3335""
","
","
","""event"",""trial"",""time""
""fullscreenenter"",""1"",""3335""
","
","","","","","","null","<div style=""font-size:60px;"">+</div>","null","","fixation","","","","","","","","","","","","","",""
"learning-trial","42","255586","0.0-8.0-2.0-1.0","1617","2","2","""event"",""trial"",""time""
""fullscreenenter"",""1"",""3335""
","
","
","""event"",""trial"",""time""
""fullscreenenter"",""1"",""3335""
","
","","","","","","1851.8999999761581","images/racket3.png","","","practice","images/park3.png","images/park2.png","images/park1.png","[2,1,0]","2","0","1","images/park3.png","1","practice","","","",""
"html-keyboard-response","43","256095","0.0-8.0-2.0-0.1","1617","2","2","""event"",""trial"",""time""
""fullscreenenter"",""1"",""3335""
","
","
","""event"",""trial"",""time""
""fullscreenenter"",""1"",""3335""
","
","","","","","","null","<div style=""font-size:60px;"">+</div>","null","","fixation","","","","","","","","","","","","","",""
"learning-trial","44","260115","0.0-8.0-2.0-1.1","1617","2","2","""event"",""trial"",""time""
""fullscreenenter"",""1"",""3335""
","
","
","""event"",""trial"",""time""
""fullscreenenter"",""1"",""3335""
","
","","","","","","880.6999999284744","images/racket3.png","","","practice","images/park1.png","images/park3.png","images/park2.png","[0,2,1]","2","1","1","images/park1.png","-1","practice","","","",""
"html-keyboard-response","45","260625","0.0-8.0-2.0-0.2","1617","2","2","""event"",""trial"",""time""
""fullscreenenter"",""1"",""3335""
","
","
","""event"",""trial"",""time""
""fullscreenenter"",""1"",""3335""
","
","","","","","","null","<div style=""font-size:60px;"">+</div>","null","","fixation","","","","","","","","","","","","","",""
"learning-trial","46","264645","0.0-8.0-2.0-1.2","1617","2","2","""event"",""trial"",""time""
""fullscreenenter"",""1"",""3335""
","
","
","""event"",""trial"",""time""
""fullscreenenter"",""1"",""3335""
","
","","","","","","634.3000000715256","images/racket4.png","","","practice","images/park2.png","images/park3.png","images/park1.png","[1,2,0]","1","0","1","images/park2.png","1","practice","","","",""
"html-keyboard-response","47","265166","0.0-8.0-2.0-0.3","1617","2","2","""event"",""trial"",""time""
""fullscreenenter"",""1"",""3335""
","
","
","""event"",""trial"",""time""
""fullscreenenter"",""1"",""3335""
","
","","","","","","null","<div style=""font-size:60px;"">+</div>","null","","fixation","","","","","","","","","","","","","",""
"learning-trial","48","269185","0.0-8.0-2.0-1.3","1617","2","2","""event"",""trial"",""time""
""fullscreenenter"",""1"",""3335""
","
","
","""event"",""trial"",""time""
""fullscreenenter"",""1"",""3335""
","
","","","","","","450.1999999284744","images/racket4.png","","","practice","images/park3.png","images/park1.png","images/park2.png","[2,0,1]","1","2","1","images/park3.png","-1","practice","","","",""
"html-keyboard-response","49","269695","0.0-8.0-2.0-0.4","1617","2","2","""event"",""trial"",""time""
""fullscreenenter"",""1"",""3335""
","
","
","""event"",""trial"",""time""
""fullscreenenter"",""1"",""3335""
","
","","","","","","null","<div style=""font-size:60px;"">+</div>","null","","fixation","","","","","","","","","","","","","",""
"learning-trial","50","273715","0.0-8.0-2.0-1.4","1617","2","2","""event"",""trial"",""time""
""fullscreenenter"",""1"",""3335""
","
","
","""event"",""trial"",""time""
""fullscreenenter"",""1"",""3335""
","
","","","","","","1652.6000000238419","images/ball1.png","","","practice","images/park2.png","images/park3.png","images/park1.png","[1,2,0]","2","1","2","images/park3.png","1","practice","","","",""
"html-keyboard-response","51","274225","0.0-8.0-2.0-0.5","1617","2","2","""event"",""trial"",""time""
""fullscreenenter"",""1"",""3335""
","
","
","""event"",""trial"",""time""
""fullscreenenter"",""1"",""3335""
","
","","","","","","null","<div style=""font-size:60px;"">+</div>","null","","fixation","","","","","","","","","","","","","",""
"learning-trial","52","278238","0.0-8.0-2.0-1.5","1617","2","2","""event"",""trial"",""time""
""fullscreenenter"",""1"",""3335""
","
","
","""event"",""trial"",""time""
""fullscreenenter"",""1"",""3335""
","
","","","","","","2140","images/ball2.png","","","practice","images/park3.png","images/park2.png","images/park1.png","[2,1,0]","0","2","1","images/park3.png","-1","practice","","","",""
"html-keyboard-response","53","278740","0.0-8.0-2.0-0.6","1617","2","2","""event"",""trial"",""time""
""fullscreenenter"",""1"",""3335""
","
","
","""event"",""trial"",""time""
""fullscreenenter"",""1"",""3335""
","
","","","","","","null","<div style=""font-size:60px;"">+</div>","null","","fixation","","","","","","","","","","","","","",""
"learning-trial","54","282743","0.0-8.0-2.0-1.6","1617","2","2","""event"",""trial"",""time""
""fullscreenenter"",""1"",""3335""
","
","
","""event"",""trial"",""time""
""fullscreenenter"",""1"",""3335""
","
","","","","","","1364.7000000476837","images/ball3.png","","","practice","images/park1.png","images/park2.png","images/park3.png","[0,1,2]","0","0","1","images/park1.png","1","practice","","","",""
"html-keyboard-response","55","283245","0.0-8.0-2.0-0.7","1617","2","2","""event"",""trial"",""time""
""fullscreenenter"",""1"",""3335""
","
","
","""event"",""trial"",""time""
""fullscreenenter"",""1"",""3335""
","
","","","","","","null","<div style=""font-size:60px;"">+</div>","null","","fixation","","","","","","","","","","","","","",""
"learning-trial","56","287249","0.0-8.0-2.0-1.7","1617","2","2","""event"",""trial"",""time""
""fullscreenenter"",""1"",""3335""
","
","
","""event"",""trial"",""time""
""fullscreenenter"",""1"",""3335""
","
","","","","","","1661.1999999284744","images/ball3.png","","","practice","images/park2.png","images/park1.png","images/park3.png","[1,0,2]","0","1","2","images/park1.png","1","practice","","","",""
"html-keyboard-response","57","287752","0.0-8.0-2.0-0.8","1617","2","2","""event"",""trial"",""time""
""fullscreenenter"",""1"",""3335""
","
","
","""event"",""trial"",""time""
""fullscreenenter"",""1"",""3335""
","
","","","","","","null","<div style=""font-size:60px;"">+</div>","null","","fixation","","","","","","","","","","","","","",""
"learning-trial","58","291754","0.0-8.0-2.0-1.8","1617","2","2","""event"",""trial"",""time""
""fullscreenenter"",""1"",""3335""
","
","
","""event"",""trial"",""time""
""fullscreenenter"",""1"",""3335""
","
","","","","","","1759.5","images/ball1.png","","","practice","images/park2.png","images/park1.png","images/park3.png","[1,0,2]","2","2","2","images/park1.png","-1","practice","","","",""
"html-keyboard-response","59","292256","0.0-8.0-2.0-0.9","1617","2","2","""event"",""trial"",""time""
""fullscreenenter"",""1"",""3335""
","
","
","""event"",""trial"",""time""
""fullscreenenter"",""1"",""3335""
","
","","","","","","null","<div style=""font-size:60px;"">+</div>","null","","fixation","","","","","","","","","","","","","",""
"learning-trial","60","296260","0.0-8.0-2.0-1.9","1617","2","2","""event"",""trial"",""time""
""fullscreenenter"",""1"",""3335""
","
","
","""event"",""trial"",""time""
""fullscreenenter"",""1"",""3335""
","
","","","","","","1312.6000000238419","images/ball2.png","","","practice","images/park2.png","images/park1.png","images/park3.png","[1,0,2]","0","1","1","images/park2.png","-1","practice","","","",""
"html-keyboard-response","61","296761","0.0-8.0-2.0-0.10","1617","2","2","""event"",""trial"",""time""
""fullscreenenter"",""1"",""3335""
","
","
","""event"",""trial"",""time""
""fullscreenenter"",""1"",""3335""
","
","","","","","","null","<div style=""font-size:60px;"">+</div>","null","","fixation","","","","","","","","","","","","","",""
"learning-trial","62","300764","0.0-8.0-2.0-1.10","1617","2","2","""event"",""trial"",""time""
""fullscreenenter"",""1"",""3335""
","
","
","""event"",""trial"",""time""
""fullscreenenter"",""1"",""3335""
","
","","","","","","1932.6000000238419","images/ball4.png","","","practice","images/park3.png","images/park1.png","images/park2.png","[2,0,1]","1","2","3","images/park2.png","1","practice","","","",""
"html-keyboard-response","63","301266","0.0-8.0-2.0-0.11","1617","2","2","""event"",""trial"",""time""
""fullscreenenter"",""1"",""3335""
","
","
","""event"",""trial"",""time""
""fullscreenenter"",""1"",""3335""
","
","","","","","","null","<div style=""font-size:60px;"">+</div>","null","","fixation","","","","","","","","","","","","","",""
"learning-trial","64","305269","0.0-8.0-2.0-1.11","1617","2","2","""event"",""trial"",""time""
""fullscreenenter"",""1"",""3335""
","
","
","""event"",""trial"",""time""
""fullscreenenter"",""1"",""3335""
","
","","","","","","735.1000000238419","images/ball4.png","","","practice","images/park2.png","images/park3.png","images/park1.png","[1,2,0]","1","0","1","images/park2.png","1","practice","","","",""
"html-button-response","65","307501","0.0-8.0-3.0","1617","2","2","""event"",""trial"",""time""
""fullscreenenter"",""1"",""3335""
","
","
","""event"",""trial"",""time""
""fullscreenenter"",""1"",""3335""
","
","","","","","","2230.3000000715256","<p> You earned 2 points in the practice round! </p>","0","","break","","","","","","","","","","","","","",""
"learning-instructions","66","320411","0.0-8.0-4.0-0.0","1617","2","2","""event"",""trial"",""time""
""fullscreenenter"",""1"",""3335""
","
","
","""event"",""trial"",""time""
""fullscreenenter"",""1"",""3335""
","
","","","","","","4790","<p> It's almost time to start the real game. </p><p> Before you start, we're going to ask you a few questions about how the game works. </p>","","0","instructions","","","","","","","","","","","","","",""
"preload","67","324038","0.0-8.0-5.0","1617","2","2","""event"",""trial"",""time""
""fullscreenenter"",""1"",""3335""
","
","
","""event"",""trial"",""time""
""fullscreenenter"",""1"",""3335""
","
","true","false","[]","[]","[]","","","","","","","","","","","","","","","","","","",""
"comp-q","68","330402","0.0-8.0-6.0-0.0","1617","2","2","""event"",""trial"",""time""
""fullscreenenter"",""1"",""3335""
","
","
","""event"",""trial"",""time""
""fullscreenenter"",""1"",""3335""
","
","","","","","","919.7999999523163","<p> <b> True or False? </b> </p><p> If you choose the best option, you will always earn 1 point. </p>","","1","comp_question","","","","","","","","","","","true","","",""
"comp-q","69","337221","0.0-8.0-6.0-1.0","1617","2","2","""event"",""trial"",""time""
""fullscreenenter"",""1"",""3335""
","
","
","""event"",""trial"",""time""
""fullscreenenter"",""1"",""3335""
","
","","","","","","1149.6000000238419","<p><b> That's right! </b> Sometimes you will lose 1 point, even if you choose the best option. </p>","","0","comp_answer","","","","","","","","","","","","","",""
"comp-q","70","342451","0.0-8.0-6.0-0.1","1617","2","2","""event"",""trial"",""time""
""fullscreenenter"",""1"",""3335""
","
","
","""event"",""trial"",""time""
""fullscreenenter"",""1"",""3335""
","
","","","","","","589.2999999523163","<p> <b> True or False? </b> </p><p> You will have as much time as you want to make each choice. </p>","","1","comp_question","","","","","","","","","","","true","","",""
"comp-q","71","348351","0.0-8.0-6.0-1.1","1617","2","2","""event"",""trial"",""time""
""fullscreenenter"",""1"",""3335""
","
","
","""event"",""trial"",""time""
""fullscreenenter"",""1"",""3335""
","
","","","","","","1069.7999999523163","<p> <b> That's right! </b> You will only have 4 seconds to make each choice. </p>","","0","comp_answer","","","","","","","","","","","","","",""
"comp-q","72","355128","0.0-8.0-6.0-0.2","1617","2","2","""event"",""trial"",""time""
""fullscreenenter"",""1"",""3335""
","
","
","""event"",""trial"",""time""
""fullscreenenter"",""1"",""3335""
","
","","","","","","616.5","<p> <b> True or False? </b> </p><p> You should use the '1', '2', and '3' keys to make your choices. </p>","","0","comp_question","","","","","","","","","","","true","","",""
"comp-q","73","360965","0.0-8.0-6.0-1.2","1617","2","2","""event"",""trial"",""time""
""fullscreenenter"",""1"",""3335""
","
","
","""event"",""trial"",""time""
""fullscreenenter"",""1"",""3335""
","
","","","","","","983.8000000715256","<p> <b> That's right! </b> You should use the '1', '2', and '3' keys to make each choice. </p>","","0","comp_answer","","","","","","","","","","","","","",""
"learning-instructions","74","370449","0.0-8.0-7.0-0.0","1617","2","2","""event"",""trial"",""time""
""fullscreenenter"",""1"",""3335""
","
","
","""event"",""trial"",""time""
""fullscreenenter"",""1"",""3335""
","
","","","","","","977.5","<p> It's now time to start the real game. </p>Do your best, because the points you earn in the next rounds will influence your bonus payment. </p>","","0","instructions","","","","","","","","","","","","","",""
"preload","75","373584","0.0-9.0-0.0","1617","2","2","""event"",""trial"",""time""
""fullscreenenter"",""1"",""3335""
","
","
","""event"",""trial"",""time""
""fullscreenenter"",""1"",""3335""
","
","true","false","[]","[]","[]","","","","","","","","","","","","","","","","","","",""
"learning-instructions","76","381205","0.0-9.0-1.0-0.0","1617","2","2","""event"",""trial"",""time""
""fullscreenenter"",""1"",""3335""
","
","
","""event"",""trial"",""time""
""fullscreenenter"",""1"",""3335""
","
","","","","","","1163.6000000238419","<p> Your goal in this round is to feed all of your pets with the foods they like. </p><p> You will need to feed many pets. </p></div>","","0","instructions","","","","","","","","","","","","","",""
"learning-instructions","77","389785","0.0-9.0-1.0-0.1","1617","2","2","""event"",""trial"",""time""
""fullscreenenter"",""1"",""3335""
","
","
","""event"",""trial"",""time""
""fullscreenenter"",""1"",""3335""
","
","","","","","","583.8000000715256","<p> On each turn, you will see a picture of one of your pets and three different types of foods.  </p><p> You need to select the food that you want to give to your pet.  </p>","","0","instructions","","","","","","","","","","","","","",""
"learning-instructions","78","398459","0.0-9.0-1.0-0.2","1617","2","2","""event"",""trial"",""time""
""fullscreenenter"",""1"",""3335""
","
","
","""event"",""trial"",""time""
""fullscreenenter"",""1"",""3335""
","
","","","","","","1967.1999999284744","<p> You can select the food on the left by pressing 1, the food in the middle by pressing 2, and the food on the right by pressing 3. </p><br><div class=""choice-instructions-grid""> <div class=""choice-option""><img src=""images/pets_choice1.png"" class=""choice-option-img"" stage=""instructions"" position=""0"" ><div class=""choice-option-text""> Press ""1."" </div></div><div class=""choice-option""><img src=""images/pets_choice2.png"" class=""choice-option-img"" stage=""instructions"" position=""1"" ><div class=""choice-option-text""> Press ""2."" </div></div><div class=""choice-option""><img src=""images/pets_choice3.png"" class=""choice-option-img"" stage=""instructions"" position=""2"" ><div class=""choice-option-text""> Press ""3."" </div></div></div>","","0","instructions","","","","","","","","","","","","","",""
"learning-instructions","79","403915","0.0-9.0-1.0-0.3","1617","2","2","""event"",""trial"",""time""
""fullscreenenter"",""1"",""3335""
","
","
","""event"",""trial"",""time""
""fullscreenenter"",""1"",""3335""
","
","","","","","","1433.6999999284744","<p> If your pet likes the food you chose, it will be very happy! </p><div style='float: center;'><img src='images/check.png' width = '200' height = '200'></img>","","0","instructions","","","","","","","","","","","","","",""
"learning-instructions","80","409005","0.0-9.0-1.0-0.4","1617","2","2","""event"",""trial"",""time""
""fullscreenenter"",""1"",""3335""
","
","
","""event"",""trial"",""time""
""fullscreenenter"",""1"",""3335""
","
","","","","","","643.4000000953674","<p> But, if your pet does not like the food you chose, it will feel sick. </p><div style='float: center;'><img src='images/x.png' width = '200' height = '200'></img>","","0","instructions","","","","","","","","","","","","","",""
"learning-instructions","81","417709","0.0-9.0-1.0-0.5","1617","2","2","""event"",""trial"",""time""
""fullscreenenter"",""1"",""3335""
","
","
","""event"",""trial"",""time""
""fullscreenenter"",""1"",""3335""
","
","","","","","","1047.2999999523163","<p> Importantly, each pet has a food that it prefers. </p><p> If you choose the food that the pet prefers, it will be more likely to be happy! </p>","","0","instructions","","","","","","","","","","","","","",""
"learning-instructions","82","428292","0.0-9.0-1.0-0.6","1617","2","2","""event"",""trial"",""time""
""fullscreenenter"",""1"",""3335""
","
","
","""event"",""trial"",""time""
""fullscreenenter"",""1"",""3335""
","
","","","","","","961.2999999523163","<p> However, even if you choose the food the pet prefers, it may still feel sick sometimes. </p><p> Similarly, even if you choose the <i>wrong</i> food, it may still feel happy.","","0","instructions","","","","","","","","","","","","","",""
"learning-instructions","83","441519","0.0-9.0-1.0-0.7","1617","2","2","""event"",""trial"",""time""
""fullscreenenter"",""1"",""3335""
","
","
","""event"",""trial"",""time""
""fullscreenenter"",""1"",""3335""
","
","","","","","","408","<p> Try to choose the food each pet prefers, because you will <b> WIN </b> 1 point each time the pet is happy and <b>LOSE</b>  1 point each time the pet feels sick. </p><p> Your bonus payment will depend on your total number of points.","","0","instructions","","","","","","","","","","","","","",""
"learning-instructions","84","450627","0.0-9.0-1.0-0.8","1617","2","2","""event"",""trial"",""time""
""fullscreenenter"",""1"",""3335""
","
","
","""event"",""trial"",""time""
""fullscreenenter"",""1"",""3335""
","
","","","","","","486","<p> The position of each food will change throughout the round. </p><p> The food's position <i> does not </i> influence how likely the pet is to feel happy or sick. </p>","","0","instructions","","","","","","","","","","","","","",""
"learning-instructions","85","460449","0.0-9.0-1.0-0.9","1617","2","2","""event"",""trial"",""time""
""fullscreenenter"",""1"",""3335""
","
","
","""event"",""trial"",""time""
""fullscreenenter"",""1"",""3335""
","
","","","","","","527.6000000238419","<p> You will have 4 seconds to make each choice. Try to respond before time runs out! </p><p> You will lose 1 point each time you do not make a response. </p>","","0","instructions","","","","","","","","","","","","","",""
"html-keyboard-response","86","461059","0.0-9.0-2.0-0.0","1617","2","2","""event"",""trial"",""time""
""fullscreenenter"",""1"",""3335""
","
","
","""event"",""trial"",""time""
""fullscreenenter"",""1"",""3335""
","
","","","","","","null","<div style=""font-size:60px;"">+</div>","null","","fixation","","","","","","","","","","","","","",""
"learning-trial","87","465080","0.0-9.0-2.0-1.0","1617","2","2","""event"",""trial"",""time""
""fullscreenenter"",""1"",""3335""
","
","
","""event"",""trial"",""time""
""fullscreenenter"",""1"",""3335""
","
","","","","","","1358.7000000476837","images/rabbit3.png","","","learning","images/pets_choice2.png","images/pets_choice3.png","images/pets_choice1.png","[1,2,0]","1","0","1","images/pets_choice2.png","1","pets","","rabbit","2","0"
"html-keyboard-response","88","465600","0.0-9.0-2.0-0.1","1617","2","2","""event"",""trial"",""time""
""fullscreenenter"",""1"",""3335""
","
","
","""event"",""trial"",""time""
""fullscreenenter"",""1"",""3335""
","
","","","","","","null","<div style=""font-size:60px;"">+</div>","null","","fixation","","","","","","","","","","","","","",""
"learning-trial","89","469621","0.0-9.0-2.0-1.1","1617","2","2","""event"",""trial"",""time""
""fullscreenenter"",""1"",""3335""
","
","
","""event"",""trial"",""time""
""fullscreenenter"",""1"",""3335""
","
","","","","","","2779.5999999046326","images/rodent2.png","","","learning","images/pets_choice1.png","images/pets_choice2.png","images/pets_choice3.png","[0,1,2]","1","1","1","images/pets_choice1.png","-1","pets","","rodent","2","0"
"html-keyboard-response","90","470141","0.0-9.0-2.0-0.2","1617","2","2","""event"",""trial"",""time""
""fullscreenenter"",""1"",""3335""
","
","
","""event"",""trial"",""time""
""fullscreenenter"",""1"",""3335""
","
","","","","","","null","<div style=""font-size:60px;"">+</div>","null","","fixation","","","","","","","","","","","","","",""
"learning-trial","91","474160","0.0-9.0-2.0-1.2","1617","2","2","""event"",""trial"",""time""
""fullscreenenter"",""1"",""3335""
","
","
","""event"",""trial"",""time""
""fullscreenenter"",""1"",""3335""
","
","","","","","","2899.600000023842","images/dog4.png","","","learning","images/pets_choice3.png","images/pets_choice1.png","images/pets_choice2.png","[2,0,1]","2","0","2","images/pets_choice1.png","-1","pets","","dog","2","0"
"html-keyboard-response","92","474670","0.0-9.0-2.0-0.3","1617","2","2","""event"",""trial"",""time""
""fullscreenenter"",""1"",""3335""
","
","
","""event"",""trial"",""time""
""fullscreenenter"",""1"",""3335""
","
","","","","","","null","<div style=""font-size:60px;"">+</div>","null","","fixation","","","","","","","","","","","","","",""
"learning-trial","93","478691","0.0-9.0-2.0-1.3","1617","2","2","""event"",""trial"",""time""
""fullscreenenter"",""1"",""3335""
","
","
","""event"",""trial"",""time""
""fullscreenenter"",""1"",""3335""
","
","","","","","","2096.2999999523163","images/rabbit3.png","","","learning","images/pets_choice3.png","images/pets_choice1.png","images/pets_choice2.png","[2,0,1]","1","2","3","images/pets_choice2.png","1","pets","","rabbit","2","0"
"html-keyboard-response","94","479210","0.0-9.0-2.0-0.4","1617","2","2","""event"",""trial"",""time""
""fullscreenenter"",""1"",""3335""
","
","
","""event"",""trial"",""time""
""fullscreenenter"",""1"",""3335""
","
","","","","","","null","<div style=""font-size:60px;"">+</div>","null","","fixation","","","","","","","","","","","","","",""
"learning-trial","95","483230","0.0-9.0-2.0-1.4","1617","2","2","""event"",""trial"",""time""
""fullscreenenter"",""1"",""3335""
","
","
","""event"",""trial"",""time""
""fullscreenenter"",""1"",""3335""
","
","","","","","","3088.3000000715256","images/rabbit4.png","","","learning","images/pets_choice3.png","images/pets_choice2.png","images/pets_choice1.png","[2,1,0]","0","2","2","images/pets_choice2.png","1","pets","","rabbit","2","0"
"html-keyboard-response","96","483750","0.0-9.0-2.0-0.5","1617","2","2","""event"",""trial"",""time""
""fullscreenenter"",""1"",""3335""
","
","
","""event"",""trial"",""time""
""fullscreenenter"",""1"",""3335""
","
","","","","","","null","<div style=""font-size:60px;"">+</div>","null","","fixation","","","","","","","","","","","","","",""
"learning-trial","97","487752","0.0-9.0-2.0-1.5","1617","2","2","""event"",""trial"",""time""
""fullscreenenter"",""1"",""3335""
","
","
","""event"",""trial"",""time""
""fullscreenenter"",""1"",""3335""
","
","","","","","","3480.899999976158","images/rodent5.png","","","learning","images/pets_choice3.png","images/pets_choice1.png","images/pets_choice2.png","[2,0,1]","2","0","1","images/pets_choice3.png","-1","pets","","rodent","2","0"
"html-keyboard-response","98","488271","0.0-9.0-2.0-0.6","1617","2","2","""event"",""trial"",""time""
""fullscreenenter"",""1"",""3335""
","
","
","""event"",""trial"",""time""
""fullscreenenter"",""1"",""3335""
","
","","","","","","null","<div style=""font-size:60px;"">+</div>","null","","fixation","","","","","","","","","","","","","",""
"learning-trial","99","492274","0.0-9.0-2.0-1.6","1617","2","2","""event"",""trial"",""time""
""fullscreenenter"",""1"",""3335""
","
","
","""event"",""trial"",""time""
""fullscreenenter"",""1"",""3335""
","
","","","","","","1956.8999999761581","images/rabbit1.png","","","learning","images/pets_choice1.png","images/pets_choice2.png","images/pets_choice3.png","[0,1,2]","2","2","2","images/pets_choice2.png","-1","pets","","rabbit","2","0"
"html-keyboard-response","100","492776","0.0-9.0-2.0-0.7","1617","2","2","""event"",""trial"",""time""
""fullscreenenter"",""1"",""3335""
","
","
","""event"",""trial"",""time""
""fullscreenenter"",""1"",""3335""
","
","","","","","","null","<div style=""font-size:60px;"">+</div>","null","","fixation","","","","","","","","","","","","","",""
"learning-trial","101","496779","0.0-9.0-2.0-1.7","1617","2","2","""event"",""trial"",""time""
""fullscreenenter"",""1"",""3335""
","
","
","""event"",""trial"",""time""
""fullscreenenter"",""1"",""3335""
","
","","","","","","2312.2000000476837","images/dog3.png","","","learning","images/pets_choice1.png","images/pets_choice2.png","images/pets_choice3.png","[0,1,2]","0","0","1","images/pets_choice1.png","1","pets","","dog","2","0"
"html-keyboard-response","102","497280","0.0-9.0-2.0-0.8","1617","2","2","""event"",""trial"",""time""
""fullscreenenter"",""1"",""3335""
","
","
","""event"",""trial"",""time""
""fullscreenenter"",""1"",""3335""
","
","","","","","","null","<div style=""font-size:60px;"">+</div>","null","","fixation","","","","","","","","","","","","","",""
"learning-trial","103","501282","0.0-9.0-2.0-1.8","1617","2","2","""event"",""trial"",""time""
""fullscreenenter"",""1"",""3335""
","
","
","""event"",""trial"",""time""
""fullscreenenter"",""1"",""3335""
","
","","","","","","1601","images/rabbit3.png","","","learning","images/pets_choice2.png","images/pets_choice3.png","images/pets_choice1.png","[1,2,0]","1","0","1","images/pets_choice2.png","1","pets","","rabbit","2","0"
"html-keyboard-response","104","501783","0.0-9.0-2.0-0.9","1617","2","2","""event"",""trial"",""time""
""fullscreenenter"",""1"",""3335""
","
","
","""event"",""trial"",""time""
""fullscreenenter"",""1"",""3335""
","
","","","","","","null","<div style=""font-size:60px;"">+</div>","null","","fixation","","","","","","","","","","","","","",""
"learning-trial","105","505786","0.0-9.0-2.0-1.9","1617","2","2","""event"",""trial"",""time""
""fullscreenenter"",""1"",""3335""
","
","
","""event"",""trial"",""time""
""fullscreenenter"",""1"",""3335""
","
","","","","","","2317.1999999284744","images/rodent1.png","","","learning","images/pets_choice1.png","images/pets_choice2.png","images/pets_choice3.png","[0,1,2]","0","0","1","images/pets_choice1.png","1","pets","","rodent","2","0"
"html-keyboard-response","106","506288","0.0-9.0-2.0-0.10","1617","2","2","""event"",""trial"",""time""
""fullscreenenter"",""1"",""3335""
","
","
","""event"",""trial"",""time""
""fullscreenenter"",""1"",""3335""
","
","","","","","","null","<div style=""font-size:60px;"">+</div>","null","","fixation","","","","","","","","","","","","","",""
"learning-trial","107","510290","0.0-9.0-2.0-1.10","1617","2","2","""event"",""trial"",""time""
""fullscreenenter"",""1"",""3335""
","
","
","""event"",""trial"",""time""
""fullscreenenter"",""1"",""3335""
","
","","","","","","1136.5","images/rabbit4.png","","","learning","images/pets_choice3.png","images/pets_choice2.png","images/pets_choice1.png","[2,1,0]","0","2","2","images/pets_choice2.png","-1","pets","","rabbit","2","0"
"html-keyboard-response","108","510792","0.0-9.0-2.0-0.11","1617","2","2","""event"",""trial"",""time""
""fullscreenenter"",""1"",""3335""
","
","
","""event"",""trial"",""time""
""fullscreenenter"",""1"",""3335""
","
","","","","","","null","<div style=""font-size:60px;"">+</div>","null","","fixation","","","","","","","","","","","","","",""
"learning-trial","109","514795","0.0-9.0-2.0-1.11","1617","2","2","""event"",""trial"",""time""
""fullscreenenter"",""1"",""3335""
","
","
","""event"",""trial"",""time""
""fullscreenenter"",""1"",""3335""
","
","","","","","","1337.5","images/rodent1.png","","","learning","images/pets_choice1.png","images/pets_choice2.png","images/pets_choice3.png","[0,1,2]","0","0","1","images/pets_choice1.png","1","pets","","rodent","2","0"
"html-keyboard-response","110","515297","0.0-9.0-2.0-0.12","1617","2","2","""event"",""trial"",""time""
""fullscreenenter"",""1"",""3335""
","
","
","""event"",""trial"",""time""
""fullscreenenter"",""1"",""3335""
","
","","","","","","null","<div style=""font-size:60px;"">+</div>","null","","fixation","","","","","","","","","","","","","",""
"learning-trial","111","519300","0.0-9.0-2.0-1.12","1617","2","2","""event"",""trial"",""time""
""fullscreenenter"",""1"",""3335""
","
","
","""event"",""trial"",""time""
""fullscreenenter"",""1"",""3335""
","
","","","","","","1754.6000000238419","images/dog1.png","","","learning","images/pets_choice3.png","images/pets_choice1.png","images/pets_choice2.png","[2,0,1]","1","2","1","images/pets_choice3.png","-1","pets","","dog","2","0"
"html-keyboard-response","112","519801","0.0-9.0-2.0-0.13","1617","2","2","""event"",""trial"",""time""
""fullscreenenter"",""1"",""3335""
","
","
","""event"",""trial"",""time""
""fullscreenenter"",""1"",""3335""
","
","","","","","","null","<div style=""font-size:60px;"">+</div>","null","","fixation","","","","","","","","","","","","","",""
"learning-trial","113","523805","0.0-9.0-2.0-1.13","1617","2","2","""event"",""trial"",""time""
""fullscreenenter"",""1"",""3335""
","
","
","""event"",""trial"",""time""
""fullscreenenter"",""1"",""3335""
","
","","","","","","1610.7000000476837","images/rabbit4.png","","","learning","images/pets_choice1.png","images/pets_choice2.png","images/pets_choice3.png","[0,1,2]","0","0","3","images/pets_choice3.png","1","pets","","rabbit","2","0"
"html-keyboard-response","114","524306","0.0-9.0-2.0-0.14","1617","2","2","""event"",""trial"",""time""
""fullscreenenter"",""1"",""3335""
","
","
","""event"",""trial"",""time""
""fullscreenenter"",""1"",""3335""
","
","","","","","","null","<div style=""font-size:60px;"">+</div>","null","","fixation","","","","","","","","","","","","","",""
"learning-trial","115","528309","0.0-9.0-2.0-1.14","1617","2","2","""event"",""trial"",""time""
""fullscreenenter"",""1"",""3335""
","
","
","""event"",""trial"",""time""
""fullscreenenter"",""1"",""3335""
","
","","","","","","1699.3000000715256","images/rabbit3.png","","","learning","images/pets_choice1.png","images/pets_choice3.png","images/pets_choice2.png","[0,2,1]","1","2","3","images/pets_choice2.png","1","pets","","rabbit","2","0"
"html-keyboard-response","116","528811","0.0-9.0-2.0-0.15","1617","2","2","""event"",""trial"",""time""
""fullscreenenter"",""1"",""3335""
","
","
","""event"",""trial"",""time""
""fullscreenenter"",""1"",""3335""
","
","","","","","","null","<div style=""font-size:60px;"">+</div>","null","","fixation","","","","","","","","","","","","","",""
"learning-trial","117","532814","0.0-9.0-2.0-1.15","1617","2","2","""event"",""trial"",""time""
""fullscreenenter"",""1"",""3335""
","
","
","""event"",""trial"",""time""
""fullscreenenter"",""1"",""3335""
","
","","","","","","1021.3000000715256","images/rabbit3.png","","","learning","images/pets_choice3.png","images/pets_choice2.png","images/pets_choice1.png","[2,1,0]","1","1","2","images/pets_choice2.png","-1","pets","","rabbit","2","0"
"html-keyboard-response","118","533316","0.0-9.0-2.0-0.16","1617","2","2","""event"",""trial"",""time""
""fullscreenenter"",""1"",""3335""
","
","
","""event"",""trial"",""time""
""fullscreenenter"",""1"",""3335""
","
","","","","","","null","<div style=""font-size:60px;"">+</div>","null","","fixation","","","","","","","","","","","","","",""
"learning-trial","119","537319","0.0-9.0-2.0-1.16","1617","2","2","""event"",""trial"",""time""
""fullscreenenter"",""1"",""3335""
","
","
","""event"",""trial"",""time""
""fullscreenenter"",""1"",""3335""
","
","","","","","","3013.5","images/dog3.png","","","learning","images/pets_choice3.png","images/pets_choice1.png","images/pets_choice2.png","[2,0,1]","0","1","2","images/pets_choice1.png","1","pets","","dog","2","0"
"html-keyboard-response","120","537821","0.0-9.0-2.0-0.17","1617","2","2","""event"",""trial"",""time""
""fullscreenenter"",""1"",""3335""
","
","
","""event"",""trial"",""time""
""fullscreenenter"",""1"",""3335""
","
","","","","","","null","<div style=""font-size:60px;"">+</div>","null","","fixation","","","","","","","","","","","","","",""
"learning-trial","121","541825","0.0-9.0-2.0-1.17","1617","2","2","""event"",""trial"",""time""
""fullscreenenter"",""1"",""3335""
","
","
","""event"",""trial"",""time""
""fullscreenenter"",""1"",""3335""
","
","","","","","","2217.899999976158","images/dog1.png","","","learning","images/pets_choice3.png","images/pets_choice1.png","images/pets_choice2.png","[2,0,1]","1","2","2","images/pets_choice1.png","-1","pets","","dog","2","0"
"html-keyboard-response","122","542326","0.0-9.0-2.0-0.18","1617","2","2","""event"",""trial"",""time""
""fullscreenenter"",""1"",""3335""
","
","
","""event"",""trial"",""time""
""fullscreenenter"",""1"",""3335""
","
","","","","","","null","<div style=""font-size:60px;"">+</div>","null","","fixation","","","","","","","","","","","","","",""
"learning-trial","123","546329","0.0-9.0-2.0-1.18","1617","2","2","""event"",""trial"",""time""
""fullscreenenter"",""1"",""3335""
","
","
","""event"",""trial"",""time""
""fullscreenenter"",""1"",""3335""
","
","","","","","","2286.7999999523163","images/rodent5.png","","","learning","images/pets_choice2.png","images/pets_choice1.png","images/pets_choice3.png","[1,0,2]","2","2","1","images/pets_choice2.png","-1","pets","","rodent","2","0"
"html-keyboard-response","124","546831","0.0-9.0-2.0-0.19","1617","2","2","""event"",""trial"",""time""
""fullscreenenter"",""1"",""3335""
","
","
","""event"",""trial"",""time""
""fullscreenenter"",""1"",""3335""
","
","","","","","","null","<div style=""font-size:60px;"">+</div>","null","","fixation","","","","","","","","","","","","","",""
"learning-trial","125","550834","0.0-9.0-2.0-1.19","1617","2","2","""event"",""trial"",""time""
""fullscreenenter"",""1"",""3335""
","
","
","""event"",""trial"",""time""
""fullscreenenter"",""1"",""3335""
","
","","","","","","1509","images/rodent1.png","","","learning","images/pets_choice2.png","images/pets_choice1.png","images/pets_choice3.png","[1,0,2]","0","1","3","images/pets_choice3.png","1","pets","","rodent","2","0"
"html-keyboard-response","126","551336","0.0-9.0-2.0-0.20","1617","2","2","""event"",""trial"",""time""
""fullscreenenter"",""1"",""3335""
","
","
","""event"",""trial"",""time""
""fullscreenenter"",""1"",""3335""
","
","","","","","","null","<div style=""font-size:60px;"">+</div>","null","","fixation","","","","","","","","","","","","","",""
"learning-trial","127","555339","0.0-9.0-2.0-1.20","1617","2","2","""event"",""trial"",""time""
""fullscreenenter"",""1"",""3335""
","
","
","""event"",""trial"",""time""
""fullscreenenter"",""1"",""3335""
","
","","","","","","1609.3999999761581","images/rabbit1.png","","","learning","images/pets_choice3.png","images/pets_choice1.png","images/pets_choice2.png","[2,0,1]","2","0","3","images/pets_choice2.png","1","pets","","rabbit","2","0"
"html-keyboard-response","128","555842","0.0-9.0-2.0-0.21","1617","2","2","""event"",""trial"",""time""
""fullscreenenter"",""1"",""3335""
","
","
","""event"",""trial"",""time""
""fullscreenenter"",""1"",""3335""
","
","","","","","","null","<div style=""font-size:60px;"">+</div>","null","","fixation","","","","","","","","","","","","","",""
"learning-trial","129","559845","0.0-9.0-2.0-1.21","1617","2","2","""event"",""trial"",""time""
""fullscreenenter"",""1"",""3335""
","
","
","""event"",""trial"",""time""
""fullscreenenter"",""1"",""3335""
","
","","","","","","2105.100000023842","images/dog3.png","","","learning","images/pets_choice3.png","images/pets_choice2.png","images/pets_choice1.png","[2,1,0]","0","2","3","images/pets_choice1.png","1","pets","","dog","2","0"
"html-keyboard-response","130","560347","0.0-9.0-2.0-0.22","1617","2","2","""event"",""trial"",""time""
""fullscreenenter"",""1"",""3335""
","
","
","""event"",""trial"",""time""
""fullscreenenter"",""1"",""3335""
","
","","","","","","null","<div style=""font-size:60px;"">+</div>","null","","fixation","","","","","","","","","","","","","",""
"learning-trial","131","564359","0.0-9.0-2.0-1.22","1617","2","2","""event"",""trial"",""time""
""fullscreenenter"",""1"",""3335""
","
","
","""event"",""trial"",""time""
""fullscreenenter"",""1"",""3335""
","
","","","","","","2535.600000023842","images/rodent1.png","","","learning","images/pets_choice1.png","images/pets_choice3.png","images/pets_choice2.png","[0,2,1]","0","0","3","images/pets_choice2.png","-1","pets","","rodent","2","0"
"html-keyboard-response","132","564861","0.0-9.0-2.0-0.23","1617","2","2","""event"",""trial"",""time""
""fullscreenenter"",""1"",""3335""
","
","
","""event"",""trial"",""time""
""fullscreenenter"",""1"",""3335""
","
","","","","","","null","<div style=""font-size:60px;"">+</div>","null","","fixation","","","","","","","","","","","","","",""
"learning-trial","133","568865","0.0-9.0-2.0-1.23","1617","2","2","""event"",""trial"",""time""
""fullscreenenter"",""1"",""3335""
","
","
","""event"",""trial"",""time""
""fullscreenenter"",""1"",""3335""
","
","","","","","","2933.100000023842","images/rodent2.png","","","learning","images/pets_choice2.png","images/pets_choice1.png","images/pets_choice3.png","[1,0,2]","1","0","3","images/pets_choice3.png","-1","pets","","rodent","2","0"
"html-keyboard-response","134","569367","0.0-9.0-2.0-0.24","1617","2","2","""event"",""trial"",""time""
""fullscreenenter"",""1"",""3335""
","
","
","""event"",""trial"",""time""
""fullscreenenter"",""1"",""3335""
","
","","","","","","null","<div style=""font-size:60px;"">+</div>","null","","fixation","","","","","","","","","","","","","",""
"learning-trial","135","573370","0.0-9.0-2.0-1.24","1617","2","2","""event"",""trial"",""time""
""fullscreenenter"",""1"",""3335""
","
","
","""event"",""trial"",""time""
""fullscreenenter"",""1"",""3335""
","
","","","","","","1096","images/rabbit1.png","","","learning","images/pets_choice1.png","images/pets_choice3.png","images/pets_choice2.png","[0,2,1]","2","1","3","images/pets_choice2.png","1","pets","","rabbit","2","0"
"html-keyboard-response","136","573872","0.0-9.0-2.0-0.25","1617","2","2","""event"",""trial"",""time""
""fullscreenenter"",""1"",""3335""
","
","
","""event"",""trial"",""time""
""fullscreenenter"",""1"",""3335""
","
","","","","","","null","<div style=""font-size:60px;"">+</div>","null","","fixation","","","","","","","","","","","","","",""
"learning-trial","137","577874","0.0-9.0-2.0-1.25","1617","2","2","""event"",""trial"",""time""
""fullscreenenter"",""1"",""3335""
","
","
","""event"",""trial"",""time""
""fullscreenenter"",""1"",""3335""
","
","","","","","","3397.2999999523163","images/dog1.png","","","learning","images/pets_choice3.png","images/pets_choice2.png","images/pets_choice1.png","[2,1,0]","1","1","3","images/pets_choice1.png","-1","pets","","dog","2","0"
"html-keyboard-response","138","578376","0.0-9.0-2.0-0.26","1617","2","2","""event"",""trial"",""time""
""fullscreenenter"",""1"",""3335""
","
","
","""event"",""trial"",""time""
""fullscreenenter"",""1"",""3335""
","
","","","","","","null","<div style=""font-size:60px;"">+</div>","null","","fixation","","","","","","","","","","","","","",""
"learning-trial","139","582379","0.0-9.0-2.0-1.26","1617","2","2","""event"",""trial"",""time""
""fullscreenenter"",""1"",""3335""
","
","
","""event"",""trial"",""time""
""fullscreenenter"",""1"",""3335""
","
","","","","","","2463.5999999046326","images/rodent2.png","","","learning","images/pets_choice1.png","images/pets_choice3.png","images/pets_choice2.png","[0,2,1]","1","2","3","images/pets_choice2.png","1","pets","","rodent","2","0"
"html-keyboard-response","140","582881","0.0-9.0-2.0-0.27","1617","2","2","""event"",""trial"",""time""
""fullscreenenter"",""1"",""3335""
","
","
","""event"",""trial"",""time""
""fullscreenenter"",""1"",""3335""
","
","","","","","","null","<div style=""font-size:60px;"">+</div>","null","","fixation","","","","","","","","","","","","","",""
"learning-trial","141","586883","0.0-9.0-2.0-1.27","1617","2","2","""event"",""trial"",""time""
""fullscreenenter"",""1"",""3335""
","
","
","""event"",""trial"",""time""
""fullscreenenter"",""1"",""3335""
","
","","","","","","1023.7000000476837","images/rabbit1.png","","","learning","images/pets_choice1.png","images/pets_choice3.png","images/pets_choice2.png","[0,2,1]","2","1","3","images/pets_choice2.png","-1","pets","","rabbit","2","0"
"html-keyboard-response","142","587385","0.0-9.0-2.0-0.28","1617","2","2","""event"",""trial"",""time""
""fullscreenenter"",""1"",""3335""
","
","
","""event"",""trial"",""time""
""fullscreenenter"",""1"",""3335""
","
","","","","","","null","<div style=""font-size:60px;"">+</div>","null","","fixation","","","","","","","","","","","","","",""
"learning-trial","143","591387","0.0-9.0-2.0-1.28","1617","2","2","""event"",""trial"",""time""
""fullscreenenter"",""1"",""3335""
","
","
","""event"",""trial"",""time""
""fullscreenenter"",""1"",""3335""
","
","","","","","","1413.1000000238419","images/rodent5.png","","","learning","images/pets_choice1.png","images/pets_choice3.png","images/pets_choice2.png","[0,2,1]","2","1","3","images/pets_choice2.png","-1","pets","","rodent","2","0"
"html-keyboard-response","144","591889","0.0-9.0-2.0-0.29","1617","2","2","""event"",""trial"",""time""
""fullscreenenter"",""1"",""3335""
","
","
","""event"",""trial"",""time""
""fullscreenenter"",""1"",""3335""
","
","","","","","","null","<div style=""font-size:60px;"">+</div>","null","","fixation","","","","","","","","","","","","","",""
"learning-trial","145","595891","0.0-9.0-2.0-1.29","1617","2","2","""event"",""trial"",""time""
""fullscreenenter"",""1"",""3335""
","
","
","""event"",""trial"",""time""
""fullscreenenter"",""1"",""3335""
","
","","","","","","1755.2000000476837","images/rodent2.png","","","learning","images/pets_choice2.png","images/pets_choice1.png","images/pets_choice3.png","[1,0,2]","1","0","2","images/pets_choice1.png","-1","pets","","rodent","2","0"
"html-keyboard-response","146","596394","0.0-9.0-2.0-0.30","1617","2","2","""event"",""trial"",""time""
""fullscreenenter"",""1"",""3335""
","
","
","""event"",""trial"",""time""
""fullscreenenter"",""1"",""3335""
","
","","","","","","null","<div style=""font-size:60px;"">+</div>","null","","fixation","","","","","","","","","","","","","",""
"learning-trial","147","600397","0.0-9.0-2.0-1.30","1617","2","2","""event"",""trial"",""time""
""fullscreenenter"",""1"",""3335""
","
","
","""event"",""trial"",""time""
""fullscreenenter"",""1"",""3335""
","
","","","","","","953.1000000238419","images/rabbit3.png","","","learning","images/pets_choice3.png","images/pets_choice1.png","images/pets_choice2.png","[2,0,1]","1","2","3","images/pets_choice2.png","-1","pets","","rabbit","2","0"
"html-keyboard-response","148","600898","0.0-9.0-2.0-0.31","1617","2","2","""event"",""trial"",""time""
""fullscreenenter"",""1"",""3335""
","
","
","""event"",""trial"",""time""
""fullscreenenter"",""1"",""3335""
","
","","","","","","null","<div style=""font-size:60px;"">+</div>","null","","fixation","","","","","","","","","","","","","",""
"learning-trial","149","604901","0.0-9.0-2.0-1.31","1617","2","2","""event"",""trial"",""time""
""fullscreenenter"",""1"",""3335""
","
","
","""event"",""trial"",""time""
""fullscreenenter"",""1"",""3335""
","
","","","","","","2336.5999999046326","images/dog4.png","","","learning","images/pets_choice1.png","images/pets_choice3.png","images/pets_choice2.png","[0,2,1]","2","1","1","images/pets_choice1.png","-1","pets","","dog","2","0"
"html-keyboard-response","150","605417","0.0-9.0-2.0-0.32","1617","2","2","""event"",""trial"",""time""
""fullscreenenter"",""1"",""3335""
","
","
","""event"",""trial"",""time""
""fullscreenenter"",""1"",""3335""
","
","","","","","","null","<div style=""font-size:60px;"">+</div>","null","","fixation","","","","","","","","","","","","","",""
"learning-trial","151","609421","0.0-9.0-2.0-1.32","1617","2","2","""event"",""trial"",""time""
""fullscreenenter"",""1"",""3335""
","
","
","""event"",""trial"",""time""
""fullscreenenter"",""1"",""3335""
","
","","","","","","1804.6000000238419","images/rodent5.png","","","learning","images/pets_choice3.png","images/pets_choice1.png","images/pets_choice2.png","[2,0,1]","2","0","2","images/pets_choice1.png","1","pets","","rodent","2","0"
"html-keyboard-response","152","609923","0.0-9.0-2.0-0.33","1617","2","2","""event"",""trial"",""time""
""fullscreenenter"",""1"",""3335""
","
","
","""event"",""trial"",""time""
""fullscreenenter"",""1"",""3335""
","
","","","","","","null","<div style=""font-size:60px;"">+</div>","null","","fixation","","","","","","","","","","","","","",""
"learning-trial","153","613925","0.0-9.0-2.0-1.33","1617","2","2","""event"",""trial"",""time""
""fullscreenenter"",""1"",""3335""
","
","
","""event"",""trial"",""time""
""fullscreenenter"",""1"",""3335""
","
","","","","","","1736.8000000715256","images/rabbit4.png","","","learning","images/pets_choice1.png","images/pets_choice2.png","images/pets_choice3.png","[0,1,2]","0","0","3","images/pets_choice3.png","-1","pets","","rabbit","2","0"
"html-keyboard-response","154","614440","0.0-9.0-2.0-0.34","1617","2","2","""event"",""trial"",""time""
""fullscreenenter"",""1"",""3335""
","
","
","""event"",""trial"",""time""
""fullscreenenter"",""1"",""3335""
","
","","","","","","null","<div style=""font-size:60px;"">+</div>","null","","fixation","","","","","","","","","","","","","",""
"learning-trial","155","618443","0.0-9.0-2.0-1.34","1617","2","2","""event"",""trial"",""time""
""fullscreenenter"",""1"",""3335""
","
","
","""event"",""trial"",""time""
""fullscreenenter"",""1"",""3335""
","
","","","","","","1870.3000000715256","images/rodent2.png","","","learning","images/pets_choice1.png","images/pets_choice2.png","images/pets_choice3.png","[0,1,2]","1","1","1","images/pets_choice1.png","-1","pets","","rodent","2","0"
"html-keyboard-response","156","618945","0.0-9.0-2.0-0.35","1617","2","2","""event"",""trial"",""time""
""fullscreenenter"",""1"",""3335""
","
","
","""event"",""trial"",""time""
""fullscreenenter"",""1"",""3335""
","
","","","","","","null","<div style=""font-size:60px;"">+</div>","null","","fixation","","","","","","","","","","","","","",""
"learning-trial","157","622948","0.0-9.0-2.0-1.35","1617","2","2","""event"",""trial"",""time""
""fullscreenenter"",""1"",""3335""
","
","
","""event"",""trial"",""time""
""fullscreenenter"",""1"",""3335""
","
","","","","","","1777.8000000715256","images/dog3.png","","","learning","images/pets_choice1.png","images/pets_choice3.png","images/pets_choice2.png","[0,2,1]","0","0","1","images/pets_choice1.png","1","pets","","dog","2","0"
"html-keyboard-response","158","623450","0.0-9.0-2.0-0.36","1617","2","2","""event"",""trial"",""time""
""fullscreenenter"",""1"",""3335""
","
","
","""event"",""trial"",""time""
""fullscreenenter"",""1"",""3335""
","
","","","","","","null","<div style=""font-size:60px;"">+</div>","null","","fixation","","","","","","","","","","","","","",""
"learning-trial","159","627454","0.0-9.0-2.0-1.36","1617","2","2","""event"",""trial"",""time""
""fullscreenenter"",""1"",""3335""
","
","
","""event"",""trial"",""time""
""fullscreenenter"",""1"",""3335""
","
","","","","","","1356.5","images/rabbit1.png","","","learning","images/pets_choice1.png","images/pets_choice2.png","images/pets_choice3.png","[0,1,2]","2","2","2","images/pets_choice2.png","-1","pets","","rabbit","2","0"
"html-keyboard-response","160","627956","0.0-9.0-2.0-0.37","1617","2","2","""event"",""trial"",""time""
""fullscreenenter"",""1"",""3335""
","
","
","""event"",""trial"",""time""
""fullscreenenter"",""1"",""3335""
","
","","","","","","null","<div style=""font-size:60px;"">+</div>","null","","fixation","","","","","","","","","","","","","",""
"learning-trial","161","631959","0.0-9.0-2.0-1.37","1617","2","2","""event"",""trial"",""time""
""fullscreenenter"",""1"",""3335""
","
","
","""event"",""trial"",""time""
""fullscreenenter"",""1"",""3335""
","
","","","","","","1284.1000000238419","images/rodent1.png","","","learning","images/pets_choice1.png","images/pets_choice2.png","images/pets_choice3.png","[0,1,2]","0","0","3","images/pets_choice3.png","-1","pets","","rodent","2","0"
"html-keyboard-response","162","632461","0.0-9.0-2.0-0.38","1617","2","2","""event"",""trial"",""time""
""fullscreenenter"",""1"",""3335""
","
","
","""event"",""trial"",""time""
""fullscreenenter"",""1"",""3335""
","
","","","","","","null","<div style=""font-size:60px;"">+</div>","null","","fixation","","","","","","","","","","","","","",""
"learning-trial","163","636464","0.0-9.0-2.0-1.38","1617","2","2","""event"",""trial"",""time""
""fullscreenenter"",""1"",""3335""
","
","
","""event"",""trial"",""time""
""fullscreenenter"",""1"",""3335""
","
","","","","","","2923.5","images/dog1.png","","","learning","images/pets_choice2.png","images/pets_choice3.png","images/pets_choice1.png","[1,2,0]","1","0","3","images/pets_choice1.png","-1","pets","","dog","2","0"
"html-keyboard-response","164","636966","0.0-9.0-2.0-0.39","1617","2","2","""event"",""trial"",""time""
""fullscreenenter"",""1"",""3335""
","
","
","""event"",""trial"",""time""
""fullscreenenter"",""1"",""3335""
","
","","","","","","null","<div style=""font-size:60px;"">+</div>","null","","fixation","","","","","","","","","","","","","",""
"learning-trial","165","640970","0.0-9.0-2.0-1.39","1617","2","2","""event"",""trial"",""time""
""fullscreenenter"",""1"",""3335""
","
","
","""event"",""trial"",""time""
""fullscreenenter"",""1"",""3335""
","
","","","","","","2555","images/dog4.png","","","learning","images/pets_choice1.png","images/pets_choice2.png","images/pets_choice3.png","[0,1,2]","2","2","2","images/pets_choice2.png","-1","pets","","dog","2","0"
"html-keyboard-response","166","641471","0.0-9.0-2.0-0.40","1617","2","2","""event"",""trial"",""time""
""fullscreenenter"",""1"",""3335""
","
","
","""event"",""trial"",""time""
""fullscreenenter"",""1"",""3335""
","
","","","","","","null","<div style=""font-size:60px;"">+</div>","null","","fixation","","","","","","","","","","","","","",""
"learning-trial","167","645474","0.0-9.0-2.0-1.40","1617","2","2","""event"",""trial"",""time""
""fullscreenenter"",""1"",""3335""
","
","
","""event"",""trial"",""time""
""fullscreenenter"",""1"",""3335""
","
","","","","","","2514.2999999523163","images/rabbit1.png","","","learning","images/pets_choice2.png","images/pets_choice3.png","images/pets_choice1.png","[1,2,0]","2","1","2","images/pets_choice3.png","1","pets","","rabbit","2","0"
"html-keyboard-response","168","645976","0.0-9.0-2.0-0.41","1617","2","2","""event"",""trial"",""time""
""fullscreenenter"",""1"",""3335""
","
","
","""event"",""trial"",""time""
""fullscreenenter"",""1"",""3335""
","
","","","","","","null","<div style=""font-size:60px;"">+</div>","null","","fixation","","","","","","","","","","","","","",""
"learning-trial","169","649979","0.0-9.0-2.0-1.41","1617","2","2","""event"",""trial"",""time""
""fullscreenenter"",""1"",""3335""
","
","
","""event"",""trial"",""time""
""fullscreenenter"",""1"",""3335""
","
","","","","","","2188.2999999523163","images/dog3.png","","","learning","images/pets_choice3.png","images/pets_choice1.png","images/pets_choice2.png","[2,0,1]","0","1","2","images/pets_choice1.png","1","pets","","dog","2","0"
"html-keyboard-response","170","650481","0.0-9.0-2.0-0.42","1617","2","2","""event"",""trial"",""time""
""fullscreenenter"",""1"",""3335""
","
","
","""event"",""trial"",""time""
""fullscreenenter"",""1"",""3335""
","
","","","","","","null","<div style=""font-size:60px;"">+</div>","null","","fixation","","","","","","","","","","","","","",""
"learning-trial","171","654485","0.0-9.0-2.0-1.42","1617","2","2","""event"",""trial"",""time""
""fullscreenenter"",""1"",""3335""
","
","
","""event"",""trial"",""time""
""fullscreenenter"",""1"",""3335""
","
","","","","","","3111.899999976158","images/dog1.png","","","learning","images/pets_choice3.png","images/pets_choice2.png","images/pets_choice1.png","[2,1,0]","1","1","2","images/pets_choice2.png","1","pets","","dog","2","0"
"html-keyboard-response","172","654987","0.0-9.0-2.0-0.43","1617","2","2","""event"",""trial"",""time""
""fullscreenenter"",""1"",""3335""
","
","
","""event"",""trial"",""time""
""fullscreenenter"",""1"",""3335""
","
","","","","","","null","<div style=""font-size:60px;"">+</div>","null","","fixation","","","","","","","","","","","","","",""
"learning-trial","173","658990","0.0-9.0-2.0-1.43","1617","2","2","""event"",""trial"",""time""
""fullscreenenter"",""1"",""3335""
","
","
","""event"",""trial"",""time""
""fullscreenenter"",""1"",""3335""
","
","","","","","","1543.1000000238419","images/rabbit4.png","","","learning","images/pets_choice1.png","images/pets_choice2.png","images/pets_choice3.png","[0,1,2]","0","0","3","images/pets_choice3.png","-1","pets","","rabbit","2","0"
"html-keyboard-response","174","659491","0.0-9.0-2.0-0.44","1617","2","2","""event"",""trial"",""time""
""fullscreenenter"",""1"",""3335""
","
","
","""event"",""trial"",""time""
""fullscreenenter"",""1"",""3335""
","
","","","","","","null","<div style=""font-size:60px;"">+</div>","null","","fixation","","","","","","","","","","","","","",""
"learning-trial","175","663495","0.0-9.0-2.0-1.44","1617","2","2","""event"",""trial"",""time""
""fullscreenenter"",""1"",""3335""
","
","
","""event"",""trial"",""time""
""fullscreenenter"",""1"",""3335""
","
","","","","","","679.6000000238419","images/rabbit4.png","","","learning","images/pets_choice1.png","images/pets_choice2.png","images/pets_choice3.png","[0,1,2]","0","0","3","images/pets_choice3.png","-1","pets","","rabbit","2","0"
"html-keyboard-response","176","663997","0.0-9.0-2.0-0.45","1617","2","2","""event"",""trial"",""time""
""fullscreenenter"",""1"",""3335""
","
","
","""event"",""trial"",""time""
""fullscreenenter"",""1"",""3335""
","
","","","","","","null","<div style=""font-size:60px;"">+</div>","null","","fixation","","","","","","","","","","","","","",""
"learning-trial","177","667999","0.0-9.0-2.0-1.45","1617","2","2","""event"",""trial"",""time""
""fullscreenenter"",""1"",""3335""
","
","
","""event"",""trial"",""time""
""fullscreenenter"",""1"",""3335""
","
","","","","","","2338.600000023842","images/dog1.png","","","learning","images/pets_choice1.png","images/pets_choice2.png","images/pets_choice3.png","[0,1,2]","1","1","2","images/pets_choice2.png","1","pets","","dog","2","0"
"html-keyboard-response","178","668501","0.0-9.0-2.0-0.46","1617","2","2","""event"",""trial"",""time""
""fullscreenenter"",""1"",""3335""
","
","
","""event"",""trial"",""time""
""fullscreenenter"",""1"",""3335""
","
","","","","","","null","<div style=""font-size:60px;"">+</div>","null","","fixation","","","","","","","","","","","","","",""
"learning-trial","179","672504","0.0-9.0-2.0-1.46","1617","2","2","""event"",""trial"",""time""
""fullscreenenter"",""1"",""3335""
","
","
","""event"",""trial"",""time""
""fullscreenenter"",""1"",""3335""
","
","","","","","","1355.6000000238419","images/dog1.png","","","learning","images/pets_choice3.png","images/pets_choice2.png","images/pets_choice1.png","[2,1,0]","1","1","2","images/pets_choice2.png","1","pets","","dog","2","0"
"html-keyboard-response","180","673006","0.0-9.0-2.0-0.47","1617","2","2","""event"",""trial"",""time""
""fullscreenenter"",""1"",""3335""
","
","
","""event"",""trial"",""time""
""fullscreenenter"",""1"",""3335""
","
","","","","","","null","<div style=""font-size:60px;"">+</div>","null","","fixation","","","","","","","","","","","","","",""
"learning-trial","181","677008","0.0-9.0-2.0-1.47","1617","2","2","""event"",""trial"",""time""
""fullscreenenter"",""1"",""3335""
","
","
","""event"",""trial"",""time""
""fullscreenenter"",""1"",""3335""
","
","","","","","","2158.1999999284744","images/rabbit1.png","","","learning","images/pets_choice3.png","images/pets_choice1.png","images/pets_choice2.png","[2,0,1]","2","0","2","images/pets_choice1.png","-1","pets","","rabbit","2","0"
"html-keyboard-response","182","677510","0.0-9.0-2.0-0.48","1617","2","2","""event"",""trial"",""time""
""fullscreenenter"",""1"",""3335""
","
","
","""event"",""trial"",""time""
""fullscreenenter"",""1"",""3335""
","
","","","","","","null","<div style=""font-size:60px;"">+</div>","null","","fixation","","","","","","","","","","","","","",""
"learning-trial","183","681514","0.0-9.0-2.0-1.48","1617","2","2","""event"",""trial"",""time""
""fullscreenenter"",""1"",""3335""
","
","
","""event"",""trial"",""time""
""fullscreenenter"",""1"",""3335""
","
","","","","","","921.8000000715256","images/rabbit3.png","","","learning","images/pets_choice1.png","images/pets_choice2.png","images/pets_choice3.png","[0,1,2]","1","1","2","images/pets_choice2.png","1","pets","","rabbit","2","0"
"html-keyboard-response","184","682016","0.0-9.0-2.0-0.49","1617","2","2","""event"",""trial"",""time""
""fullscreenenter"",""1"",""3335""
","
","
","""event"",""trial"",""time""
""fullscreenenter"",""1"",""3335""
","
","","","","","","null","<div style=""font-size:60px;"">+</div>","null","","fixation","","","","","","","","","","","","","",""
"learning-trial","185","686019","0.0-9.0-2.0-1.49","1617","2","2","""event"",""trial"",""time""
""fullscreenenter"",""1"",""3335""
","
","
","""event"",""trial"",""time""
""fullscreenenter"",""1"",""3335""
","
","","","","","","1723.7000000476837","images/rodent5.png","","","learning","images/pets_choice2.png","images/pets_choice1.png","images/pets_choice3.png","[1,0,2]","2","2","3","images/pets_choice3.png","1","pets","","rodent","2","0"
"html-keyboard-response","186","686521","0.0-9.0-2.0-0.50","1617","2","2","""event"",""trial"",""time""
""fullscreenenter"",""1"",""3335""
","
","
","""event"",""trial"",""time""
""fullscreenenter"",""1"",""3335""
","
","","","","","","null","<div style=""font-size:60px;"">+</div>","null","","fixation","","","","","","","","","","","","","",""
"learning-trial","187","690535","0.0-9.0-2.0-1.50","1617","2","2","""event"",""trial"",""time""
""fullscreenenter"",""1"",""3335""
","
","
","""event"",""trial"",""time""
""fullscreenenter"",""1"",""3335""
","
","","","","","","2305.5","images/dog1.png","","","learning","images/pets_choice1.png","images/pets_choice2.png","images/pets_choice3.png","[0,1,2]","1","1","2","images/pets_choice2.png","1","pets","","dog","2","0"
"html-keyboard-response","188","691037","0.0-9.0-2.0-0.51","1617","2","2","""event"",""trial"",""time""
""fullscreenenter"",""1"",""3335""
","
","
","""event"",""trial"",""time""
""fullscreenenter"",""1"",""3335""
","
","","","","","","null","<div style=""font-size:60px;"">+</div>","null","","fixation","","","","","","","","","","","","","",""
"learning-trial","189","695048","0.0-9.0-2.0-1.51","1617","2","2","""event"",""trial"",""time""
""fullscreenenter"",""1"",""3335""
","
","
","""event"",""trial"",""time""
""fullscreenenter"",""1"",""3335""
","
","","","","","","3275.399999976158","images/rodent2.png","","","learning","images/pets_choice1.png","images/pets_choice2.png","images/pets_choice3.png","[0,1,2]","1","1","3","images/pets_choice3.png","-1","pets","","rodent","2","0"
"html-keyboard-response","190","695550","0.0-9.0-2.0-0.52","1617","2","2","""event"",""trial"",""time""
""fullscreenenter"",""1"",""3335""
","
","
","""event"",""trial"",""time""
""fullscreenenter"",""1"",""3335""
","
","","","","","","null","<div style=""font-size:60px;"">+</div>","null","","fixation","","","","","","","","","","","","","",""
"learning-trial","191","699553","0.0-9.0-2.0-1.52","1617","2","2","""event"",""trial"",""time""
""fullscreenenter"",""1"",""3335""
","
","
","""event"",""trial"",""time""
""fullscreenenter"",""1"",""3335""
","
","","","","","","2119.6999999284744","images/dog4.png","","","learning","images/pets_choice3.png","images/pets_choice1.png","images/pets_choice2.png","[2,0,1]","2","0","3","images/pets_choice2.png","-1","pets","","dog","2","0"
"html-keyboard-response","192","700055","0.0-9.0-2.0-0.53","1617","2","2","""event"",""trial"",""time""
""fullscreenenter"",""1"",""3335""
","
","
","""event"",""trial"",""time""
""fullscreenenter"",""1"",""3335""
","
","","","","","","null","<div style=""font-size:60px;"">+</div>","null","","fixation","","","","","","","","","","","","","",""
"learning-trial","193","704059","0.0-9.0-2.0-1.53","1617","2","2","""event"",""trial"",""time""
""fullscreenenter"",""1"",""3335""
","
","
","""event"",""trial"",""time""
""fullscreenenter"",""1"",""3335""
","
","","","","","","1761.3999999761581","images/dog3.png","","","learning","images/pets_choice1.png","images/pets_choice2.png","images/pets_choice3.png","[0,1,2]","0","0","1","images/pets_choice1.png","1","pets","","dog","2","0"
"html-keyboard-response","194","704561","0.0-9.0-2.0-0.54","1617","2","2","""event"",""trial"",""time""
""fullscreenenter"",""1"",""3335""
","
","
","""event"",""trial"",""time""
""fullscreenenter"",""1"",""3335""
","
","","","","","","null","<div style=""font-size:60px;"">+</div>","null","","fixation","","","","","","","","","","","","","",""
"learning-trial","195","708564","0.0-9.0-2.0-1.54","1617","2","2","""event"",""trial"",""time""
""fullscreenenter"",""1"",""3335""
","
","
","""event"",""trial"",""time""
""fullscreenenter"",""1"",""3335""
","
","","","","","","2642.100000023842","images/rodent2.png","","","learning","images/pets_choice3.png","images/pets_choice2.png","images/pets_choice1.png","[2,1,0]","1","1","1","images/pets_choice3.png","-1","pets","","rodent","2","0"
"html-keyboard-response","196","709066","0.0-9.0-2.0-0.55","1617","2","2","""event"",""trial"",""time""
""fullscreenenter"",""1"",""3335""
","
","
","""event"",""trial"",""time""
""fullscreenenter"",""1"",""3335""
","
","","","","","","null","<div style=""font-size:60px;"">+</div>","null","","fixation","","","","","","","","","","","","","",""
"learning-trial","197","713069","0.0-9.0-2.0-1.55","1617","2","2","""event"",""trial"",""time""
""fullscreenenter"",""1"",""3335""
","
","
","""event"",""trial"",""time""
""fullscreenenter"",""1"",""3335""
","
","","","","","","3525.399999976158","images/dog4.png","","","learning","images/pets_choice3.png","images/pets_choice1.png","images/pets_choice2.png","[2,0,1]","2","0","1","images/pets_choice3.png","1","pets","","dog","2","0"
"html-keyboard-response","198","713570","0.0-9.0-2.0-0.56","1617","2","2","""event"",""trial"",""time""
""fullscreenenter"",""1"",""3335""
","
","
","""event"",""trial"",""time""
""fullscreenenter"",""1"",""3335""
","
","","","","","","null","<div style=""font-size:60px;"">+</div>","null","","fixation","","","","","","","","","","","","","",""
"learning-trial","199","717573","0.0-9.0-2.0-1.56","1617","2","2","""event"",""trial"",""time""
""fullscreenenter"",""1"",""3335""
","
","
","""event"",""trial"",""time""
""fullscreenenter"",""1"",""3335""
","
","","","","","","1638.1000000238419","images/rabbit4.png","","","learning","images/pets_choice3.png","images/pets_choice2.png","images/pets_choice1.png","[2,1,0]","0","2","1","images/pets_choice3.png","-1","pets","","rabbit","2","0"
"html-keyboard-response","200","718074","0.0-9.0-2.0-0.57","1617","2","2","""event"",""trial"",""time""
""fullscreenenter"",""1"",""3335""
","
","
","""event"",""trial"",""time""
""fullscreenenter"",""1"",""3335""
","
","","","","","","null","<div style=""font-size:60px;"">+</div>","null","","fixation","","","","","","","","","","","","","",""
"learning-trial","201","722078","0.0-9.0-2.0-1.57","1617","2","2","""event"",""trial"",""time""
""fullscreenenter"",""1"",""3335""
","
","
","""event"",""trial"",""time""
""fullscreenenter"",""1"",""3335""
","
","","","","","","2424.4000000953674","images/rodent5.png","","","learning","images/pets_choice3.png","images/pets_choice1.png","images/pets_choice2.png","[2,0,1]","2","0","1","images/pets_choice3.png","1","pets","","rodent","2","0"
"html-keyboard-response","202","722580","0.0-9.0-2.0-0.58","1617","2","2","""event"",""trial"",""time""
""fullscreenenter"",""1"",""3335""
","
","
","""event"",""trial"",""time""
""fullscreenenter"",""1"",""3335""
","
","","","","","","null","<div style=""font-size:60px;"">+</div>","null","","fixation","","","","","","","","","","","","","",""
"learning-trial","203","726583","0.0-9.0-2.0-1.58","1617","2","2","""event"",""trial"",""time""
""fullscreenenter"",""1"",""3335""
","
","
","""event"",""trial"",""time""
""fullscreenenter"",""1"",""3335""
","
","","","","","","1172.2999999523163","images/rabbit4.png","","","learning","images/pets_choice2.png","images/pets_choice3.png","images/pets_choice1.png","[1,2,0]","0","2","3","images/pets_choice1.png","1","pets","","rabbit","2","0"
"html-keyboard-response","204","727083","0.0-9.0-2.0-0.59","1617","2","2","""event"",""trial"",""time""
""fullscreenenter"",""1"",""3335""
","
","
","""event"",""trial"",""time""
""fullscreenenter"",""1"",""3335""
","
","","","","","","null","<div style=""font-size:60px;"">+</div>","null","","fixation","","","","","","","","","","","","","",""
"learning-trial","205","731086","0.0-9.0-2.0-1.59","1617","2","2","""event"",""trial"",""time""
""fullscreenenter"",""1"",""3335""
","
","
","""event"",""trial"",""time""
""fullscreenenter"",""1"",""3335""
","
","","","","","","2053.7999999523163","images/rodent1.png","","","learning","images/pets_choice3.png","images/pets_choice2.png","images/pets_choice1.png","[2,1,0]","0","2","3","images/pets_choice1.png","1","pets","","rodent","2","0"
"html-keyboard-response","206","731587","0.0-9.0-2.0-0.60","1617","2","2","""event"",""trial"",""time""
""fullscreenenter"",""1"",""3335""
","
","
","""event"",""trial"",""time""
""fullscreenenter"",""1"",""3335""
","
","","","","","","null","<div style=""font-size:60px;"">+</div>","null","","fixation","","","","","","","","","","","","","",""
"learning-trial","207","735591","0.0-9.0-2.0-1.60","1617","2","2","""event"",""trial"",""time""
""fullscreenenter"",""1"",""3335""
","
","
","""event"",""trial"",""time""
""fullscreenenter"",""1"",""3335""
","
","","","","","","2840.2000000476837","images/rodent5.png","","","learning","images/pets_choice2.png","images/pets_choice3.png","images/pets_choice1.png","[1,2,0]","2","1","2","images/pets_choice3.png","1","pets","","rodent","2","0"
"html-keyboard-response","208","736092","0.0-9.0-2.0-0.61","1617","2","2","""event"",""trial"",""time""
""fullscreenenter"",""1"",""3335""
","
","
","""event"",""trial"",""time""
""fullscreenenter"",""1"",""3335""
","
","","","","","","null","<div style=""font-size:60px;"">+</div>","null","","fixation","","","","","","","","","","","","","",""
"learning-trial","209","740095","0.0-9.0-2.0-1.61","1617","2","2","""event"",""trial"",""time""
""fullscreenenter"",""1"",""3335""
","
","
","""event"",""trial"",""time""
""fullscreenenter"",""1"",""3335""
","
","","","","","","743.5","images/rodent5.png","","","learning","images/pets_choice1.png","images/pets_choice3.png","images/pets_choice2.png","[0,2,1]","2","1","2","images/pets_choice3.png","1","pets","","rodent","2","0"
"html-keyboard-response","210","740597","0.0-9.0-2.0-0.62","1617","2","2","""event"",""trial"",""time""
""fullscreenenter"",""1"",""3335""
","
","
","""event"",""trial"",""time""
""fullscreenenter"",""1"",""3335""
","
","","","","","","null","<div style=""font-size:60px;"">+</div>","null","","fixation","","","","","","","","","","","","","",""
"learning-trial","211","744601","0.0-9.0-2.0-1.62","1617","2","2","""event"",""trial"",""time""
""fullscreenenter"",""1"",""3335""
","
","
","""event"",""trial"",""time""
""fullscreenenter"",""1"",""3335""
","
","","","","","","1745.2999999523163","images/dog4.png","","","learning","images/pets_choice2.png","images/pets_choice3.png","images/pets_choice1.png","[1,2,0]","2","1","3","images/pets_choice1.png","-1","pets","","dog","2","0"
"html-keyboard-response","212","745103","0.0-9.0-2.0-0.63","1617","2","2","""event"",""trial"",""time""
""fullscreenenter"",""1"",""3335""
","
","
","""event"",""trial"",""time""
""fullscreenenter"",""1"",""3335""
","
","","","","","","null","<div style=""font-size:60px;"">+</div>","null","","fixation","","","","","","","","","","","","","",""
"learning-trial","213","749120","0.0-9.0-2.0-1.63","1617","2","2","""event"",""trial"",""time""
""fullscreenenter"",""1"",""3335""
","
","
","""event"",""trial"",""time""
""fullscreenenter"",""1"",""3335""
","
","","","","","","1081.3000000715256","images/dog4.png","","","learning","images/pets_choice2.png","images/pets_choice1.png","images/pets_choice3.png","[1,0,2]","2","2","2","images/pets_choice1.png","-1","pets","","dog","2","0"
"html-keyboard-response","214","749622","0.0-9.0-2.0-0.64","1617","2","2","""event"",""trial"",""time""
""fullscreenenter"",""1"",""3335""
","
","
","""event"",""trial"",""time""
""fullscreenenter"",""1"",""3335""
","
","","","","","","null","<div style=""font-size:60px;"">+</div>","null","","fixation","","","","","","","","","","","","","",""
"learning-trial","215","753625","0.0-9.0-2.0-1.64","1617","2","2","""event"",""trial"",""time""
""fullscreenenter"",""1"",""3335""
","
","
","""event"",""trial"",""time""
""fullscreenenter"",""1"",""3335""
","
","","","","","","1976.2999999523163","images/rodent1.png","","","learning","images/pets_choice2.png","images/pets_choice1.png","images/pets_choice3.png","[1,0,2]","0","1","2","images/pets_choice1.png","1","pets","","rodent","2","0"
"html-keyboard-response","216","754127","0.0-9.0-2.0-0.65","1617","2","2","""event"",""trial"",""time""
""fullscreenenter"",""1"",""3335""
","
","
","""event"",""trial"",""time""
""fullscreenenter"",""1"",""3335""
","
","","","","","","null","<div style=""font-size:60px;"">+</div>","null","","fixation","","","","","","","","","","","","","",""
"learning-trial","217","758132","0.0-9.0-2.0-1.65","1617","2","2","""event"",""trial"",""time""
""fullscreenenter"",""1"",""3335""
","
","
","""event"",""trial"",""time""
""fullscreenenter"",""1"",""3335""
","
","","","","","","2490.2999999523163","images/rabbit1.png","","","learning","images/pets_choice3.png","images/pets_choice2.png","images/pets_choice1.png","[2,1,0]","2","0","2","images/pets_choice2.png","-1","pets","","rabbit","2","0"
"html-keyboard-response","218","758634","0.0-9.0-2.0-0.66","1617","2","2","""event"",""trial"",""time""
""fullscreenenter"",""1"",""3335""
","
","
","""event"",""trial"",""time""
""fullscreenenter"",""1"",""3335""
","
","","","","","","null","<div style=""font-size:60px;"">+</div>","null","","fixation","","","","","","","","","","","","","",""
"learning-trial","219","762637","0.0-9.0-2.0-1.66","1617","2","2","""event"",""trial"",""time""
""fullscreenenter"",""1"",""3335""
","
","
","""event"",""trial"",""time""
""fullscreenenter"",""1"",""3335""
","
","","","","","","1819.1999999284744","images/dog4.png","","","learning","images/pets_choice1.png","images/pets_choice2.png","images/pets_choice3.png","[0,1,2]","2","2","2","images/pets_choice2.png","-1","pets","","dog","2","0"
"html-keyboard-response","220","763152","0.0-9.0-2.0-0.67","1617","2","2","""event"",""trial"",""time""
""fullscreenenter"",""1"",""3335""
","
","
","""event"",""trial"",""time""
""fullscreenenter"",""1"",""3335""
","
","","","","","","null","<div style=""font-size:60px;"">+</div>","null","","fixation","","","","","","","","","","","","","",""
"learning-trial","221","767155","0.0-9.0-2.0-1.67","1617","2","2","""event"",""trial"",""time""
""fullscreenenter"",""1"",""3335""
","
","
","""event"",""trial"",""time""
""fullscreenenter"",""1"",""3335""
","
","","","","","","2555.5999999046326","images/dog3.png","","","learning","images/pets_choice2.png","images/pets_choice3.png","images/pets_choice1.png","[1,2,0]","0","2","3","images/pets_choice1.png","1","pets","","dog","2","0"
"html-keyboard-response","222","767666","0.0-9.0-2.0-0.68","1617","2","2","""event"",""trial"",""time""
""fullscreenenter"",""1"",""3335""
","
","
","""event"",""trial"",""time""
""fullscreenenter"",""1"",""3335""
","
","","","","","","null","<div style=""font-size:60px;"">+</div>","null","","fixation","","","","","","","","","","","","","",""
"learning-trial","223","771669","0.0-9.0-2.0-1.68","1617","2","2","""event"",""trial"",""time""
""fullscreenenter"",""1"",""3335""
","
","
","""event"",""trial"",""time""
""fullscreenenter"",""1"",""3335""
","
","","","","","","863.5999999046326","images/dog3.png","","","learning","images/pets_choice3.png","images/pets_choice2.png","images/pets_choice1.png","[2,1,0]","0","2","3","images/pets_choice1.png","1","pets","","dog","2","0"
"html-keyboard-response","224","772171","0.0-9.0-2.0-0.69","1617","2","2","""event"",""trial"",""time""
""fullscreenenter"",""1"",""3335""
","
","
","""event"",""trial"",""time""
""fullscreenenter"",""1"",""3335""
","
","","","","","","null","<div style=""font-size:60px;"">+</div>","null","","fixation","","","","","","","","","","","","","",""
"learning-trial","225","776180","0.0-9.0-2.0-1.69","1617","2","2","""event"",""trial"",""time""
""fullscreenenter"",""1"",""3335""
","
","
","""event"",""trial"",""time""
""fullscreenenter"",""1"",""3335""
","
","","","","","","2392.3000000715256","images/rodent2.png","","","learning","images/pets_choice2.png","images/pets_choice1.png","images/pets_choice3.png","[1,0,2]","1","0","2","images/pets_choice1.png","-1","pets","","rodent","2","0"
"html-keyboard-response","226","776682","0.0-9.0-2.0-0.70","1617","2","2","""event"",""trial"",""time""
""fullscreenenter"",""1"",""3335""
","
","
","""event"",""trial"",""time""
""fullscreenenter"",""1"",""3335""
","
","","","","","","null","<div style=""font-size:60px;"">+</div>","null","","fixation","","","","","","","","","","","","","",""
"learning-trial","227","780685","0.0-9.0-2.0-1.70","1617","2","2","""event"",""trial"",""time""
""fullscreenenter"",""1"",""3335""
","
","
","""event"",""trial"",""time""
""fullscreenenter"",""1"",""3335""
","
","","","","","","2024.5","images/rodent1.png","","","learning","images/pets_choice1.png","images/pets_choice3.png","images/pets_choice2.png","[0,2,1]","0","0","2","images/pets_choice3.png","1","pets","","rodent","2","0"
"html-keyboard-response","228","781187","0.0-9.0-2.0-0.71","1617","2","2","""event"",""trial"",""time""
""fullscreenenter"",""1"",""3335""
","
","
","""event"",""trial"",""time""
""fullscreenenter"",""1"",""3335""
","
","","","","","","null","<div style=""font-size:60px;"">+</div>","null","","fixation","","","","","","","","","","","","","",""
"learning-trial","229","785198","0.0-9.0-2.0-1.71","1617","2","2","""event"",""trial"",""time""
""fullscreenenter"",""1"",""3335""
","
","
","""event"",""trial"",""time""
""fullscreenenter"",""1"",""3335""
","
","","","","","","1078.8999999761581","images/rabbit3.png","","","learning","images/pets_choice3.png","images/pets_choice2.png","images/pets_choice1.png","[2,1,0]","1","1","2","images/pets_choice2.png","1","pets","","rabbit","2","0"
"html-button-response","230","788129","0.0-9.0-3.0","1617","2","2","""event"",""trial"",""time""
""fullscreenenter"",""1"",""3335""
","
","
","""event"",""trial"",""time""
""fullscreenenter"",""1"",""3335""
","
","","","","","","2930","<p> You have completed the round! <p> In this round, you earned 2 points! </p>","0","","break","","","","","","","","","","","","","",""
"html-button-response","231","793423","0.0-10.0","1617","2","2","""event"",""trial"",""time""
""fullscreenenter"",""1"",""3335""
","
","
","""event"",""trial"",""time""
""fullscreenenter"",""1"",""3335""
","
","","","","","","5292.899999976158","<p> Now it's time to play another round. </p>","0","","transition_screen","","","","","","","","","","","","","",""
"preload","232","796229","0.0-11.0-0.0","1617","2","2","""event"",""trial"",""time""
""fullscreenenter"",""1"",""3335""
","
","
","""event"",""trial"",""time""
""fullscreenenter"",""1"",""3335""
","
","true","false","[]","[]","[]","","","","","","","","","","","","","","","","","","",""
"learning-instructions","233","803805","0.0-11.0-1.0-0.0","1617","2","2","""event"",""trial"",""time""
""fullscreenenter"",""1"",""3335""
","
","
","""event"",""trial"",""time""
""fullscreenenter"",""1"",""3335""
","
","","","","","","867.5999999046326","<p> Your goal in this round is to buy different types of fruits. </p><p> You will try to purchase many fruits from different stores. </p></div>","","0","instructions","","","","","","","","","","","","","",""
"learning-instructions","234","812727","0.0-11.0-1.0-0.1","1617","2","2","""event"",""trial"",""time""
""fullscreenenter"",""1"",""3335""
","
","
","""event"",""trial"",""time""
""fullscreenenter"",""1"",""3335""
","
","","","","","","430.5","<p> On each turn, you will see a picture of a fruit and three different stores.  </p><p> You need to select the store where you can buy that fruit.  </p>","","0","instructions","","","","","","","","","","","","","",""
"learning-instructions","235","823063","0.0-11.0-1.0-0.2","1617","2","2","""event"",""trial"",""time""
""fullscreenenter"",""1"",""3335""
","
","
","""event"",""trial"",""time""
""fullscreenenter"",""1"",""3335""
","
","","","","","","2936.2000000476837","<p> You can select the store on the left by pressing 1, the store in the middle by pressing 2, and the store on the right by pressing 3. </p><br><div class=""choice-instructions-grid""> <div class=""choice-option""><img src=""images/fruit_choice1.png"" class=""choice-option-img"" stage=""instructions"" position=""0"" ><div class=""choice-option-text""> Press ""1."" </div></div><div class=""choice-option""><img src=""images/fruit_choice2.png"" class=""choice-option-img"" stage=""instructions"" position=""1"" ><div class=""choice-option-text""> Press ""2."" </div></div><div class=""choice-option""><img src=""images/fruit_choice3.png"" class=""choice-option-img"" stage=""instructions"" position=""2"" ><div class=""choice-option-text""> Press ""3."" </div></div></div>","","0","instructions","","","","","","","","","","","","","",""
"learning-instructions","236","828707","0.0-11.0-1.0-0.3","1617","2","2","""event"",""trial"",""time""
""fullscreenenter"",""1"",""3335""
","
","
","""event"",""trial"",""time""
""fullscreenenter"",""1"",""3335""
","
","","","","","","710.1999999284744","<p> If you find the fruit in the store you chose, you will get to buy and eat it! </p><div style='float: center;'><img src='images/check.png' width = '200' height = '200'></img>","","0","instructions","","","","","","","","","","","","","",""
"learning-instructions","237","833689","0.0-11.0-1.0-0.4","1617","2","2","""event"",""trial"",""time""
""fullscreenenter"",""1"",""3335""
","
","
","""event"",""trial"",""time""
""fullscreenenter"",""1"",""3335""
","
","","","","","","491.60000002384186","<p> But, if the fruit is not in that store, you will be hungry. </p><div style='float: center;'><img src='images/x.png' width = '200' height = '200'></img>","","0","instructions","","","","","","","","","","","","","",""
