"trial_type","trial_index","time_elapsed","internal_node_id","subject_id","condition","task_version","interactions","blur_events","focus_events","fullscreenenter_events","fullscreenexit_events","success","timeout","failed_images","failed_audio","failed_video","rt","stimulus","response","button_pressed","task_part","left_choice","middle_choice","right_choice","choice_positions","correct_response","correct_position","key_press","option_selected","points","task_block","correct","stim_cat","block_condition","block_number"
"pavlovia","0","3","0.0-0.0","1416","1","2","""event"",""trial"",""time""
""fullscreenenter"",""1"",""3589""
","
","
","""event"",""trial"",""time""
""fullscreenenter"",""1"",""3589""
","
","","","","","","","","","","","","","","","","","","","","","","","",""
"fullscreen","1","4587","0.0-1.0","1416","1","2","""event"",""trial"",""time""
""fullscreenenter"",""1"",""3589""
","
","
","""event"",""trial"",""time""
""fullscreenenter"",""1"",""3589""
","
","true","","","","","","","","","","","","","","","","","","","","","","",""
"preload","2","10771","0.0-2.0","1416","1","2","""event"",""trial"",""time""
""fullscreenenter"",""1"",""3589""
","
","
","""event"",""trial"",""time""
""fullscreenenter"",""1"",""3589""
","
","true","false","[]","[]","[]","","","","","","","","","","","","","","","","","","",""
"audio-keyboard-response","3","16268","0.0-3.0","1416","1","2","""event"",""trial"",""time""
""fullscreenenter"",""1"",""3589""
","
","
","""event"",""trial"",""time""
""fullscreenenter"",""1"",""3589""
","
","","","","","","5493.333333333332","audio/beep_loop.wav"," ","","","","","","","","","","","","","","","",""
"audio-button-response","4","23623","0.0-4.0","1416","1","2","""event"",""trial"",""time""
""fullscreenenter"",""1"",""3589""
","
","
","""event"",""trial"",""time""
""fullscreenenter"",""1"",""3589""
","
","","","","","","7328","audio/shark.wav","4","","","","","","","","","","","","","","","",""
"audio-button-response","5","28408","0.0-5.0","1416","1","2","""event"",""trial"",""time""
""fullscreenenter"",""1"",""3589""
","
","
","""event"",""trial"",""time""
""fullscreenenter"",""1"",""3589""
","
","","","","","","3787","audio/turtle.wav","1","","","","","","","","","","","","","","","",""
"preload","6","34166","0.0-6.0","1416","1","2","""event"",""trial"",""time""
""fullscreenenter"",""1"",""3589""
","
","
","""event"",""trial"",""time""
""fullscreenenter"",""1"",""3589""
","
","true","false","[]","[]","[]","","","","","","","","","","","","","","","","","","",""
"html-keyboard-response","7","42706","0.0-7.0","1416","1","2","""event"",""trial"",""time""
""fullscreenenter"",""1"",""3589""
","
","
","""event"",""trial"",""time""
""fullscreenenter"",""1"",""3589""
","
","","","","","","8537.599999997765","Welcome to the experiment. Press any key to begin and to advance the instructions."," ","","","","","","","","","","","","","","","",""
"learning-instructions","8","51919","0.0-8.0-0.0-0.0","1416","1","2","""event"",""trial"",""time""
""fullscreenenter"",""1"",""3589""
","
","
","""event"",""trial"",""time""
""fullscreenenter"",""1"",""3589""
","
","","","","","","1450.699999999255","<p> Welcome! Today you are going to play 6 different rounds of a decision-making game. </p><p> Use the mouse to click next to continue. </p>","","0","instructions","","","","","","","","","","","","","",""
"learning-instructions","9","56149","0.0-8.0-0.0-0.1","1416","1","2","""event"",""trial"",""time""
""fullscreenenter"",""1"",""3589""
","
","
","""event"",""trial"",""time""
""fullscreenenter"",""1"",""3589""
","
","","","","","","1231.199999999255","<p> You will start with a practice round to learn the rules. </p>","","0","instructions","","","","","","","","","","","","","",""
"learning-instructions","10","65107","0.0-8.0-0.0-0.2","1416","1","2","""event"",""trial"",""time""
""fullscreenenter"",""1"",""3589""
","
","
","""event"",""trial"",""time""
""fullscreenenter"",""1"",""3589""
","
","","","","","","1213.699999999255","<p> Your goal in this round is to deliver sports equipment to three different parks. </p><p> You will need to deliver many types of equipment. </p></div>","","0","instructions","","","","","","","","","","","","","",""
"learning-instructions","11","74390","0.0-8.0-0.0-0.3","1416","1","2","""event"",""trial"",""time""
""fullscreenenter"",""1"",""3589""
","
","
","""event"",""trial"",""time""
""fullscreenenter"",""1"",""3589""
","
","","","","","","796.8000000007451","<p> On each turn, you will see one piece of sports equipment and three different parks.  </p><p> You need to select which park to deliver the equipment to.  </p>","","0","instructions","","","","","","","","","","","","","",""
"learning-instructions","12","90430","0.0-8.0-0.0-0.4","1416","1","2","""event"",""trial"",""time""
""fullscreenenter"",""1"",""3589""
","
","
","""event"",""trial"",""time""
""fullscreenenter"",""1"",""3589""
","
","","","","","","2746.599999997765","<p> You can select the park on the left by pressing the '1' key on your keyboard. <br>You can select the park in the middle by pressing the '2' key on your keyboard. <br>You can select the park on the right by pressing the '3' key on your keyboard.  </p><br><div class=""choice-instructions-grid""> <div class=""choice-option""><img src=""images/park1.png"" class=""choice-option-img"" stage=""instructions"" position=""0"" ><div class=""choice-option-text""> Press ""1."" </div></div><div class=""choice-option""><img src=""images/park2.png"" class=""choice-option-img"" stage=""instructions"" position=""1"" ><div class=""choice-option-text""> Press ""2."" </div></div><div class=""choice-option""><img src=""images/park3.png"" class=""choice-option-img"" stage=""instructions"" position=""2"" ><div class=""choice-option-text""> Press ""3."" </div></div></div>","","0","instructions","","","","","","","","","","","","","",""
"learning-instructions","13","97624","0.0-8.0-0.0-0.5","1416","1","2","""event"",""trial"",""time""
""fullscreenenter"",""1"",""3589""
","
","
","""event"",""trial"",""time""
""fullscreenenter"",""1"",""3589""
","
","","","","","","1810.7000000029802","<p> If the kids in the park you chose like the equipment, they will be very happy! </p><div style='float: center;'><img src='images/check.png' width = '200' height = '200'></img>","","0","instructions","","","","","","","","","","","","","",""
"learning-instructions","14","104071","0.0-8.0-0.0-0.6","1416","1","2","""event"",""trial"",""time""
""fullscreenenter"",""1"",""3589""
","
","
","""event"",""trial"",""time""
""fullscreenenter"",""1"",""3589""
","
","","","","","","860.5","<p> But, if the kids in the park you chose do not like the equipment, they will be sad. </p><div style='float: center;'><img src='images/x.png' width = '200' height = '200'></img>","","0","instructions","","","","","","","","","","","","","",""
"learning-instructions","15","111852","0.0-8.0-0.0-0.7","1416","1","2","""event"",""trial"",""time""
""fullscreenenter"",""1"",""3589""
","
","
","""event"",""trial"",""time""
""fullscreenenter"",""1"",""3589""
","
","","","","","","1353.3999999985099","<p> Importantly, the kids in each park like some pieces of sports equipment more than others. </p>","","0","instructions","","","","","","","","","","","","","",""
"learning-instructions","16","118365","0.0-8.0-0.0-0.8","1416","1","2","""event"",""trial"",""time""
""fullscreenenter"",""1"",""3589""
","
","
","""event"",""trial"",""time""
""fullscreenenter"",""1"",""3589""
","
","","","","","","460.3999999985099","<p> If you choose the best park for each piece of equipment, the kids there will usually be happy. </p>","","0","instructions","","","","","","","","","","","","","",""
"learning-instructions","17","126146","0.0-8.0-0.0-0.9","1416","1","2","""event"",""trial"",""time""
""fullscreenenter"",""1"",""3589""
","
","
","""event"",""trial"",""time""
""fullscreenenter"",""1"",""3589""
","
","","","","","","1144.3999999985099","<p> However, even if you choose the best park for the equipment, the kids may sometimes be sad. </p>","","0","instructions","","","","","","","","","","","","","",""
"learning-instructions","18","134020","0.0-8.0-0.0-0.10","1416","1","2","""event"",""trial"",""time""
""fullscreenenter"",""1"",""3589""
","
","
","""event"",""trial"",""time""
""fullscreenenter"",""1"",""3589""
","
","","","","","","641.1999999992549","<p> Similarly, even if you choose the <i>wrong</i> park for the equipment, the kids may still be happy sometimes.","","0","instructions","","","","","","","","","","","","","",""
"learning-instructions","19","142826","0.0-8.0-0.0-0.11","1416","1","2","""event"",""trial"",""time""
""fullscreenenter"",""1"",""3589""
","
","
","""event"",""trial"",""time""
""fullscreenenter"",""1"",""3589""
","
","","","","","","3758.900000002235","<p> For example, the best park for this soccer ball is this one.<div style='float: center;'><img src='images/i1.png' width = '500' height = '268'></img>","","0","instructions","","","","","","","","","","","","","",""
"learning-instructions","20","149530","0.0-8.0-0.0-0.12","1416","1","2","""event"",""trial"",""time""
""fullscreenenter"",""1"",""3589""
","
","
","""event"",""trial"",""time""
""fullscreenenter"",""1"",""3589""
","
","","","","","","1413.1000000014901","<p> Let's see what happens if you choose this park for the soccer ball five times.","","0","instructions","","","","","","","","","","","","","",""
"learning-instructions","21","152842","0.0-8.0-0.0-0.13","1416","1","2","""event"",""trial"",""time""
""fullscreenenter"",""1"",""3589""
","
","
","""event"",""trial"",""time""
""fullscreenenter"",""1"",""3589""
","
","","","","","","1139.699999999255","<p> The kids are happy.<div style='float: left;'><img src='images/i2.png' width = '640' height = '360'></img>","","0","instructions","","","","","","","","","","","","","",""
"learning-instructions","22","155364","0.0-8.0-0.0-0.14","1416","1","2","""event"",""trial"",""time""
""fullscreenenter"",""1"",""3589""
","
","
","""event"",""trial"",""time""
""fullscreenenter"",""1"",""3589""
","
","","","","","","351.9000000022352","<p> The kids are happy.<div style='float: left;'><img src='images/i3.png' width = '640' height = '360'></img>","","0","instructions","","","","","","","","","","","","","",""
"learning-instructions","23","157894","0.0-8.0-0.0-0.15","1416","1","2","""event"",""trial"",""time""
""fullscreenenter"",""1"",""3589""
","
","
","""event"",""trial"",""time""
""fullscreenenter"",""1"",""3589""
","
","","","","","","363.5","<p> The kids are happy.<div style='float: left;'><img src='images/i4.png' width = '640' height = '360'></img>","","0","instructions","","","","","","","","","","","","","",""
"learning-instructions","24","160267","0.0-8.0-0.0-0.16","1416","1","2","""event"",""trial"",""time""
""fullscreenenter"",""1"",""3589""
","
","
","""event"",""trial"",""time""
""fullscreenenter"",""1"",""3589""
","
","","","","","","174.69999999925494","<p> The kids are sad.<div style='float: left;'><img src='images/i5.png' width = '640' height = '360'></img>","","0","instructions","","","","","","","","","","","","","",""
"learning-instructions","25","164269","0.0-8.0-0.0-0.17","1416","1","2","""event"",""trial"",""time""
""fullscreenenter"",""1"",""3589""
","
","
","""event"",""trial"",""time""
""fullscreenenter"",""1"",""3589""
","
","","","","","","1829.0999999977648","<p> The kids are happy.<div style='float: left;'><img src='images/i6.png' width = '640' height = '360'></img>","","0","instructions","","","","","","","","","","","","","",""
"learning-instructions","26","175091","0.0-8.0-0.0-0.18","1416","1","2","""event"",""trial"",""time""
""fullscreenenter"",""1"",""3589""
","
","
","""event"",""trial"",""time""
""fullscreenenter"",""1"",""3589""
","
","","","","","","3548.89999999851","<p> As you can see, selecting that park for the soccer ball made the kids happy most of the time, but not all the time.","","0","instructions","","","","","","","","","","","","","",""
"learning-instructions","27","181219","0.0-8.0-0.0-0.19","1416","1","2","""event"",""trial"",""time""
""fullscreenenter"",""1"",""3589""
","
","
","""event"",""trial"",""time""
""fullscreenenter"",""1"",""3589""
","
","","","","","","124.80000000074506","<p> Now let's see what happens if you choose a DIFFERENT park for the soccer ball 5 times.","","0","instructions","","","","","","","","","","","","","",""
"learning-instructions","28","183978","0.0-8.0-0.0-0.20","1416","1","2","""event"",""trial"",""time""
""fullscreenenter"",""1"",""3589""
","
","
","""event"",""trial"",""time""
""fullscreenenter"",""1"",""3589""
","
","","","","","","557.3000000007451","<p> The kids are sad.<div style='float: left;'><img src='images/i7.png' width = '640' height = '360'></img>","","0","instructions","","","","","","","","","","","","","",""
"learning-instructions","29","186301","0.0-8.0-0.0-0.21","1416","1","2","""event"",""trial"",""time""
""fullscreenenter"",""1"",""3589""
","
","
","""event"",""trial"",""time""
""fullscreenenter"",""1"",""3589""
","
","","","","","","116.60000000149012","<p> The kids are sad.<div style='float: left;'><img src='images/i8.png' width = '640' height = '360'></img>","","0","instructions","","","","","","","","","","","","","",""
"learning-instructions","30","188584","0.0-8.0-0.0-0.22","1416","1","2","""event"",""trial"",""time""
""fullscreenenter"",""1"",""3589""
","
","
","""event"",""trial"",""time""
""fullscreenenter"",""1"",""3589""
","
","","","","","","115.5","<p> The kids are happy.<div style='float: left;'><img src='images/i9.png' width = '640' height = '360'></img>","","0","instructions","","","","","","","","","","","","","",""
"learning-instructions","31","190936","0.0-8.0-0.0-0.23","1416","1","2","""event"",""trial"",""time""
""fullscreenenter"",""1"",""3589""
","
","
","""event"",""trial"",""time""
""fullscreenenter"",""1"",""3589""
","
","","","","","","151.69999999925494","<p> The kids are sad.<div style='float: left;'><img src='images/i10.png' width = '640' height = '360'></img>","","0","instructions","","","","","","","","","","","","","",""
"learning-instructions","32","193734","0.0-8.0-0.0-0.24","1416","1","2","""event"",""trial"",""time""
""fullscreenenter"",""1"",""3589""
","
","
","""event"",""trial"",""time""
""fullscreenenter"",""1"",""3589""
","
","","","","","","591.1000000014901","<p> The kids are sad.<div style='float: left;'><img src='images/i11.png' width = '640' height = '360'></img>","","0","instructions","","","","","","","","","","","","","",""
"learning-instructions","33","202691","0.0-8.0-0.0-0.25","1416","1","2","""event"",""trial"",""time""
""fullscreenenter"",""1"",""3589""
","
","
","""event"",""trial"",""time""
""fullscreenenter"",""1"",""3589""
","
","","","","","","829.8000000007451","<p> As you can see, selecting the wrong park for the soccer ball made the kids sad most of the time, but not all the time.","","0","instructions","","","","","","","","","","","","","",""
"learning-instructions","34","212667","0.0-8.0-0.0-0.26","1416","1","2","""event"",""trial"",""time""
""fullscreenenter"",""1"",""3589""
","
","
","""event"",""trial"",""time""
""fullscreenenter"",""1"",""3589""
","
","","","","","","859","<p> The different pieces of equipment belong in different parks. You need to try to learn which is the best park for each piece of equipment.","","0","instructions","","","","","","","","","","","","","",""
"learning-instructions","35","230160","0.0-8.0-0.0-0.27","1416","1","2","""event"",""trial"",""time""
""fullscreenenter"",""1"",""3589""
","
","
","""event"",""trial"",""time""
""fullscreenenter"",""1"",""3589""
","
","","","","","","1095.5","<p> Try to choose the best park for each piece of equipment, because you will <b> WIN </b> 1 point for each time you make the kids happy and <b>LOSE</b> 1 point for each time you make them sad. </p><p> Remember, if you make the best choice, you will win 1 point most of the time, but not all the time. </p>","","0","instructions","","","","","","","","","","","","","",""
"learning-instructions","36","236816","0.0-8.0-0.0-0.28","1416","1","2","""event"",""trial"",""time""
""fullscreenenter"",""1"",""3589""
","
","
","""event"",""trial"",""time""
""fullscreenenter"",""1"",""3589""
","
","","","","","","1177.0999999977648","<p> This is just a practice round, but in the real game, your bonus payment will depend on your total number of points.","","0","instructions","","","","","","","","","","","","","",""
"learning-instructions","37","248173","0.0-8.0-0.0-0.29","1416","1","2","""event"",""trial"",""time""
""fullscreenenter"",""1"",""3589""
","
","
","""event"",""trial"",""time""
""fullscreenenter"",""1"",""3589""
","
","","","","","","1029.699999999255","<p> The position where each park appears will change throughout the game. </p><p> The position where the park appears <i> does not </i> influence how likely the kids are to be happy or sad. </p>","","0","instructions","","","","","","","","","","","","","",""
"learning-instructions","38","259814","0.0-8.0-0.0-0.30","1416","1","2","""event"",""trial"",""time""
""fullscreenenter"",""1"",""3589""
","
","
","""event"",""trial"",""time""
""fullscreenenter"",""1"",""3589""
","
","","","","","","472.79999999701977","<p> You will have 4 seconds to make each choice. Try to respond before time runs out! </p><p> You will lose 1 point each time you do not make a response. </p>","","0","instructions","","","","","","","","","","","","","",""
"learning-instructions","39","268746","0.0-8.0-0.0-0.31","1416","1","2","""event"",""trial"",""time""
""fullscreenenter"",""1"",""3589""
","
","
","""event"",""trial"",""time""
""fullscreenenter"",""1"",""3589""
","
","","","","","","2135.60000000149","<p> Remember, you should use the 1, 2, and 3 keys to select the park for each piece of equipment. </p><br><div class=""choice-instructions-grid""> <div class=""choice-option""><img src=""images/park1.png"" class=""choice-option-img"" stage=""instructions"" position=""0"" ><div class=""choice-option-text""> Press ""1."" </div></div><div class=""choice-option""><img src=""images/park2.png"" class=""choice-option-img"" stage=""instructions"" position=""1"" ><div class=""choice-option-text""> Press ""2."" </div></div><div class=""choice-option""><img src=""images/park3.png"" class=""choice-option-img"" stage=""instructions"" position=""2"" ><div class=""choice-option-text""> Press ""3."" </div></div></div>","","0","instructions","","","","","","","","","","","","","",""
"html-button-response","40","270458","0.0-8.0-1.0","1416","1","2","""event"",""trial"",""time""
""fullscreenenter"",""1"",""3589""
","
","
","""event"",""trial"",""time""
""fullscreenenter"",""1"",""3589""
","
","","","","","","1608.3999999985099","<p> Ready to practice? </p>","0","","","","","","","","","","","","","","","",""
"html-keyboard-response","41","271062","0.0-8.0-2.0-0.0","1416","1","2","""event"",""trial"",""time""
""fullscreenenter"",""1"",""3589""
","
","
","""event"",""trial"",""time""
""fullscreenenter"",""1"",""3589""
","
","","","","","","null","<div style=""font-size:60px;"">+</div>","null","","fixation","","","","","","","","","","","","","",""
"learning-trial","42","275067","0.0-8.0-2.0-1.0","1416","1","2","""event"",""trial"",""time""
""fullscreenenter"",""1"",""3589""
","
","
","""event"",""trial"",""time""
""fullscreenenter"",""1"",""3589""
","
","","","","","","2956.199999999255","images/ball4.png","","","practice","images/park2.png","images/park1.png","images/park3.png","[1,0,2]","0","1","2","images/park1.png","1","practice","","","",""
"html-keyboard-response","43","275569","0.0-8.0-2.0-0.1","1416","1","2","""event"",""trial"",""time""
""fullscreenenter"",""1"",""3589""
","
","
","""event"",""trial"",""time""
""fullscreenenter"",""1"",""3589""
","
","","","","","","null","<div style=""font-size:60px;"">+</div>","null","","fixation","","","","","","","","","","","","","",""
"learning-trial","44","279574","0.0-8.0-2.0-1.1","1416","1","2","""event"",""trial"",""time""
""fullscreenenter"",""1"",""3589""
","
","
","""event"",""trial"",""time""
""fullscreenenter"",""1"",""3589""
","
","","","","","","2109.7999999970198","images/ball2.png","","","practice","images/park1.png","images/park3.png","images/park2.png","[0,2,1]","2","1","1","images/park1.png","-1","practice","","","",""
"html-keyboard-response","45","280075","0.0-8.0-2.0-0.2","1416","1","2","""event"",""trial"",""time""
""fullscreenenter"",""1"",""3589""
","
","
","""event"",""trial"",""time""
""fullscreenenter"",""1"",""3589""
","
","","","","","","null","<div style=""font-size:60px;"">+</div>","null","","fixation","","","","","","","","","","","","","",""
"learning-trial","46","284081","0.0-8.0-2.0-1.2","1416","1","2","""event"",""trial"",""time""
""fullscreenenter"",""1"",""3589""
","
","
","""event"",""trial"",""time""
""fullscreenenter"",""1"",""3589""
","
","","","","","","null","images/racket3.png","","","practice","images/park1.png","images/park2.png","images/park3.png","[0,1,2]","2","2","null","null","-1","practice","","","",""
"html-keyboard-response","47","284582","0.0-8.0-2.0-0.3","1416","1","2","""event"",""trial"",""time""
""fullscreenenter"",""1"",""3589""
","
","
","""event"",""trial"",""time""
""fullscreenenter"",""1"",""3589""
","
","","","","","","null","<div style=""font-size:60px;"">+</div>","null","","fixation","","","","","","","","","","","","","",""
"learning-trial","48","288588","0.0-8.0-2.0-1.3","1416","1","2","""event"",""trial"",""time""
""fullscreenenter"",""1"",""3589""
","
","
","""event"",""trial"",""time""
""fullscreenenter"",""1"",""3589""
","
","","","","","","3252.199999999255","images/ball1.png","","","practice","images/park3.png","images/park2.png","images/park1.png","[2,1,0]","1","1","1","images/park3.png","-1","practice","","","",""
"html-keyboard-response","49","289089","0.0-8.0-2.0-0.4","1416","1","2","""event"",""trial"",""time""
""fullscreenenter"",""1"",""3589""
","
","
","""event"",""trial"",""time""
""fullscreenenter"",""1"",""3589""
","
","","","","","","null","<div style=""font-size:60px;"">+</div>","null","","fixation","","","","","","","","","","","","","",""
"learning-trial","50","293093","0.0-8.0-2.0-1.4","1416","1","2","""event"",""trial"",""time""
""fullscreenenter"",""1"",""3589""
","
","
","""event"",""trial"",""time""
""fullscreenenter"",""1"",""3589""
","
","","","","","","2142.5","images/ball3.png","","","practice","images/park2.png","images/park3.png","images/park1.png","[1,2,0]","1","0","1","images/park2.png","1","practice","","","",""
"html-keyboard-response","51","293595","0.0-8.0-2.0-0.5","1416","1","2","""event"",""trial"",""time""
""fullscreenenter"",""1"",""3589""
","
","
","""event"",""trial"",""time""
""fullscreenenter"",""1"",""3589""
","
","","","","","","null","<div style=""font-size:60px;"">+</div>","null","","fixation","","","","","","","","","","","","","",""
"learning-trial","52","297600","0.0-8.0-2.0-1.5","1416","1","2","""event"",""trial"",""time""
""fullscreenenter"",""1"",""3589""
","
","
","""event"",""trial"",""time""
""fullscreenenter"",""1"",""3589""
","
","","","","","","1276.5","images/ball1.png","","","practice","images/park2.png","images/park1.png","images/park3.png","[1,0,2]","1","0","1","images/park2.png","1","practice","","","",""
"html-keyboard-response","53","298102","0.0-8.0-2.0-0.6","1416","1","2","""event"",""trial"",""time""
""fullscreenenter"",""1"",""3589""
","
","
","""event"",""trial"",""time""
""fullscreenenter"",""1"",""3589""
","
","","","","","","null","<div style=""font-size:60px;"">+</div>","null","","fixation","","","","","","","","","","","","","",""
"learning-trial","54","302107","0.0-8.0-2.0-1.6","1416","1","2","""event"",""trial"",""time""
""fullscreenenter"",""1"",""3589""
","
","
","""event"",""trial"",""time""
""fullscreenenter"",""1"",""3589""
","
","","","","","","3818.599999997765","images/racket1.png","","","practice","images/park3.png","images/park2.png","images/park1.png","[2,1,0]","0","2","1","images/park3.png","-1","practice","","","",""
"html-keyboard-response","55","302609","0.0-8.0-2.0-0.7","1416","1","2","""event"",""trial"",""time""
""fullscreenenter"",""1"",""3589""
","
","
","""event"",""trial"",""time""
""fullscreenenter"",""1"",""3589""
","
","","","","","","null","<div style=""font-size:60px;"">+</div>","null","","fixation","","","","","","","","","","","","","",""
"learning-trial","56","306613","0.0-8.0-2.0-1.7","1416","1","2","""event"",""trial"",""time""
""fullscreenenter"",""1"",""3589""
","
","
","""event"",""trial"",""time""
""fullscreenenter"",""1"",""3589""
","
","","","","","","2949.10000000149","images/racket1.png","","","practice","images/park2.png","images/park3.png","images/park1.png","[1,2,0]","0","2","2","images/park3.png","-1","practice","","","",""
"html-keyboard-response","57","307115","0.0-8.0-2.0-0.8","1416","1","2","""event"",""trial"",""time""
""fullscreenenter"",""1"",""3589""
","
","
","""event"",""trial"",""time""
""fullscreenenter"",""1"",""3589""
","
","","","","","","null","<div style=""font-size:60px;"">+</div>","null","","fixation","","","","","","","","","","","","","",""
"learning-trial","58","311121","0.0-8.0-2.0-1.8","1416","1","2","""event"",""trial"",""time""
""fullscreenenter"",""1"",""3589""
","
","
","""event"",""trial"",""time""
""fullscreenenter"",""1"",""3589""
","
","","","","","","1489.0999999977648","images/ball3.png","","","practice","images/park1.png","images/park3.png","images/park2.png","[0,2,1]","1","2","3","images/park2.png","1","practice","","","",""
"html-keyboard-response","59","311622","0.0-8.0-2.0-0.9","1416","1","2","""event"",""trial"",""time""
""fullscreenenter"",""1"",""3589""
","
","
","""event"",""trial"",""time""
""fullscreenenter"",""1"",""3589""
","
","","","","","","null","<div style=""font-size:60px;"">+</div>","null","","fixation","","","","","","","","","","","","","",""
"learning-trial","60","315628","0.0-8.0-2.0-1.9","1416","1","2","""event"",""trial"",""time""
""fullscreenenter"",""1"",""3589""
","
","
","""event"",""trial"",""time""
""fullscreenenter"",""1"",""3589""
","
","","","","","","1861.800000000745","images/ball4.png","","","practice","images/park3.png","images/park1.png","images/park2.png","[2,0,1]","0","1","2","images/park1.png","1","practice","","","",""
"html-keyboard-response","61","316130","0.0-8.0-2.0-0.10","1416","1","2","""event"",""trial"",""time""
""fullscreenenter"",""1"",""3589""
","
","
","""event"",""trial"",""time""
""fullscreenenter"",""1"",""3589""
","
","","","","","","null","<div style=""font-size:60px;"">+</div>","null","","fixation","","","","","","","","","","","","","",""
"learning-trial","62","320135","0.0-8.0-2.0-1.10","1416","1","2","""event"",""trial"",""time""
""fullscreenenter"",""1"",""3589""
","
","
","""event"",""trial"",""time""
""fullscreenenter"",""1"",""3589""
","
","","","","","","2649.7000000029802","images/racket3.png","","","practice","images/park1.png","images/park2.png","images/park3.png","[0,1,2]","2","2","2","images/park2.png","-1","practice","","","",""
"html-keyboard-response","63","320637","0.0-8.0-2.0-0.11","1416","1","2","""event"",""trial"",""time""
""fullscreenenter"",""1"",""3589""
","
","
","""event"",""trial"",""time""
""fullscreenenter"",""1"",""3589""
","
","","","","","","null","<div style=""font-size:60px;"">+</div>","null","","fixation","","","","","","","","","","","","","",""
"learning-trial","64","324642","0.0-8.0-2.0-1.11","1416","1","2","""event"",""trial"",""time""
""fullscreenenter"",""1"",""3589""
","
","
","""event"",""trial"",""time""
""fullscreenenter"",""1"",""3589""
","
","","","","","","1698","images/ball2.png","","","practice","images/park3.png","images/park2.png","images/park1.png","[2,1,0]","2","0","3","images/park1.png","1","practice","","","",""
"html-button-response","65","328283","0.0-8.0-3.0","1416","1","2","""event"",""trial"",""time""
""fullscreenenter"",""1"",""3589""
","
","
","""event"",""trial"",""time""
""fullscreenenter"",""1"",""3589""
","
","","","","","","3636.7000000029802","<p> You earned 0 points in the practice round! </p>","0","","break","","","","","","","","","","","","","",""
"learning-instructions","66","336642","0.0-8.0-4.0-0.0","1416","1","2","""event"",""trial"",""time""
""fullscreenenter"",""1"",""3589""
","
","
","""event"",""trial"",""time""
""fullscreenenter"",""1"",""3589""
","
","","","","","","697.9000000022352","<p> It's almost time to start the real game. </p><p> Before you start, we're going to ask you a few questions about how the game works. </p>","","0","instructions","","","","","","","","","","","","","",""
"preload","67","338915","0.0-8.0-5.0","1416","1","2","""event"",""trial"",""time""
""fullscreenenter"",""1"",""3589""
","
","
","""event"",""trial"",""time""
""fullscreenenter"",""1"",""3589""
","
","true","false","[]","[]","[]","","","","","","","","","","","","","","","","","","",""
"comp-q","68","345872","0.0-8.0-6.0-0.0","1416","1","2","""event"",""trial"",""time""
""fullscreenenter"",""1"",""3589""
","
","
","""event"",""trial"",""time""
""fullscreenenter"",""1"",""3589""
","
","","","","","","1505.6000000014901","<p> <b> True or False? </b> </p><p> If you choose the best option, you will always earn 1 point. </p>","","1","comp_question","","","","","","","","","","","true","","",""
"comp-q","69","353212","0.0-8.0-6.0-1.0","1416","1","2","""event"",""trial"",""time""
""fullscreenenter"",""1"",""3589""
","
","
","""event"",""trial"",""time""
""fullscreenenter"",""1"",""3589""
","
","","","","","","1674.8999999985099","<p><b> That's right! </b> Sometimes you will lose 1 point, even if you choose the best option. </p>","","0","comp_answer","","","","","","","","","","","","","",""
"comp-q","70","359234","0.0-8.0-6.0-0.1","1416","1","2","""event"",""trial"",""time""
""fullscreenenter"",""1"",""3589""
","
","
","""event"",""trial"",""time""
""fullscreenenter"",""1"",""3589""
","
","","","","","","1390","<p> <b> True or False? </b> </p><p> You will have as much time as you want to make each choice. </p>","","1","comp_question","","","","","","","","","","","true","","",""
"comp-q","71","367062","0.0-8.0-6.0-1.1","1416","1","2","""event"",""trial"",""time""
""fullscreenenter"",""1"",""3589""
","
","
","""event"",""trial"",""time""
""fullscreenenter"",""1"",""3589""
","
","","","","","","3005.800000000745","<p> <b> That's right! </b> You will only have 4 seconds to make each choice. </p>","","0","comp_answer","","","","","","","","","","","","","",""
"comp-q","72","374343","0.0-8.0-6.0-0.2","1416","1","2","""event"",""trial"",""time""
""fullscreenenter"",""1"",""3589""
","
","
","""event"",""trial"",""time""
""fullscreenenter"",""1"",""3589""
","
","","","","","","1130.199999999255","<p> <b> True or False? </b> </p><p> You should use the '1', '2', and '3' keys to make your choices. </p>","","0","comp_question","","","","","","","","","","","true","","",""
"comp-q","73","380968","0.0-8.0-6.0-1.2","1416","1","2","""event"",""trial"",""time""
""fullscreenenter"",""1"",""3589""
","
","
","""event"",""trial"",""time""
""fullscreenenter"",""1"",""3589""
","
","","","","","","1779.1000000014901","<p> <b> That's right! </b> You should use the '1', '2', and '3' keys to make each choice. </p>","","0","comp_answer","","","","","","","","","","","","","",""
"learning-instructions","74","391418","0.0-8.0-7.0-0.0","1416","1","2","""event"",""trial"",""time""
""fullscreenenter"",""1"",""3589""
","
","
","""event"",""trial"",""time""
""fullscreenenter"",""1"",""3589""
","
","","","","","","1964.300000000745","<p> It's now time to start the real game. </p>Do your best, because the points you earn in the next rounds will influence your bonus payment. </p>","","0","instructions","","","","","","","","","","","","","",""
"preload","75","395320","0.0-9.0-0.0","1416","1","2","""event"",""trial"",""time""
""fullscreenenter"",""1"",""3589""
","
","
","""event"",""trial"",""time""
""fullscreenenter"",""1"",""3589""
","
","true","false","[]","[]","[]","","","","","","","","","","","","","","","","","","",""
"learning-instructions","76","404077","0.0-9.0-1.0-0.0","1416","1","2","""event"",""trial"",""time""
""fullscreenenter"",""1"",""3589""
","
","
","""event"",""trial"",""time""
""fullscreenenter"",""1"",""3589""
","
","","","","","","1101.300000000745","<p> Your goal in this round is to return farm animals to the barns where they live. </p><p>  Different animals wandered away from different barns! </p></div>","","0","instructions","","","","","","","","","","","","","",""
"learning-instructions","77","413113","0.0-9.0-1.0-0.1","1416","1","2","""event"",""trial"",""time""
""fullscreenenter"",""1"",""3589""
","
","
","""event"",""trial"",""time""
""fullscreenenter"",""1"",""3589""
","
","","","","","","415.30000000074506","<p> On each turn, you will see a picture of a farm animal and three different barns.  </p><p> You need to select the barn where each animal lives.  </p>","","0","instructions","","","","","","","","","","","","","",""
"learning-instructions","78","422170","0.0-9.0-1.0-0.2","1416","1","2","""event"",""trial"",""time""
""fullscreenenter"",""1"",""3589""
","
","
","""event"",""trial"",""time""
""fullscreenenter"",""1"",""3589""
","
","","","","","","1873","<p> You can select the barn on the left by pressing 1, the barn in the middle by pressing 2, and the barn on the right by pressing 3. </p><br><div class=""choice-instructions-grid""> <div class=""choice-option""><img src=""images/animals_choice1.png"" class=""choice-option-img"" stage=""instructions"" position=""0"" ><div class=""choice-option-text""> Press ""1."" </div></div><div class=""choice-option""><img src=""images/animals_choice2.png"" class=""choice-option-img"" stage=""instructions"" position=""1"" ><div class=""choice-option-text""> Press ""2."" </div></div><div class=""choice-option""><img src=""images/animals_choice3.png"" class=""choice-option-img"" stage=""instructions"" position=""2"" ><div class=""choice-option-text""> Press ""3."" </div></div></div>","","0","instructions","","","","","","","","","","","","","",""
"learning-instructions","79","428098","0.0-9.0-1.0-0.3","1416","1","2","""event"",""trial"",""time""
""fullscreenenter"",""1"",""3589""
","
","
","""event"",""trial"",""time""
""fullscreenenter"",""1"",""3589""
","
","","","","","","789.7999999970198","<p> If you return the farm animal to the correct barn, it will usually be happy! </p><div style='float: center;'><img src='images/check.png' width = '200' height = '200'></img>","","0","instructions","","","","","","","","","","","","","",""
"learning-instructions","80","434601","0.0-9.0-1.0-0.4","1416","1","2","""event"",""trial"",""time""
""fullscreenenter"",""1"",""3589""
","
","
","""event"",""trial"",""time""
""fullscreenenter"",""1"",""3589""
","
","","","","","","1210","<p> But, if you return the farm animal to the wrong barn, it will usually be sad. </p><div style='float: center;'><img src='images/x.png' width = '200' height = '200'></img>","","0","instructions","","","","","","","","","","","","","",""
"learning-instructions","81","446574","0.0-9.0-1.0-0.5","1416","1","2","""event"",""trial"",""time""
""fullscreenenter"",""1"",""3589""
","
","
","""event"",""trial"",""time""
""fullscreenenter"",""1"",""3589""
","
","","","","","","1411.699999999255","<p> Importantly, each farm animal belongs in one of the barns. </p><p> If you choose the correct barn, the farm animal will return home safely and will be more likely to be happy! </p>","","0","instructions","","","","","","","","","","","","","",""
"learning-instructions","82","459366","0.0-9.0-1.0-0.6","1416","1","2","""event"",""trial"",""time""
""fullscreenenter"",""1"",""3589""
","
","
","""event"",""trial"",""time""
""fullscreenenter"",""1"",""3589""
","
","","","","","","2262.300000000745","<p> However, even if you choose the correct barn for the farm animal, it might still feel sad. </p><p> Similarly, even if you choose the <i>wrong</i> barn, it might still feel happy.","","0","instructions","","","","","","","","","","","","","",""
"learning-instructions","83","474474","0.0-9.0-1.0-0.7","1416","1","2","""event"",""trial"",""time""
""fullscreenenter"",""1"",""3589""
","
","
","""event"",""trial"",""time""
""fullscreenenter"",""1"",""3589""
","
","","","","","","1403.800000000745","<p> Try to choose the correct barn for each farm animal, because you will <b> WIN </b> 1 point for each farm animal you make happy and <b>LOSE</b> 1 point for each farm animal you make sad. </p><p> Your bonus payment will depend on your total number of points.","","0","instructions","","","","","","","","","","","","","",""
"learning-instructions","84","483421","0.0-9.0-1.0-0.8","1416","1","2","""event"",""trial"",""time""
""fullscreenenter"",""1"",""3589""
","
","
","""event"",""trial"",""time""
""fullscreenenter"",""1"",""3589""
","
","","","","","","832.3000000007451","<p> The position of each barn will change throughout the round. </p><p> The barn's position <i> does not </i> influence how likely it is to be the correct one. </p>","","0","instructions","","","","","","","","","","","","","",""
"learning-instructions","85","494123","0.0-9.0-1.0-0.9","1416","1","2","""event"",""trial"",""time""
""fullscreenenter"",""1"",""3589""
","
","
","""event"",""trial"",""time""
""fullscreenenter"",""1"",""3589""
","
","","","","","","1405.800000000745","<p> You will have 4 seconds to make each choice. Try to respond before time runs out! </p><p> You will lose 1 point each time you do not make a response. </p>","","0","instructions","","","","","","","","","","","","","",""
"html-keyboard-response","86","494725","0.0-9.0-2.0-0.0","1416","1","2","""event"",""trial"",""time""
""fullscreenenter"",""1"",""3589""
","
","
","""event"",""trial"",""time""
""fullscreenenter"",""1"",""3589""
","
","","","","","","null","<div style=""font-size:60px;"">+</div>","null","","fixation","","","","","","","","","","","","","",""
"learning-trial","87","498732","0.0-9.0-2.0-1.0","1416","1","2","""event"",""trial"",""time""
""fullscreenenter"",""1"",""3589""
","
","
","""event"",""trial"",""time""
""fullscreenenter"",""1"",""3589""
","
","","","","","","1488.800000000745","images/cow5.png","","","learning","images/animals_choice2.png","images/animals_choice3.png","images/animals_choice1.png","[1,2,0]","1","0","2","images/animals_choice3.png","-1","animals","","cow","1","0"
"html-keyboard-response","88","499235","0.0-9.0-2.0-0.1","1416","1","2","""event"",""trial"",""time""
""fullscreenenter"",""1"",""3589""
","
","
","""event"",""trial"",""time""
""fullscreenenter"",""1"",""3589""
","
","","","","","","null","<div style=""font-size:60px;"">+</div>","null","","fixation","","","","","","","","","","","","","",""
"learning-trial","89","503241","0.0-9.0-2.0-1.1","1416","1","2","""event"",""trial"",""time""
""fullscreenenter"",""1"",""3589""
","
","
","""event"",""trial"",""time""
""fullscreenenter"",""1"",""3589""
","
","","","","","","1749.199999999255","images/goat5.png","","","learning","images/animals_choice3.png","images/animals_choice1.png","images/animals_choice2.png","[2,0,1]","2","0","2","images/animals_choice1.png","1","animals","","goat","1","0"
"html-keyboard-response","90","503743","0.0-9.0-2.0-0.2","1416","1","2","""event"",""trial"",""time""
""fullscreenenter"",""1"",""3589""
","
","
","""event"",""trial"",""time""
""fullscreenenter"",""1"",""3589""
","
","","","","","","null","<div style=""font-size:60px;"">+</div>","null","","fixation","","","","","","","","","","","","","",""
"learning-trial","91","507750","0.0-9.0-2.0-1.2","1416","1","2","""event"",""trial"",""time""
""fullscreenenter"",""1"",""3589""
","
","
","""event"",""trial"",""time""
""fullscreenenter"",""1"",""3589""
","
","","","","","","2434.900000002235","images/goat2.png","","","learning","images/animals_choice3.png","images/animals_choice1.png","images/animals_choice2.png","[2,0,1]","2","0","2","images/animals_choice1.png","-1","animals","","goat","1","0"
"html-keyboard-response","92","508252","0.0-9.0-2.0-0.3","1416","1","2","""event"",""trial"",""time""
""fullscreenenter"",""1"",""3589""
","
","
","""event"",""trial"",""time""
""fullscreenenter"",""1"",""3589""
","
","","","","","","null","<div style=""font-size:60px;"">+</div>","null","","fixation","","","","","","","","","","","","","",""
"learning-trial","93","512257","0.0-9.0-2.0-1.3","1416","1","2","""event"",""trial"",""time""
""fullscreenenter"",""1"",""3589""
","
","
","""event"",""trial"",""time""
""fullscreenenter"",""1"",""3589""
","
","","","","","","1622.300000000745","images/cow1.png","","","learning","images/animals_choice3.png","images/animals_choice2.png","images/animals_choice1.png","[2,1,0]","1","1","1","images/animals_choice3.png","-1","animals","","cow","1","0"
"html-keyboard-response","94","512758","0.0-9.0-2.0-0.4","1416","1","2","""event"",""trial"",""time""
""fullscreenenter"",""1"",""3589""
","
","
","""event"",""trial"",""time""
""fullscreenenter"",""1"",""3589""
","
","","","","","","null","<div style=""font-size:60px;"">+</div>","null","","fixation","","","","","","","","","","","","","",""
"learning-trial","95","516765","0.0-9.0-2.0-1.4","1416","1","2","""event"",""trial"",""time""
""fullscreenenter"",""1"",""3589""
","
","
","""event"",""trial"",""time""
""fullscreenenter"",""1"",""3589""
","
","","","","","","1222.699999999255","images/cow1.png","","","learning","images/animals_choice2.png","images/animals_choice1.png","images/animals_choice3.png","[1,0,2]","1","0","1","images/animals_choice2.png","1","animals","","cow","1","0"
"html-keyboard-response","96","517267","0.0-9.0-2.0-0.5","1416","1","2","""event"",""trial"",""time""
""fullscreenenter"",""1"",""3589""
","
","
","""event"",""trial"",""time""
""fullscreenenter"",""1"",""3589""
","
","","","","","","null","<div style=""font-size:60px;"">+</div>","null","","fixation","","","","","","","","","","","","","",""
"learning-trial","97","521273","0.0-9.0-2.0-1.5","1416","1","2","""event"",""trial"",""time""
""fullscreenenter"",""1"",""3589""
","
","
","""event"",""trial"",""time""
""fullscreenenter"",""1"",""3589""
","
","","","","","","2321.300000000745","images/horse1.png","","","learning","images/animals_choice1.png","images/animals_choice2.png","images/animals_choice3.png","[0,1,2]","0","0","1","images/animals_choice1.png","1","animals","","horse","1","0"
"html-keyboard-response","98","521775","0.0-9.0-2.0-0.6","1416","1","2","""event"",""trial"",""time""
""fullscreenenter"",""1"",""3589""
","
","
","""event"",""trial"",""time""
""fullscreenenter"",""1"",""3589""
","
","","","","","","null","<div style=""font-size:60px;"">+</div>","null","","fixation","","","","","","","","","","","","","",""
"learning-trial","99","525780","0.0-9.0-2.0-1.6","1416","1","2","""event"",""trial"",""time""
""fullscreenenter"",""1"",""3589""
","
","
","""event"",""trial"",""time""
""fullscreenenter"",""1"",""3589""
","
","","","","","","3151.39999999851","images/horse1.png","","","learning","images/animals_choice2.png","images/animals_choice1.png","images/animals_choice3.png","[1,0,2]","0","1","2","images/animals_choice1.png","1","animals","","horse","1","0"
"html-keyboard-response","100","526282","0.0-9.0-2.0-0.7","1416","1","2","""event"",""trial"",""time""
""fullscreenenter"",""1"",""3589""
","
","
","""event"",""trial"",""time""
""fullscreenenter"",""1"",""3589""
","
","","","","","","null","<div style=""font-size:60px;"">+</div>","null","","fixation","","","","","","","","","","","","","",""
"learning-trial","101","530287","0.0-9.0-2.0-1.7","1416","1","2","""event"",""trial"",""time""
""fullscreenenter"",""1"",""3589""
","
","
","""event"",""trial"",""time""
""fullscreenenter"",""1"",""3589""
","
","","","","","","2243.60000000149","images/cow3.png","","","learning","images/animals_choice1.png","images/animals_choice2.png","images/animals_choice3.png","[0,1,2]","1","1","2","images/animals_choice2.png","1","animals","","cow","1","0"
"html-keyboard-response","102","530788","0.0-9.0-2.0-0.8","1416","1","2","""event"",""trial"",""time""
""fullscreenenter"",""1"",""3589""
","
","
","""event"",""trial"",""time""
""fullscreenenter"",""1"",""3589""
","
","","","","","","null","<div style=""font-size:60px;"">+</div>","null","","fixation","","","","","","","","","","","","","",""
"learning-trial","103","534793","0.0-9.0-2.0-1.8","1416","1","2","""event"",""trial"",""time""
""fullscreenenter"",""1"",""3589""
","
","
","""event"",""trial"",""time""
""fullscreenenter"",""1"",""3589""
","
","","","","","","1745.5","images/horse1.png","","","learning","images/animals_choice3.png","images/animals_choice2.png","images/animals_choice1.png","[2,1,0]","0","2","3","images/animals_choice1.png","1","animals","","horse","1","0"
"html-keyboard-response","104","535295","0.0-9.0-2.0-0.9","1416","1","2","""event"",""trial"",""time""
""fullscreenenter"",""1"",""3589""
","
","
","""event"",""trial"",""time""
""fullscreenenter"",""1"",""3589""
","
","","","","","","null","<div style=""font-size:60px;"">+</div>","null","","fixation","","","","","","","","","","","","","",""
"learning-trial","105","539300","0.0-9.0-2.0-1.9","1416","1","2","""event"",""trial"",""time""
""fullscreenenter"",""1"",""3589""
","
","
","""event"",""trial"",""time""
""fullscreenenter"",""1"",""3589""
","
","","","","","","null","images/horse3.png","","","learning","images/animals_choice1.png","images/animals_choice2.png","images/animals_choice3.png","[0,1,2]","0","0","null","null","-1","animals","","horse","1","0"
"html-keyboard-response","106","539801","0.0-9.0-2.0-0.10","1416","1","2","""event"",""trial"",""time""
""fullscreenenter"",""1"",""3589""
","
","
","""event"",""trial"",""time""
""fullscreenenter"",""1"",""3589""
","
","","","","","","null","<div style=""font-size:60px;"">+</div>","null","","fixation","","","","","","","","","","","","","",""
"learning-trial","107","543806","0.0-9.0-2.0-1.10","1416","1","2","""event"",""trial"",""time""
""fullscreenenter"",""1"",""3589""
","
","
","""event"",""trial"",""time""
""fullscreenenter"",""1"",""3589""
","
","","","","","","2355.5","images/horse1.png","","","learning","images/animals_choice1.png","images/animals_choice3.png","images/animals_choice2.png","[0,2,1]","0","0","1","images/animals_choice1.png","1","animals","","horse","1","0"
"html-keyboard-response","108","544307","0.0-9.0-2.0-0.11","1416","1","2","""event"",""trial"",""time""
""fullscreenenter"",""1"",""3589""
","
","
","""event"",""trial"",""time""
""fullscreenenter"",""1"",""3589""
","
","","","","","","null","<div style=""font-size:60px;"">+</div>","null","","fixation","","","","","","","","","","","","","",""
"learning-trial","109","548315","0.0-9.0-2.0-1.11","1416","1","2","""event"",""trial"",""time""
""fullscreenenter"",""1"",""3589""
","
","
","""event"",""trial"",""time""
""fullscreenenter"",""1"",""3589""
","
","","","","","","1904.6000000014901","images/cow5.png","","","learning","images/animals_choice1.png","images/animals_choice2.png","images/animals_choice3.png","[0,1,2]","1","1","2","images/animals_choice2.png","1","animals","","cow","1","0"
"html-keyboard-response","110","548816","0.0-9.0-2.0-0.12","1416","1","2","""event"",""trial"",""time""
""fullscreenenter"",""1"",""3589""
","
","
","""event"",""trial"",""time""
""fullscreenenter"",""1"",""3589""
","
","","","","","","null","<div style=""font-size:60px;"">+</div>","null","","fixation","","","","","","","","","","","","","",""
"learning-trial","111","552822","0.0-9.0-2.0-1.12","1416","1","2","""event"",""trial"",""time""
""fullscreenenter"",""1"",""3589""
","
","
","""event"",""trial"",""time""
""fullscreenenter"",""1"",""3589""
","
","","","","","","1359.5999999977648","images/cow5.png","","","learning","images/animals_choice1.png","images/animals_choice3.png","images/animals_choice2.png","[0,2,1]","1","2","3","images/animals_choice2.png","1","animals","","cow","1","0"
"html-keyboard-response","112","553324","0.0-9.0-2.0-0.13","1416","1","2","""event"",""trial"",""time""
""fullscreenenter"",""1"",""3589""
","
","
","""event"",""trial"",""time""
""fullscreenenter"",""1"",""3589""
","
","","","","","","null","<div style=""font-size:60px;"">+</div>","null","","fixation","","","","","","","","","","","","","",""
"learning-trial","113","557329","0.0-9.0-2.0-1.13","1416","1","2","""event"",""trial"",""time""
""fullscreenenter"",""1"",""3589""
","
","
","""event"",""trial"",""time""
""fullscreenenter"",""1"",""3589""
","
","","","","","","1970.7999999970198","images/horse4.png","","","learning","images/animals_choice3.png","images/animals_choice1.png","images/animals_choice2.png","[2,0,1]","0","1","1","images/animals_choice3.png","-1","animals","","horse","1","0"
"html-keyboard-response","114","557831","0.0-9.0-2.0-0.14","1416","1","2","""event"",""trial"",""time""
""fullscreenenter"",""1"",""3589""
","
","
","""event"",""trial"",""time""
""fullscreenenter"",""1"",""3589""
","
","","","","","","null","<div style=""font-size:60px;"">+</div>","null","","fixation","","","","","","","","","","","","","",""
"learning-trial","115","561836","0.0-9.0-2.0-1.14","1416","1","2","""event"",""trial"",""time""
""fullscreenenter"",""1"",""3589""
","
","
","""event"",""trial"",""time""
""fullscreenenter"",""1"",""3589""
","
","","","","","","1500.300000000745","images/goat1.png","","","learning","images/animals_choice1.png","images/animals_choice2.png","images/animals_choice3.png","[0,1,2]","2","2","1","images/animals_choice1.png","-1","animals","","goat","1","0"
"html-keyboard-response","116","562339","0.0-9.0-2.0-0.15","1416","1","2","""event"",""trial"",""time""
""fullscreenenter"",""1"",""3589""
","
","
","""event"",""trial"",""time""
""fullscreenenter"",""1"",""3589""
","
","","","","","","null","<div style=""font-size:60px;"">+</div>","null","","fixation","","","","","","","","","","","","","",""
"learning-trial","117","566345","0.0-9.0-2.0-1.15","1416","1","2","""event"",""trial"",""time""
""fullscreenenter"",""1"",""3589""
","
","
","""event"",""trial"",""time""
""fullscreenenter"",""1"",""3589""
","
","","","","","","3193.5","images/goat5.png","","","learning","images/animals_choice1.png","images/animals_choice2.png","images/animals_choice3.png","[0,1,2]","2","2","1","images/animals_choice1.png","1","animals","","goat","1","0"
"html-keyboard-response","118","566846","0.0-9.0-2.0-0.16","1416","1","2","""event"",""trial"",""time""
""fullscreenenter"",""1"",""3589""
","
","
","""event"",""trial"",""time""
""fullscreenenter"",""1"",""3589""
","
","","","","","","null","<div style=""font-size:60px;"">+</div>","null","","fixation","","","","","","","","","","","","","",""
"learning-trial","119","570852","0.0-9.0-2.0-1.16","1416","1","2","""event"",""trial"",""time""
""fullscreenenter"",""1"",""3589""
","
","
","""event"",""trial"",""time""
""fullscreenenter"",""1"",""3589""
","
","","","","","","1699.699999999255","images/horse4.png","","","learning","images/animals_choice2.png","images/animals_choice1.png","images/animals_choice3.png","[1,0,2]","0","1","3","images/animals_choice3.png","-1","animals","","horse","1","0"
"html-keyboard-response","120","571353","0.0-9.0-2.0-0.17","1416","1","2","""event"",""trial"",""time""
""fullscreenenter"",""1"",""3589""
","
","
","""event"",""trial"",""time""
""fullscreenenter"",""1"",""3589""
","
","","","","","","null","<div style=""font-size:60px;"">+</div>","null","","fixation","","","","","","","","","","","","","",""
"learning-trial","121","575359","0.0-9.0-2.0-1.17","1416","1","2","""event"",""trial"",""time""
""fullscreenenter"",""1"",""3589""
","
","
","""event"",""trial"",""time""
""fullscreenenter"",""1"",""3589""
","
","","","","","","2198.89999999851","images/goat2.png","","","learning","images/animals_choice2.png","images/animals_choice3.png","images/animals_choice1.png","[1,2,0]","2","1","2","images/animals_choice3.png","1","animals","","goat","1","0"
"html-keyboard-response","122","575861","0.0-9.0-2.0-0.18","1416","1","2","""event"",""trial"",""time""
""fullscreenenter"",""1"",""3589""
","
","
","""event"",""trial"",""time""
""fullscreenenter"",""1"",""3589""
","
","","","","","","null","<div style=""font-size:60px;"">+</div>","null","","fixation","","","","","","","","","","","","","",""
"learning-trial","123","579867","0.0-9.0-2.0-1.18","1416","1","2","""event"",""trial"",""time""
""fullscreenenter"",""1"",""3589""
","
","
","""event"",""trial"",""time""
""fullscreenenter"",""1"",""3589""
","
","","","","","","1947.6000000014901","images/goat5.png","","","learning","images/animals_choice3.png","images/animals_choice2.png","images/animals_choice1.png","[2,1,0]","2","0","3","images/animals_choice1.png","-1","animals","","goat","1","0"
"html-keyboard-response","124","580369","0.0-9.0-2.0-0.19","1416","1","2","""event"",""trial"",""time""
""fullscreenenter"",""1"",""3589""
","
","
","""event"",""trial"",""time""
""fullscreenenter"",""1"",""3589""
","
","","","","","","null","<div style=""font-size:60px;"">+</div>","null","","fixation","","","","","","","","","","","","","",""
"learning-trial","125","584375","0.0-9.0-2.0-1.19","1416","1","2","""event"",""trial"",""time""
""fullscreenenter"",""1"",""3589""
","
","
","""event"",""trial"",""time""
""fullscreenenter"",""1"",""3589""
","
","","","","","","2169.599999997765","images/goat2.png","","","learning","images/animals_choice3.png","images/animals_choice2.png","images/animals_choice1.png","[2,1,0]","2","0","1","images/animals_choice3.png","1","animals","","goat","1","0"
"html-keyboard-response","126","584877","0.0-9.0-2.0-0.20","1416","1","2","""event"",""trial"",""time""
""fullscreenenter"",""1"",""3589""
","
","
","""event"",""trial"",""time""
""fullscreenenter"",""1"",""3589""
","
","","","","","","null","<div style=""font-size:60px;"">+</div>","null","","fixation","","","","","","","","","","","","","",""
"learning-trial","127","588882","0.0-9.0-2.0-1.20","1416","1","2","""event"",""trial"",""time""
""fullscreenenter"",""1"",""3589""
","
","
","""event"",""trial"",""time""
""fullscreenenter"",""1"",""3589""
","
","","","","","","1840.6000000014901","images/cow3.png","","","learning","images/animals_choice1.png","images/animals_choice2.png","images/animals_choice3.png","[0,1,2]","1","1","2","images/animals_choice2.png","1","animals","","cow","1","0"
"html-keyboard-response","128","589384","0.0-9.0-2.0-0.21","1416","1","2","""event"",""trial"",""time""
""fullscreenenter"",""1"",""3589""
","
","
","""event"",""trial"",""time""
""fullscreenenter"",""1"",""3589""
","
","","","","","","null","<div style=""font-size:60px;"">+</div>","null","","fixation","","","","","","","","","","","","","",""
"learning-trial","129","593390","0.0-9.0-2.0-1.21","1416","1","2","""event"",""trial"",""time""
""fullscreenenter"",""1"",""3589""
","
","
","""event"",""trial"",""time""
""fullscreenenter"",""1"",""3589""
","
","","","","","","1920.699999999255","images/horse3.png","","","learning","images/animals_choice1.png","images/animals_choice3.png","images/animals_choice2.png","[0,2,1]","0","0","2","images/animals_choice3.png","-1","animals","","horse","1","0"
"html-keyboard-response","130","593892","0.0-9.0-2.0-0.22","1416","1","2","""event"",""trial"",""time""
""fullscreenenter"",""1"",""3589""
","
","
","""event"",""trial"",""time""
""fullscreenenter"",""1"",""3589""
","
","","","","","","null","<div style=""font-size:60px;"">+</div>","null","","fixation","","","","","","","","","","","","","",""
"learning-trial","131","597899","0.0-9.0-2.0-1.22","1416","1","2","""event"",""trial"",""time""
""fullscreenenter"",""1"",""3589""
","
","
","""event"",""trial"",""time""
""fullscreenenter"",""1"",""3589""
","
","","","","","","1509.5","images/horse1.png","","","learning","images/animals_choice1.png","images/animals_choice3.png","images/animals_choice2.png","[0,2,1]","0","0","1","images/animals_choice1.png","1","animals","","horse","1","0"
"html-keyboard-response","132","598401","0.0-9.0-2.0-0.23","1416","1","2","""event"",""trial"",""time""
""fullscreenenter"",""1"",""3589""
","
","
","""event"",""trial"",""time""
""fullscreenenter"",""1"",""3589""
","
","","","","","","null","<div style=""font-size:60px;"">+</div>","null","","fixation","","","","","","","","","","","","","",""
"learning-trial","133","602407","0.0-9.0-2.0-1.23","1416","1","2","""event"",""trial"",""time""
""fullscreenenter"",""1"",""3589""
","
","
","""event"",""trial"",""time""
""fullscreenenter"",""1"",""3589""
","
","","","","","","1186","images/horse1.png","","","learning","images/animals_choice2.png","images/animals_choice3.png","images/animals_choice1.png","[1,2,0]","0","2","3","images/animals_choice1.png","-1","animals","","horse","1","0"
"html-keyboard-response","134","602909","0.0-9.0-2.0-0.24","1416","1","2","""event"",""trial"",""time""
""fullscreenenter"",""1"",""3589""
","
","
","""event"",""trial"",""time""
""fullscreenenter"",""1"",""3589""
","
","","","","","","null","<div style=""font-size:60px;"">+</div>","null","","fixation","","","","","","","","","","","","","",""
"learning-trial","135","606915","0.0-9.0-2.0-1.24","1416","1","2","""event"",""trial"",""time""
""fullscreenenter"",""1"",""3589""
","
","
","""event"",""trial"",""time""
""fullscreenenter"",""1"",""3589""
","
","","","","","","997.7000000029802","images/horse1.png","","","learning","images/animals_choice3.png","images/animals_choice1.png","images/animals_choice2.png","[2,0,1]","0","1","2","images/animals_choice1.png","1","animals","","horse","1","0"
"html-keyboard-response","136","607417","0.0-9.0-2.0-0.25","1416","1","2","""event"",""trial"",""time""
""fullscreenenter"",""1"",""3589""
","
","
","""event"",""trial"",""time""
""fullscreenenter"",""1"",""3589""
","
","","","","","","null","<div style=""font-size:60px;"">+</div>","null","","fixation","","","","","","","","","","","","","",""
"learning-trial","137","611421","0.0-9.0-2.0-1.25","1416","1","2","""event"",""trial"",""time""
""fullscreenenter"",""1"",""3589""
","
","
","""event"",""trial"",""time""
""fullscreenenter"",""1"",""3589""
","
","","","","","","1409.3999999985099","images/goat1.png","","","learning","images/animals_choice3.png","images/animals_choice1.png","images/animals_choice2.png","[2,0,1]","2","0","1","images/animals_choice3.png","1","animals","","goat","1","0"
"html-keyboard-response","138","611923","0.0-9.0-2.0-0.26","1416","1","2","""event"",""trial"",""time""
""fullscreenenter"",""1"",""3589""
","
","
","""event"",""trial"",""time""
""fullscreenenter"",""1"",""3589""
","
","","","","","","null","<div style=""font-size:60px;"">+</div>","null","","fixation","","","","","","","","","","","","","",""
"learning-trial","139","615929","0.0-9.0-2.0-1.26","1416","1","2","""event"",""trial"",""time""
""fullscreenenter"",""1"",""3589""
","
","
","""event"",""trial"",""time""
""fullscreenenter"",""1"",""3589""
","
","","","","","","1751","images/cow3.png","","","learning","images/animals_choice3.png","images/animals_choice2.png","images/animals_choice1.png","[2,1,0]","1","1","2","images/animals_choice2.png","1","animals","","cow","1","0"
"html-keyboard-response","140","616431","0.0-9.0-2.0-0.27","1416","1","2","""event"",""trial"",""time""
""fullscreenenter"",""1"",""3589""
","
","
","""event"",""trial"",""time""
""fullscreenenter"",""1"",""3589""
","
","","","","","","null","<div style=""font-size:60px;"">+</div>","null","","fixation","","","","","","","","","","","","","",""
"learning-trial","141","620437","0.0-9.0-2.0-1.27","1416","1","2","""event"",""trial"",""time""
""fullscreenenter"",""1"",""3589""
","
","
","""event"",""trial"",""time""
""fullscreenenter"",""1"",""3589""
","
","","","","","","2542.400000002235","images/horse1.png","","","learning","images/animals_choice1.png","images/animals_choice3.png","images/animals_choice2.png","[0,2,1]","0","0","1","images/animals_choice1.png","1","animals","","horse","1","0"
"html-keyboard-response","142","620939","0.0-9.0-2.0-0.28","1416","1","2","""event"",""trial"",""time""
""fullscreenenter"",""1"",""3589""
","
","
","""event"",""trial"",""time""
""fullscreenenter"",""1"",""3589""
","
","","","","","","null","<div style=""font-size:60px;"">+</div>","null","","fixation","","","","","","","","","","","","","",""
"learning-trial","143","624945","0.0-9.0-2.0-1.28","1416","1","2","""event"",""trial"",""time""
""fullscreenenter"",""1"",""3589""
","
","
","""event"",""trial"",""time""
""fullscreenenter"",""1"",""3589""
","
","","","","","","1345.199999999255","images/horse3.png","","","learning","images/animals_choice3.png","images/animals_choice2.png","images/animals_choice1.png","[2,1,0]","0","2","1","images/animals_choice3.png","-1","animals","","horse","1","0"
"html-keyboard-response","144","625448","0.0-9.0-2.0-0.29","1416","1","2","""event"",""trial"",""time""
""fullscreenenter"",""1"",""3589""
","
","
","""event"",""trial"",""time""
""fullscreenenter"",""1"",""3589""
","
","","","","","","null","<div style=""font-size:60px;"">+</div>","null","","fixation","","","","","","","","","","","","","",""
"learning-trial","145","629453","0.0-9.0-2.0-1.29","1416","1","2","""event"",""trial"",""time""
""fullscreenenter"",""1"",""3589""
","
","
","""event"",""trial"",""time""
""fullscreenenter"",""1"",""3589""
","
","","","","","","1651.5","images/horse4.png","","","learning","images/animals_choice3.png","images/animals_choice2.png","images/animals_choice1.png","[2,1,0]","0","2","1","images/animals_choice3.png","-1","animals","","horse","1","0"
"html-keyboard-response","146","629954","0.0-9.0-2.0-0.30","1416","1","2","""event"",""trial"",""time""
""fullscreenenter"",""1"",""3589""
","
","
","""event"",""trial"",""time""
""fullscreenenter"",""1"",""3589""
","
","","","","","","null","<div style=""font-size:60px;"">+</div>","null","","fixation","","","","","","","","","","","","","",""
"learning-trial","147","633960","0.0-9.0-2.0-1.30","1416","1","2","""event"",""trial"",""time""
""fullscreenenter"",""1"",""3589""
","
","
","""event"",""trial"",""time""
""fullscreenenter"",""1"",""3589""
","
","","","","","","2624.900000002235","images/cow5.png","","","learning","images/animals_choice1.png","images/animals_choice2.png","images/animals_choice3.png","[0,1,2]","1","1","2","images/animals_choice2.png","1","animals","","cow","1","0"
"html-keyboard-response","148","634462","0.0-9.0-2.0-0.31","1416","1","2","""event"",""trial"",""time""
""fullscreenenter"",""1"",""3589""
","
","
","""event"",""trial"",""time""
""fullscreenenter"",""1"",""3589""
","
","","","","","","null","<div style=""font-size:60px;"">+</div>","null","","fixation","","","","","","","","","","","","","",""
"learning-trial","149","638468","0.0-9.0-2.0-1.31","1416","1","2","""event"",""trial"",""time""
""fullscreenenter"",""1"",""3589""
","
","
","""event"",""trial"",""time""
""fullscreenenter"",""1"",""3589""
","
","","","","","","2144.900000002235","images/goat5.png","","","learning","images/animals_choice3.png","images/animals_choice1.png","images/animals_choice2.png","[2,0,1]","2","0","2","images/animals_choice1.png","-1","animals","","goat","1","0"
"html-keyboard-response","150","638970","0.0-9.0-2.0-0.32","1416","1","2","""event"",""trial"",""time""
""fullscreenenter"",""1"",""3589""
","
","
","""event"",""trial"",""time""
""fullscreenenter"",""1"",""3589""
","
","","","","","","null","<div style=""font-size:60px;"">+</div>","null","","fixation","","","","","","","","","","","","","",""
"learning-trial","151","642976","0.0-9.0-2.0-1.32","1416","1","2","""event"",""trial"",""time""
""fullscreenenter"",""1"",""3589""
","
","
","""event"",""trial"",""time""
""fullscreenenter"",""1"",""3589""
","
","","","","","","3265.60000000149","images/cow5.png","","","learning","images/animals_choice3.png","images/animals_choice1.png","images/animals_choice2.png","[2,0,1]","1","2","3","images/animals_choice2.png","1","animals","","cow","1","0"
"html-keyboard-response","152","643478","0.0-9.0-2.0-0.33","1416","1","2","""event"",""trial"",""time""
""fullscreenenter"",""1"",""3589""
","
","
","""event"",""trial"",""time""
""fullscreenenter"",""1"",""3589""
","
","","","","","","null","<div style=""font-size:60px;"">+</div>","null","","fixation","","","","","","","","","","","","","",""
"learning-trial","153","647485","0.0-9.0-2.0-1.33","1416","1","2","""event"",""trial"",""time""
""fullscreenenter"",""1"",""3589""
","
","
","""event"",""trial"",""time""
""fullscreenenter"",""1"",""3589""
","
","","","","","","2827.300000000745","images/horse3.png","","","learning","images/animals_choice3.png","images/animals_choice2.png","images/animals_choice1.png","[2,1,0]","0","2","1","images/animals_choice3.png","-1","animals","","horse","1","0"
"html-keyboard-response","154","647987","0.0-9.0-2.0-0.34","1416","1","2","""event"",""trial"",""time""
""fullscreenenter"",""1"",""3589""
","
","
","""event"",""trial"",""time""
""fullscreenenter"",""1"",""3589""
","
","","","","","","null","<div style=""font-size:60px;"">+</div>","null","","fixation","","","","","","","","","","","","","",""
"learning-trial","155","651994","0.0-9.0-2.0-1.34","1416","1","2","""event"",""trial"",""time""
""fullscreenenter"",""1"",""3589""
","
","
","""event"",""trial"",""time""
""fullscreenenter"",""1"",""3589""
","
","","","","","","2191.39999999851","images/goat5.png","","","learning","images/animals_choice1.png","images/animals_choice3.png","images/animals_choice2.png","[0,2,1]","2","1","1","images/animals_choice1.png","-1","animals","","goat","1","0"
"html-keyboard-response","156","652496","0.0-9.0-2.0-0.35","1416","1","2","""event"",""trial"",""time""
""fullscreenenter"",""1"",""3589""
","
","
","""event"",""trial"",""time""
""fullscreenenter"",""1"",""3589""
","
","","","","","","null","<div style=""font-size:60px;"">+</div>","null","","fixation","","","","","","","","","","","","","",""
"learning-trial","157","656503","0.0-9.0-2.0-1.35","1416","1","2","""event"",""trial"",""time""
""fullscreenenter"",""1"",""3589""
","
","
","""event"",""trial"",""time""
""fullscreenenter"",""1"",""3589""
","
","","","","","","1972.9000000022352","images/goat1.png","","","learning","images/animals_choice2.png","images/animals_choice1.png","images/animals_choice3.png","[1,0,2]","2","2","3","images/animals_choice3.png","1","animals","","goat","1","0"
"html-keyboard-response","158","657005","0.0-9.0-2.0-0.36","1416","1","2","""event"",""trial"",""time""
""fullscreenenter"",""1"",""3589""
","
","
","""event"",""trial"",""time""
""fullscreenenter"",""1"",""3589""
","
","","","","","","null","<div style=""font-size:60px;"">+</div>","null","","fixation","","","","","","","","","","","","","",""
"learning-trial","159","661010","0.0-9.0-2.0-1.36","1416","1","2","""event"",""trial"",""time""
""fullscreenenter"",""1"",""3589""
","
","
","""event"",""trial"",""time""
""fullscreenenter"",""1"",""3589""
","
","","","","","","3825.39999999851","images/horse4.png","","","learning","images/animals_choice2.png","images/animals_choice3.png","images/animals_choice1.png","[1,2,0]","0","2","1","images/animals_choice2.png","-1","animals","","horse","1","0"
"html-keyboard-response","160","661512","0.0-9.0-2.0-0.37","1416","1","2","""event"",""trial"",""time""
""fullscreenenter"",""1"",""3589""
","
","
","""event"",""trial"",""time""
""fullscreenenter"",""1"",""3589""
","
","","","","","","null","<div style=""font-size:60px;"">+</div>","null","","fixation","","","","","","","","","","","","","",""
"learning-trial","161","665518","0.0-9.0-2.0-1.37","1416","1","2","""event"",""trial"",""time""
""fullscreenenter"",""1"",""3589""
","
","
","""event"",""trial"",""time""
""fullscreenenter"",""1"",""3589""
","
","","","","","","null","images/cow5.png","","","learning","images/animals_choice3.png","images/animals_choice1.png","images/animals_choice2.png","[2,0,1]","1","2","null","null","-1","animals","","cow","1","0"
"html-keyboard-response","162","666019","0.0-9.0-2.0-0.38","1416","1","2","""event"",""trial"",""time""
""fullscreenenter"",""1"",""3589""
","
","
","""event"",""trial"",""time""
""fullscreenenter"",""1"",""3589""
","
","","","","","","null","<div style=""font-size:60px;"">+</div>","null","","fixation","","","","","","","","","","","","","",""
"learning-trial","163","670024","0.0-9.0-2.0-1.38","1416","1","2","""event"",""trial"",""time""
""fullscreenenter"",""1"",""3589""
","
","
","""event"",""trial"",""time""
""fullscreenenter"",""1"",""3589""
","
","","","","","","2964.89999999851","images/goat2.png","","","learning","images/animals_choice1.png","images/animals_choice3.png","images/animals_choice2.png","[0,2,1]","2","1","2","images/animals_choice3.png","1","animals","","goat","1","0"
"html-keyboard-response","164","670525","0.0-9.0-2.0-0.39","1416","1","2","""event"",""trial"",""time""
""fullscreenenter"",""1"",""3589""
","
","
","""event"",""trial"",""time""
""fullscreenenter"",""1"",""3589""
","
","","","","","","null","<div style=""font-size:60px;"">+</div>","null","","fixation","","","","","","","","","","","","","",""
"learning-trial","165","674531","0.0-9.0-2.0-1.39","1416","1","2","""event"",""trial"",""time""
""fullscreenenter"",""1"",""3589""
","
","
","""event"",""trial"",""time""
""fullscreenenter"",""1"",""3589""
","
","","","","","","1424.800000000745","images/cow3.png","","","learning","images/animals_choice3.png","images/animals_choice1.png","images/animals_choice2.png","[2,0,1]","1","2","2","images/animals_choice1.png","-1","animals","","cow","1","0"
"html-keyboard-response","166","675032","0.0-9.0-2.0-0.40","1416","1","2","""event"",""trial"",""time""
""fullscreenenter"",""1"",""3589""
","
","
","""event"",""trial"",""time""
""fullscreenenter"",""1"",""3589""
","
","","","","","","null","<div style=""font-size:60px;"">+</div>","null","","fixation","","","","","","","","","","","","","",""
"learning-trial","167","679038","0.0-9.0-2.0-1.40","1416","1","2","""event"",""trial"",""time""
""fullscreenenter"",""1"",""3589""
","
","
","""event"",""trial"",""time""
""fullscreenenter"",""1"",""3589""
","
","","","","","","1949.699999999255","images/cow5.png","","","learning","images/animals_choice3.png","images/animals_choice2.png","images/animals_choice1.png","[2,1,0]","1","1","2","images/animals_choice2.png","1","animals","","cow","1","0"
"html-keyboard-response","168","679539","0.0-9.0-2.0-0.41","1416","1","2","""event"",""trial"",""time""
""fullscreenenter"",""1"",""3589""
","
","
","""event"",""trial"",""time""
""fullscreenenter"",""1"",""3589""
","
","","","","","","null","<div style=""font-size:60px;"">+</div>","null","","fixation","","","","","","","","","","","","","",""
"learning-trial","169","683544","0.0-9.0-2.0-1.41","1416","1","2","""event"",""trial"",""time""
""fullscreenenter"",""1"",""3589""
","
","
","""event"",""trial"",""time""
""fullscreenenter"",""1"",""3589""
","
","","","","","","1086.300000000745","images/cow1.png","","","learning","images/animals_choice3.png","images/animals_choice1.png","images/animals_choice2.png","[2,0,1]","1","2","3","images/animals_choice2.png","-1","animals","","cow","1","0"
"html-keyboard-response","170","684046","0.0-9.0-2.0-0.42","1416","1","2","""event"",""trial"",""time""
""fullscreenenter"",""1"",""3589""
","
","
","""event"",""trial"",""time""
""fullscreenenter"",""1"",""3589""
","
","","","","","","null","<div style=""font-size:60px;"">+</div>","null","","fixation","","","","","","","","","","","","","",""
"learning-trial","171","688051","0.0-9.0-2.0-1.42","1416","1","2","""event"",""trial"",""time""
""fullscreenenter"",""1"",""3589""
","
","
","""event"",""trial"",""time""
""fullscreenenter"",""1"",""3589""
","
","","","","","","2784.199999999255","images/horse3.png","","","learning","images/animals_choice2.png","images/animals_choice1.png","images/animals_choice3.png","[1,0,2]","0","1","3","images/animals_choice3.png","-1","animals","","horse","1","0"
"html-keyboard-response","172","688553","0.0-9.0-2.0-0.43","1416","1","2","""event"",""trial"",""time""
""fullscreenenter"",""1"",""3589""
","
","
","""event"",""trial"",""time""
""fullscreenenter"",""1"",""3589""
","
","","","","","","null","<div style=""font-size:60px;"">+</div>","null","","fixation","","","","","","","","","","","","","",""
"learning-trial","173","692559","0.0-9.0-2.0-1.43","1416","1","2","""event"",""trial"",""time""
""fullscreenenter"",""1"",""3589""
","
","
","""event"",""trial"",""time""
""fullscreenenter"",""1"",""3589""
","
","","","","","","1457.300000000745","images/cow5.png","","","learning","images/animals_choice1.png","images/animals_choice3.png","images/animals_choice2.png","[0,2,1]","1","2","3","images/animals_choice2.png","1","animals","","cow","1","0"
"html-keyboard-response","174","693060","0.0-9.0-2.0-0.44","1416","1","2","""event"",""trial"",""time""
""fullscreenenter"",""1"",""3589""
","
","
","""event"",""trial"",""time""
""fullscreenenter"",""1"",""3589""
","
","","","","","","null","<div style=""font-size:60px;"">+</div>","null","","fixation","","","","","","","","","","","","","",""
"learning-trial","175","697066","0.0-9.0-2.0-1.44","1416","1","2","""event"",""trial"",""time""
""fullscreenenter"",""1"",""3589""
","
","
","""event"",""trial"",""time""
""fullscreenenter"",""1"",""3589""
","
","","","","","","1468.1000000014901","images/cow1.png","","","learning","images/animals_choice1.png","images/animals_choice3.png","images/animals_choice2.png","[0,2,1]","1","2","3","images/animals_choice2.png","-1","animals","","cow","1","0"
"html-keyboard-response","176","697568","0.0-9.0-2.0-0.45","1416","1","2","""event"",""trial"",""time""
""fullscreenenter"",""1"",""3589""
","
","
","""event"",""trial"",""time""
""fullscreenenter"",""1"",""3589""
","
","","","","","","null","<div style=""font-size:60px;"">+</div>","null","","fixation","","","","","","","","","","","","","",""
"learning-trial","177","701573","0.0-9.0-2.0-1.45","1416","1","2","""event"",""trial"",""time""
""fullscreenenter"",""1"",""3589""
","
","
","""event"",""trial"",""time""
""fullscreenenter"",""1"",""3589""
","
","","","","","","1391.300000000745","images/cow3.png","","","learning","images/animals_choice2.png","images/animals_choice1.png","images/animals_choice3.png","[1,0,2]","1","0","2","images/animals_choice1.png","-1","animals","","cow","1","0"
"html-keyboard-response","178","702075","0.0-9.0-2.0-0.46","1416","1","2","""event"",""trial"",""time""
""fullscreenenter"",""1"",""3589""
","
","
","""event"",""trial"",""time""
""fullscreenenter"",""1"",""3589""
","
","","","","","","null","<div style=""font-size:60px;"">+</div>","null","","fixation","","","","","","","","","","","","","",""
"learning-trial","179","706081","0.0-9.0-2.0-1.46","1416","1","2","""event"",""trial"",""time""
""fullscreenenter"",""1"",""3589""
","
","
","""event"",""trial"",""time""
""fullscreenenter"",""1"",""3589""
","
","","","","","","1259.5","images/cow1.png","","","learning","images/animals_choice2.png","images/animals_choice3.png","images/animals_choice1.png","[1,2,0]","1","0","3","images/animals_choice1.png","-1","animals","","cow","1","0"
"html-keyboard-response","180","706583","0.0-9.0-2.0-0.47","1416","1","2","""event"",""trial"",""time""
""fullscreenenter"",""1"",""3589""
","
","
","""event"",""trial"",""time""
""fullscreenenter"",""1"",""3589""
","
","","","","","","null","<div style=""font-size:60px;"">+</div>","null","","fixation","","","","","","","","","","","","","",""
"learning-trial","181","710586","0.0-9.0-2.0-1.47","1416","1","2","""event"",""trial"",""time""
""fullscreenenter"",""1"",""3589""
","
","
","""event"",""trial"",""time""
""fullscreenenter"",""1"",""3589""
","
","","","","","","2547.300000000745","images/horse3.png","","","learning","images/animals_choice3.png","images/animals_choice1.png","images/animals_choice2.png","[2,0,1]","0","1","3","images/animals_choice2.png","-1","animals","","horse","1","0"
"html-keyboard-response","182","711088","0.0-9.0-2.0-0.48","1416","1","2","""event"",""trial"",""time""
""fullscreenenter"",""1"",""3589""
","
","
","""event"",""trial"",""time""
""fullscreenenter"",""1"",""3589""
","
","","","","","","null","<div style=""font-size:60px;"">+</div>","null","","fixation","","","","","","","","","","","","","",""
"learning-trial","183","715093","0.0-9.0-2.0-1.48","1416","1","2","""event"",""trial"",""time""
""fullscreenenter"",""1"",""3589""
","
","
","""event"",""trial"",""time""
""fullscreenenter"",""1"",""3589""
","
","","","","","","1172.300000000745","images/cow3.png","","","learning","images/animals_choice2.png","images/animals_choice1.png","images/animals_choice3.png","[1,0,2]","1","0","1","images/animals_choice2.png","1","animals","","cow","1","0"
"html-keyboard-response","184","715595","0.0-9.0-2.0-0.49","1416","1","2","""event"",""trial"",""time""
""fullscreenenter"",""1"",""3589""
","
","
","""event"",""trial"",""time""
""fullscreenenter"",""1"",""3589""
","
","","","","","","null","<div style=""font-size:60px;"">+</div>","null","","fixation","","","","","","","","","","","","","",""
"learning-trial","185","719600","0.0-9.0-2.0-1.49","1416","1","2","""event"",""trial"",""time""
""fullscreenenter"",""1"",""3589""
","
","
","""event"",""trial"",""time""
""fullscreenenter"",""1"",""3589""
","
","","","","","","899.1999999992549","images/cow3.png","","","learning","images/animals_choice2.png","images/animals_choice1.png","images/animals_choice3.png","[1,0,2]","1","0","1","images/animals_choice2.png","1","animals","","cow","1","0"
"html-keyboard-response","186","720102","0.0-9.0-2.0-0.50","1416","1","2","""event"",""trial"",""time""
""fullscreenenter"",""1"",""3589""
","
","
","""event"",""trial"",""time""
""fullscreenenter"",""1"",""3589""
","
","","","","","","null","<div style=""font-size:60px;"">+</div>","null","","fixation","","","","","","","","","","","","","",""
"learning-trial","187","724108","0.0-9.0-2.0-1.50","1416","1","2","""event"",""trial"",""time""
""fullscreenenter"",""1"",""3589""
","
","
","""event"",""trial"",""time""
""fullscreenenter"",""1"",""3589""
","
","","","","","","2410.699999999255","images/goat1.png","","","learning","images/animals_choice2.png","images/animals_choice1.png","images/animals_choice3.png","[1,0,2]","2","2","3","images/animals_choice3.png","1","animals","","goat","1","0"
"html-keyboard-response","188","724610","0.0-9.0-2.0-0.51","1416","1","2","""event"",""trial"",""time""
""fullscreenenter"",""1"",""3589""
","
","
","""event"",""trial"",""time""
""fullscreenenter"",""1"",""3589""
","
","","","","","","null","<div style=""font-size:60px;"">+</div>","null","","fixation","","","","","","","","","","","","","",""
"learning-trial","189","728616","0.0-9.0-2.0-1.51","1416","1","2","""event"",""trial"",""time""
""fullscreenenter"",""1"",""3589""
","
","
","""event"",""trial"",""time""
""fullscreenenter"",""1"",""3589""
","
","","","","","","1348.300000000745","images/goat5.png","","","learning","images/animals_choice3.png","images/animals_choice2.png","images/animals_choice1.png","[2,1,0]","2","0","3","images/animals_choice1.png","-1","animals","","goat","1","0"
"html-keyboard-response","190","729118","0.0-9.0-2.0-0.52","1416","1","2","""event"",""trial"",""time""
""fullscreenenter"",""1"",""3589""
","
","
","""event"",""trial"",""time""
""fullscreenenter"",""1"",""3589""
","
","","","","","","null","<div style=""font-size:60px;"">+</div>","null","","fixation","","","","","","","","","","","","","",""
"learning-trial","191","733125","0.0-9.0-2.0-1.52","1416","1","2","""event"",""trial"",""time""
""fullscreenenter"",""1"",""3589""
","
","
","""event"",""trial"",""time""
""fullscreenenter"",""1"",""3589""
","
","","","","","","2424.89999999851","images/goat1.png","","","learning","images/animals_choice3.png","images/animals_choice2.png","images/animals_choice1.png","[2,1,0]","2","0","1","images/animals_choice3.png","1","animals","","goat","1","0"
"html-keyboard-response","192","733627","0.0-9.0-2.0-0.53","1416","1","2","""event"",""trial"",""time""
""fullscreenenter"",""1"",""3589""
","
","
","""event"",""trial"",""time""
""fullscreenenter"",""1"",""3589""
","
","","","","","","null","<div style=""font-size:60px;"">+</div>","null","","fixation","","","","","","","","","","","","","",""
"learning-trial","193","737633","0.0-9.0-2.0-1.53","1416","1","2","""event"",""trial"",""time""
""fullscreenenter"",""1"",""3589""
","
","
","""event"",""trial"",""time""
""fullscreenenter"",""1"",""3589""
","
","","","","","","1574.6000000014901","images/goat2.png","","","learning","images/animals_choice2.png","images/animals_choice3.png","images/animals_choice1.png","[1,2,0]","2","1","2","images/animals_choice3.png","1","animals","","goat","1","0"
"html-keyboard-response","194","738135","0.0-9.0-2.0-0.54","1416","1","2","""event"",""trial"",""time""
""fullscreenenter"",""1"",""3589""
","
","
","""event"",""trial"",""time""
""fullscreenenter"",""1"",""3589""
","
","","","","","","null","<div style=""font-size:60px;"">+</div>","null","","fixation","","","","","","","","","","","","","",""
"learning-trial","195","742141","0.0-9.0-2.0-1.54","1416","1","2","""event"",""trial"",""time""
""fullscreenenter"",""1"",""3589""
","
","
","""event"",""trial"",""time""
""fullscreenenter"",""1"",""3589""
","
","","","","","","1105.6000000014901","images/cow1.png","","","learning","images/animals_choice1.png","images/animals_choice2.png","images/animals_choice3.png","[0,1,2]","1","1","1","images/animals_choice1.png","-1","animals","","cow","1","0"
"html-keyboard-response","196","742643","0.0-9.0-2.0-0.55","1416","1","2","""event"",""trial"",""time""
""fullscreenenter"",""1"",""3589""
","
","
","""event"",""trial"",""time""
""fullscreenenter"",""1"",""3589""
","
","","","","","","null","<div style=""font-size:60px;"">+</div>","null","","fixation","","","","","","","","","","","","","",""
"learning-trial","197","746649","0.0-9.0-2.0-1.55","1416","1","2","""event"",""trial"",""time""
""fullscreenenter"",""1"",""3589""
","
","
","""event"",""trial"",""time""
""fullscreenenter"",""1"",""3589""
","
","","","","","","3892.599999997765","images/goat5.png","","","learning","images/animals_choice2.png","images/animals_choice3.png","images/animals_choice1.png","[1,2,0]","2","1","2","images/animals_choice3.png","1","animals","","goat","1","0"
"html-keyboard-response","198","747151","0.0-9.0-2.0-0.56","1416","1","2","""event"",""trial"",""time""
""fullscreenenter"",""1"",""3589""
","
","
","""event"",""trial"",""time""
""fullscreenenter"",""1"",""3589""
","
","","","","","","null","<div style=""font-size:60px;"">+</div>","null","","fixation","","","","","","","","","","","","","",""
"learning-trial","199","751155","0.0-9.0-2.0-1.56","1416","1","2","""event"",""trial"",""time""
""fullscreenenter"",""1"",""3589""
","
","
","""event"",""trial"",""time""
""fullscreenenter"",""1"",""3589""
","
","","","","","","3926.699999999255","images/horse3.png","","","learning","images/animals_choice3.png","images/animals_choice2.png","images/animals_choice1.png","[2,1,0]","0","2","2","images/animals_choice2.png","-1","animals","","horse","1","0"
"html-keyboard-response","200","751657","0.0-9.0-2.0-0.57","1416","1","2","""event"",""trial"",""time""
""fullscreenenter"",""1"",""3589""
","
","
","""event"",""trial"",""time""
""fullscreenenter"",""1"",""3589""
","
","","","","","","null","<div style=""font-size:60px;"">+</div>","null","","fixation","","","","","","","","","","","","","",""
"learning-trial","201","755664","0.0-9.0-2.0-1.57","1416","1","2","""event"",""trial"",""time""
""fullscreenenter"",""1"",""3589""
","
","
","""event"",""trial"",""time""
""fullscreenenter"",""1"",""3589""
","
","","","","","","2454.10000000149","images/goat5.png","","","learning","images/animals_choice3.png","images/animals_choice1.png","images/animals_choice2.png","[2,0,1]","2","0","2","images/animals_choice1.png","1","animals","","goat","1","0"
"html-keyboard-response","202","756166","0.0-9.0-2.0-0.58","1416","1","2","""event"",""trial"",""time""
""fullscreenenter"",""1"",""3589""
","
","
","""event"",""trial"",""time""
""fullscreenenter"",""1"",""3589""
","
","","","","","","null","<div style=""font-size:60px;"">+</div>","null","","fixation","","","","","","","","","","","","","",""
"learning-trial","203","760171","0.0-9.0-2.0-1.58","1416","1","2","""event"",""trial"",""time""
""fullscreenenter"",""1"",""3589""
","
","
","""event"",""trial"",""time""
""fullscreenenter"",""1"",""3589""
","
","","","","","","1760.3999999985099","images/horse3.png","","","learning","images/animals_choice2.png","images/animals_choice1.png","images/animals_choice3.png","[1,0,2]","0","1","3","images/animals_choice3.png","-1","animals","","horse","1","0"
"html-keyboard-response","204","760674","0.0-9.0-2.0-0.59","1416","1","2","""event"",""trial"",""time""
""fullscreenenter"",""1"",""3589""
","
","
","""event"",""trial"",""time""
""fullscreenenter"",""1"",""3589""
","
","","","","","","null","<div style=""font-size:60px;"">+</div>","null","","fixation","","","","","","","","","","","","","",""
"learning-trial","205","764681","0.0-9.0-2.0-1.59","1416","1","2","""event"",""trial"",""time""
""fullscreenenter"",""1"",""3589""
","
","
","""event"",""trial"",""time""
""fullscreenenter"",""1"",""3589""
","
","","","","","","1461.699999999255","images/horse4.png","","","learning","images/animals_choice3.png","images/animals_choice1.png","images/animals_choice2.png","[2,0,1]","0","1","1","images/animals_choice3.png","-1","animals","","horse","1","0"
"html-keyboard-response","206","765183","0.0-9.0-2.0-0.60","1416","1","2","""event"",""trial"",""time""
""fullscreenenter"",""1"",""3589""
","
","
","""event"",""trial"",""time""
""fullscreenenter"",""1"",""3589""
","
","","","","","","null","<div style=""font-size:60px;"">+</div>","null","","fixation","","","","","","","","","","","","","",""
"learning-trial","207","769190","0.0-9.0-2.0-1.60","1416","1","2","""event"",""trial"",""time""
""fullscreenenter"",""1"",""3589""
","
","
","""event"",""trial"",""time""
""fullscreenenter"",""1"",""3589""
","
","","","","","","2622.199999999255","images/cow3.png","","","learning","images/animals_choice3.png","images/animals_choice1.png","images/animals_choice2.png","[2,0,1]","1","2","2","images/animals_choice1.png","-1","animals","","cow","1","0"
"html-keyboard-response","208","769692","0.0-9.0-2.0-0.61","1416","1","2","""event"",""trial"",""time""
""fullscreenenter"",""1"",""3589""
","
","
","""event"",""trial"",""time""
""fullscreenenter"",""1"",""3589""
","
","","","","","","null","<div style=""font-size:60px;"">+</div>","null","","fixation","","","","","","","","","","","","","",""
"learning-trial","209","773699","0.0-9.0-2.0-1.61","1416","1","2","""event"",""trial"",""time""
""fullscreenenter"",""1"",""3589""
","
","
","""event"",""trial"",""time""
""fullscreenenter"",""1"",""3589""
","
","","","","","","1311.5999999977648","images/horse4.png","","","learning","images/animals_choice2.png","images/animals_choice3.png","images/animals_choice1.png","[1,2,0]","0","2","1","images/animals_choice2.png","-1","animals","","horse","1","0"
"html-keyboard-response","210","774201","0.0-9.0-2.0-0.62","1416","1","2","""event"",""trial"",""time""
""fullscreenenter"",""1"",""3589""
","
","
","""event"",""trial"",""time""
""fullscreenenter"",""1"",""3589""
","
","","","","","","null","<div style=""font-size:60px;"">+</div>","null","","fixation","","","","","","","","","","","","","",""
"learning-trial","211","778208","0.0-9.0-2.0-1.62","1416","1","2","""event"",""trial"",""time""
""fullscreenenter"",""1"",""3589""
","
","
","""event"",""trial"",""time""
""fullscreenenter"",""1"",""3589""
","
","","","","","","940.5","images/cow1.png","","","learning","images/animals_choice1.png","images/animals_choice3.png","images/animals_choice2.png","[0,2,1]","1","2","3","images/animals_choice2.png","1","animals","","cow","1","0"
"html-keyboard-response","212","778710","0.0-9.0-2.0-0.63","1416","1","2","""event"",""trial"",""time""
""fullscreenenter"",""1"",""3589""
","
","
","""event"",""trial"",""time""
""fullscreenenter"",""1"",""3589""
","
","","","","","","null","<div style=""font-size:60px;"">+</div>","null","","fixation","","","","","","","","","","","","","",""
"learning-trial","213","782717","0.0-9.0-2.0-1.63","1416","1","2","""event"",""trial"",""time""
""fullscreenenter"",""1"",""3589""
","
","
","""event"",""trial"",""time""
""fullscreenenter"",""1"",""3589""
","
","","","","","","1521.300000000745","images/goat2.png","","","learning","images/animals_choice3.png","images/animals_choice1.png","images/animals_choice2.png","[2,0,1]","2","0","1","images/animals_choice3.png","1","animals","","goat","1","0"
"html-keyboard-response","214","783219","0.0-9.0-2.0-0.64","1416","1","2","""event"",""trial"",""time""
""fullscreenenter"",""1"",""3589""
","
","
","""event"",""trial"",""time""
""fullscreenenter"",""1"",""3589""
","
","","","","","","null","<div style=""font-size:60px;"">+</div>","null","","fixation","","","","","","","","","","","","","",""
"learning-trial","215","787227","0.0-9.0-2.0-1.64","1416","1","2","""event"",""trial"",""time""
""fullscreenenter"",""1"",""3589""
","
","
","""event"",""trial"",""time""
""fullscreenenter"",""1"",""3589""
","
","","","","","","1625","images/goat1.png","","","learning","images/animals_choice3.png","images/animals_choice1.png","images/animals_choice2.png","[2,0,1]","2","0","1","images/animals_choice3.png","1","animals","","goat","1","0"
"html-keyboard-response","216","787729","0.0-9.0-2.0-0.65","1416","1","2","""event"",""trial"",""time""
""fullscreenenter"",""1"",""3589""
","
","
","""event"",""trial"",""time""
""fullscreenenter"",""1"",""3589""
","
","","","","","","null","<div style=""font-size:60px;"">+</div>","null","","fixation","","","","","","","","","","","","","",""
"learning-trial","217","791737","0.0-9.0-2.0-1.65","1416","1","2","""event"",""trial"",""time""
""fullscreenenter"",""1"",""3589""
","
","
","""event"",""trial"",""time""
""fullscreenenter"",""1"",""3589""
","
","","","","","","1032.300000000745","images/goat2.png","","","learning","images/animals_choice3.png","images/animals_choice2.png","images/animals_choice1.png","[2,1,0]","2","0","1","images/animals_choice3.png","1","animals","","goat","1","0"
"html-keyboard-response","218","792239","0.0-9.0-2.0-0.66","1416","1","2","""event"",""trial"",""time""
""fullscreenenter"",""1"",""3589""
","
","
","""event"",""trial"",""time""
""fullscreenenter"",""1"",""3589""
","
","","","","","","null","<div style=""font-size:60px;"">+</div>","null","","fixation","","","","","","","","","","","","","",""
"learning-trial","219","796245","0.0-9.0-2.0-1.66","1416","1","2","""event"",""trial"",""time""
""fullscreenenter"",""1"",""3589""
","
","
","""event"",""trial"",""time""
""fullscreenenter"",""1"",""3589""
","
","","","","","","2043.9000000022352","images/cow1.png","","","learning","images/animals_choice1.png","images/animals_choice2.png","images/animals_choice3.png","[0,1,2]","1","1","2","images/animals_choice2.png","1","animals","","cow","1","0"
"html-keyboard-response","220","796746","0.0-9.0-2.0-0.67","1416","1","2","""event"",""trial"",""time""
""fullscreenenter"",""1"",""3589""
","
","
","""event"",""trial"",""time""
""fullscreenenter"",""1"",""3589""
","
","","","","","","null","<div style=""font-size:60px;"">+</div>","null","","fixation","","","","","","","","","","","","","",""
"learning-trial","221","800751","0.0-9.0-2.0-1.67","1416","1","2","""event"",""trial"",""time""
""fullscreenenter"",""1"",""3589""
","
","
","""event"",""trial"",""time""
""fullscreenenter"",""1"",""3589""
","
","","","","","","1071.6000000014901","images/horse4.png","","","learning","images/animals_choice2.png","images/animals_choice3.png","images/animals_choice1.png","[1,2,0]","0","2","3","images/animals_choice1.png","1","animals","","horse","1","0"
"html-keyboard-response","222","801252","0.0-9.0-2.0-0.68","1416","1","2","""event"",""trial"",""time""
""fullscreenenter"",""1"",""3589""
","
","
","""event"",""trial"",""time""
""fullscreenenter"",""1"",""3589""
","
","","","","","","null","<div style=""font-size:60px;"">+</div>","null","","fixation","","","","","","","","","","","","","",""
"learning-trial","223","805259","0.0-9.0-2.0-1.68","1416","1","2","""event"",""trial"",""time""
""fullscreenenter"",""1"",""3589""
","
","
","""event"",""trial"",""time""
""fullscreenenter"",""1"",""3589""
","
","","","","","","1894.3999999985099","images/horse4.png","","","learning","images/animals_choice2.png","images/animals_choice1.png","images/animals_choice3.png","[1,0,2]","0","1","2","images/animals_choice1.png","1","animals","","horse","1","0"
"html-keyboard-response","224","805760","0.0-9.0-2.0-0.69","1416","1","2","""event"",""trial"",""time""
""fullscreenenter"",""1"",""3589""
","
","
","""event"",""trial"",""time""
""fullscreenenter"",""1"",""3589""
","
","","","","","","null","<div style=""font-size:60px;"">+</div>","null","","fixation","","","","","","","","","","","","","",""
"learning-trial","225","809766","0.0-9.0-2.0-1.69","1416","1","2","""event"",""trial"",""time""
""fullscreenenter"",""1"",""3589""
","
","
","""event"",""trial"",""time""
""fullscreenenter"",""1"",""3589""
","
","","","","","","1789.699999999255","images/goat1.png","","","learning","images/animals_choice1.png","images/animals_choice3.png","images/animals_choice2.png","[0,2,1]","2","1","2","images/animals_choice3.png","-1","animals","","goat","1","0"
"html-keyboard-response","226","810267","0.0-9.0-2.0-0.70","1416","1","2","""event"",""trial"",""time""
""fullscreenenter"",""1"",""3589""
","
","
","""event"",""trial"",""time""
""fullscreenenter"",""1"",""3589""
","
","","","","","","null","<div style=""font-size:60px;"">+</div>","null","","fixation","","","","","","","","","","","","","",""
"learning-trial","227","814273","0.0-9.0-2.0-1.70","1416","1","2","""event"",""trial"",""time""
""fullscreenenter"",""1"",""3589""
","
","
","""event"",""trial"",""time""
""fullscreenenter"",""1"",""3589""
","
","","","","","","1203.699999999255","images/goat1.png","","","learning","images/animals_choice3.png","images/animals_choice2.png","images/animals_choice1.png","[2,1,0]","2","0","1","images/animals_choice3.png","1","animals","","goat","1","0"
"html-keyboard-response","228","814775","0.0-9.0-2.0-0.71","1416","1","2","""event"",""trial"",""time""
""fullscreenenter"",""1"",""3589""
","
","
","""event"",""trial"",""time""
""fullscreenenter"",""1"",""3589""
","
","","","","","","null","<div style=""font-size:60px;"">+</div>","null","","fixation","","","","","","","","","","","","","",""
"learning-trial","229","818780","0.0-9.0-2.0-1.71","1416","1","2","""event"",""trial"",""time""
""fullscreenenter"",""1"",""3589""
","
","
","""event"",""trial"",""time""
""fullscreenenter"",""1"",""3589""
","
","","","","","","1486.300000000745","images/goat2.png","","","learning","images/animals_choice1.png","images/animals_choice2.png","images/animals_choice3.png","[0,1,2]","2","2","3","images/animals_choice3.png","1","animals","","goat","1","0"
"html-button-response","230","824558","0.0-9.0-3.0","1416","1","2","""event"",""trial"",""time""
""fullscreenenter"",""1"",""3589""
","
","
","""event"",""trial"",""time""
""fullscreenenter"",""1"",""3589""
","
","","","","","","5773.699999999255","<p> You have completed the round! <p> In this round, you earned 8 points! </p>","0","","break","","","","","","","","","","","","","",""
"html-button-response","231","825974","0.0-10.0","1416","1","2","""event"",""trial"",""time""
""fullscreenenter"",""1"",""3589""
","
","
","""event"",""trial"",""time""
""fullscreenenter"",""1"",""3589""
","
","","","","","","1414.800000000745","<p> Now it's time to play another round. </p>","0","","transition_screen","","","","","","","","","","","","","",""
"preload","232","828365","0.0-11.0-0.0","1416","1","2","""event"",""trial"",""time""
""fullscreenenter"",""1"",""3589""
","
","
","""event"",""trial"",""time""
""fullscreenenter"",""1"",""3589""
","
","true","false","[]","[]","[]","","","","","","","","","","","","","","","","","","",""
"learning-instructions","233","836421","0.0-11.0-1.0-0.0","1416","1","2","""event"",""trial"",""time""
""fullscreenenter"",""1"",""3589""
","
","
","""event"",""trial"",""time""
""fullscreenenter"",""1"",""3589""
","
","","","","","","1569","<p> Your goal in this round is to buy different types of fruits. </p><p> You will try to purchase many fruits from different stores. </p></div>","","0","instructions","","","","","","","","","","","","","",""
"learning-instructions","234","845714","0.0-11.0-1.0-0.1","1416","1","2","""event"",""trial"",""time""
""fullscreenenter"",""1"",""3589""
","
","
","""event"",""trial"",""time""
""fullscreenenter"",""1"",""3589""
","
","","","","","","799.1000000014901","<p> On each turn, you will see a picture of a fruit and three different stores.  </p><p> You need to select the store where you can buy that fruit.  </p>","","0","instructions","","","","","","","","","","","","","",""
"learning-instructions","235","853971","0.0-11.0-1.0-0.2","1416","1","2","""event"",""trial"",""time""
""fullscreenenter"",""1"",""3589""
","
","
","""event"",""trial"",""time""
""fullscreenenter"",""1"",""3589""
","
","","","","","","879.3000000007451","<p> You can select the store on the left by pressing 1, the store in the middle by pressing 2, and the store on the right by pressing 3. </p><br><div class=""choice-instructions-grid""> <div class=""choice-option""><img src=""images/fruit_choice1.png"" class=""choice-option-img"" stage=""instructions"" position=""0"" ><div class=""choice-option-text""> Press ""1."" </div></div><div class=""choice-option""><img src=""images/fruit_choice2.png"" class=""choice-option-img"" stage=""instructions"" position=""1"" ><div class=""choice-option-text""> Press ""2."" </div></div><div class=""choice-option""><img src=""images/fruit_choice3.png"" class=""choice-option-img"" stage=""instructions"" position=""2"" ><div class=""choice-option-text""> Press ""3."" </div></div></div>","","0","instructions","","","","","","","","","","","","","",""
