"trial_type","trial_index","time_elapsed","internal_node_id","subject_id","condition","task_version","interactions","blur_events","focus_events","fullscreenenter_events","fullscreenexit_events","success","timeout","failed_images","failed_audio","failed_video","rt","stimulus","response","button_pressed","task_part","left_choice","middle_choice","right_choice","choice_positions","correct_response","correct_position","key_press","option_selected","points","task_block","correct","stim_cat","block_condition","block_number"
"pavlovia","0","4","0.0-0.0","1731","2","2","""event"",""trial"",""time""
""fullscreenenter"",""1"",""4057""
","
","
","""event"",""trial"",""time""
""fullscreenenter"",""1"",""4057""
","
","","","","","","","","","","","","","","","","","","","","","","","",""
"fullscreen","1","5047","0.0-1.0","1731","2","2","""event"",""trial"",""time""
""fullscreenenter"",""1"",""4057""
","
","
","""event"",""trial"",""time""
""fullscreenenter"",""1"",""4057""
","
","true","","","","","","","","","","","","","","","","","","","","","","",""
"preload","2","17868","0.0-2.0","1731","2","2","""event"",""trial"",""time""
""fullscreenenter"",""1"",""4057""
","
","
","""event"",""trial"",""time""
""fullscreenenter"",""1"",""4057""
","
","true","false","[]","[]","[]","","","","","","","","","","","","","","","","","","",""
"audio-keyboard-response","3","23098","0.0-3.0","1731","2","2","""event"",""trial"",""time""
""fullscreenenter"",""1"",""4057""
","
","
","""event"",""trial"",""time""
""fullscreenenter"",""1"",""4057""
","
","","","","","","5229.333333333333","audio/beep_loop.wav"," ","","","","","","","","","","","","","","","",""
"audio-button-response","4","26718","0.0-4.0","1731","2","2","""event"",""trial"",""time""
""fullscreenenter"",""1"",""4057""
","
","
","""event"",""trial"",""time""
""fullscreenenter"",""1"",""4057""
","
","","","","","","3621","audio/shark.wav","4","","","","","","","","","","","","","","","",""
"audio-button-response","5","29895","0.0-5.0","1731","2","2","""event"",""trial"",""time""
""fullscreenenter"",""1"",""4057""
","
","
","""event"",""trial"",""time""
""fullscreenenter"",""1"",""4057""
","
","","","","","","2179","audio/turtle.wav","1","","","","","","","","","","","","","","","",""
"preload","6","45571","0.0-6.0","1731","2","2","""event"",""trial"",""time""
""fullscreenenter"",""1"",""4057""
","
","
","""event"",""trial"",""time""
""fullscreenenter"",""1"",""4057""
","
","true","false","[]","[]","[]","","","","","","","","","","","","","","","","","","",""
"html-keyboard-response","7","49558","0.0-7.0","1731","2","2","""event"",""trial"",""time""
""fullscreenenter"",""1"",""4057""
","
","
","""event"",""trial"",""time""
""fullscreenenter"",""1"",""4057""
","
","","","","","","3986.2999999523163","Welcome to the experiment. Press any key to begin and to advance the instructions."," ","","","","","","","","","","","","","","","",""
"learning-instructions","8","59075","0.0-8.0-0.0-0.0","1731","2","2","""event"",""trial"",""time""
""fullscreenenter"",""1"",""4057""
","
","
","""event"",""trial"",""time""
""fullscreenenter"",""1"",""4057""
","
","","","","","","1770.9000000953674","<p> Welcome! Today you are going to play 6 different rounds of a decision-making game. </p><p> Use the mouse to click next to continue. </p>","","0","instructions","","","","","","","","","","","","","",""
"learning-instructions","9","65504","0.0-8.0-0.0-0.1","1731","2","2","""event"",""trial"",""time""
""fullscreenenter"",""1"",""4057""
","
","
","""event"",""trial"",""time""
""fullscreenenter"",""1"",""4057""
","
","","","","","","3430.600000023842","<p> You will start with a practice round to learn the rules. </p>","","0","instructions","","","","","","","","","","","","","",""
"learning-instructions","10","74496","0.0-8.0-0.0-0.2","1731","2","2","""event"",""trial"",""time""
""fullscreenenter"",""1"",""4057""
","
","
","""event"",""trial"",""time""
""fullscreenenter"",""1"",""4057""
","
","","","","","","1242.6999999284744","<p> Your goal in this round is to deliver sports equipment to three different parks. </p><p> You will need to deliver many types of equipment. </p></div>","","0","instructions","","","","","","","","","","","","","",""
"learning-instructions","11","84078","0.0-8.0-0.0-0.3","1731","2","2","""event"",""trial"",""time""
""fullscreenenter"",""1"",""4057""
","
","
","""event"",""trial"",""time""
""fullscreenenter"",""1"",""4057""
","
","","","","","","1103.7000000476837","<p> On each turn, you will see one piece of sports equipment and three different parks.  </p><p> You need to select which park to deliver the equipment to.  </p>","","0","instructions","","","","","","","","","","","","","",""
"learning-instructions","12","99623","0.0-8.0-0.0-0.4","1731","2","2","""event"",""trial"",""time""
""fullscreenenter"",""1"",""4057""
","
","
","""event"",""trial"",""time""
""fullscreenenter"",""1"",""4057""
","
","","","","","","2268.399999976158","<p> You can select the park on the left by pressing the '1' key on your keyboard. <br>You can select the park in the middle by pressing the '2' key on your keyboard. <br>You can select the park on the right by pressing the '3' key on your keyboard.  </p><br><div class=""choice-instructions-grid""> <div class=""choice-option""><img src=""images/park1.png"" class=""choice-option-img"" stage=""instructions"" position=""0"" ><div class=""choice-option-text""> Press ""1."" </div></div><div class=""choice-option""><img src=""images/park2.png"" class=""choice-option-img"" stage=""instructions"" position=""1"" ><div class=""choice-option-text""> Press ""2."" </div></div><div class=""choice-option""><img src=""images/park3.png"" class=""choice-option-img"" stage=""instructions"" position=""2"" ><div class=""choice-option-text""> Press ""3."" </div></div></div>","","0","instructions","","","","","","","","","","","","","",""
"learning-instructions","13","107040","0.0-8.0-0.0-0.5","1731","2","2","""event"",""trial"",""time""
""fullscreenenter"",""1"",""4057""
","
","
","""event"",""trial"",""time""
""fullscreenenter"",""1"",""4057""
","
","","","","","","2035.5","<p> If the kids in the park you chose like the equipment, they will be very happy! </p><div style='float: center;'><img src='images/check.png' width = '200' height = '200'></img>","","0","instructions","","","","","","","","","","","","","",""
"learning-instructions","14","114785","0.0-8.0-0.0-0.6","1731","2","2","""event"",""trial"",""time""
""fullscreenenter"",""1"",""4057""
","
","
","""event"",""trial"",""time""
""fullscreenenter"",""1"",""4057""
","
","","","","","","2150.600000023842","<p> But, if the kids in the park you chose do not like the equipment, they will be sad. </p><div style='float: center;'><img src='images/x.png' width = '200' height = '200'></img>","","0","instructions","","","","","","","","","","","","","",""
"learning-instructions","15","122943","0.0-8.0-0.0-0.7","1731","2","2","""event"",""trial"",""time""
""fullscreenenter"",""1"",""4057""
","
","
","""event"",""trial"",""time""
""fullscreenenter"",""1"",""4057""
","
","","","","","","1718.1000000238419","<p> Importantly, the kids in each park like some pieces of sports equipment more than others. </p>","","0","instructions","","","","","","","","","","","","","",""
"learning-instructions","16","131161","0.0-8.0-0.0-0.8","1731","2","2","""event"",""trial"",""time""
""fullscreenenter"",""1"",""4057""
","
","
","""event"",""trial"",""time""
""fullscreenenter"",""1"",""4057""
","
","","","","","","2155.6999999284744","<p> If you choose the best park for each piece of equipment, the kids there will usually be happy. </p>","","0","instructions","","","","","","","","","","","","","",""
"learning-instructions","17","138850","0.0-8.0-0.0-0.9","1731","2","2","""event"",""trial"",""time""
""fullscreenenter"",""1"",""4057""
","
","
","""event"",""trial"",""time""
""fullscreenenter"",""1"",""4057""
","
","","","","","","1045.5","<p> However, even if you choose the best park for the equipment, the kids may sometimes be sad. </p>","","0","instructions","","","","","","","","","","","","","",""
"learning-instructions","18","147232","0.0-8.0-0.0-0.10","1731","2","2","""event"",""trial"",""time""
""fullscreenenter"",""1"",""4057""
","
","
","""event"",""trial"",""time""
""fullscreenenter"",""1"",""4057""
","
","","","","","","1156.5999999046326","<p> Similarly, even if you choose the <i>wrong</i> park for the equipment, the kids may still be happy sometimes.","","0","instructions","","","","","","","","","","","","","",""
"learning-instructions","19","153806","0.0-8.0-0.0-0.11","1731","2","2","""event"",""trial"",""time""
""fullscreenenter"",""1"",""4057""
","
","
","""event"",""trial"",""time""
""fullscreenenter"",""1"",""4057""
","
","","","","","","1521.3999999761581","<p> For example, the best park for this soccer ball is this one.<div style='float: center;'><img src='images/i1.png' width = '500' height = '268'></img>","","0","instructions","","","","","","","","","","","","","",""
"learning-instructions","20","161478","0.0-8.0-0.0-0.12","1731","2","2","""event"",""trial"",""time""
""fullscreenenter"",""1"",""4057""
","
","
","""event"",""trial"",""time""
""fullscreenenter"",""1"",""4057""
","
","","","","","","2371.7000000476837","<p> Let's see what happens if you choose this park for the soccer ball five times.","","0","instructions","","","","","","","","","","","","","",""
"learning-instructions","21","165121","0.0-8.0-0.0-0.13","1731","2","2","""event"",""trial"",""time""
""fullscreenenter"",""1"",""4057""
","
","
","""event"",""trial"",""time""
""fullscreenenter"",""1"",""4057""
","
","","","","","","1484.7000000476837","<p> The kids are happy.<div style='float: left;'><img src='images/i2.png' width = '640' height = '360'></img>","","0","instructions","","","","","","","","","","","","","",""
"learning-instructions","22","168359","0.0-8.0-0.0-0.14","1731","2","2","""event"",""trial"",""time""
""fullscreenenter"",""1"",""4057""
","
","
","""event"",""trial"",""time""
""fullscreenenter"",""1"",""4057""
","
","","","","","","1073","<p> The kids are happy.<div style='float: left;'><img src='images/i3.png' width = '640' height = '360'></img>","","0","instructions","","","","","","","","","","","","","",""
"learning-instructions","23","171317","0.0-8.0-0.0-0.15","1731","2","2","""event"",""trial"",""time""
""fullscreenenter"",""1"",""4057""
","
","
","""event"",""trial"",""time""
""fullscreenenter"",""1"",""4057""
","
","","","","","","791.1000000238419","<p> The kids are happy.<div style='float: left;'><img src='images/i4.png' width = '640' height = '360'></img>","","0","instructions","","","","","","","","","","","","","",""
"learning-instructions","24","174570","0.0-8.0-0.0-0.16","1731","2","2","""event"",""trial"",""time""
""fullscreenenter"",""1"",""4057""
","
","
","""event"",""trial"",""time""
""fullscreenenter"",""1"",""4057""
","
","","","","","","1054","<p> The kids are sad.<div style='float: left;'><img src='images/i5.png' width = '640' height = '360'></img>","","0","instructions","","","","","","","","","","","","","",""
"learning-instructions","25","177966","0.0-8.0-0.0-0.17","1731","2","2","""event"",""trial"",""time""
""fullscreenenter"",""1"",""4057""
","
","
","""event"",""trial"",""time""
""fullscreenenter"",""1"",""4057""
","
","","","","","","1219.7999999523163","<p> The kids are happy.<div style='float: left;'><img src='images/i6.png' width = '640' height = '360'></img>","","0","instructions","","","","","","","","","","","","","",""
"learning-instructions","26","186010","0.0-8.0-0.0-0.18","1731","2","2","""event"",""trial"",""time""
""fullscreenenter"",""1"",""4057""
","
","
","""event"",""trial"",""time""
""fullscreenenter"",""1"",""4057""
","
","","","","","","764.1000000238419","<p> As you can see, selecting that park for the soccer ball made the kids happy most of the time, but not all the time.","","0","instructions","","","","","","","","","","","","","",""
"learning-instructions","27","192529","0.0-8.0-0.0-0.19","1731","2","2","""event"",""trial"",""time""
""fullscreenenter"",""1"",""4057""
","
","
","""event"",""trial"",""time""
""fullscreenenter"",""1"",""4057""
","
","","","","","","513","<p> Now let's see what happens if you choose a DIFFERENT park for the soccer ball 5 times.","","0","instructions","","","","","","","","","","","","","",""
"learning-instructions","28","196007","0.0-8.0-0.0-0.20","1731","2","2","""event"",""trial"",""time""
""fullscreenenter"",""1"",""4057""
","
","
","""event"",""trial"",""time""
""fullscreenenter"",""1"",""4057""
","
","","","","","","1260.5","<p> The kids are sad.<div style='float: left;'><img src='images/i7.png' width = '640' height = '360'></img>","","0","instructions","","","","","","","","","","","","","",""
"learning-instructions","29","199102","0.0-8.0-0.0-0.21","1731","2","2","""event"",""trial"",""time""
""fullscreenenter"",""1"",""4057""
","
","
","""event"",""trial"",""time""
""fullscreenenter"",""1"",""4057""
","
","","","","","","896","<p> The kids are sad.<div style='float: left;'><img src='images/i8.png' width = '640' height = '360'></img>","","0","instructions","","","","","","","","","","","","","",""
"learning-instructions","30","202170","0.0-8.0-0.0-0.22","1731","2","2","""event"",""trial"",""time""
""fullscreenenter"",""1"",""4057""
","
","
","""event"",""trial"",""time""
""fullscreenenter"",""1"",""4057""
","
","","","","","","893.6999999284744","<p> The kids are happy.<div style='float: left;'><img src='images/i9.png' width = '640' height = '360'></img>","","0","instructions","","","","","","","","","","","","","",""
"learning-instructions","31","205252","0.0-8.0-0.0-0.23","1731","2","2","""event"",""trial"",""time""
""fullscreenenter"",""1"",""4057""
","
","
","""event"",""trial"",""time""
""fullscreenenter"",""1"",""4057""
","
","","","","","","865.7000000476837","<p> The kids are sad.<div style='float: left;'><img src='images/i10.png' width = '640' height = '360'></img>","","0","instructions","","","","","","","","","","","","","",""
"learning-instructions","32","209756","0.0-8.0-0.0-0.24","1731","2","2","""event"",""trial"",""time""
""fullscreenenter"",""1"",""4057""
","
","
","""event"",""trial"",""time""
""fullscreenenter"",""1"",""4057""
","
","","","","","","2289.5","<p> The kids are sad.<div style='float: left;'><img src='images/i11.png' width = '640' height = '360'></img>","","0","instructions","","","","","","","","","","","","","",""
"learning-instructions","33","219213","0.0-8.0-0.0-0.25","1731","2","2","""event"",""trial"",""time""
""fullscreenenter"",""1"",""4057""
","
","
","""event"",""trial"",""time""
""fullscreenenter"",""1"",""4057""
","
","","","","","","1337.1999999284744","<p> As you can see, selecting the wrong park for the soccer ball made the kids sad most of the time, but not all the time.","","0","instructions","","","","","","","","","","","","","",""
"learning-instructions","34","230869","0.0-8.0-0.0-0.26","1731","2","2","""event"",""trial"",""time""
""fullscreenenter"",""1"",""4057""
","
","
","""event"",""trial"",""time""
""fullscreenenter"",""1"",""4057""
","
","","","","","","2532","<p> The different pieces of equipment belong in different parks. You need to try to learn which is the best park for each piece of equipment.","","0","instructions","","","","","","","","","","","","","",""
"learning-instructions","35","248446","0.0-8.0-0.0-0.27","1731","2","2","""event"",""trial"",""time""
""fullscreenenter"",""1"",""4057""
","
","
","""event"",""trial"",""time""
""fullscreenenter"",""1"",""4057""
","
","","","","","","1180.1000000238419","<p> Try to choose the best park for each piece of equipment, because you will <b> WIN </b> 1 point for each time you make the kids happy and <b>LOSE</b> 1 point for each time you make them sad. </p><p> Remember, if you make the best choice, you will win 1 point most of the time, but not all the time. </p>","","0","instructions","","","","","","","","","","","","","",""
"learning-instructions","36","255904","0.0-8.0-0.0-0.28","1731","2","2","""event"",""trial"",""time""
""fullscreenenter"",""1"",""4057""
","
","
","""event"",""trial"",""time""
""fullscreenenter"",""1"",""4057""
","
","","","","","","1977.8000000715256","<p> This is just a practice round, but in the real game, your bonus payment will depend on your total number of points.","","0","instructions","","","","","","","","","","","","","",""
"learning-instructions","37","267441","0.0-8.0-0.0-0.29","1731","2","2","""event"",""trial"",""time""
""fullscreenenter"",""1"",""4057""
","
","
","""event"",""trial"",""time""
""fullscreenenter"",""1"",""4057""
","
","","","","","","1214.8999999761581","<p> The position where each park appears will change throughout the game. </p><p> The position where the park appears <i> does not </i> influence how likely the kids are to be happy or sad. </p>","","0","instructions","","","","","","","","","","","","","",""
"learning-instructions","38","281299","0.0-8.0-0.0-0.30","1731","2","2","""event"",""trial"",""time""
""fullscreenenter"",""1"",""4057""
","
","
","""event"",""trial"",""time""
""fullscreenenter"",""1"",""4057""
","
","","","","","","1143","<p> You will have 4 seconds to make each choice. Try to respond before time runs out! </p><p> You will lose 1 point each time you do not make a response. </p>","","0","instructions","","","","","","","","","","","","","",""
"learning-instructions","39","290305","0.0-8.0-0.0-0.31","1731","2","2","""event"",""trial"",""time""
""fullscreenenter"",""1"",""4057""
","
","
","""event"",""trial"",""time""
""fullscreenenter"",""1"",""4057""
","
","","","","","","2207.899999976158","<p> Remember, you should use the 1, 2, and 3 keys to select the park for each piece of equipment. </p><br><div class=""choice-instructions-grid""> <div class=""choice-option""><img src=""images/park1.png"" class=""choice-option-img"" stage=""instructions"" position=""0"" ><div class=""choice-option-text""> Press ""1."" </div></div><div class=""choice-option""><img src=""images/park2.png"" class=""choice-option-img"" stage=""instructions"" position=""1"" ><div class=""choice-option-text""> Press ""2."" </div></div><div class=""choice-option""><img src=""images/park3.png"" class=""choice-option-img"" stage=""instructions"" position=""2"" ><div class=""choice-option-text""> Press ""3."" </div></div></div>","","0","instructions","","","","","","","","","","","","","",""
"html-button-response","40","291934","0.0-8.0-1.0","1731","2","2","""event"",""trial"",""time""
""fullscreenenter"",""1"",""4057""
","
","
","""event"",""trial"",""time""
""fullscreenenter"",""1"",""4057""
","
","","","","","","1520.3999999761581","<p> Ready to practice? </p>","0","","","","","","","","","","","","","","","",""
"html-keyboard-response","41","292552","0.0-8.0-2.0-0.0","1731","2","2","""event"",""trial"",""time""
""fullscreenenter"",""1"",""4057""
","
","
","""event"",""trial"",""time""
""fullscreenenter"",""1"",""4057""
","
","","","","","","null","<div style=""font-size:60px;"">+</div>","null","","fixation","","","","","","","","","","","","","",""
"learning-trial","42","296562","0.0-8.0-2.0-1.0","1731","2","2","""event"",""trial"",""time""
""fullscreenenter"",""1"",""4057""
","
","
","""event"",""trial"",""time""
""fullscreenenter"",""1"",""4057""
","
","","","","","","3804","images/ball4.png","","","practice","images/park3.png","images/park2.png","images/park1.png","[2,1,0]","0","2","3","images/park1.png","1","practice","","","",""
"html-keyboard-response","43","297063","0.0-8.0-2.0-0.1","1731","2","2","""event"",""trial"",""time""
""fullscreenenter"",""1"",""4057""
","
","
","""event"",""trial"",""time""
""fullscreenenter"",""1"",""4057""
","
","","","","","","null","<div style=""font-size:60px;"">+</div>","null","","fixation","","","","","","","","","","","","","",""
"learning-trial","44","301065","0.0-8.0-2.0-1.1","1731","2","2","""event"",""trial"",""time""
""fullscreenenter"",""1"",""4057""
","
","
","""event"",""trial"",""time""
""fullscreenenter"",""1"",""4057""
","
","","","","","","3534","images/racket1.png","","","practice","images/park2.png","images/park1.png","images/park3.png","[1,0,2]","1","0","1","images/park2.png","1","practice","","","",""
"html-keyboard-response","45","301578","0.0-8.0-2.0-0.2","1731","2","2","""event"",""trial"",""time""
""fullscreenenter"",""1"",""4057""
","
","
","""event"",""trial"",""time""
""fullscreenenter"",""1"",""4057""
","
","","","","","","null","<div style=""font-size:60px;"">+</div>","null","","fixation","","","","","","","","","","","","","",""
"learning-trial","46","305581","0.0-8.0-2.0-1.2","1731","2","2","""event"",""trial"",""time""
""fullscreenenter"",""1"",""4057""
","
","
","""event"",""trial"",""time""
""fullscreenenter"",""1"",""4057""
","
","","","","","","3028.7000000476837","images/racket2.png","","","practice","images/park1.png","images/park3.png","images/park2.png","[0,2,1]","2","1","2","images/park3.png","1","practice","","","",""
"html-keyboard-response","47","306082","0.0-8.0-2.0-0.3","1731","2","2","""event"",""trial"",""time""
""fullscreenenter"",""1"",""4057""
","
","
","""event"",""trial"",""time""
""fullscreenenter"",""1"",""4057""
","
","","","","","","null","<div style=""font-size:60px;"">+</div>","null","","fixation","","","","","","","","","","","","","",""
"learning-trial","48","310090","0.0-8.0-2.0-1.3","1731","2","2","""event"",""trial"",""time""
""fullscreenenter"",""1"",""4057""
","
","
","""event"",""trial"",""time""
""fullscreenenter"",""1"",""4057""
","
","","","","","","null","images/ball2.png","","","practice","images/park2.png","images/park3.png","images/park1.png","[1,2,0]","1","0","null","null","-1","practice","","","",""
"html-keyboard-response","49","310600","0.0-8.0-2.0-0.4","1731","2","2","""event"",""trial"",""time""
""fullscreenenter"",""1"",""4057""
","
","
","""event"",""trial"",""time""
""fullscreenenter"",""1"",""4057""
","
","","","","","","null","<div style=""font-size:60px;"">+</div>","null","","fixation","","","","","","","","","","","","","",""
"learning-trial","50","314618","0.0-8.0-2.0-1.4","1731","2","2","""event"",""trial"",""time""
""fullscreenenter"",""1"",""4057""
","
","
","""event"",""trial"",""time""
""fullscreenenter"",""1"",""4057""
","
","","","","","","3036.100000023842","images/ball3.png","","","practice","images/park2.png","images/park1.png","images/park3.png","[1,0,2]","0","1","3","images/park3.png","1","practice","","","",""
"html-keyboard-response","51","315130","0.0-8.0-2.0-0.5","1731","2","2","""event"",""trial"",""time""
""fullscreenenter"",""1"",""4057""
","
","
","""event"",""trial"",""time""
""fullscreenenter"",""1"",""4057""
","
","","","","","","null","<div style=""font-size:60px;"">+</div>","null","","fixation","","","","","","","","","","","","","",""
"learning-trial","52","319133","0.0-8.0-2.0-1.5","1731","2","2","""event"",""trial"",""time""
""fullscreenenter"",""1"",""4057""
","
","
","""event"",""trial"",""time""
""fullscreenenter"",""1"",""4057""
","
","","","","","","2686.5","images/racket1.png","","","practice","images/park1.png","images/park2.png","images/park3.png","[0,1,2]","1","1","3","images/park3.png","-1","practice","","","",""
"html-keyboard-response","53","319634","0.0-8.0-2.0-0.6","1731","2","2","""event"",""trial"",""time""
""fullscreenenter"",""1"",""4057""
","
","
","""event"",""trial"",""time""
""fullscreenenter"",""1"",""4057""
","
","","","","","","null","<div style=""font-size:60px;"">+</div>","null","","fixation","","","","","","","","","","","","","",""
"learning-trial","54","323639","0.0-8.0-2.0-1.6","1731","2","2","""event"",""trial"",""time""
""fullscreenenter"",""1"",""4057""
","
","
","""event"",""trial"",""time""
""fullscreenenter"",""1"",""4057""
","
","","","","","","3301.899999976158","images/ball1.png","","","practice","images/park3.png","images/park2.png","images/park1.png","[2,1,0]","2","0","3","images/park1.png","-1","practice","","","",""
"html-keyboard-response","55","324141","0.0-8.0-2.0-0.7","1731","2","2","""event"",""trial"",""time""
""fullscreenenter"",""1"",""4057""
","
","
","""event"",""trial"",""time""
""fullscreenenter"",""1"",""4057""
","
","","","","","","null","<div style=""font-size:60px;"">+</div>","null","","fixation","","","","","","","","","","","","","",""
"learning-trial","56","328144","0.0-8.0-2.0-1.7","1731","2","2","""event"",""trial"",""time""
""fullscreenenter"",""1"",""4057""
","
","
","""event"",""trial"",""time""
""fullscreenenter"",""1"",""4057""
","
","","","","","","2555.600000023842","images/racket2.png","","","practice","images/park3.png","images/park1.png","images/park2.png","[2,0,1]","2","0","2","images/park1.png","-1","practice","","","",""
"html-keyboard-response","57","328646","0.0-8.0-2.0-0.8","1731","2","2","""event"",""trial"",""time""
""fullscreenenter"",""1"",""4057""
","
","
","""event"",""trial"",""time""
""fullscreenenter"",""1"",""4057""
","
","","","","","","null","<div style=""font-size:60px;"">+</div>","null","","fixation","","","","","","","","","","","","","",""
"learning-trial","58","332649","0.0-8.0-2.0-1.8","1731","2","2","""event"",""trial"",""time""
""fullscreenenter"",""1"",""4057""
","
","
","""event"",""trial"",""time""
""fullscreenenter"",""1"",""4057""
","
","","","","","","1721.1999999284744","images/ball2.png","","","practice","images/park2.png","images/park3.png","images/park1.png","[1,2,0]","1","0","1","images/park2.png","1","practice","","","",""
"html-keyboard-response","59","333151","0.0-8.0-2.0-0.9","1731","2","2","""event"",""trial"",""time""
""fullscreenenter"",""1"",""4057""
","
","
","""event"",""trial"",""time""
""fullscreenenter"",""1"",""4057""
","
","","","","","","null","<div style=""font-size:60px;"">+</div>","null","","fixation","","","","","","","","","","","","","",""
"learning-trial","60","337155","0.0-8.0-2.0-1.9","1731","2","2","""event"",""trial"",""time""
""fullscreenenter"",""1"",""4057""
","
","
","""event"",""trial"",""time""
""fullscreenenter"",""1"",""4057""
","
","","","","","","2634.7999999523163","images/ball1.png","","","practice","images/park3.png","images/park1.png","images/park2.png","[2,0,1]","2","0","2","images/park1.png","1","practice","","","",""
"html-keyboard-response","61","337660","0.0-8.0-2.0-0.10","1731","2","2","""event"",""trial"",""time""
""fullscreenenter"",""1"",""4057""
","
","
","""event"",""trial"",""time""
""fullscreenenter"",""1"",""4057""
","
","","","","","","null","<div style=""font-size:60px;"">+</div>","null","","fixation","","","","","","","","","","","","","",""
"learning-trial","62","341663","0.0-8.0-2.0-1.10","1731","2","2","""event"",""trial"",""time""
""fullscreenenter"",""1"",""4057""
","
","
","""event"",""trial"",""time""
""fullscreenenter"",""1"",""4057""
","
","","","","","","2987.3000000715256","images/ball4.png","","","practice","images/park1.png","images/park3.png","images/park2.png","[0,2,1]","0","0","1","images/park1.png","1","practice","","","",""
"html-keyboard-response","63","342166","0.0-8.0-2.0-0.11","1731","2","2","""event"",""trial"",""time""
""fullscreenenter"",""1"",""4057""
","
","
","""event"",""trial"",""time""
""fullscreenenter"",""1"",""4057""
","
","","","","","","null","<div style=""font-size:60px;"">+</div>","null","","fixation","","","","","","","","","","","","","",""
"learning-trial","64","346170","0.0-8.0-2.0-1.11","1731","2","2","""event"",""trial"",""time""
""fullscreenenter"",""1"",""4057""
","
","
","""event"",""trial"",""time""
""fullscreenenter"",""1"",""4057""
","
","","","","","","2460","images/ball3.png","","","practice","images/park3.png","images/park2.png","images/park1.png","[2,1,0]","0","2","3","images/park1.png","1","practice","","","",""
"html-button-response","65","349891","0.0-8.0-3.0","1731","2","2","""event"",""trial"",""time""
""fullscreenenter"",""1"",""4057""
","
","
","""event"",""trial"",""time""
""fullscreenenter"",""1"",""4057""
","
","","","","","","3718.2000000476837","<p> You earned 4 points in the practice round! </p>","0","","break","","","","","","","","","","","","","",""
"learning-instructions","66","362890","0.0-8.0-4.0-0.0","1731","2","2","""event"",""trial"",""time""
""fullscreenenter"",""1"",""4057""
","
","
","""event"",""trial"",""time""
""fullscreenenter"",""1"",""4057""
","
","","","","","","5002.5","<p> It's almost time to start the real game. </p><p> Before you start, we're going to ask you a few questions about how the game works. </p>","","0","instructions","","","","","","","","","","","","","",""
"preload","67","369579","0.0-8.0-5.0","1731","2","2","""event"",""trial"",""time""
""fullscreenenter"",""1"",""4057""
","
","
","""event"",""trial"",""time""
""fullscreenenter"",""1"",""4057""
","
","true","false","[]","[]","[]","","","","","","","","","","","","","","","","","","",""
"comp-q","68","377401","0.0-8.0-6.0-0.0","1731","2","2","""event"",""trial"",""time""
""fullscreenenter"",""1"",""4057""
","
","
","""event"",""trial"",""time""
""fullscreenenter"",""1"",""4057""
","
","","","","","","2373","<p> <b> True or False? </b> </p><p> If you choose the best option, you will always earn 1 point. </p>","","1","comp_question","","","","","","","","","","","true","","",""
"comp-q","69","385259","0.0-8.0-6.0-1.0","1731","2","2","""event"",""trial"",""time""
""fullscreenenter"",""1"",""4057""
","
","
","""event"",""trial"",""time""
""fullscreenenter"",""1"",""4057""
","
","","","","","","2191.100000023842","<p><b> That's right! </b> Sometimes you will lose 1 point, even if you choose the best option. </p>","","0","comp_answer","","","","","","","","","","","","","",""
"comp-q","70","390702","0.0-8.0-6.0-0.1","1731","2","2","""event"",""trial"",""time""
""fullscreenenter"",""1"",""4057""
","
","
","""event"",""trial"",""time""
""fullscreenenter"",""1"",""4057""
","
","","","","","","804.5","<p> <b> True or False? </b> </p><p> You will have as much time as you want to make each choice. </p>","","1","comp_question","","","","","","","","","","","true","","",""
"comp-q","71","397003","0.0-8.0-6.0-1.1","1731","2","2","""event"",""trial"",""time""
""fullscreenenter"",""1"",""4057""
","
","
","""event"",""trial"",""time""
""fullscreenenter"",""1"",""4057""
","
","","","","","","1485","<p> <b> That's right! </b> You will only have 4 seconds to make each choice. </p>","","0","comp_answer","","","","","","","","","","","","","",""
"comp-q","72","406249","0.0-8.0-6.0-0.2","1731","2","2","""event"",""trial"",""time""
""fullscreenenter"",""1"",""4057""
","
","
","""event"",""trial"",""time""
""fullscreenenter"",""1"",""4057""
","
","","","","","","3081.2000000476837","<p> <b> True or False? </b> </p><p> You should use the '1', '2', and '3' keys to make your choices. </p>","","0","comp_question","","","","","","","","","","","true","","",""
"comp-q","73","412878","0.0-8.0-6.0-1.2","1731","2","2","""event"",""trial"",""time""
""fullscreenenter"",""1"",""4057""
","
","
","""event"",""trial"",""time""
""fullscreenenter"",""1"",""4057""
","
","","","","","","1789.8999999761581","<p> <b> That's right! </b> You should use the '1', '2', and '3' keys to make each choice. </p>","","0","comp_answer","","","","","","","","","","","","","",""
"learning-instructions","74","433231","0.0-8.0-7.0-0.0","1731","2","2","""event"",""trial"",""time""
""fullscreenenter"",""1"",""4057""
","
","
","""event"",""trial"",""time""
""fullscreenenter"",""1"",""4057""
","
","","","","","","11863.299999952316","<p> It's now time to start the real game. </p>Do your best, because the points you earn in the next rounds will influence your bonus payment. </p>","","0","instructions","","","","","","","","","","","","","",""
"preload","75","448622","0.0-9.0-0.0","1731","2","2","""event"",""trial"",""time""
""fullscreenenter"",""1"",""4057""
","
","
","""event"",""trial"",""time""
""fullscreenenter"",""1"",""4057""
","
","true","false","[]","[]","[]","","","","","","","","","","","","","","","","","","",""
"learning-instructions","76","462462","0.0-9.0-1.0-0.0","1731","2","2","""event"",""trial"",""time""
""fullscreenenter"",""1"",""4057""
","
","
","""event"",""trial"",""time""
""fullscreenenter"",""1"",""4057""
","
","","","","","","5513.199999928474","<p> Your goal in this round is to travel the world by putting fuel into different vehicles. </p><p> To travel, you will need to put fuel into many different vehicles. </p></div>","","0","instructions","","","","","","","","","","","","","",""
"learning-instructions","77","475441","0.0-9.0-1.0-0.1","1731","2","2","""event"",""trial"",""time""
""fullscreenenter"",""1"",""4057""
","
","
","""event"",""trial"",""time""
""fullscreenenter"",""1"",""4057""
","
","","","","","","4192","<p> On each turn, you will see a picture of one of your vehicles and three different types of fuel.  </p><p> You need to select which kind of fuel to use.  </p>","","0","instructions","","","","","","","","","","","","","",""
"learning-instructions","78","483317","0.0-9.0-1.0-0.2","1731","2","2","""event"",""trial"",""time""
""fullscreenenter"",""1"",""4057""
","
","
","""event"",""trial"",""time""
""fullscreenenter"",""1"",""4057""
","
","","","","","","997.8999999761581","<p> You can select the fuel on the left by pressing 1, the fuel in the middle by pressing 2, and the fuel on the right by pressing 3. </p><br><div class=""choice-instructions-grid""> <div class=""choice-option""><img src=""images/vehicles_choice1.png"" class=""choice-option-img"" stage=""instructions"" position=""0"" ><div class=""choice-option-text""> Press ""1."" </div></div><div class=""choice-option""><img src=""images/vehicles_choice2.png"" class=""choice-option-img"" stage=""instructions"" position=""1"" ><div class=""choice-option-text""> Press ""2."" </div></div><div class=""choice-option""><img src=""images/vehicles_choice3.png"" class=""choice-option-img"" stage=""instructions"" position=""2"" ><div class=""choice-option-text""> Press ""3."" </div></div></div>","","0","instructions","","","","","","","","","","","","","",""
"learning-instructions","79","489467","0.0-9.0-1.0-0.3","1731","2","2","""event"",""trial"",""time""
""fullscreenenter"",""1"",""4057""
","
","
","""event"",""trial"",""time""
""fullscreenenter"",""1"",""4057""
","
","","","","","","918","<p> If the fuel you chose works for that vehicle, it will start, and </p><p> you will get to travel. </p><div style='float: center;'><img src='images/check.png' width = '200' height = '200'></img>","","0","instructions","","","","","","","","","","","","","",""
"learning-instructions","80","494782","0.0-9.0-1.0-0.4","1731","2","2","""event"",""trial"",""time""
""fullscreenenter"",""1"",""4057""
","
","
","""event"",""trial"",""time""
""fullscreenenter"",""1"",""4057""
","
","","","","","","773.1000000238419","<p> But, if the fuel you chose does not work, your vehicle will not move. </p><div style='float: center;'><img src='images/x.png' width = '200' height = '200'></img>","","0","instructions","","","","","","","","","","","","","",""
"learning-instructions","81","506635","0.0-9.0-1.0-0.5","1731","2","2","""event"",""trial"",""time""
""fullscreenenter"",""1"",""4057""
","
","
","""event"",""trial"",""time""
""fullscreenenter"",""1"",""4057""
","
","","","","","","1166.6999999284744","<p> Importantly, each vehicle has a fuel that works best for it. </p><p> If you choose the fuel that works best for the vehicle, it will be more likely to start. </p>","","0","instructions","","","","","","","","","","","","","",""
"learning-instructions","82","517483","0.0-9.0-1.0-0.6","1731","2","2","""event"",""trial"",""time""
""fullscreenenter"",""1"",""4057""
","
","
","""event"",""trial"",""time""
""fullscreenenter"",""1"",""4057""
","
","","","","","","644.6000000238419","<p> However, even if you choose the best fuel for the vehicle, it may still not move. </p><p> Similarly, even if you choose the <i>wrong</i> fuel, the vehicle may still start and let you travel.","","0","instructions","","","","","","","","","","","","","",""
"learning-instructions","83","530646","0.0-9.0-1.0-0.7","1731","2","2","""event"",""trial"",""time""
""fullscreenenter"",""1"",""4057""
","
","
","""event"",""trial"",""time""
""fullscreenenter"",""1"",""4057""
","
","","","","","","797.5","<p> Try to choose the best fuel for each vehicle, because you will <b> WIN </b> 1 point each time you get to travel and <b>LOSE</b> 1 point each time a vehicle does not start. </p><p> Your bonus payment will depend on your total number of points.","","0","instructions","","","","","","","","","","","","","",""
"learning-instructions","84","540077","0.0-9.0-1.0-0.8","1731","2","2","""event"",""trial"",""time""
""fullscreenenter"",""1"",""4057""
","
","
","""event"",""trial"",""time""
""fullscreenenter"",""1"",""4057""
","
","","","","","","1178.1000000238419","<p> The position of each type of fuel will change throughout the round. </p><p> The fuel's position <i> does not </i> influence how likely it is to make each vehicle start. </p>","","0","instructions","","","","","","","","","","","","","",""
"learning-instructions","85","551184","0.0-9.0-1.0-0.9","1731","2","2","""event"",""trial"",""time""
""fullscreenenter"",""1"",""4057""
","
","
","""event"",""trial"",""time""
""fullscreenenter"",""1"",""4057""
","
","","","","","","1815","<p> You will have 4 seconds to make each choice. Try to respond before time runs out! </p><p> You will lose 1 point each time you do not make a response. </p>","","0","instructions","","","","","","","","","","","","","",""
"html-keyboard-response","86","551791","0.0-9.0-2.0-0.0","1731","2","2","""event"",""trial"",""time""
""fullscreenenter"",""1"",""4057""
","
","
","""event"",""trial"",""time""
""fullscreenenter"",""1"",""4057""
","
","","","","","","null","<div style=""font-size:60px;"">+</div>","null","","fixation","","","","","","","","","","","","","",""
"learning-trial","87","555799","0.0-9.0-2.0-1.0","1731","2","2","""event"",""trial"",""time""
""fullscreenenter"",""1"",""4057""
","
","
","""event"",""trial"",""time""
""fullscreenenter"",""1"",""4057""
","
","","","","","","3746.5","images/plane3.png","","","learning","images/vehicles_choice3.png","images/vehicles_choice1.png","images/vehicles_choice2.png","[2,0,1]","2","0","2","images/vehicles_choice1.png","-1","vehicles","","plane","2","0"
"html-keyboard-response","88","556301","0.0-9.0-2.0-0.1","1731","2","2","""event"",""trial"",""time""
""fullscreenenter"",""1"",""4057""
","
","
","""event"",""trial"",""time""
""fullscreenenter"",""1"",""4057""
","
","","","","","","null","<div style=""font-size:60px;"">+</div>","null","","fixation","","","","","","","","","","","","","",""
"learning-trial","89","560307","0.0-9.0-2.0-1.1","1731","2","2","""event"",""trial"",""time""
""fullscreenenter"",""1"",""4057""
","
","
","""event"",""trial"",""time""
""fullscreenenter"",""1"",""4057""
","
","","","","","","2717","images/train2.png","","","learning","images/vehicles_choice3.png","images/vehicles_choice2.png","images/vehicles_choice1.png","[2,1,0]","0","2","2","images/vehicles_choice2.png","-1","vehicles","","train","2","0"
"html-keyboard-response","90","560817","0.0-9.0-2.0-0.2","1731","2","2","""event"",""trial"",""time""
""fullscreenenter"",""1"",""4057""
","
","
","""event"",""trial"",""time""
""fullscreenenter"",""1"",""4057""
","
","","","","","","null","<div style=""font-size:60px;"">+</div>","null","","fixation","","","","","","","","","","","","","",""
"learning-trial","91","564822","0.0-9.0-2.0-1.2","1731","2","2","""event"",""trial"",""time""
""fullscreenenter"",""1"",""4057""
","
","
","""event"",""trial"",""time""
""fullscreenenter"",""1"",""4057""
","
","","","","","","2191.7000000476837","images/truck4.png","","","learning","images/vehicles_choice1.png","images/vehicles_choice2.png","images/vehicles_choice3.png","[0,1,2]","0","0","1","images/vehicles_choice1.png","1","vehicles","","truck","2","0"
"html-keyboard-response","92","565334","0.0-9.0-2.0-0.3","1731","2","2","""event"",""trial"",""time""
""fullscreenenter"",""1"",""4057""
","
","
","""event"",""trial"",""time""
""fullscreenenter"",""1"",""4057""
","
","","","","","","null","<div style=""font-size:60px;"">+</div>","null","","fixation","","","","","","","","","","","","","",""
"learning-trial","93","569348","0.0-9.0-2.0-1.3","1731","2","2","""event"",""trial"",""time""
""fullscreenenter"",""1"",""4057""
","
","
","""event"",""trial"",""time""
""fullscreenenter"",""1"",""4057""
","
","","","","","","1363.7999999523163","images/plane5.png","","","learning","images/vehicles_choice3.png","images/vehicles_choice1.png","images/vehicles_choice2.png","[2,0,1]","1","2","2","images/vehicles_choice1.png","-1","vehicles","","plane","2","0"
"html-keyboard-response","94","569855","0.0-9.0-2.0-0.4","1731","2","2","""event"",""trial"",""time""
""fullscreenenter"",""1"",""4057""
","
","
","""event"",""trial"",""time""
""fullscreenenter"",""1"",""4057""
","
","","","","","","null","<div style=""font-size:60px;"">+</div>","null","","fixation","","","","","","","","","","","","","",""
"learning-trial","95","573861","0.0-9.0-2.0-1.4","1731","2","2","""event"",""trial"",""time""
""fullscreenenter"",""1"",""4057""
","
","
","""event"",""trial"",""time""
""fullscreenenter"",""1"",""4057""
","
","","","","","","2033.3999999761581","images/train4.png","","","learning","images/vehicles_choice3.png","images/vehicles_choice1.png","images/vehicles_choice2.png","[2,0,1]","2","0","1","images/vehicles_choice3.png","1","vehicles","","train","2","0"
"html-keyboard-response","96","574369","0.0-9.0-2.0-0.5","1731","2","2","""event"",""trial"",""time""
""fullscreenenter"",""1"",""4057""
","
","
","""event"",""trial"",""time""
""fullscreenenter"",""1"",""4057""
","
","","","","","","null","<div style=""font-size:60px;"">+</div>","null","","fixation","","","","","","","","","","","","","",""
"learning-trial","97","578385","0.0-9.0-2.0-1.5","1731","2","2","""event"",""trial"",""time""
""fullscreenenter"",""1"",""4057""
","
","
","""event"",""trial"",""time""
""fullscreenenter"",""1"",""4057""
","
","","","","","","1959.1999999284744","images/plane3.png","","","learning","images/vehicles_choice1.png","images/vehicles_choice2.png","images/vehicles_choice3.png","[0,1,2]","2","2","3","images/vehicles_choice3.png","1","vehicles","","plane","2","0"
"html-keyboard-response","98","578895","0.0-9.0-2.0-0.6","1731","2","2","""event"",""trial"",""time""
""fullscreenenter"",""1"",""4057""
","
","
","""event"",""trial"",""time""
""fullscreenenter"",""1"",""4057""
","
","","","","","","null","<div style=""font-size:60px;"">+</div>","null","","fixation","","","","","","","","","","","","","",""
"learning-trial","99","582899","0.0-9.0-2.0-1.6","1731","2","2","""event"",""trial"",""time""
""fullscreenenter"",""1"",""4057""
","
","
","""event"",""trial"",""time""
""fullscreenenter"",""1"",""4057""
","
","","","","","","2273.2000000476837","images/plane5.png","","","learning","images/vehicles_choice2.png","images/vehicles_choice3.png","images/vehicles_choice1.png","[1,2,0]","1","0","1","images/vehicles_choice2.png","1","vehicles","","plane","2","0"
"html-keyboard-response","100","583400","0.0-9.0-2.0-0.7","1731","2","2","""event"",""trial"",""time""
""fullscreenenter"",""1"",""4057""
","
","
","""event"",""trial"",""time""
""fullscreenenter"",""1"",""4057""
","
","","","","","","null","<div style=""font-size:60px;"">+</div>","null","","fixation","","","","","","","","","","","","","",""
"learning-trial","101","587404","0.0-9.0-2.0-1.7","1731","2","2","""event"",""trial"",""time""
""fullscreenenter"",""1"",""4057""
","
","
","""event"",""trial"",""time""
""fullscreenenter"",""1"",""4057""
","
","","","","","","1848.6000000238419","images/plane4.png","","","learning","images/vehicles_choice1.png","images/vehicles_choice3.png","images/vehicles_choice2.png","[0,2,1]","0","0","2","images/vehicles_choice3.png","-1","vehicles","","plane","2","0"
"html-keyboard-response","102","587906","0.0-9.0-2.0-0.8","1731","2","2","""event"",""trial"",""time""
""fullscreenenter"",""1"",""4057""
","
","
","""event"",""trial"",""time""
""fullscreenenter"",""1"",""4057""
","
","","","","","","null","<div style=""font-size:60px;"">+</div>","null","","fixation","","","","","","","","","","","","","",""
"learning-trial","103","591914","0.0-9.0-2.0-1.8","1731","2","2","""event"",""trial"",""time""
""fullscreenenter"",""1"",""4057""
","
","
","""event"",""trial"",""time""
""fullscreenenter"",""1"",""4057""
","
","","","","","","1603.7000000476837","images/train1.png","","","learning","images/vehicles_choice2.png","images/vehicles_choice3.png","images/vehicles_choice1.png","[1,2,0]","1","0","1","images/vehicles_choice2.png","1","vehicles","","train","2","0"
"html-keyboard-response","104","592416","0.0-9.0-2.0-0.9","1731","2","2","""event"",""trial"",""time""
""fullscreenenter"",""1"",""4057""
","
","
","""event"",""trial"",""time""
""fullscreenenter"",""1"",""4057""
","
","","","","","","null","<div style=""font-size:60px;"">+</div>","null","","fixation","","","","","","","","","","","","","",""
"learning-trial","105","596420","0.0-9.0-2.0-1.9","1731","2","2","""event"",""trial"",""time""
""fullscreenenter"",""1"",""4057""
","
","
","""event"",""trial"",""time""
""fullscreenenter"",""1"",""4057""
","
","","","","","","2392.399999976158","images/truck4.png","","","learning","images/vehicles_choice1.png","images/vehicles_choice3.png","images/vehicles_choice2.png","[0,2,1]","0","0","3","images/vehicles_choice2.png","-1","vehicles","","truck","2","0"
"html-keyboard-response","106","596921","0.0-9.0-2.0-0.10","1731","2","2","""event"",""trial"",""time""
""fullscreenenter"",""1"",""4057""
","
","
","""event"",""trial"",""time""
""fullscreenenter"",""1"",""4057""
","
","","","","","","null","<div style=""font-size:60px;"">+</div>","null","","fixation","","","","","","","","","","","","","",""
"learning-trial","107","600925","0.0-9.0-2.0-1.10","1731","2","2","""event"",""trial"",""time""
""fullscreenenter"",""1"",""4057""
","
","
","""event"",""trial"",""time""
""fullscreenenter"",""1"",""4057""
","
","","","","","","1037.6999999284744","images/truck4.png","","","learning","images/vehicles_choice2.png","images/vehicles_choice1.png","images/vehicles_choice3.png","[1,0,2]","0","1","2","images/vehicles_choice1.png","1","vehicles","","truck","2","0"
"html-keyboard-response","108","601427","0.0-9.0-2.0-0.11","1731","2","2","""event"",""trial"",""time""
""fullscreenenter"",""1"",""4057""
","
","
","""event"",""trial"",""time""
""fullscreenenter"",""1"",""4057""
","
","","","","","","null","<div style=""font-size:60px;"">+</div>","null","","fixation","","","","","","","","","","","","","",""
"learning-trial","109","605429","0.0-9.0-2.0-1.11","1731","2","2","""event"",""trial"",""time""
""fullscreenenter"",""1"",""4057""
","
","
","""event"",""trial"",""time""
""fullscreenenter"",""1"",""4057""
","
","","","","","","2322.399999976158","images/truck3.png","","","learning","images/vehicles_choice2.png","images/vehicles_choice1.png","images/vehicles_choice3.png","[1,0,2]","2","2","1","images/vehicles_choice2.png","-1","vehicles","","truck","2","0"
"html-keyboard-response","110","605931","0.0-9.0-2.0-0.12","1731","2","2","""event"",""trial"",""time""
""fullscreenenter"",""1"",""4057""
","
","
","""event"",""trial"",""time""
""fullscreenenter"",""1"",""4057""
","
","","","","","","null","<div style=""font-size:60px;"">+</div>","null","","fixation","","","","","","","","","","","","","",""
"learning-trial","111","609935","0.0-9.0-2.0-1.12","1731","2","2","""event"",""trial"",""time""
""fullscreenenter"",""1"",""4057""
","
","
","""event"",""trial"",""time""
""fullscreenenter"",""1"",""4057""
","
","","","","","","2866.100000023842","images/plane4.png","","","learning","images/vehicles_choice1.png","images/vehicles_choice2.png","images/vehicles_choice3.png","[0,1,2]","0","0","3","images/vehicles_choice3.png","-1","vehicles","","plane","2","0"
"html-keyboard-response","112","610437","0.0-9.0-2.0-0.13","1731","2","2","""event"",""trial"",""time""
""fullscreenenter"",""1"",""4057""
","
","
","""event"",""trial"",""time""
""fullscreenenter"",""1"",""4057""
","
","","","","","","null","<div style=""font-size:60px;"">+</div>","null","","fixation","","","","","","","","","","","","","",""
"learning-trial","113","614441","0.0-9.0-2.0-1.13","1731","2","2","""event"",""trial"",""time""
""fullscreenenter"",""1"",""4057""
","
","
","""event"",""trial"",""time""
""fullscreenenter"",""1"",""4057""
","
","","","","","","1732.0999999046326","images/truck3.png","","","learning","images/vehicles_choice3.png","images/vehicles_choice2.png","images/vehicles_choice1.png","[2,1,0]","2","0","2","images/vehicles_choice2.png","-1","vehicles","","truck","2","0"
"html-keyboard-response","114","614942","0.0-9.0-2.0-0.14","1731","2","2","""event"",""trial"",""time""
""fullscreenenter"",""1"",""4057""
","
","
","""event"",""trial"",""time""
""fullscreenenter"",""1"",""4057""
","
","","","","","","null","<div style=""font-size:60px;"">+</div>","null","","fixation","","","","","","","","","","","","","",""
"learning-trial","115","618946","0.0-9.0-2.0-1.14","1731","2","2","""event"",""trial"",""time""
""fullscreenenter"",""1"",""4057""
","
","
","""event"",""trial"",""time""
""fullscreenenter"",""1"",""4057""
","
","","","","","","1036.3000000715256","images/plane4.png","","","learning","images/vehicles_choice3.png","images/vehicles_choice2.png","images/vehicles_choice1.png","[2,1,0]","0","2","1","images/vehicles_choice3.png","-1","vehicles","","plane","2","0"
"html-keyboard-response","116","619447","0.0-9.0-2.0-0.15","1731","2","2","""event"",""trial"",""time""
""fullscreenenter"",""1"",""4057""
","
","
","""event"",""trial"",""time""
""fullscreenenter"",""1"",""4057""
","
","","","","","","null","<div style=""font-size:60px;"">+</div>","null","","fixation","","","","","","","","","","","","","",""
"learning-trial","117","623450","0.0-9.0-2.0-1.15","1731","2","2","""event"",""trial"",""time""
""fullscreenenter"",""1"",""4057""
","
","
","""event"",""trial"",""time""
""fullscreenenter"",""1"",""4057""
","
","","","","","","2832","images/truck3.png","","","learning","images/vehicles_choice3.png","images/vehicles_choice1.png","images/vehicles_choice2.png","[2,0,1]","2","0","2","images/vehicles_choice1.png","-1","vehicles","","truck","2","0"
"html-keyboard-response","118","623952","0.0-9.0-2.0-0.16","1731","2","2","""event"",""trial"",""time""
""fullscreenenter"",""1"",""4057""
","
","
","""event"",""trial"",""time""
""fullscreenenter"",""1"",""4057""
","
","","","","","","null","<div style=""font-size:60px;"">+</div>","null","","fixation","","","","","","","","","","","","","",""
"learning-trial","119","627955","0.0-9.0-2.0-1.16","1731","2","2","""event"",""trial"",""time""
""fullscreenenter"",""1"",""4057""
","
","
","""event"",""trial"",""time""
""fullscreenenter"",""1"",""4057""
","
","","","","","","1766.6000000238419","images/plane3.png","","","learning","images/vehicles_choice1.png","images/vehicles_choice2.png","images/vehicles_choice3.png","[0,1,2]","2","2","1","images/vehicles_choice1.png","-1","vehicles","","plane","2","0"
"html-keyboard-response","120","628457","0.0-9.0-2.0-0.17","1731","2","2","""event"",""trial"",""time""
""fullscreenenter"",""1"",""4057""
","
","
","""event"",""trial"",""time""
""fullscreenenter"",""1"",""4057""
","
","","","","","","null","<div style=""font-size:60px;"">+</div>","null","","fixation","","","","","","","","","","","","","",""
"learning-trial","121","632461","0.0-9.0-2.0-1.17","1731","2","2","""event"",""trial"",""time""
""fullscreenenter"",""1"",""4057""
","
","
","""event"",""trial"",""time""
""fullscreenenter"",""1"",""4057""
","
","","","","","","2101.4000000953674","images/train2.png","","","learning","images/vehicles_choice3.png","images/vehicles_choice2.png","images/vehicles_choice1.png","[2,1,0]","0","2","3","images/vehicles_choice1.png","1","vehicles","","train","2","0"
"html-keyboard-response","122","632963","0.0-9.0-2.0-0.18","1731","2","2","""event"",""trial"",""time""
""fullscreenenter"",""1"",""4057""
","
","
","""event"",""trial"",""time""
""fullscreenenter"",""1"",""4057""
","
","","","","","","null","<div style=""font-size:60px;"">+</div>","null","","fixation","","","","","","","","","","","","","",""
"learning-trial","123","636966","0.0-9.0-2.0-1.18","1731","2","2","""event"",""trial"",""time""
""fullscreenenter"",""1"",""4057""
","
","
","""event"",""trial"",""time""
""fullscreenenter"",""1"",""4057""
","
","","","","","","1834.6000000238419","images/train2.png","","","learning","images/vehicles_choice2.png","images/vehicles_choice3.png","images/vehicles_choice1.png","[1,2,0]","0","2","3","images/vehicles_choice1.png","1","vehicles","","train","2","0"
"html-keyboard-response","124","637468","0.0-9.0-2.0-0.19","1731","2","2","""event"",""trial"",""time""
""fullscreenenter"",""1"",""4057""
","
","
","""event"",""trial"",""time""
""fullscreenenter"",""1"",""4057""
","
","","","","","","null","<div style=""font-size:60px;"">+</div>","null","","fixation","","","","","","","","","","","","","",""
"learning-trial","125","641472","0.0-9.0-2.0-1.19","1731","2","2","""event"",""trial"",""time""
""fullscreenenter"",""1"",""4057""
","
","
","""event"",""trial"",""time""
""fullscreenenter"",""1"",""4057""
","
","","","","","","1829.8999999761581","images/plane5.png","","","learning","images/vehicles_choice3.png","images/vehicles_choice2.png","images/vehicles_choice1.png","[2,1,0]","1","1","2","images/vehicles_choice2.png","1","vehicles","","plane","2","0"
"html-keyboard-response","126","641973","0.0-9.0-2.0-0.20","1731","2","2","""event"",""trial"",""time""
""fullscreenenter"",""1"",""4057""
","
","
","""event"",""trial"",""time""
""fullscreenenter"",""1"",""4057""
","
","","","","","","null","<div style=""font-size:60px;"">+</div>","null","","fixation","","","","","","","","","","","","","",""
"learning-trial","127","645977","0.0-9.0-2.0-1.20","1731","2","2","""event"",""trial"",""time""
""fullscreenenter"",""1"",""4057""
","
","
","""event"",""trial"",""time""
""fullscreenenter"",""1"",""4057""
","
","","","","","","1395.1999999284744","images/truck4.png","","","learning","images/vehicles_choice3.png","images/vehicles_choice2.png","images/vehicles_choice1.png","[2,1,0]","0","2","1","images/vehicles_choice3.png","-1","vehicles","","truck","2","0"
"html-keyboard-response","128","646480","0.0-9.0-2.0-0.21","1731","2","2","""event"",""trial"",""time""
""fullscreenenter"",""1"",""4057""
","
","
","""event"",""trial"",""time""
""fullscreenenter"",""1"",""4057""
","
","","","","","","null","<div style=""font-size:60px;"">+</div>","null","","fixation","","","","","","","","","","","","","",""
"learning-trial","129","650483","0.0-9.0-2.0-1.21","1731","2","2","""event"",""trial"",""time""
""fullscreenenter"",""1"",""4057""
","
","
","""event"",""trial"",""time""
""fullscreenenter"",""1"",""4057""
","
","","","","","","2608.600000023842","images/truck2.png","","","learning","images/vehicles_choice2.png","images/vehicles_choice3.png","images/vehicles_choice1.png","[1,2,0]","1","0","3","images/vehicles_choice1.png","-1","vehicles","","truck","2","0"
"html-keyboard-response","130","650984","0.0-9.0-2.0-0.22","1731","2","2","""event"",""trial"",""time""
""fullscreenenter"",""1"",""4057""
","
","
","""event"",""trial"",""time""
""fullscreenenter"",""1"",""4057""
","
","","","","","","null","<div style=""font-size:60px;"">+</div>","null","","fixation","","","","","","","","","","","","","",""
"learning-trial","131","654988","0.0-9.0-2.0-1.22","1731","2","2","""event"",""trial"",""time""
""fullscreenenter"",""1"",""4057""
","
","
","""event"",""trial"",""time""
""fullscreenenter"",""1"",""4057""
","
","","","","","","2424.6999999284744","images/truck3.png","","","learning","images/vehicles_choice2.png","images/vehicles_choice1.png","images/vehicles_choice3.png","[1,0,2]","2","2","3","images/vehicles_choice3.png","1","vehicles","","truck","2","0"
"html-keyboard-response","132","655489","0.0-9.0-2.0-0.23","1731","2","2","""event"",""trial"",""time""
""fullscreenenter"",""1"",""4057""
","
","
","""event"",""trial"",""time""
""fullscreenenter"",""1"",""4057""
","
","","","","","","null","<div style=""font-size:60px;"">+</div>","null","","fixation","","","","","","","","","","","","","",""
"learning-trial","133","659492","0.0-9.0-2.0-1.23","1731","2","2","""event"",""trial"",""time""
""fullscreenenter"",""1"",""4057""
","
","
","""event"",""trial"",""time""
""fullscreenenter"",""1"",""4057""
","
","","","","","","2548.8000000715256","images/train1.png","","","learning","images/vehicles_choice1.png","images/vehicles_choice3.png","images/vehicles_choice2.png","[0,2,1]","1","2","3","images/vehicles_choice2.png","1","vehicles","","train","2","0"
"html-keyboard-response","134","659993","0.0-9.0-2.0-0.24","1731","2","2","""event"",""trial"",""time""
""fullscreenenter"",""1"",""4057""
","
","
","""event"",""trial"",""time""
""fullscreenenter"",""1"",""4057""
","
","","","","","","null","<div style=""font-size:60px;"">+</div>","null","","fixation","","","","","","","","","","","","","",""
"learning-trial","135","663997","0.0-9.0-2.0-1.24","1731","2","2","""event"",""trial"",""time""
""fullscreenenter"",""1"",""4057""
","
","
","""event"",""trial"",""time""
""fullscreenenter"",""1"",""4057""
","
","","","","","","2104.9000000953674","images/plane4.png","","","learning","images/vehicles_choice2.png","images/vehicles_choice3.png","images/vehicles_choice1.png","[1,2,0]","0","2","3","images/vehicles_choice1.png","1","vehicles","","plane","2","0"
"html-keyboard-response","136","664499","0.0-9.0-2.0-0.25","1731","2","2","""event"",""trial"",""time""
""fullscreenenter"",""1"",""4057""
","
","
","""event"",""trial"",""time""
""fullscreenenter"",""1"",""4057""
","
","","","","","","null","<div style=""font-size:60px;"">+</div>","null","","fixation","","","","","","","","","","","","","",""
"learning-trial","137","668502","0.0-9.0-2.0-1.25","1731","2","2","""event"",""trial"",""time""
""fullscreenenter"",""1"",""4057""
","
","
","""event"",""trial"",""time""
""fullscreenenter"",""1"",""4057""
","
","","","","","","2029.4000000953674","images/plane5.png","","","learning","images/vehicles_choice1.png","images/vehicles_choice2.png","images/vehicles_choice3.png","[0,1,2]","1","1","1","images/vehicles_choice1.png","-1","vehicles","","plane","2","0"
"html-keyboard-response","138","669004","0.0-9.0-2.0-0.26","1731","2","2","""event"",""trial"",""time""
""fullscreenenter"",""1"",""4057""
","
","
","""event"",""trial"",""time""
""fullscreenenter"",""1"",""4057""
","
","","","","","","null","<div style=""font-size:60px;"">+</div>","null","","fixation","","","","","","","","","","","","","",""
"learning-trial","139","673008","0.0-9.0-2.0-1.26","1731","2","2","""event"",""trial"",""time""
""fullscreenenter"",""1"",""4057""
","
","
","""event"",""trial"",""time""
""fullscreenenter"",""1"",""4057""
","
","","","","","","2204.899999976158","images/truck4.png","","","learning","images/vehicles_choice2.png","images/vehicles_choice1.png","images/vehicles_choice3.png","[1,0,2]","0","1","1","images/vehicles_choice2.png","1","vehicles","","truck","2","0"
"html-keyboard-response","140","673509","0.0-9.0-2.0-0.27","1731","2","2","""event"",""trial"",""time""
""fullscreenenter"",""1"",""4057""
","
","
","""event"",""trial"",""time""
""fullscreenenter"",""1"",""4057""
","
","","","","","","null","<div style=""font-size:60px;"">+</div>","null","","fixation","","","","","","","","","","","","","",""
"learning-trial","141","677512","0.0-9.0-2.0-1.27","1731","2","2","""event"",""trial"",""time""
""fullscreenenter"",""1"",""4057""
","
","
","""event"",""trial"",""time""
""fullscreenenter"",""1"",""4057""
","
","","","","","","2518.6999999284744","images/truck3.png","","","learning","images/vehicles_choice3.png","images/vehicles_choice2.png","images/vehicles_choice1.png","[2,1,0]","2","0","1","images/vehicles_choice3.png","1","vehicles","","truck","2","0"
"html-keyboard-response","142","678015","0.0-9.0-2.0-0.28","1731","2","2","""event"",""trial"",""time""
""fullscreenenter"",""1"",""4057""
","
","
","""event"",""trial"",""time""
""fullscreenenter"",""1"",""4057""
","
","","","","","","null","<div style=""font-size:60px;"">+</div>","null","","fixation","","","","","","","","","","","","","",""
"learning-trial","143","682019","0.0-9.0-2.0-1.28","1731","2","2","""event"",""trial"",""time""
""fullscreenenter"",""1"",""4057""
","
","
","""event"",""trial"",""time""
""fullscreenenter"",""1"",""4057""
","
","","","","","","1883.4000000953674","images/plane3.png","","","learning","images/vehicles_choice1.png","images/vehicles_choice3.png","images/vehicles_choice2.png","[0,2,1]","2","1","1","images/vehicles_choice1.png","-1","vehicles","","plane","2","0"
"html-keyboard-response","144","682520","0.0-9.0-2.0-0.29","1731","2","2","""event"",""trial"",""time""
""fullscreenenter"",""1"",""4057""
","
","
","""event"",""trial"",""time""
""fullscreenenter"",""1"",""4057""
","
","","","","","","null","<div style=""font-size:60px;"">+</div>","null","","fixation","","","","","","","","","","","","","",""
"learning-trial","145","686524","0.0-9.0-2.0-1.29","1731","2","2","""event"",""trial"",""time""
""fullscreenenter"",""1"",""4057""
","
","
","""event"",""trial"",""time""
""fullscreenenter"",""1"",""4057""
","
","","","","","","1957.2000000476837","images/truck2.png","","","learning","images/vehicles_choice3.png","images/vehicles_choice2.png","images/vehicles_choice1.png","[2,1,0]","1","1","3","images/vehicles_choice1.png","-1","vehicles","","truck","2","0"
"html-keyboard-response","146","687025","0.0-9.0-2.0-0.30","1731","2","2","""event"",""trial"",""time""
""fullscreenenter"",""1"",""4057""
","
","
","""event"",""trial"",""time""
""fullscreenenter"",""1"",""4057""
","
","","","","","","null","<div style=""font-size:60px;"">+</div>","null","","fixation","","","","","","","","","","","","","",""
"learning-trial","147","691028","0.0-9.0-2.0-1.30","1731","2","2","""event"",""trial"",""time""
""fullscreenenter"",""1"",""4057""
","
","
","""event"",""trial"",""time""
""fullscreenenter"",""1"",""4057""
","
","","","","","","1783.1999999284744","images/train2.png","","","learning","images/vehicles_choice3.png","images/vehicles_choice2.png","images/vehicles_choice1.png","[2,1,0]","0","2","1","images/vehicles_choice3.png","-1","vehicles","","train","2","0"
"html-keyboard-response","148","691530","0.0-9.0-2.0-0.31","1731","2","2","""event"",""trial"",""time""
""fullscreenenter"",""1"",""4057""
","
","
","""event"",""trial"",""time""
""fullscreenenter"",""1"",""4057""
","
","","","","","","null","<div style=""font-size:60px;"">+</div>","null","","fixation","","","","","","","","","","","","","",""
"learning-trial","149","695535","0.0-9.0-2.0-1.31","1731","2","2","""event"",""trial"",""time""
""fullscreenenter"",""1"",""4057""
","
","
","""event"",""trial"",""time""
""fullscreenenter"",""1"",""4057""
","
","","","","","","2937.8000000715256","images/plane4.png","","","learning","images/vehicles_choice1.png","images/vehicles_choice2.png","images/vehicles_choice3.png","[0,1,2]","0","0","2","images/vehicles_choice2.png","-1","vehicles","","plane","2","0"
"html-keyboard-response","150","696037","0.0-9.0-2.0-0.32","1731","2","2","""event"",""trial"",""time""
""fullscreenenter"",""1"",""4057""
","
","
","""event"",""trial"",""time""
""fullscreenenter"",""1"",""4057""
","
","","","","","","null","<div style=""font-size:60px;"">+</div>","null","","fixation","","","","","","","","","","","","","",""
"learning-trial","151","700041","0.0-9.0-2.0-1.32","1731","2","2","""event"",""trial"",""time""
""fullscreenenter"",""1"",""4057""
","
","
","""event"",""trial"",""time""
""fullscreenenter"",""1"",""4057""
","
","","","","","","2002.2000000476837","images/plane3.png","","","learning","images/vehicles_choice2.png","images/vehicles_choice1.png","images/vehicles_choice3.png","[1,0,2]","2","2","3","images/vehicles_choice3.png","1","vehicles","","plane","2","0"
"html-keyboard-response","152","700542","0.0-9.0-2.0-0.33","1731","2","2","""event"",""trial"",""time""
""fullscreenenter"",""1"",""4057""
","
","
","""event"",""trial"",""time""
""fullscreenenter"",""1"",""4057""
","
","","","","","","null","<div style=""font-size:60px;"">+</div>","null","","fixation","","","","","","","","","","","","","",""
"learning-trial","153","704545","0.0-9.0-2.0-1.33","1731","2","2","""event"",""trial"",""time""
""fullscreenenter"",""1"",""4057""
","
","
","""event"",""trial"",""time""
""fullscreenenter"",""1"",""4057""
","
","","","","","","1187.6000000238419","images/truck2.png","","","learning","images/vehicles_choice3.png","images/vehicles_choice1.png","images/vehicles_choice2.png","[2,0,1]","1","2","1","images/vehicles_choice3.png","-1","vehicles","","truck","2","0"
"html-keyboard-response","154","705046","0.0-9.0-2.0-0.34","1731","2","2","""event"",""trial"",""time""
""fullscreenenter"",""1"",""4057""
","
","
","""event"",""trial"",""time""
""fullscreenenter"",""1"",""4057""
","
","","","","","","null","<div style=""font-size:60px;"">+</div>","null","","fixation","","","","","","","","","","","","","",""
"learning-trial","155","709050","0.0-9.0-2.0-1.34","1731","2","2","""event"",""trial"",""time""
""fullscreenenter"",""1"",""4057""
","
","
","""event"",""trial"",""time""
""fullscreenenter"",""1"",""4057""
","
","","","","","","2183","images/truck3.png","","","learning","images/vehicles_choice2.png","images/vehicles_choice3.png","images/vehicles_choice1.png","[1,2,0]","2","1","3","images/vehicles_choice1.png","1","vehicles","","truck","2","0"
"html-keyboard-response","156","709552","0.0-9.0-2.0-0.35","1731","2","2","""event"",""trial"",""time""
""fullscreenenter"",""1"",""4057""
","
","
","""event"",""trial"",""time""
""fullscreenenter"",""1"",""4057""
","
","","","","","","null","<div style=""font-size:60px;"">+</div>","null","","fixation","","","","","","","","","","","","","",""
"learning-trial","157","713555","0.0-9.0-2.0-1.35","1731","2","2","""event"",""trial"",""time""
""fullscreenenter"",""1"",""4057""
","
","
","""event"",""trial"",""time""
""fullscreenenter"",""1"",""4057""
","
","","","","","","2156.5","images/train1.png","","","learning","images/vehicles_choice3.png","images/vehicles_choice2.png","images/vehicles_choice1.png","[2,1,0]","1","1","1","images/vehicles_choice3.png","-1","vehicles","","train","2","0"
"html-keyboard-response","158","714057","0.0-9.0-2.0-0.36","1731","2","2","""event"",""trial"",""time""
""fullscreenenter"",""1"",""4057""
","
","
","""event"",""trial"",""time""
""fullscreenenter"",""1"",""4057""
","
","","","","","","null","<div style=""font-size:60px;"">+</div>","null","","fixation","","","","","","","","","","","","","",""
"learning-trial","159","718061","0.0-9.0-2.0-1.36","1731","2","2","""event"",""trial"",""time""
""fullscreenenter"",""1"",""4057""
","
","
","""event"",""trial"",""time""
""fullscreenenter"",""1"",""4057""
","
","","","","","","1800.6999999284744","images/train4.png","","","learning","images/vehicles_choice3.png","images/vehicles_choice2.png","images/vehicles_choice1.png","[2,1,0]","2","0","1","images/vehicles_choice3.png","1","vehicles","","train","2","0"
"html-keyboard-response","160","718562","0.0-9.0-2.0-0.37","1731","2","2","""event"",""trial"",""time""
""fullscreenenter"",""1"",""4057""
","
","
","""event"",""trial"",""time""
""fullscreenenter"",""1"",""4057""
","
","","","","","","null","<div style=""font-size:60px;"">+</div>","null","","fixation","","","","","","","","","","","","","",""
"learning-trial","161","722565","0.0-9.0-2.0-1.37","1731","2","2","""event"",""trial"",""time""
""fullscreenenter"",""1"",""4057""
","
","
","""event"",""trial"",""time""
""fullscreenenter"",""1"",""4057""
","
","","","","","","1376.6000000238419","images/train4.png","","","learning","images/vehicles_choice2.png","images/vehicles_choice3.png","images/vehicles_choice1.png","[1,2,0]","2","1","1","images/vehicles_choice2.png","-1","vehicles","","train","2","0"
"html-keyboard-response","162","723067","0.0-9.0-2.0-0.38","1731","2","2","""event"",""trial"",""time""
""fullscreenenter"",""1"",""4057""
","
","
","""event"",""trial"",""time""
""fullscreenenter"",""1"",""4057""
","
","","","","","","null","<div style=""font-size:60px;"">+</div>","null","","fixation","","","","","","","","","","","","","",""
"learning-trial","163","727071","0.0-9.0-2.0-1.38","1731","2","2","""event"",""trial"",""time""
""fullscreenenter"",""1"",""4057""
","
","
","""event"",""trial"",""time""
""fullscreenenter"",""1"",""4057""
","
","","","","","","1851.2000000476837","images/train2.png","","","learning","images/vehicles_choice1.png","images/vehicles_choice2.png","images/vehicles_choice3.png","[0,1,2]","0","0","3","images/vehicles_choice3.png","-1","vehicles","","train","2","0"
"html-keyboard-response","164","727572","0.0-9.0-2.0-0.39","1731","2","2","""event"",""trial"",""time""
""fullscreenenter"",""1"",""4057""
","
","
","""event"",""trial"",""time""
""fullscreenenter"",""1"",""4057""
","
","","","","","","null","<div style=""font-size:60px;"">+</div>","null","","fixation","","","","","","","","","","","","","",""
"learning-trial","165","731576","0.0-9.0-2.0-1.39","1731","2","2","""event"",""trial"",""time""
""fullscreenenter"",""1"",""4057""
","
","
","""event"",""trial"",""time""
""fullscreenenter"",""1"",""4057""
","
","","","","","","2096.5","images/truck4.png","","","learning","images/vehicles_choice2.png","images/vehicles_choice1.png","images/vehicles_choice3.png","[1,0,2]","0","1","3","images/vehicles_choice3.png","-1","vehicles","","truck","2","0"
"html-keyboard-response","166","732077","0.0-9.0-2.0-0.40","1731","2","2","""event"",""trial"",""time""
""fullscreenenter"",""1"",""4057""
","
","
","""event"",""trial"",""time""
""fullscreenenter"",""1"",""4057""
","
","","","","","","null","<div style=""font-size:60px;"">+</div>","null","","fixation","","","","","","","","","","","","","",""
"learning-trial","167","736082","0.0-9.0-2.0-1.40","1731","2","2","""event"",""trial"",""time""
""fullscreenenter"",""1"",""4057""
","
","
","""event"",""trial"",""time""
""fullscreenenter"",""1"",""4057""
","
","","","","","","1881","images/truck2.png","","","learning","images/vehicles_choice3.png","images/vehicles_choice1.png","images/vehicles_choice2.png","[2,0,1]","1","2","2","images/vehicles_choice1.png","-1","vehicles","","truck","2","0"
"html-keyboard-response","168","736584","0.0-9.0-2.0-0.41","1731","2","2","""event"",""trial"",""time""
""fullscreenenter"",""1"",""4057""
","
","
","""event"",""trial"",""time""
""fullscreenenter"",""1"",""4057""
","
","","","","","","null","<div style=""font-size:60px;"">+</div>","null","","fixation","","","","","","","","","","","","","",""
"learning-trial","169","740588","0.0-9.0-2.0-1.41","1731","2","2","""event"",""trial"",""time""
""fullscreenenter"",""1"",""4057""
","
","
","""event"",""trial"",""time""
""fullscreenenter"",""1"",""4057""
","
","","","","","","2054.7999999523163","images/train4.png","","","learning","images/vehicles_choice3.png","images/vehicles_choice1.png","images/vehicles_choice2.png","[2,0,1]","2","0","3","images/vehicles_choice2.png","-1","vehicles","","train","2","0"
"html-keyboard-response","170","741103","0.0-9.0-2.0-0.42","1731","2","2","""event"",""trial"",""time""
""fullscreenenter"",""1"",""4057""
","
","
","""event"",""trial"",""time""
""fullscreenenter"",""1"",""4057""
","
","","","","","","null","<div style=""font-size:60px;"">+</div>","null","","fixation","","","","","","","","","","","","","",""
"learning-trial","171","745109","0.0-9.0-2.0-1.42","1731","2","2","""event"",""trial"",""time""
""fullscreenenter"",""1"",""4057""
","
","
","""event"",""trial"",""time""
""fullscreenenter"",""1"",""4057""
","
","","","","","","1103.1000000238419","images/train4.png","","","learning","images/vehicles_choice3.png","images/vehicles_choice1.png","images/vehicles_choice2.png","[2,0,1]","2","0","1","images/vehicles_choice3.png","1","vehicles","","train","2","0"
"html-keyboard-response","172","745624","0.0-9.0-2.0-0.43","1731","2","2","""event"",""trial"",""time""
""fullscreenenter"",""1"",""4057""
","
","
","""event"",""trial"",""time""
""fullscreenenter"",""1"",""4057""
","
","","","","","","null","<div style=""font-size:60px;"">+</div>","null","","fixation","","","","","","","","","","","","","",""
"learning-trial","173","749627","0.0-9.0-2.0-1.43","1731","2","2","""event"",""trial"",""time""
""fullscreenenter"",""1"",""4057""
","
","
","""event"",""trial"",""time""
""fullscreenenter"",""1"",""4057""
","
","","","","","","1006.3000000715256","images/train1.png","","","learning","images/vehicles_choice2.png","images/vehicles_choice1.png","images/vehicles_choice3.png","[1,0,2]","1","0","1","images/vehicles_choice2.png","1","vehicles","","train","2","0"
"html-keyboard-response","174","750129","0.0-9.0-2.0-0.44","1731","2","2","""event"",""trial"",""time""
""fullscreenenter"",""1"",""4057""
","
","
","""event"",""trial"",""time""
""fullscreenenter"",""1"",""4057""
","
","","","","","","null","<div style=""font-size:60px;"">+</div>","null","","fixation","","","","","","","","","","","","","",""
"learning-trial","175","754133","0.0-9.0-2.0-1.44","1731","2","2","""event"",""trial"",""time""
""fullscreenenter"",""1"",""4057""
","
","
","""event"",""trial"",""time""
""fullscreenenter"",""1"",""4057""
","
","","","","","","1109.6000000238419","images/train2.png","","","learning","images/vehicles_choice2.png","images/vehicles_choice1.png","images/vehicles_choice3.png","[1,0,2]","0","1","1","images/vehicles_choice2.png","-1","vehicles","","train","2","0"
"html-keyboard-response","176","754634","0.0-9.0-2.0-0.45","1731","2","2","""event"",""trial"",""time""
""fullscreenenter"",""1"",""4057""
","
","
","""event"",""trial"",""time""
""fullscreenenter"",""1"",""4057""
","
","","","","","","null","<div style=""font-size:60px;"">+</div>","null","","fixation","","","","","","","","","","","","","",""
"learning-trial","177","758638","0.0-9.0-2.0-1.45","1731","2","2","""event"",""trial"",""time""
""fullscreenenter"",""1"",""4057""
","
","
","""event"",""trial"",""time""
""fullscreenenter"",""1"",""4057""
","
","","","","","","1955.1000000238419","images/truck2.png","","","learning","images/vehicles_choice1.png","images/vehicles_choice2.png","images/vehicles_choice3.png","[0,1,2]","1","1","2","images/vehicles_choice2.png","1","vehicles","","truck","2","0"
"html-keyboard-response","178","759152","0.0-9.0-2.0-0.46","1731","2","2","""event"",""trial"",""time""
""fullscreenenter"",""1"",""4057""
","
","
","""event"",""trial"",""time""
""fullscreenenter"",""1"",""4057""
","
","","","","","","null","<div style=""font-size:60px;"">+</div>","null","","fixation","","","","","","","","","","","","","",""
"learning-trial","179","763156","0.0-9.0-2.0-1.46","1731","2","2","""event"",""trial"",""time""
""fullscreenenter"",""1"",""4057""
","
","
","""event"",""trial"",""time""
""fullscreenenter"",""1"",""4057""
","
","","","","","","1356.8999999761581","images/train2.png","","","learning","images/vehicles_choice2.png","images/vehicles_choice3.png","images/vehicles_choice1.png","[1,2,0]","0","2","2","images/vehicles_choice3.png","-1","vehicles","","train","2","0"
"html-keyboard-response","180","763657","0.0-9.0-2.0-0.47","1731","2","2","""event"",""trial"",""time""
""fullscreenenter"",""1"",""4057""
","
","
","""event"",""trial"",""time""
""fullscreenenter"",""1"",""4057""
","
","","","","","","null","<div style=""font-size:60px;"">+</div>","null","","fixation","","","","","","","","","","","","","",""
"learning-trial","181","767660","0.0-9.0-2.0-1.47","1731","2","2","""event"",""trial"",""time""
""fullscreenenter"",""1"",""4057""
","
","
","""event"",""trial"",""time""
""fullscreenenter"",""1"",""4057""
","
","","","","","","1341.7000000476837","images/train4.png","","","learning","images/vehicles_choice2.png","images/vehicles_choice3.png","images/vehicles_choice1.png","[1,2,0]","2","1","3","images/vehicles_choice1.png","-1","vehicles","","train","2","0"
"html-keyboard-response","182","768162","0.0-9.0-2.0-0.48","1731","2","2","""event"",""trial"",""time""
""fullscreenenter"",""1"",""4057""
","
","
","""event"",""trial"",""time""
""fullscreenenter"",""1"",""4057""
","
","","","","","","null","<div style=""font-size:60px;"">+</div>","null","","fixation","","","","","","","","","","","","","",""
"learning-trial","183","772164","0.0-9.0-2.0-1.48","1731","2","2","""event"",""trial"",""time""
""fullscreenenter"",""1"",""4057""
","
","
","""event"",""trial"",""time""
""fullscreenenter"",""1"",""4057""
","
","","","","","","1787.6000000238419","images/plane3.png","","","learning","images/vehicles_choice3.png","images/vehicles_choice1.png","images/vehicles_choice2.png","[2,0,1]","2","0","2","images/vehicles_choice1.png","-1","vehicles","","plane","2","0"
"html-keyboard-response","184","772666","0.0-9.0-2.0-0.49","1731","2","2","""event"",""trial"",""time""
""fullscreenenter"",""1"",""4057""
","
","
","""event"",""trial"",""time""
""fullscreenenter"",""1"",""4057""
","
","","","","","","null","<div style=""font-size:60px;"">+</div>","null","","fixation","","","","","","","","","","","","","",""
"learning-trial","185","776669","0.0-9.0-2.0-1.49","1731","2","2","""event"",""trial"",""time""
""fullscreenenter"",""1"",""4057""
","
","
","""event"",""trial"",""time""
""fullscreenenter"",""1"",""4057""
","
","","","","","","1083.6999999284744","images/train4.png","","","learning","images/vehicles_choice1.png","images/vehicles_choice2.png","images/vehicles_choice3.png","[0,1,2]","2","2","1","images/vehicles_choice1.png","-1","vehicles","","train","2","0"
"html-keyboard-response","186","777171","0.0-9.0-2.0-0.50","1731","2","2","""event"",""trial"",""time""
""fullscreenenter"",""1"",""4057""
","
","
","""event"",""trial"",""time""
""fullscreenenter"",""1"",""4057""
","
","","","","","","null","<div style=""font-size:60px;"">+</div>","null","","fixation","","","","","","","","","","","","","",""
"learning-trial","187","781173","0.0-9.0-2.0-1.50","1731","2","2","""event"",""trial"",""time""
""fullscreenenter"",""1"",""4057""
","
","
","""event"",""trial"",""time""
""fullscreenenter"",""1"",""4057""
","
","","","","","","2139.5","images/plane3.png","","","learning","images/vehicles_choice2.png","images/vehicles_choice1.png","images/vehicles_choice3.png","[1,0,2]","2","2","3","images/vehicles_choice3.png","1","vehicles","","plane","2","0"
"html-keyboard-response","188","781675","0.0-9.0-2.0-0.51","1731","2","2","""event"",""trial"",""time""
""fullscreenenter"",""1"",""4057""
","
","
","""event"",""trial"",""time""
""fullscreenenter"",""1"",""4057""
","
","","","","","","null","<div style=""font-size:60px;"">+</div>","null","","fixation","","","","","","","","","","","","","",""
"learning-trial","189","785677","0.0-9.0-2.0-1.51","1731","2","2","""event"",""trial"",""time""
""fullscreenenter"",""1"",""4057""
","
","
","""event"",""trial"",""time""
""fullscreenenter"",""1"",""4057""
","
","","","","","","1624.4000000953674","images/plane5.png","","","learning","images/vehicles_choice2.png","images/vehicles_choice3.png","images/vehicles_choice1.png","[1,2,0]","1","0","2","images/vehicles_choice3.png","-1","vehicles","","plane","2","0"
"html-keyboard-response","190","786179","0.0-9.0-2.0-0.52","1731","2","2","""event"",""trial"",""time""
""fullscreenenter"",""1"",""4057""
","
","
","""event"",""trial"",""time""
""fullscreenenter"",""1"",""4057""
","
","","","","","","null","<div style=""font-size:60px;"">+</div>","null","","fixation","","","","","","","","","","","","","",""
"learning-trial","191","790183","0.0-9.0-2.0-1.52","1731","2","2","""event"",""trial"",""time""
""fullscreenenter"",""1"",""4057""
","
","
","""event"",""trial"",""time""
""fullscreenenter"",""1"",""4057""
","
","","","","","","1500","images/train1.png","","","learning","images/vehicles_choice2.png","images/vehicles_choice3.png","images/vehicles_choice1.png","[1,2,0]","1","0","1","images/vehicles_choice2.png","1","vehicles","","train","2","0"
"html-keyboard-response","192","790684","0.0-9.0-2.0-0.53","1731","2","2","""event"",""trial"",""time""
""fullscreenenter"",""1"",""4057""
","
","
","""event"",""trial"",""time""
""fullscreenenter"",""1"",""4057""
","
","","","","","","null","<div style=""font-size:60px;"">+</div>","null","","fixation","","","","","","","","","","","","","",""
"learning-trial","193","794687","0.0-9.0-2.0-1.53","1731","2","2","""event"",""trial"",""time""
""fullscreenenter"",""1"",""4057""
","
","
","""event"",""trial"",""time""
""fullscreenenter"",""1"",""4057""
","
","","","","","","1525.1000000238419","images/train4.png","","","learning","images/vehicles_choice1.png","images/vehicles_choice3.png","images/vehicles_choice2.png","[0,2,1]","2","1","2","images/vehicles_choice3.png","-1","vehicles","","train","2","0"
"html-keyboard-response","194","795188","0.0-9.0-2.0-0.54","1731","2","2","""event"",""trial"",""time""
""fullscreenenter"",""1"",""4057""
","
","
","""event"",""trial"",""time""
""fullscreenenter"",""1"",""4057""
","
","","","","","","null","<div style=""font-size:60px;"">+</div>","null","","fixation","","","","","","","","","","","","","",""
"learning-trial","195","799191","0.0-9.0-2.0-1.54","1731","2","2","""event"",""trial"",""time""
""fullscreenenter"",""1"",""4057""
","
","
","""event"",""trial"",""time""
""fullscreenenter"",""1"",""4057""
","
","","","","","","1500.7000000476837","images/train1.png","","","learning","images/vehicles_choice1.png","images/vehicles_choice3.png","images/vehicles_choice2.png","[0,2,1]","1","2","3","images/vehicles_choice2.png","-1","vehicles","","train","2","0"
"html-keyboard-response","196","799693","0.0-9.0-2.0-0.55","1731","2","2","""event"",""trial"",""time""
""fullscreenenter"",""1"",""4057""
","
","
","""event"",""trial"",""time""
""fullscreenenter"",""1"",""4057""
","
","","","","","","null","<div style=""font-size:60px;"">+</div>","null","","fixation","","","","","","","","","","","","","",""
"learning-trial","197","803698","0.0-9.0-2.0-1.55","1731","2","2","""event"",""trial"",""time""
""fullscreenenter"",""1"",""4057""
","
","
","""event"",""trial"",""time""
""fullscreenenter"",""1"",""4057""
","
","","","","","","1746.1000000238419","images/truck2.png","","","learning","images/vehicles_choice2.png","images/vehicles_choice3.png","images/vehicles_choice1.png","[1,2,0]","1","0","1","images/vehicles_choice2.png","1","vehicles","","truck","2","0"
"html-keyboard-response","198","804201","0.0-9.0-2.0-0.56","1731","2","2","""event"",""trial"",""time""
""fullscreenenter"",""1"",""4057""
","
","
","""event"",""trial"",""time""
""fullscreenenter"",""1"",""4057""
","
","","","","","","null","<div style=""font-size:60px;"">+</div>","null","","fixation","","","","","","","","","","","","","",""
"learning-trial","199","808204","0.0-9.0-2.0-1.56","1731","2","2","""event"",""trial"",""time""
""fullscreenenter"",""1"",""4057""
","
","
","""event"",""trial"",""time""
""fullscreenenter"",""1"",""4057""
","
","","","","","","2278.5","images/plane4.png","","","learning","images/vehicles_choice3.png","images/vehicles_choice2.png","images/vehicles_choice1.png","[2,1,0]","0","2","3","images/vehicles_choice1.png","1","vehicles","","plane","2","0"
"html-keyboard-response","200","808706","0.0-9.0-2.0-0.57","1731","2","2","""event"",""trial"",""time""
""fullscreenenter"",""1"",""4057""
","
","
","""event"",""trial"",""time""
""fullscreenenter"",""1"",""4057""
","
","","","","","","null","<div style=""font-size:60px;"">+</div>","null","","fixation","","","","","","","","","","","","","",""
"learning-trial","201","812709","0.0-9.0-2.0-1.57","1731","2","2","""event"",""trial"",""time""
""fullscreenenter"",""1"",""4057""
","
","
","""event"",""trial"",""time""
""fullscreenenter"",""1"",""4057""
","
","","","","","","1873.1000000238419","images/train1.png","","","learning","images/vehicles_choice2.png","images/vehicles_choice3.png","images/vehicles_choice1.png","[1,2,0]","1","0","2","images/vehicles_choice3.png","-1","vehicles","","train","2","0"
"html-keyboard-response","202","813212","0.0-9.0-2.0-0.58","1731","2","2","""event"",""trial"",""time""
""fullscreenenter"",""1"",""4057""
","
","
","""event"",""trial"",""time""
""fullscreenenter"",""1"",""4057""
","
","","","","","","null","<div style=""font-size:60px;"">+</div>","null","","fixation","","","","","","","","","","","","","",""
"learning-trial","203","817215","0.0-9.0-2.0-1.58","1731","2","2","""event"",""trial"",""time""
""fullscreenenter"",""1"",""4057""
","
","
","""event"",""trial"",""time""
""fullscreenenter"",""1"",""4057""
","
","","","","","","687.3999999761581","images/plane5.png","","","learning","images/vehicles_choice1.png","images/vehicles_choice3.png","images/vehicles_choice2.png","[0,2,1]","1","2","1","images/vehicles_choice1.png","-1","vehicles","","plane","2","0"
"html-keyboard-response","204","817717","0.0-9.0-2.0-0.59","1731","2","2","""event"",""trial"",""time""
""fullscreenenter"",""1"",""4057""
","
","
","""event"",""trial"",""time""
""fullscreenenter"",""1"",""4057""
","
","","","","","","null","<div style=""font-size:60px;"">+</div>","null","","fixation","","","","","","","","","","","","","",""
"learning-trial","205","821721","0.0-9.0-2.0-1.59","1731","2","2","""event"",""trial"",""time""
""fullscreenenter"",""1"",""4057""
","
","
","""event"",""trial"",""time""
""fullscreenenter"",""1"",""4057""
","
","","","","","","1542.5","images/train2.png","","","learning","images/vehicles_choice3.png","images/vehicles_choice1.png","images/vehicles_choice2.png","[2,0,1]","0","1","2","images/vehicles_choice1.png","1","vehicles","","train","2","0"
"html-keyboard-response","206","822223","0.0-9.0-2.0-0.60","1731","2","2","""event"",""trial"",""time""
""fullscreenenter"",""1"",""4057""
","
","
","""event"",""trial"",""time""
""fullscreenenter"",""1"",""4057""
","
","","","","","","null","<div style=""font-size:60px;"">+</div>","null","","fixation","","","","","","","","","","","","","",""
"learning-trial","207","826225","0.0-9.0-2.0-1.60","1731","2","2","""event"",""trial"",""time""
""fullscreenenter"",""1"",""4057""
","
","
","""event"",""trial"",""time""
""fullscreenenter"",""1"",""4057""
","
","","","","","","1576.2000000476837","images/truck4.png","","","learning","images/vehicles_choice3.png","images/vehicles_choice1.png","images/vehicles_choice2.png","[2,0,1]","0","1","2","images/vehicles_choice1.png","1","vehicles","","truck","2","0"
"html-keyboard-response","208","826727","0.0-9.0-2.0-0.61","1731","2","2","""event"",""trial"",""time""
""fullscreenenter"",""1"",""4057""
","
","
","""event"",""trial"",""time""
""fullscreenenter"",""1"",""4057""
","
","","","","","","null","<div style=""font-size:60px;"">+</div>","null","","fixation","","","","","","","","","","","","","",""
"learning-trial","209","830731","0.0-9.0-2.0-1.61","1731","2","2","""event"",""trial"",""time""
""fullscreenenter"",""1"",""4057""
","
","
","""event"",""trial"",""time""
""fullscreenenter"",""1"",""4057""
","
","","","","","","1782.6000000238419","images/truck4.png","","","learning","images/vehicles_choice2.png","images/vehicles_choice1.png","images/vehicles_choice3.png","[1,0,2]","0","1","1","images/vehicles_choice2.png","-1","vehicles","","truck","2","0"
"html-keyboard-response","210","831232","0.0-9.0-2.0-0.62","1731","2","2","""event"",""trial"",""time""
""fullscreenenter"",""1"",""4057""
","
","
","""event"",""trial"",""time""
""fullscreenenter"",""1"",""4057""
","
","","","","","","null","<div style=""font-size:60px;"">+</div>","null","","fixation","","","","","","","","","","","","","",""
"learning-trial","211","835236","0.0-9.0-2.0-1.62","1731","2","2","""event"",""trial"",""time""
""fullscreenenter"",""1"",""4057""
","
","
","""event"",""trial"",""time""
""fullscreenenter"",""1"",""4057""
","
","","","","","","2177.100000023842","images/truck2.png","","","learning","images/vehicles_choice2.png","images/vehicles_choice1.png","images/vehicles_choice3.png","[1,0,2]","1","0","2","images/vehicles_choice1.png","-1","vehicles","","truck","2","0"
"html-keyboard-response","212","835737","0.0-9.0-2.0-0.63","1731","2","2","""event"",""trial"",""time""
""fullscreenenter"",""1"",""4057""
","
","
","""event"",""trial"",""time""
""fullscreenenter"",""1"",""4057""
","
","","","","","","null","<div style=""font-size:60px;"">+</div>","null","","fixation","","","","","","","","","","","","","",""
"learning-trial","213","839741","0.0-9.0-2.0-1.63","1731","2","2","""event"",""trial"",""time""
""fullscreenenter"",""1"",""4057""
","
","
","""event"",""trial"",""time""
""fullscreenenter"",""1"",""4057""
","
","","","","","","1822.0999999046326","images/plane5.png","","","learning","images/vehicles_choice3.png","images/vehicles_choice1.png","images/vehicles_choice2.png","[2,0,1]","1","2","3","images/vehicles_choice2.png","1","vehicles","","plane","2","0"
"html-keyboard-response","214","840242","0.0-9.0-2.0-0.64","1731","2","2","""event"",""trial"",""time""
""fullscreenenter"",""1"",""4057""
","
","
","""event"",""trial"",""time""
""fullscreenenter"",""1"",""4057""
","
","","","","","","null","<div style=""font-size:60px;"">+</div>","null","","fixation","","","","","","","","","","","","","",""
"learning-trial","215","844246","0.0-9.0-2.0-1.64","1731","2","2","""event"",""trial"",""time""
""fullscreenenter"",""1"",""4057""
","
","
","""event"",""trial"",""time""
""fullscreenenter"",""1"",""4057""
","
","","","","","","1037.1999999284744","images/truck2.png","","","learning","images/vehicles_choice1.png","images/vehicles_choice2.png","images/vehicles_choice3.png","[0,1,2]","1","1","1","images/vehicles_choice1.png","-1","vehicles","","truck","2","0"
"html-keyboard-response","216","844748","0.0-9.0-2.0-0.65","1731","2","2","""event"",""trial"",""time""
""fullscreenenter"",""1"",""4057""
","
","
","""event"",""trial"",""time""
""fullscreenenter"",""1"",""4057""
","
","","","","","","null","<div style=""font-size:60px;"">+</div>","null","","fixation","","","","","","","","","","","","","",""
"learning-trial","217","848752","0.0-9.0-2.0-1.65","1731","2","2","""event"",""trial"",""time""
""fullscreenenter"",""1"",""4057""
","
","
","""event"",""trial"",""time""
""fullscreenenter"",""1"",""4057""
","
","","","","","","1950.8999999761581","images/plane5.png","","","learning","images/vehicles_choice2.png","images/vehicles_choice1.png","images/vehicles_choice3.png","[1,0,2]","1","0","1","images/vehicles_choice2.png","1","vehicles","","plane","2","0"
"html-keyboard-response","218","849254","0.0-9.0-2.0-0.66","1731","2","2","""event"",""trial"",""time""
""fullscreenenter"",""1"",""4057""
","
","
","""event"",""trial"",""time""
""fullscreenenter"",""1"",""4057""
","
","","","","","","null","<div style=""font-size:60px;"">+</div>","null","","fixation","","","","","","","","","","","","","",""
"learning-trial","219","853265","0.0-9.0-2.0-1.66","1731","2","2","""event"",""trial"",""time""
""fullscreenenter"",""1"",""4057""
","
","
","""event"",""trial"",""time""
""fullscreenenter"",""1"",""4057""
","
","","","","","","2246.2999999523163","images/truck3.png","","","learning","images/vehicles_choice2.png","images/vehicles_choice1.png","images/vehicles_choice3.png","[1,0,2]","2","2","2","images/vehicles_choice1.png","-1","vehicles","","truck","2","0"
"html-keyboard-response","220","853767","0.0-9.0-2.0-0.67","1731","2","2","""event"",""trial"",""time""
""fullscreenenter"",""1"",""4057""
","
","
","""event"",""trial"",""time""
""fullscreenenter"",""1"",""4057""
","
","","","","","","null","<div style=""font-size:60px;"">+</div>","null","","fixation","","","","","","","","","","","","","",""
"learning-trial","221","857771","0.0-9.0-2.0-1.67","1731","2","2","""event"",""trial"",""time""
""fullscreenenter"",""1"",""4057""
","
","
","""event"",""trial"",""time""
""fullscreenenter"",""1"",""4057""
","
","","","","","","1792.3999999761581","images/train1.png","","","learning","images/vehicles_choice2.png","images/vehicles_choice3.png","images/vehicles_choice1.png","[1,2,0]","1","0","1","images/vehicles_choice2.png","1","vehicles","","train","2","0"
"html-keyboard-response","222","858272","0.0-9.0-2.0-0.68","1731","2","2","""event"",""trial"",""time""
""fullscreenenter"",""1"",""4057""
","
","
","""event"",""trial"",""time""
""fullscreenenter"",""1"",""4057""
","
","","","","","","null","<div style=""font-size:60px;"">+</div>","null","","fixation","","","","","","","","","","","","","",""
"learning-trial","223","862276","0.0-9.0-2.0-1.68","1731","2","2","""event"",""trial"",""time""
""fullscreenenter"",""1"",""4057""
","
","
","""event"",""trial"",""time""
""fullscreenenter"",""1"",""4057""
","
","","","","","","1987.3999999761581","images/truck3.png","","","learning","images/vehicles_choice1.png","images/vehicles_choice2.png","images/vehicles_choice3.png","[0,1,2]","2","2","3","images/vehicles_choice3.png","1","vehicles","","truck","2","0"
"html-keyboard-response","224","862777","0.0-9.0-2.0-0.69","1731","2","2","""event"",""trial"",""time""
""fullscreenenter"",""1"",""4057""
","
","
","""event"",""trial"",""time""
""fullscreenenter"",""1"",""4057""
","
","","","","","","null","<div style=""font-size:60px;"">+</div>","null","","fixation","","","","","","","","","","","","","",""
"learning-trial","225","866781","0.0-9.0-2.0-1.69","1731","2","2","""event"",""trial"",""time""
""fullscreenenter"",""1"",""4057""
","
","
","""event"",""trial"",""time""
""fullscreenenter"",""1"",""4057""
","
","","","","","","1593.5","images/plane4.png","","","learning","images/vehicles_choice1.png","images/vehicles_choice3.png","images/vehicles_choice2.png","[0,2,1]","0","0","1","images/vehicles_choice1.png","1","vehicles","","plane","2","0"
"html-keyboard-response","226","867283","0.0-9.0-2.0-0.70","1731","2","2","""event"",""trial"",""time""
""fullscreenenter"",""1"",""4057""
","
","
","""event"",""trial"",""time""
""fullscreenenter"",""1"",""4057""
","
","","","","","","null","<div style=""font-size:60px;"">+</div>","null","","fixation","","","","","","","","","","","","","",""
"learning-trial","227","871286","0.0-9.0-2.0-1.70","1731","2","2","""event"",""trial"",""time""
""fullscreenenter"",""1"",""4057""
","
","
","""event"",""trial"",""time""
""fullscreenenter"",""1"",""4057""
","
","","","","","","3256.9000000953674","images/plane4.png","","","learning","images/vehicles_choice2.png","images/vehicles_choice1.png","images/vehicles_choice3.png","[1,0,2]","0","1","3","images/vehicles_choice3.png","-1","vehicles","","plane","2","0"
"html-keyboard-response","228","871788","0.0-9.0-2.0-0.71","1731","2","2","""event"",""trial"",""time""
""fullscreenenter"",""1"",""4057""
","
","
","""event"",""trial"",""time""
""fullscreenenter"",""1"",""4057""
","
","","","","","","null","<div style=""font-size:60px;"">+</div>","null","","fixation","","","","","","","","","","","","","",""
"learning-trial","229","875791","0.0-9.0-2.0-1.71","1731","2","2","""event"",""trial"",""time""
""fullscreenenter"",""1"",""4057""
","
","
","""event"",""trial"",""time""
""fullscreenenter"",""1"",""4057""
","
","","","","","","1142.7000000476837","images/plane3.png","","","learning","images/vehicles_choice3.png","images/vehicles_choice1.png","images/vehicles_choice2.png","[2,0,1]","2","0","1","images/vehicles_choice3.png","1","vehicles","","plane","2","0"
"html-button-response","230","879596","0.0-9.0-3.0","1731","2","2","""event"",""trial"",""time""
""fullscreenenter"",""1"",""4057""
","
","
","""event"",""trial"",""time""
""fullscreenenter"",""1"",""4057""
","
","","","","","","3802.5","<p> You have completed the round! <p> In this round, you earned -8 points! </p>","0","","break","","","","","","","","","","","","","",""
"html-button-response","231","881190","0.0-10.0","1731","2","2","""event"",""trial"",""time""
""fullscreenenter"",""1"",""4057""
","
","
","""event"",""trial"",""time""
""fullscreenenter"",""1"",""4057""
","
","","","","","","1592.7999999523163","<p> Now it's time to play another round. </p>","0","","transition_screen","","","","","","","","","","","","","",""
"preload","232","886335","0.0-11.0-0.0","1731","2","2","""event"",""trial"",""time""
""fullscreenenter"",""1"",""4057""
","
","
","""event"",""trial"",""time""
""fullscreenenter"",""1"",""4057""
","
","true","false","[]","[]","[]","","","","","","","","","","","","","","","","","","",""
"learning-instructions","233","895187","0.0-11.0-1.0-0.0","1731","2","2","""event"",""trial"",""time""
""fullscreenenter"",""1"",""4057""
","
","
","""event"",""trial"",""time""
""fullscreenenter"",""1"",""4057""
","
","","","","","","1606","<p> Your goal in this round is to grow a beautiful garden by watering plants. </p><p> You will need to water many different plants. </p></div>","","0","instructions","","","","","","","","","","","","","",""
"learning-instructions","234","909102","0.0-11.0-1.0-0.1","1731","2","2","""event"",""trial"",""time""
""fullscreenenter"",""1"",""4057""
","
","
","""event"",""trial"",""time""
""fullscreenenter"",""1"",""4057""
","
","","","","","","631","<p> On each turn, you will see a picture of one of your plants and three different watering cans.  </p><p> Each watering can has a different mixture of water and fertilizer.  </p><p> You need to select which watering can to use for each plant. </p>","","0","instructions","","","","","","","","","","","","","",""
"learning-instructions","235","917776","0.0-11.0-1.0-0.2","1731","2","2","""event"",""trial"",""time""
""fullscreenenter"",""1"",""4057""
","
","
","""event"",""trial"",""time""
""fullscreenenter"",""1"",""4057""
","
