"trial_type","trial_index","time_elapsed","internal_node_id","subject_id","condition","task_version","interactions","blur_events","focus_events","fullscreenenter_events","fullscreenexit_events","success","timeout","failed_images","failed_audio","failed_video","rt","stimulus","response","button_pressed","task_part","left_choice","middle_choice","right_choice","choice_positions","correct_response","correct_position","key_press","option_selected","points","task_block","correct","stim_cat","block_condition","block_number"
"pavlovia","0","21","0.0-0.0","1609","2","2","""event"",""trial"",""time""
""focus"",""0"",""3""
""fullscreenenter"",""1"",""6615""
","
","""event"",""trial"",""time""
""focus"",""0"",""3""
","""event"",""trial"",""time""
""fullscreenenter"",""1"",""6615""
","
","","","","","","","","","","","","","","","","","","","","","","","",""
"fullscreen","1","7395","0.0-1.0","1609","2","2","""event"",""trial"",""time""
""focus"",""0"",""3""
""fullscreenenter"",""1"",""6615""
","
","""event"",""trial"",""time""
""focus"",""0"",""3""
","""event"",""trial"",""time""
""fullscreenenter"",""1"",""6615""
","
","true","","","","","","","","","","","","","","","","","","","","","","",""
"preload","2","11327","0.0-2.0","1609","2","2","""event"",""trial"",""time""
""focus"",""0"",""3""
""fullscreenenter"",""1"",""6615""
","
","""event"",""trial"",""time""
""focus"",""0"",""3""
","""event"",""trial"",""time""
""fullscreenenter"",""1"",""6615""
","
","true","false","[]","[]","[]","","","","","","","","","","","","","","","","","","",""
"audio-keyboard-response","3","14064","0.0-3.0","1609","2","2","""event"",""trial"",""time""
""focus"",""0"",""3""
""fullscreenenter"",""1"",""6615""
","
","""event"",""trial"",""time""
""focus"",""0"",""3""
","""event"",""trial"",""time""
""fullscreenenter"",""1"",""6615""
","
","","","","","","2741.3333333333335","audio/beep_loop.wav"," ","","","","","","","","","","","","","","","",""
"audio-button-response","4","17175","0.0-4.0","1609","2","2","""event"",""trial"",""time""
""focus"",""0"",""3""
""fullscreenenter"",""1"",""6615""
","
","""event"",""trial"",""time""
""focus"",""0"",""3""
","""event"",""trial"",""time""
""fullscreenenter"",""1"",""6615""
","
","","","","","","3099","audio/shark.wav","4","","","","","","","","","","","","","","","",""
"audio-button-response","5","21668","0.0-5.0","1609","2","2","""event"",""trial"",""time""
""focus"",""0"",""3""
""fullscreenenter"",""1"",""6615""
","
","""event"",""trial"",""time""
""focus"",""0"",""3""
","""event"",""trial"",""time""
""fullscreenenter"",""1"",""6615""
","
","","","","","","3480","audio/turtle.wav","1","","","","","","","","","","","","","","","",""
"preload","6","26760","0.0-6.0","1609","2","2","""event"",""trial"",""time""
""focus"",""0"",""3""
""fullscreenenter"",""1"",""6615""
","
","""event"",""trial"",""time""
""focus"",""0"",""3""
","""event"",""trial"",""time""
""fullscreenenter"",""1"",""6615""
","
","true","false","[]","[]","[]","","","","","","","","","","","","","","","","","","",""
"html-keyboard-response","7","28727","0.0-7.0","1609","2","2","""event"",""trial"",""time""
""focus"",""0"",""3""
""fullscreenenter"",""1"",""6615""
","
","""event"",""trial"",""time""
""focus"",""0"",""3""
","""event"",""trial"",""time""
""fullscreenenter"",""1"",""6615""
","
","","","","","","1967","Welcome to the experiment. Press any key to begin and to advance the instructions.","h","","","","","","","","","","","","","","","",""
"learning-instructions","8","37690","0.0-8.0-0.0-0.0","1609","2","2","""event"",""trial"",""time""
""focus"",""0"",""3""
""fullscreenenter"",""1"",""6615""
","
","""event"",""trial"",""time""
""focus"",""0"",""3""
","""event"",""trial"",""time""
""fullscreenenter"",""1"",""6615""
","
","","","","","","1199","<p> Welcome! Today you are going to play 6 different rounds of a decision-making game. </p><p> Use the mouse to click next to continue. </p>","","0","instructions","","","","","","","","","","","","","",""
"learning-instructions","9","42465","0.0-8.0-0.0-0.1","1609","2","2","""event"",""trial"",""time""
""focus"",""0"",""3""
""fullscreenenter"",""1"",""6615""
","
","""event"",""trial"",""time""
""focus"",""0"",""3""
","""event"",""trial"",""time""
""fullscreenenter"",""1"",""6615""
","
","","","","","","1763","<p> You will start with a practice round to learn the rules. </p>","","0","instructions","","","","","","","","","","","","","",""
"learning-instructions","10","53361","0.0-8.0-0.0-0.2","1609","2","2","""event"",""trial"",""time""
""focus"",""0"",""3""
""fullscreenenter"",""1"",""6615""
","
","""event"",""trial"",""time""
""focus"",""0"",""3""
","""event"",""trial"",""time""
""fullscreenenter"",""1"",""6615""
","
","","","","","","3150","<p> Your goal in this round is to deliver sports equipment to three different parks. </p><p> You will need to deliver many types of equipment. </p></div>","","0","instructions","","","","","","","","","","","","","",""
"learning-instructions","11","62417","0.0-8.0-0.0-0.3","1609","2","2","""event"",""trial"",""time""
""focus"",""0"",""3""
""fullscreenenter"",""1"",""6615""
","
","""event"",""trial"",""time""
""focus"",""0"",""3""
","""event"",""trial"",""time""
""fullscreenenter"",""1"",""6615""
","
","","","","","","556","<p> On each turn, you will see one piece of sports equipment and three different parks.  </p><p> You need to select which park to deliver the equipment to.  </p>","","0","instructions","","","","","","","","","","","","","",""
"learning-instructions","12","77166","0.0-8.0-0.0-0.4","1609","2","2","""event"",""trial"",""time""
""focus"",""0"",""3""
""fullscreenenter"",""1"",""6615""
","
","""event"",""trial"",""time""
""focus"",""0"",""3""
","""event"",""trial"",""time""
""fullscreenenter"",""1"",""6615""
","
","","","","","","1455","<p> You can select the park on the left by pressing the '1' key on your keyboard. <br>You can select the park in the middle by pressing the '2' key on your keyboard. <br>You can select the park on the right by pressing the '3' key on your keyboard.  </p><br><div class=""choice-instructions-grid""> <div class=""choice-option""><img src=""images/park1.png"" class=""choice-option-img"" stage=""instructions"" position=""0"" ><div class=""choice-option-text""> Press ""1."" </div></div><div class=""choice-option""><img src=""images/park2.png"" class=""choice-option-img"" stage=""instructions"" position=""1"" ><div class=""choice-option-text""> Press ""2."" </div></div><div class=""choice-option""><img src=""images/park3.png"" class=""choice-option-img"" stage=""instructions"" position=""2"" ><div class=""choice-option-text""> Press ""3."" </div></div></div>","","0","instructions","","","","","","","","","","","","","",""
"learning-instructions","13","83511","0.0-8.0-0.0-0.5","1609","2","2","""event"",""trial"",""time""
""focus"",""0"",""3""
""fullscreenenter"",""1"",""6615""
","
","""event"",""trial"",""time""
""focus"",""0"",""3""
","""event"",""trial"",""time""
""fullscreenenter"",""1"",""6615""
","
","","","","","","941","<p> If the kids in the park you chose like the equipment, they will be very happy! </p><div style='float: center;'><img src='images/check.png' width = '200' height = '200'></img>","","0","instructions","","","","","","","","","","","","","",""
"learning-instructions","14","89562","0.0-8.0-0.0-0.6","1609","2","2","""event"",""trial"",""time""
""focus"",""0"",""3""
""fullscreenenter"",""1"",""6615""
","
","""event"",""trial"",""time""
""focus"",""0"",""3""
","""event"",""trial"",""time""
""fullscreenenter"",""1"",""6615""
","
","","","","","","433","<p> But, if the kids in the park you chose do not like the equipment, they will be sad. </p><div style='float: center;'><img src='images/x.png' width = '200' height = '200'></img>","","0","instructions","","","","","","","","","","","","","",""
"learning-instructions","15","96750","0.0-8.0-0.0-0.7","1609","2","2","""event"",""trial"",""time""
""focus"",""0"",""3""
""fullscreenenter"",""1"",""6615""
","
","""event"",""trial"",""time""
""focus"",""0"",""3""
","""event"",""trial"",""time""
""fullscreenenter"",""1"",""6615""
","
","","","","","","740","<p> Importantly, the kids in each park like some pieces of sports equipment more than others. </p>","","0","instructions","","","","","","","","","","","","","",""
"learning-instructions","16","104914","0.0-8.0-0.0-0.8","1609","2","2","""event"",""trial"",""time""
""focus"",""0"",""3""
""fullscreenenter"",""1"",""6615""
","
","""event"",""trial"",""time""
""focus"",""0"",""3""
","""event"",""trial"",""time""
""fullscreenenter"",""1"",""6615""
","
","","","","","","2093","<p> If you choose the best park for each piece of equipment, the kids there will usually be happy. </p>","","0","instructions","","","","","","","","","","","","","",""
"learning-instructions","17","113123","0.0-8.0-0.0-0.9","1609","2","2","""event"",""trial"",""time""
""focus"",""0"",""3""
""fullscreenenter"",""1"",""6615""
","
","""event"",""trial"",""time""
""focus"",""0"",""3""
","""event"",""trial"",""time""
""fullscreenenter"",""1"",""6615""
","
","","","","","","1544","<p> However, even if you choose the best park for the equipment, the kids may sometimes be sad. </p>","","0","instructions","","","","","","","","","","","","","",""
"learning-instructions","18","121490","0.0-8.0-0.0-0.10","1609","2","2","""event"",""trial"",""time""
""focus"",""0"",""3""
""fullscreenenter"",""1"",""6615""
","
","""event"",""trial"",""time""
""focus"",""0"",""3""
","""event"",""trial"",""time""
""fullscreenenter"",""1"",""6615""
","
","","","","","","1121","<p> Similarly, even if you choose the <i>wrong</i> park for the equipment, the kids may still be happy sometimes.","","0","instructions","","","","","","","","","","","","","",""
"learning-instructions","19","128227","0.0-8.0-0.0-0.11","1609","2","2","""event"",""trial"",""time""
""focus"",""0"",""3""
""fullscreenenter"",""1"",""6615""
","
","""event"",""trial"",""time""
""focus"",""0"",""3""
","""event"",""trial"",""time""
""fullscreenenter"",""1"",""6615""
","
","","","","","","1667","<p> For example, the best park for this soccer ball is this one.<div style='float: center;'><img src='images/i1.png' width = '500' height = '268'></img>","","0","instructions","","","","","","","","","","","","","",""
"learning-instructions","20","133928","0.0-8.0-0.0-0.12","1609","2","2","""event"",""trial"",""time""
""focus"",""0"",""3""
""fullscreenenter"",""1"",""6615""
","
","""event"",""trial"",""time""
""focus"",""0"",""3""
","""event"",""trial"",""time""
""fullscreenenter"",""1"",""6615""
","
","","","","","","386","<p> Let's see what happens if you choose this park for the soccer ball five times.","","0","instructions","","","","","","","","","","","","","",""
"learning-instructions","21","139489","0.0-8.0-0.0-0.13","1609","2","2","""event"",""trial"",""time""
""focus"",""0"",""3""
""fullscreenenter"",""1"",""6615""
","
","""event"",""trial"",""time""
""focus"",""0"",""3""
","""event"",""trial"",""time""
""fullscreenenter"",""1"",""6615""
","
","","","","","","3388","<p> The kids are happy.<div style='float: left;'><img src='images/i2.png' width = '640' height = '360'></img>","","0","instructions","","","","","","","","","","","","","",""
"learning-instructions","22","142037","0.0-8.0-0.0-0.14","1609","2","2","""event"",""trial"",""time""
""focus"",""0"",""3""
""fullscreenenter"",""1"",""6615""
","
","""event"",""trial"",""time""
""focus"",""0"",""3""
","""event"",""trial"",""time""
""fullscreenenter"",""1"",""6615""
","
","","","","","","376","<p> The kids are happy.<div style='float: left;'><img src='images/i3.png' width = '640' height = '360'></img>","","0","instructions","","","","","","","","","","","","","",""
"learning-instructions","23","144409","0.0-8.0-0.0-0.15","1609","2","2","""event"",""trial"",""time""
""focus"",""0"",""3""
""fullscreenenter"",""1"",""6615""
","
","""event"",""trial"",""time""
""focus"",""0"",""3""
","""event"",""trial"",""time""
""fullscreenenter"",""1"",""6615""
","
","","","","","","187","<p> The kids are happy.<div style='float: left;'><img src='images/i4.png' width = '640' height = '360'></img>","","0","instructions","","","","","","","","","","","","","",""
"learning-instructions","24","146927","0.0-8.0-0.0-0.16","1609","2","2","""event"",""trial"",""time""
""focus"",""0"",""3""
""fullscreenenter"",""1"",""6615""
","
","""event"",""trial"",""time""
""focus"",""0"",""3""
","""event"",""trial"",""time""
""fullscreenenter"",""1"",""6615""
","
","","","","","","294","<p> The kids are sad.<div style='float: left;'><img src='images/i5.png' width = '640' height = '360'></img>","","0","instructions","","","","","","","","","","","","","",""
"learning-instructions","25","149514","0.0-8.0-0.0-0.17","1609","2","2","""event"",""trial"",""time""
""focus"",""0"",""3""
""fullscreenenter"",""1"",""6615""
","
","""event"",""trial"",""time""
""focus"",""0"",""3""
","""event"",""trial"",""time""
""fullscreenenter"",""1"",""6615""
","
","","","","","","410","<p> The kids are happy.<div style='float: left;'><img src='images/i6.png' width = '640' height = '360'></img>","","0","instructions","","","","","","","","","","","","","",""
"learning-instructions","26","157322","0.0-8.0-0.0-0.18","1609","2","2","""event"",""trial"",""time""
""focus"",""0"",""3""
""fullscreenenter"",""1"",""6615""
","
","""event"",""trial"",""time""
""focus"",""0"",""3""
","""event"",""trial"",""time""
""fullscreenenter"",""1"",""6615""
","
","","","","","","521","<p> As you can see, selecting that park for the soccer ball made the kids happy most of the time, but not all the time.","","0","instructions","","","","","","","","","","","","","",""
"learning-instructions","27","163541","0.0-8.0-0.0-0.19","1609","2","2","""event"",""trial"",""time""
""focus"",""0"",""3""
""fullscreenenter"",""1"",""6615""
","
","""event"",""trial"",""time""
""focus"",""0"",""3""
","""event"",""trial"",""time""
""fullscreenenter"",""1"",""6615""
","
","","","","","","201","<p> Now let's see what happens if you choose a DIFFERENT park for the soccer ball 5 times.","","0","instructions","","","","","","","","","","","","","",""
"learning-instructions","28","166288","0.0-8.0-0.0-0.20","1609","2","2","""event"",""trial"",""time""
""focus"",""0"",""3""
""fullscreenenter"",""1"",""6615""
","
","""event"",""trial"",""time""
""focus"",""0"",""3""
","""event"",""trial"",""time""
""fullscreenenter"",""1"",""6615""
","
","","","","","","516","<p> The kids are sad.<div style='float: left;'><img src='images/i7.png' width = '640' height = '360'></img>","","0","instructions","","","","","","","","","","","","","",""
"learning-instructions","29","168629","0.0-8.0-0.0-0.21","1609","2","2","""event"",""trial"",""time""
""focus"",""0"",""3""
""fullscreenenter"",""1"",""6615""
","
","""event"",""trial"",""time""
""focus"",""0"",""3""
","""event"",""trial"",""time""
""fullscreenenter"",""1"",""6615""
","
","","","","","","128","<p> The kids are sad.<div style='float: left;'><img src='images/i8.png' width = '640' height = '360'></img>","","0","instructions","","","","","","","","","","","","","",""
"learning-instructions","30","171186","0.0-8.0-0.0-0.22","1609","2","2","""event"",""trial"",""time""
""focus"",""0"",""3""
""fullscreenenter"",""1"",""6615""
","
","""event"",""trial"",""time""
""focus"",""0"",""3""
","""event"",""trial"",""time""
""fullscreenenter"",""1"",""6615""
","
","","","","","","365","<p> The kids are happy.<div style='float: left;'><img src='images/i9.png' width = '640' height = '360'></img>","","0","instructions","","","","","","","","","","","","","",""
"learning-instructions","31","173767","0.0-8.0-0.0-0.23","1609","2","2","""event"",""trial"",""time""
""focus"",""0"",""3""
""fullscreenenter"",""1"",""6615""
","
","""event"",""trial"",""time""
""focus"",""0"",""3""
","""event"",""trial"",""time""
""fullscreenenter"",""1"",""6615""
","
","","","","","","346","<p> The kids are sad.<div style='float: left;'><img src='images/i10.png' width = '640' height = '360'></img>","","0","instructions","","","","","","","","","","","","","",""
"learning-instructions","32","176243","0.0-8.0-0.0-0.24","1609","2","2","""event"",""trial"",""time""
""focus"",""0"",""3""
""fullscreenenter"",""1"",""6615""
","
","""event"",""trial"",""time""
""focus"",""0"",""3""
","""event"",""trial"",""time""
""fullscreenenter"",""1"",""6615""
","
","","","","","","261","<p> The kids are sad.<div style='float: left;'><img src='images/i11.png' width = '640' height = '360'></img>","","0","instructions","","","","","","","","","","","","","",""
"learning-instructions","33","186199","0.0-8.0-0.0-0.25","1609","2","2","""event"",""trial"",""time""
""focus"",""0"",""3""
""fullscreenenter"",""1"",""6615""
","
","""event"",""trial"",""time""
""focus"",""0"",""3""
","""event"",""trial"",""time""
""fullscreenenter"",""1"",""6615""
","
","","","","","","1820","<p> As you can see, selecting the wrong park for the soccer ball made the kids sad most of the time, but not all the time.","","0","instructions","","","","","","","","","","","","","",""
"learning-instructions","34","195516","0.0-8.0-0.0-0.26","1609","2","2","""event"",""trial"",""time""
""focus"",""0"",""3""
""fullscreenenter"",""1"",""6615""
","
","""event"",""trial"",""time""
""focus"",""0"",""3""
","""event"",""trial"",""time""
""fullscreenenter"",""1"",""6615""
","
","","","","","","176","<p> The different pieces of equipment belong in different parks. You need to try to learn which is the best park for each piece of equipment.","","0","instructions","","","","","","","","","","","","","",""
"learning-instructions","35","213098","0.0-8.0-0.0-0.27","1609","2","2","""event"",""trial"",""time""
""focus"",""0"",""3""
""fullscreenenter"",""1"",""6615""
","
","""event"",""trial"",""time""
""focus"",""0"",""3""
","""event"",""trial"",""time""
""fullscreenenter"",""1"",""6615""
","
","","","","","","1176","<p> Try to choose the best park for each piece of equipment, because you will <b> WIN </b> 1 point for each time you make the kids happy and <b>LOSE</b> 1 point for each time you make them sad. </p><p> Remember, if you make the best choice, you will win 1 point most of the time, but not all the time. </p>","","0","instructions","","","","","","","","","","","","","",""
"learning-instructions","36","220388","0.0-8.0-0.0-0.28","1609","2","2","""event"",""trial"",""time""
""focus"",""0"",""3""
""fullscreenenter"",""1"",""6615""
","
","""event"",""trial"",""time""
""focus"",""0"",""3""
","""event"",""trial"",""time""
""fullscreenenter"",""1"",""6615""
","
","","","","","","1797","<p> This is just a practice round, but in the real game, your bonus payment will depend on your total number of points.","","0","instructions","","","","","","","","","","","","","",""
"learning-instructions","37","232956","0.0-8.0-0.0-0.29","1609","2","2","""event"",""trial"",""time""
""focus"",""0"",""3""
""fullscreenenter"",""1"",""6615""
","
","""event"",""trial"",""time""
""focus"",""0"",""3""
","""event"",""trial"",""time""
""fullscreenenter"",""1"",""6615""
","
","","","","","","2225","<p> The position where each park appears will change throughout the game. </p><p> The position where the park appears <i> does not </i> influence how likely the kids are to be happy or sad. </p>","","0","instructions","","","","","","","","","","","","","",""
"learning-instructions","38","247869","0.0-8.0-0.0-0.30","1609","2","2","""event"",""trial"",""time""
""focus"",""0"",""3""
""fullscreenenter"",""1"",""6615""
","
","""event"",""trial"",""time""
""focus"",""0"",""3""
","""event"",""trial"",""time""
""fullscreenenter"",""1"",""6615""
","
","","","","","","4468","<p> You will have 4 seconds to make each choice. Try to respond before time runs out! </p><p> You will lose 1 point each time you do not make a response. </p>","","0","instructions","","","","","","","","","","","","","",""
"learning-instructions","39","261723","0.0-8.0-0.0-0.31","1609","2","2","""event"",""trial"",""time""
""focus"",""0"",""3""
""fullscreenenter"",""1"",""6615""
","
","""event"",""trial"",""time""
""focus"",""0"",""3""
","""event"",""trial"",""time""
""fullscreenenter"",""1"",""6615""
","
","","","","","","7040","<p> Remember, you should use the 1, 2, and 3 keys to select the park for each piece of equipment. </p><br><div class=""choice-instructions-grid""> <div class=""choice-option""><img src=""images/park1.png"" class=""choice-option-img"" stage=""instructions"" position=""0"" ><div class=""choice-option-text""> Press ""1."" </div></div><div class=""choice-option""><img src=""images/park2.png"" class=""choice-option-img"" stage=""instructions"" position=""1"" ><div class=""choice-option-text""> Press ""2."" </div></div><div class=""choice-option""><img src=""images/park3.png"" class=""choice-option-img"" stage=""instructions"" position=""2"" ><div class=""choice-option-text""> Press ""3."" </div></div></div>","","0","instructions","","","","","","","","","","","","","",""
"html-button-response","40","263291","0.0-8.0-1.0","1609","2","2","""event"",""trial"",""time""
""focus"",""0"",""3""
""fullscreenenter"",""1"",""6615""
","
","""event"",""trial"",""time""
""focus"",""0"",""3""
","""event"",""trial"",""time""
""fullscreenenter"",""1"",""6615""
","
","","","","","","1456","<p> Ready to practice? </p>","0","","","","","","","","","","","","","","","",""
"html-keyboard-response","41","263908","0.0-8.0-2.0-0.0","1609","2","2","""event"",""trial"",""time""
""focus"",""0"",""3""
""fullscreenenter"",""1"",""6615""
","
","""event"",""trial"",""time""
""focus"",""0"",""3""
","""event"",""trial"",""time""
""fullscreenenter"",""1"",""6615""
","
","","","","","","null","<div style=""font-size:60px;"">+</div>","null","","fixation","","","","","","","","","","","","","",""
"learning-trial","42","267919","0.0-8.0-2.0-1.0","1609","2","2","""event"",""trial"",""time""
""focus"",""0"",""3""
""fullscreenenter"",""1"",""6615""
","
","""event"",""trial"",""time""
""focus"",""0"",""3""
","""event"",""trial"",""time""
""fullscreenenter"",""1"",""6615""
","
","","","","","","null","images/racket3.png","","","practice","images/park2.png","images/park1.png","images/park3.png","[1,0,2]","0","1","null","null","-1","practice","","","",""
"html-keyboard-response","43","268431","0.0-8.0-2.0-0.1","1609","2","2","""event"",""trial"",""time""
""focus"",""0"",""3""
""fullscreenenter"",""1"",""6615""
","
","""event"",""trial"",""time""
""focus"",""0"",""3""
","""event"",""trial"",""time""
""fullscreenenter"",""1"",""6615""
","
","","","","","","null","<div style=""font-size:60px;"">+</div>","null","","fixation","","","","","","","","","","","","","",""
"learning-trial","44","272441","0.0-8.0-2.0-1.1","1609","2","2","""event"",""trial"",""time""
""focus"",""0"",""3""
""fullscreenenter"",""1"",""6615""
","
","""event"",""trial"",""time""
""focus"",""0"",""3""
","""event"",""trial"",""time""
""fullscreenenter"",""1"",""6615""
","
","","","","","","2367","images/ball3.png","","","practice","images/park3.png","images/park1.png","images/park2.png","[2,0,1]","1","2","2","images/park1.png","-1","practice","","","",""
"html-keyboard-response","45","272957","0.0-8.0-2.0-0.2","1609","2","2","""event"",""trial"",""time""
""focus"",""0"",""3""
""fullscreenenter"",""1"",""6615""
","
","""event"",""trial"",""time""
""focus"",""0"",""3""
","""event"",""trial"",""time""
""fullscreenenter"",""1"",""6615""
","
","","","","","","null","<div style=""font-size:60px;"">+</div>","null","","fixation","","","","","","","","","","","","","",""
"learning-trial","46","276965","0.0-8.0-2.0-1.2","1609","2","2","""event"",""trial"",""time""
""focus"",""0"",""3""
""fullscreenenter"",""1"",""6615""
","
","""event"",""trial"",""time""
""focus"",""0"",""3""
","""event"",""trial"",""time""
""fullscreenenter"",""1"",""6615""
","
","","","","","","2029","images/racket4.png","","","practice","images/park1.png","images/park2.png","images/park3.png","[0,1,2]","2","2","1","images/park1.png","-1","practice","","","",""
"html-keyboard-response","47","277479","0.0-8.0-2.0-0.3","1609","2","2","""event"",""trial"",""time""
""focus"",""0"",""3""
""fullscreenenter"",""1"",""6615""
","
","""event"",""trial"",""time""
""focus"",""0"",""3""
","""event"",""trial"",""time""
""fullscreenenter"",""1"",""6615""
","
","","","","","","null","<div style=""font-size:60px;"">+</div>","null","","fixation","","","","","","","","","","","","","",""
"learning-trial","48","281485","0.0-8.0-2.0-1.3","1609","2","2","""event"",""trial"",""time""
""focus"",""0"",""3""
""fullscreenenter"",""1"",""6615""
","
","""event"",""trial"",""time""
""focus"",""0"",""3""
","""event"",""trial"",""time""
""fullscreenenter"",""1"",""6615""
","
","","","","","","750","images/racket2.png","","","practice","images/park2.png","images/park3.png","images/park1.png","[1,2,0]","2","1","3","images/park1.png","1","practice","","","",""
"html-keyboard-response","49","282000","0.0-8.0-2.0-0.4","1609","2","2","""event"",""trial"",""time""
""focus"",""0"",""3""
""fullscreenenter"",""1"",""6615""
","
","""event"",""trial"",""time""
""focus"",""0"",""3""
","""event"",""trial"",""time""
""fullscreenenter"",""1"",""6615""
","
","","","","","","null","<div style=""font-size:60px;"">+</div>","null","","fixation","","","","","","","","","","","","","",""
"learning-trial","50","286010","0.0-8.0-2.0-1.4","1609","2","2","""event"",""trial"",""time""
""focus"",""0"",""3""
""fullscreenenter"",""1"",""6615""
","
","""event"",""trial"",""time""
""focus"",""0"",""3""
","""event"",""trial"",""time""
""fullscreenenter"",""1"",""6615""
","
","","","","","","1077","images/ball1.png","","","practice","images/park2.png","images/park1.png","images/park3.png","[1,0,2]","1","0","2","images/park1.png","1","practice","","","",""
"html-keyboard-response","51","286524","0.0-8.0-2.0-0.5","1609","2","2","""event"",""trial"",""time""
""focus"",""0"",""3""
""fullscreenenter"",""1"",""6615""
","
","""event"",""trial"",""time""
""focus"",""0"",""3""
","""event"",""trial"",""time""
""fullscreenenter"",""1"",""6615""
","
","","","","","","null","<div style=""font-size:60px;"">+</div>","null","","fixation","","","","","","","","","","","","","",""
"learning-trial","52","290531","0.0-8.0-2.0-1.5","1609","2","2","""event"",""trial"",""time""
""focus"",""0"",""3""
""fullscreenenter"",""1"",""6615""
","
","""event"",""trial"",""time""
""focus"",""0"",""3""
","""event"",""trial"",""time""
""fullscreenenter"",""1"",""6615""
","
","","","","","","2383","images/racket3.png","","","practice","images/park1.png","images/park3.png","images/park2.png","[0,2,1]","0","0","2","images/park3.png","-1","practice","","","",""
"html-keyboard-response","53","291043","0.0-8.0-2.0-0.6","1609","2","2","""event"",""trial"",""time""
""focus"",""0"",""3""
""fullscreenenter"",""1"",""6615""
","
","""event"",""trial"",""time""
""focus"",""0"",""3""
","""event"",""trial"",""time""
""fullscreenenter"",""1"",""6615""
","
","","","","","","null","<div style=""font-size:60px;"">+</div>","null","","fixation","","","","","","","","","","","","","",""
"learning-trial","54","295053","0.0-8.0-2.0-1.6","1609","2","2","""event"",""trial"",""time""
""focus"",""0"",""3""
""fullscreenenter"",""1"",""6615""
","
","""event"",""trial"",""time""
""focus"",""0"",""3""
","""event"",""trial"",""time""
""fullscreenenter"",""1"",""6615""
","
","","","","","","2136","images/ball3.png","","","practice","images/park3.png","images/park1.png","images/park2.png","[2,0,1]","1","2","2","images/park1.png","-1","practice","","","",""
"html-keyboard-response","55","295568","0.0-8.0-2.0-0.7","1609","2","2","""event"",""trial"",""time""
""focus"",""0"",""3""
""fullscreenenter"",""1"",""6615""
","
","""event"",""trial"",""time""
""focus"",""0"",""3""
","""event"",""trial"",""time""
""fullscreenenter"",""1"",""6615""
","
","","","","","","null","<div style=""font-size:60px;"">+</div>","null","","fixation","","","","","","","","","","","","","",""
"learning-trial","56","299571","0.0-8.0-2.0-1.7","1609","2","2","""event"",""trial"",""time""
""focus"",""0"",""3""
""fullscreenenter"",""1"",""6615""
","
","""event"",""trial"",""time""
""focus"",""0"",""3""
","""event"",""trial"",""time""
""fullscreenenter"",""1"",""6615""
","
","","","","","","2217","images/racket4.png","","","practice","images/park3.png","images/park2.png","images/park1.png","[2,1,0]","2","0","3","images/park1.png","-1","practice","","","",""
"html-keyboard-response","57","300085","0.0-8.0-2.0-0.8","1609","2","2","""event"",""trial"",""time""
""focus"",""0"",""3""
""fullscreenenter"",""1"",""6615""
","
","""event"",""trial"",""time""
""focus"",""0"",""3""
","""event"",""trial"",""time""
""fullscreenenter"",""1"",""6615""
","
","","","","","","null","<div style=""font-size:60px;"">+</div>","null","","fixation","","","","","","","","","","","","","",""
"learning-trial","58","304092","0.0-8.0-2.0-1.8","1609","2","2","""event"",""trial"",""time""
""focus"",""0"",""3""
""fullscreenenter"",""1"",""6615""
","
","""event"",""trial"",""time""
""focus"",""0"",""3""
","""event"",""trial"",""time""
""fullscreenenter"",""1"",""6615""
","
","","","","","","1890","images/racket2.png","","","practice","images/park3.png","images/park1.png","images/park2.png","[2,0,1]","2","0","2","images/park1.png","-1","practice","","","",""
"html-keyboard-response","59","304607","0.0-8.0-2.0-0.9","1609","2","2","""event"",""trial"",""time""
""focus"",""0"",""3""
""fullscreenenter"",""1"",""6615""
","
","""event"",""trial"",""time""
""focus"",""0"",""3""
","""event"",""trial"",""time""
""fullscreenenter"",""1"",""6615""
","
","","","","","","null","<div style=""font-size:60px;"">+</div>","null","","fixation","","","","","","","","","","","","","",""
"learning-trial","60","308623","0.0-8.0-2.0-1.9","1609","2","2","""event"",""trial"",""time""
""focus"",""0"",""3""
""fullscreenenter"",""1"",""6615""
","
","""event"",""trial"",""time""
""focus"",""0"",""3""
","""event"",""trial"",""time""
""fullscreenenter"",""1"",""6615""
","
","","","","","","1186","images/ball1.png","","","practice","images/park1.png","images/park2.png","images/park3.png","[0,1,2]","1","1","2","images/park2.png","1","practice","","","",""
"html-keyboard-response","61","309124","0.0-8.0-2.0-0.10","1609","2","2","""event"",""trial"",""time""
""focus"",""0"",""3""
""fullscreenenter"",""1"",""6615""
","
","""event"",""trial"",""time""
""focus"",""0"",""3""
","""event"",""trial"",""time""
""fullscreenenter"",""1"",""6615""
","
","","","","","","null","<div style=""font-size:60px;"">+</div>","null","","fixation","","","","","","","","","","","","","",""
"learning-trial","62","313138","0.0-8.0-2.0-1.10","1609","2","2","""event"",""trial"",""time""
""focus"",""0"",""3""
""fullscreenenter"",""1"",""6615""
","
","""event"",""trial"",""time""
""focus"",""0"",""3""
","""event"",""trial"",""time""
""fullscreenenter"",""1"",""6615""
","
","","","","","","2307","images/ball4.png","","","practice","images/park2.png","images/park3.png","images/park1.png","[1,2,0]","0","2","2","images/park3.png","-1","practice","","","",""
"html-keyboard-response","63","313651","0.0-8.0-2.0-0.11","1609","2","2","""event"",""trial"",""time""
""focus"",""0"",""3""
""fullscreenenter"",""1"",""6615""
","
","""event"",""trial"",""time""
""focus"",""0"",""3""
","""event"",""trial"",""time""
""fullscreenenter"",""1"",""6615""
","
","","","","","","null","<div style=""font-size:60px;"">+</div>","null","","fixation","","","","","","","","","","","","","",""
"learning-trial","64","317667","0.0-8.0-2.0-1.11","1609","2","2","""event"",""trial"",""time""
""focus"",""0"",""3""
""fullscreenenter"",""1"",""6615""
","
","""event"",""trial"",""time""
""focus"",""0"",""3""
","""event"",""trial"",""time""
""fullscreenenter"",""1"",""6615""
","
","","","","","","2591","images/ball4.png","","","practice","images/park2.png","images/park1.png","images/park3.png","[1,0,2]","0","1","2","images/park1.png","1","practice","","","",""
"html-button-response","65","319716","0.0-8.0-3.0","1609","2","2","""event"",""trial"",""time""
""focus"",""0"",""3""
""fullscreenenter"",""1"",""6615""
","
","""event"",""trial"",""time""
""focus"",""0"",""3""
","""event"",""trial"",""time""
""fullscreenenter"",""1"",""6615""
","
","","","","","","2047","<p> You earned -4 points in the practice round! </p>","0","","break","","","","","","","","","","","","","",""
"learning-instructions","66","335169","0.0-8.0-4.0-0.0","1609","2","2","""event"",""trial"",""time""
""focus"",""0"",""3""
""fullscreenenter"",""1"",""6615""
","
","""event"",""trial"",""time""
""focus"",""0"",""3""
","""event"",""trial"",""time""
""fullscreenenter"",""1"",""6615""
","
","","","","","","7779","<p> It's almost time to start the real game. </p><p> Before you start, we're going to ask you a few questions about how the game works. </p>","","0","instructions","","","","","","","","","","","","","",""
"preload","67","336664","0.0-8.0-5.0","1609","2","2","""event"",""trial"",""time""
""focus"",""0"",""3""
""fullscreenenter"",""1"",""6615""
","
","""event"",""trial"",""time""
""focus"",""0"",""3""
","""event"",""trial"",""time""
""fullscreenenter"",""1"",""6615""
","
","true","false","[]","[]","[]","","","","","","","","","","","","","","","","","","",""
"comp-q","68","343878","0.0-8.0-6.0-0.0","1609","2","2","""event"",""trial"",""time""
""focus"",""0"",""3""
""fullscreenenter"",""1"",""6615""
","
","""event"",""trial"",""time""
""focus"",""0"",""3""
","""event"",""trial"",""time""
""fullscreenenter"",""1"",""6615""
","
","","","","","","1748","<p> <b> True or False? </b> </p><p> If you choose the best option, you will always earn 1 point. </p>","","1","comp_question","","","","","","","","","","","true","","",""
"comp-q","69","351283","0.0-8.0-6.0-1.0","1609","2","2","""event"",""trial"",""time""
""focus"",""0"",""3""
""fullscreenenter"",""1"",""6615""
","
","""event"",""trial"",""time""
""focus"",""0"",""3""
","""event"",""trial"",""time""
""fullscreenenter"",""1"",""6615""
","
","","","","","","1722","<p><b> That's right! </b> Sometimes you will lose 1 point, even if you choose the best option. </p>","","0","comp_answer","","","","","","","","","","","","","",""
"comp-q","70","356533","0.0-8.0-6.0-0.1","1609","2","2","""event"",""trial"",""time""
""focus"",""0"",""3""
""fullscreenenter"",""1"",""6615""
","
","""event"",""trial"",""time""
""focus"",""0"",""3""
","""event"",""trial"",""time""
""fullscreenenter"",""1"",""6615""
","
","","","","","","602","<p> <b> True or False? </b> </p><p> You will have as much time as you want to make each choice. </p>","","1","comp_question","","","","","","","","","","","true","","",""
"comp-q","71","362162","0.0-8.0-6.0-1.1","1609","2","2","""event"",""trial"",""time""
""focus"",""0"",""3""
""fullscreenenter"",""1"",""6615""
","
","""event"",""trial"",""time""
""focus"",""0"",""3""
","""event"",""trial"",""time""
""fullscreenenter"",""1"",""6615""
","
","","","","","","811","<p> <b> That's right! </b> You will only have 4 seconds to make each choice. </p>","","0","comp_answer","","","","","","","","","","","","","",""
"comp-q","72","369221","0.0-8.0-6.0-0.2","1609","2","2","""event"",""trial"",""time""
""focus"",""0"",""3""
""fullscreenenter"",""1"",""6615""
","
","""event"",""trial"",""time""
""focus"",""0"",""3""
","""event"",""trial"",""time""
""fullscreenenter"",""1"",""6615""
","
","","","","","","892","<p> <b> True or False? </b> </p><p> You should use the '1', '2', and '3' keys to make your choices. </p>","","0","comp_question","","","","","","","","","","","true","","",""
"comp-q","73","375163","0.0-8.0-6.0-1.2","1609","2","2","""event"",""trial"",""time""
""focus"",""0"",""3""
""fullscreenenter"",""1"",""6615""
","
","""event"",""trial"",""time""
""focus"",""0"",""3""
","""event"",""trial"",""time""
""fullscreenenter"",""1"",""6615""
","
","","","","","","1072","<p> <b> That's right! </b> You should use the '1', '2', and '3' keys to make each choice. </p>","","0","comp_answer","","","","","","","","","","","","","",""
"learning-instructions","74","385803","0.0-8.0-7.0-0.0","1609","2","2","""event"",""trial"",""time""
""focus"",""0"",""3""
""fullscreenenter"",""1"",""6615""
","
","""event"",""trial"",""time""
""focus"",""0"",""3""
","""event"",""trial"",""time""
""fullscreenenter"",""1"",""6615""
","
","","","","","","2132","<p> It's now time to start the real game. </p>Do your best, because the points you earn in the next rounds will influence your bonus payment. </p>","","0","instructions","","","","","","","","","","","","","",""
"preload","75","387776","0.0-9.0-0.0","1609","2","2","""event"",""trial"",""time""
""focus"",""0"",""3""
""fullscreenenter"",""1"",""6615""
","
","""event"",""trial"",""time""
""focus"",""0"",""3""
","""event"",""trial"",""time""
""fullscreenenter"",""1"",""6615""
","
","true","false","[]","[]","[]","","","","","","","","","","","","","","","","","","",""
"learning-instructions","76","396247","0.0-9.0-1.0-0.0","1609","2","2","""event"",""trial"",""time""
""focus"",""0"",""3""
""fullscreenenter"",""1"",""6615""
","
","""event"",""trial"",""time""
""focus"",""0"",""3""
","""event"",""trial"",""time""
""fullscreenenter"",""1"",""6615""
","
","","","","","","678","<p> Your goal in this round is to deliver furniture to three different buildings. </p><p> You will need to deliver many pieces of furniture. </p></div>","","0","instructions","","","","","","","","","","","","","",""
"learning-instructions","77","404550","0.0-9.0-1.0-0.1","1609","2","2","""event"",""trial"",""time""
""focus"",""0"",""3""
""fullscreenenter"",""1"",""6615""
","
","""event"",""trial"",""time""
""focus"",""0"",""3""
","""event"",""trial"",""time""
""fullscreenenter"",""1"",""6615""
","
","","","","","","858","<p> On each turn, you will see a picture of a furniture item and three different buildings.  </p><p> You need to select the building that you want to deliver the furniture to.  </p>","","0","instructions","","","","","","","","","","","","","",""
"learning-instructions","78","413204","0.0-9.0-1.0-0.2","1609","2","2","""event"",""trial"",""time""
""focus"",""0"",""3""
""fullscreenenter"",""1"",""6615""
","
","""event"",""trial"",""time""
""focus"",""0"",""3""
","""event"",""trial"",""time""
""fullscreenenter"",""1"",""6615""
","
","","","","","","344","<p> You can select the building on the left by pressing 1, the building in the middle by pressing 2, and the building on the right by pressing 3.  </p><br><div class=""choice-instructions-grid""> <div class=""choice-option""><img src=""images/furniture_choice1.png"" class=""choice-option-img"" stage=""instructions"" position=""0"" ><div class=""choice-option-text""> Press ""1."" </div></div><div class=""choice-option""><img src=""images/furniture_choice2.png"" class=""choice-option-img"" stage=""instructions"" position=""1"" ><div class=""choice-option-text""> Press ""2."" </div></div><div class=""choice-option""><img src=""images/furniture_choice3.png"" class=""choice-option-img"" stage=""instructions"" position=""2"" ><div class=""choice-option-text""> Press ""3."" </div></div></div>","","0","instructions","","","","","","","","","","","","","",""
"learning-instructions","79","419943","0.0-9.0-1.0-0.3","1609","2","2","""event"",""trial"",""time""
""focus"",""0"",""3""
""fullscreenenter"",""1"",""6615""
","
","""event"",""trial"",""time""
""focus"",""0"",""3""
","""event"",""trial"",""time""
""fullscreenenter"",""1"",""6615""
","
","","","","","","691","<p> If the furniture belongs in the building you chose, the building owner will likely be very happy! </p><div style='float: center;'><img src='images/check.png' width = '200' height = '200'></img>","","0","instructions","","","","","","","","","","","","","",""
"learning-instructions","80","426447","0.0-9.0-1.0-0.4","1609","2","2","""event"",""trial"",""time""
""focus"",""0"",""3""
""fullscreenenter"",""1"",""6615""
","
","""event"",""trial"",""time""
""focus"",""0"",""3""
","""event"",""trial"",""time""
""fullscreenenter"",""1"",""6615""
","
","","","","","","486","<p> But, if the furniture does not belong in the building you chose, the owner will likely be mad. </p><div style='float: center;'><img src='images/x.png' width = '200' height = '200'></img>","","0","instructions","","","","","","","","","","","","","",""
"learning-instructions","81","443614","0.0-9.0-1.0-0.5","1609","2","2","""event"",""trial"",""time""
""focus"",""0"",""3""
""fullscreenenter"",""1"",""6615""
","
","""event"",""trial"",""time""
""focus"",""0"",""3""
","""event"",""trial"",""time""
""fullscreenenter"",""1"",""6615""
","
","","","","","","5945","<p> Importantly, each piece of furniture belongs in one of the three buildings. </p><p> If you choose the correct building for the piece of furniture, you will be more likely to make the building owner happy! </p>","","0","instructions","","","","","","","","","","","","","",""
"learning-instructions","82","455720","0.0-9.0-1.0-0.6","1609","2","2","""event"",""trial"",""time""
""focus"",""0"",""3""
""fullscreenenter"",""1"",""6615""
","
","""event"",""trial"",""time""
""focus"",""0"",""3""
","""event"",""trial"",""time""
""fullscreenenter"",""1"",""6615""
","
","","","","","","579","<p> However, even if you choose the best building for the furniture, the owner may still be mad sometimes. </p><p> Similarly, even if you choose the <i>wrong</i> building, the owner may still be happy.","","0","instructions","","","","","","","","","","","","","",""
"learning-instructions","83","469276","0.0-9.0-1.0-0.7","1609","2","2","""event"",""trial"",""time""
""focus"",""0"",""3""
""fullscreenenter"",""1"",""6615""
""fullscreenexit"",""84"",""472638""
""blur"",""84"",""478994""
""focus"",""84"",""479753""
","""event"",""trial"",""time""
""blur"",""84"",""478994""
","""event"",""trial"",""time""
""focus"",""0"",""3""
""focus"",""84"",""479753""
","""event"",""trial"",""time""
""fullscreenenter"",""1"",""6615""
","""event"",""trial"",""time""
""fullscreenexit"",""84"",""472638""
","","","","","","297","<p> Try to choose the best building for each piece of furniture, because you will <b> WIN </b> 1 point each time a building owner is happy and <b>LOSE</b>  1 point each time a building owner is mad. </p><p> Your bonus payment will depend on your total number of points.","","0","instructions","","","","","","","","","","","","","",""
"learning-instructions","84","481117","0.0-9.0-1.0-0.8","1609","2","2","""event"",""trial"",""time""
""focus"",""0"",""3""
""fullscreenenter"",""1"",""6615""
""fullscreenexit"",""84"",""472638""
""blur"",""84"",""478994""
""focus"",""84"",""479753""
","""event"",""trial"",""time""
""blur"",""84"",""478994""
","""event"",""trial"",""time""
""focus"",""0"",""3""
""focus"",""84"",""479753""
","""event"",""trial"",""time""
""fullscreenenter"",""1"",""6615""
","""event"",""trial"",""time""
""fullscreenexit"",""84"",""472638""
","","","","","","2843","<p> The position of each building will change throughout the round. </p><p> The building's position <i> does not </i> influence how likely the owner is to be happy or mad. </p>","","0","instructions","","","","","","","","","","","","","",""
"learning-instructions","85","500390","0.0-9.0-1.0-0.9","1609","2","2","""event"",""trial"",""time""
""focus"",""0"",""3""
""fullscreenenter"",""1"",""6615""
""fullscreenexit"",""84"",""472638""
""blur"",""84"",""478994""
""focus"",""84"",""479753""
","""event"",""trial"",""time""
""blur"",""84"",""478994""
","""event"",""trial"",""time""
""focus"",""0"",""3""
""focus"",""84"",""479753""
","""event"",""trial"",""time""
""fullscreenenter"",""1"",""6615""
","""event"",""trial"",""time""
""fullscreenexit"",""84"",""472638""
","","","","","","9959","<p> You will have 4 seconds to make each choice. Try to respond before time runs out! </p><p> You will lose 1 point each time you do not make a response. </p>","","0","instructions","","","","","","","","","","","","","",""
"html-keyboard-response","86","500997","0.0-9.0-2.0-0.0","1609","2","2","""event"",""trial"",""time""
""focus"",""0"",""3""
""fullscreenenter"",""1"",""6615""
""fullscreenexit"",""84"",""472638""
""blur"",""84"",""478994""
""focus"",""84"",""479753""
","""event"",""trial"",""time""
""blur"",""84"",""478994""
","""event"",""trial"",""time""
""focus"",""0"",""3""
""focus"",""84"",""479753""
","""event"",""trial"",""time""
""fullscreenenter"",""1"",""6615""
","""event"",""trial"",""time""
""fullscreenexit"",""84"",""472638""
","","","","","","null","<div style=""font-size:60px;"">+</div>","null","","fixation","","","","","","","","","","","","","",""
"learning-trial","87","505010","0.0-9.0-2.0-1.0","1609","2","2","""event"",""trial"",""time""
""focus"",""0"",""3""
""fullscreenenter"",""1"",""6615""
""fullscreenexit"",""84"",""472638""
""blur"",""84"",""478994""
""focus"",""84"",""479753""
","""event"",""trial"",""time""
""blur"",""84"",""478994""
","""event"",""trial"",""time""
""focus"",""0"",""3""
""focus"",""84"",""479753""
","""event"",""trial"",""time""
""fullscreenenter"",""1"",""6615""
","""event"",""trial"",""time""
""fullscreenexit"",""84"",""472638""
","","","","","","1254","images/bed2.png","","","learning","images/furniture_choice2.png","images/furniture_choice3.png","images/furniture_choice1.png","[1,2,0]","2","1","1","images/furniture_choice2.png","-1","furniture","","bed","2","0"
"html-keyboard-response","88","505516","0.0-9.0-2.0-0.1","1609","2","2","""event"",""trial"",""time""
""focus"",""0"",""3""
""fullscreenenter"",""1"",""6615""
""fullscreenexit"",""84"",""472638""
""blur"",""84"",""478994""
""focus"",""84"",""479753""
","""event"",""trial"",""time""
""blur"",""84"",""478994""
","""event"",""trial"",""time""
""focus"",""0"",""3""
""focus"",""84"",""479753""
","""event"",""trial"",""time""
""fullscreenenter"",""1"",""6615""
","""event"",""trial"",""time""
""fullscreenexit"",""84"",""472638""
","","","","","","null","<div style=""font-size:60px;"">+</div>","null","","fixation","","","","","","","","","","","","","",""
"learning-trial","89","509528","0.0-9.0-2.0-1.1","1609","2","2","""event"",""trial"",""time""
""focus"",""0"",""3""
""fullscreenenter"",""1"",""6615""
""fullscreenexit"",""84"",""472638""
""blur"",""84"",""478994""
""focus"",""84"",""479753""
","""event"",""trial"",""time""
""blur"",""84"",""478994""
","""event"",""trial"",""time""
""focus"",""0"",""3""
""focus"",""84"",""479753""
","""event"",""trial"",""time""
""fullscreenenter"",""1"",""6615""
","""event"",""trial"",""time""
""fullscreenexit"",""84"",""472638""
","","","","","","1537","images/sofa4.png","","","learning","images/furniture_choice2.png","images/furniture_choice1.png","images/furniture_choice3.png","[1,0,2]","1","0","1","images/furniture_choice2.png","1","furniture","","sofa","2","0"
"html-keyboard-response","90","510034","0.0-9.0-2.0-0.2","1609","2","2","""event"",""trial"",""time""
""focus"",""0"",""3""
""fullscreenenter"",""1"",""6615""
""fullscreenexit"",""84"",""472638""
""blur"",""84"",""478994""
""focus"",""84"",""479753""
","""event"",""trial"",""time""
""blur"",""84"",""478994""
","""event"",""trial"",""time""
""focus"",""0"",""3""
""focus"",""84"",""479753""
","""event"",""trial"",""time""
""fullscreenenter"",""1"",""6615""
","""event"",""trial"",""time""
""fullscreenexit"",""84"",""472638""
","","","","","","null","<div style=""font-size:60px;"">+</div>","null","","fixation","","","","","","","","","","","","","",""
"learning-trial","91","514043","0.0-9.0-2.0-1.2","1609","2","2","""event"",""trial"",""time""
""focus"",""0"",""3""
""fullscreenenter"",""1"",""6615""
""fullscreenexit"",""84"",""472638""
""blur"",""84"",""478994""
""focus"",""84"",""479753""
","""event"",""trial"",""time""
""blur"",""84"",""478994""
","""event"",""trial"",""time""
""focus"",""0"",""3""
""focus"",""84"",""479753""
","""event"",""trial"",""time""
""fullscreenenter"",""1"",""6615""
","""event"",""trial"",""time""
""fullscreenexit"",""84"",""472638""
","","","","","","1607","images/table5.png","","","learning","images/furniture_choice3.png","images/furniture_choice1.png","images/furniture_choice2.png","[2,0,1]","0","1","1","images/furniture_choice3.png","-1","furniture","","table","2","0"
"html-keyboard-response","92","514544","0.0-9.0-2.0-0.3","1609","2","2","""event"",""trial"",""time""
""focus"",""0"",""3""
""fullscreenenter"",""1"",""6615""
""fullscreenexit"",""84"",""472638""
""blur"",""84"",""478994""
""focus"",""84"",""479753""
","""event"",""trial"",""time""
""blur"",""84"",""478994""
","""event"",""trial"",""time""
""focus"",""0"",""3""
""focus"",""84"",""479753""
","""event"",""trial"",""time""
""fullscreenenter"",""1"",""6615""
","""event"",""trial"",""time""
""fullscreenexit"",""84"",""472638""
","","","","","","null","<div style=""font-size:60px;"">+</div>","null","","fixation","","","","","","","","","","","","","",""
"learning-trial","93","518553","0.0-9.0-2.0-1.3","1609","2","2","""event"",""trial"",""time""
""focus"",""0"",""3""
""fullscreenenter"",""1"",""6615""
""fullscreenexit"",""84"",""472638""
""blur"",""84"",""478994""
""focus"",""84"",""479753""
","""event"",""trial"",""time""
""blur"",""84"",""478994""
","""event"",""trial"",""time""
""focus"",""0"",""3""
""focus"",""84"",""479753""
","""event"",""trial"",""time""
""fullscreenenter"",""1"",""6615""
","""event"",""trial"",""time""
""fullscreenexit"",""84"",""472638""
","","","","","","1860","images/table2.png","","","learning","images/furniture_choice1.png","images/furniture_choice2.png","images/furniture_choice3.png","[0,1,2]","1","1","3","images/furniture_choice3.png","-1","furniture","","table","2","0"
"html-keyboard-response","94","519057","0.0-9.0-2.0-0.4","1609","2","2","""event"",""trial"",""time""
""focus"",""0"",""3""
""fullscreenenter"",""1"",""6615""
""fullscreenexit"",""84"",""472638""
""blur"",""84"",""478994""
""focus"",""84"",""479753""
","""event"",""trial"",""time""
""blur"",""84"",""478994""
","""event"",""trial"",""time""
""focus"",""0"",""3""
""focus"",""84"",""479753""
","""event"",""trial"",""time""
""fullscreenenter"",""1"",""6615""
","""event"",""trial"",""time""
""fullscreenexit"",""84"",""472638""
","","","","","","null","<div style=""font-size:60px;"">+</div>","null","","fixation","","","","","","","","","","","","","",""
"learning-trial","95","523073","0.0-9.0-2.0-1.4","1609","2","2","""event"",""trial"",""time""
""focus"",""0"",""3""
""fullscreenenter"",""1"",""6615""
""fullscreenexit"",""84"",""472638""
""blur"",""84"",""478994""
""focus"",""84"",""479753""
","""event"",""trial"",""time""
""blur"",""84"",""478994""
","""event"",""trial"",""time""
""focus"",""0"",""3""
""focus"",""84"",""479753""
","""event"",""trial"",""time""
""fullscreenenter"",""1"",""6615""
","""event"",""trial"",""time""
""fullscreenexit"",""84"",""472638""
","","","","","","1299","images/bed1.png","","","learning","images/furniture_choice1.png","images/furniture_choice2.png","images/furniture_choice3.png","[0,1,2]","0","0","2","images/furniture_choice2.png","-1","furniture","","bed","2","0"
"html-keyboard-response","96","523585","0.0-9.0-2.0-0.5","1609","2","2","""event"",""trial"",""time""
""focus"",""0"",""3""
""fullscreenenter"",""1"",""6615""
""fullscreenexit"",""84"",""472638""
""blur"",""84"",""478994""
""focus"",""84"",""479753""
","""event"",""trial"",""time""
""blur"",""84"",""478994""
","""event"",""trial"",""time""
""focus"",""0"",""3""
""focus"",""84"",""479753""
","""event"",""trial"",""time""
""fullscreenenter"",""1"",""6615""
","""event"",""trial"",""time""
""fullscreenexit"",""84"",""472638""
","","","","","","null","<div style=""font-size:60px;"">+</div>","null","","fixation","","","","","","","","","","","","","",""
"learning-trial","97","527593","0.0-9.0-2.0-1.5","1609","2","2","""event"",""trial"",""time""
""focus"",""0"",""3""
""fullscreenenter"",""1"",""6615""
""fullscreenexit"",""84"",""472638""
""blur"",""84"",""478994""
""focus"",""84"",""479753""
","""event"",""trial"",""time""
""blur"",""84"",""478994""
","""event"",""trial"",""time""
""focus"",""0"",""3""
""focus"",""84"",""479753""
","""event"",""trial"",""time""
""fullscreenenter"",""1"",""6615""
","""event"",""trial"",""time""
""fullscreenexit"",""84"",""472638""
","","","","","","2035","images/table5.png","","","learning","images/furniture_choice3.png","images/furniture_choice1.png","images/furniture_choice2.png","[2,0,1]","0","1","2","images/furniture_choice1.png","1","furniture","","table","2","0"
"html-keyboard-response","98","528103","0.0-9.0-2.0-0.6","1609","2","2","""event"",""trial"",""time""
""focus"",""0"",""3""
""fullscreenenter"",""1"",""6615""
""fullscreenexit"",""84"",""472638""
""blur"",""84"",""478994""
""focus"",""84"",""479753""
","""event"",""trial"",""time""
""blur"",""84"",""478994""
","""event"",""trial"",""time""
""focus"",""0"",""3""
""focus"",""84"",""479753""
","""event"",""trial"",""time""
""fullscreenenter"",""1"",""6615""
","""event"",""trial"",""time""
""fullscreenexit"",""84"",""472638""
","","","","","","null","<div style=""font-size:60px;"">+</div>","null","","fixation","","","","","","","","","","","","","",""
"learning-trial","99","532117","0.0-9.0-2.0-1.6","1609","2","2","""event"",""trial"",""time""
""focus"",""0"",""3""
""fullscreenenter"",""1"",""6615""
""fullscreenexit"",""84"",""472638""
""blur"",""84"",""478994""
""focus"",""84"",""479753""
","""event"",""trial"",""time""
""blur"",""84"",""478994""
","""event"",""trial"",""time""
""focus"",""0"",""3""
""focus"",""84"",""479753""
","""event"",""trial"",""time""
""fullscreenenter"",""1"",""6615""
","""event"",""trial"",""time""
""fullscreenexit"",""84"",""472638""
","","","","","","2448","images/table2.png","","","learning","images/furniture_choice1.png","images/furniture_choice2.png","images/furniture_choice3.png","[0,1,2]","1","1","3","images/furniture_choice3.png","-1","furniture","","table","2","0"
"html-keyboard-response","100","532632","0.0-9.0-2.0-0.7","1609","2","2","""event"",""trial"",""time""
""focus"",""0"",""3""
""fullscreenenter"",""1"",""6615""
""fullscreenexit"",""84"",""472638""
""blur"",""84"",""478994""
""focus"",""84"",""479753""
","""event"",""trial"",""time""
""blur"",""84"",""478994""
","""event"",""trial"",""time""
""focus"",""0"",""3""
""focus"",""84"",""479753""
","""event"",""trial"",""time""
""fullscreenenter"",""1"",""6615""
","""event"",""trial"",""time""
""fullscreenexit"",""84"",""472638""
","","","","","","null","<div style=""font-size:60px;"">+</div>","null","","fixation","","","","","","","","","","","","","",""
"learning-trial","101","536649","0.0-9.0-2.0-1.7","1609","2","2","""event"",""trial"",""time""
""focus"",""0"",""3""
""fullscreenenter"",""1"",""6615""
""fullscreenexit"",""84"",""472638""
""blur"",""84"",""478994""
""focus"",""84"",""479753""
","""event"",""trial"",""time""
""blur"",""84"",""478994""
","""event"",""trial"",""time""
""focus"",""0"",""3""
""focus"",""84"",""479753""
","""event"",""trial"",""time""
""fullscreenenter"",""1"",""6615""
","""event"",""trial"",""time""
""fullscreenexit"",""84"",""472638""
","","","","","","1627","images/sofa1.png","","","learning","images/furniture_choice2.png","images/furniture_choice1.png","images/furniture_choice3.png","[1,0,2]","0","1","2","images/furniture_choice1.png","1","furniture","","sofa","2","0"
"html-keyboard-response","102","537168","0.0-9.0-2.0-0.8","1609","2","2","""event"",""trial"",""time""
""focus"",""0"",""3""
""fullscreenenter"",""1"",""6615""
""fullscreenexit"",""84"",""472638""
""blur"",""84"",""478994""
""focus"",""84"",""479753""
","""event"",""trial"",""time""
""blur"",""84"",""478994""
","""event"",""trial"",""time""
""focus"",""0"",""3""
""focus"",""84"",""479753""
","""event"",""trial"",""time""
""fullscreenenter"",""1"",""6615""
","""event"",""trial"",""time""
""fullscreenexit"",""84"",""472638""
","","","","","","null","<div style=""font-size:60px;"">+</div>","null","","fixation","","","","","","","","","","","","","",""
"learning-trial","103","541184","0.0-9.0-2.0-1.8","1609","2","2","""event"",""trial"",""time""
""focus"",""0"",""3""
""fullscreenenter"",""1"",""6615""
""fullscreenexit"",""84"",""472638""
""blur"",""84"",""478994""
""focus"",""84"",""479753""
","""event"",""trial"",""time""
""blur"",""84"",""478994""
","""event"",""trial"",""time""
""focus"",""0"",""3""
""focus"",""84"",""479753""
","""event"",""trial"",""time""
""fullscreenenter"",""1"",""6615""
","""event"",""trial"",""time""
""fullscreenexit"",""84"",""472638""
","","","","","","1838","images/table4.png","","","learning","images/furniture_choice2.png","images/furniture_choice3.png","images/furniture_choice1.png","[1,2,0]","2","1","2","images/furniture_choice3.png","1","furniture","","table","2","0"
"html-keyboard-response","104","541687","0.0-9.0-2.0-0.9","1609","2","2","""event"",""trial"",""time""
""focus"",""0"",""3""
""fullscreenenter"",""1"",""6615""
""fullscreenexit"",""84"",""472638""
""blur"",""84"",""478994""
""focus"",""84"",""479753""
","""event"",""trial"",""time""
""blur"",""84"",""478994""
","""event"",""trial"",""time""
""focus"",""0"",""3""
""focus"",""84"",""479753""
","""event"",""trial"",""time""
""fullscreenenter"",""1"",""6615""
","""event"",""trial"",""time""
""fullscreenexit"",""84"",""472638""
","","","","","","null","<div style=""font-size:60px;"">+</div>","null","","fixation","","","","","","","","","","","","","",""
"learning-trial","105","545698","0.0-9.0-2.0-1.9","1609","2","2","""event"",""trial"",""time""
""focus"",""0"",""3""
""fullscreenenter"",""1"",""6615""
""fullscreenexit"",""84"",""472638""
""blur"",""84"",""478994""
""focus"",""84"",""479753""
","""event"",""trial"",""time""
""blur"",""84"",""478994""
","""event"",""trial"",""time""
""focus"",""0"",""3""
""focus"",""84"",""479753""
","""event"",""trial"",""time""
""fullscreenenter"",""1"",""6615""
","""event"",""trial"",""time""
""fullscreenexit"",""84"",""472638""
","","","","","","1163","images/table4.png","","","learning","images/furniture_choice1.png","images/furniture_choice3.png","images/furniture_choice2.png","[0,2,1]","2","1","2","images/furniture_choice3.png","1","furniture","","table","2","0"
"html-keyboard-response","106","546208","0.0-9.0-2.0-0.10","1609","2","2","""event"",""trial"",""time""
""focus"",""0"",""3""
""fullscreenenter"",""1"",""6615""
""fullscreenexit"",""84"",""472638""
""blur"",""84"",""478994""
""focus"",""84"",""479753""
","""event"",""trial"",""time""
""blur"",""84"",""478994""
","""event"",""trial"",""time""
""focus"",""0"",""3""
""focus"",""84"",""479753""
","""event"",""trial"",""time""
""fullscreenenter"",""1"",""6615""
","""event"",""trial"",""time""
""fullscreenexit"",""84"",""472638""
","","","","","","null","<div style=""font-size:60px;"">+</div>","null","","fixation","","","","","","","","","","","","","",""
"learning-trial","107","550217","0.0-9.0-2.0-1.10","1609","2","2","""event"",""trial"",""time""
""focus"",""0"",""3""
""fullscreenenter"",""1"",""6615""
""fullscreenexit"",""84"",""472638""
""blur"",""84"",""478994""
""focus"",""84"",""479753""
","""event"",""trial"",""time""
""blur"",""84"",""478994""
","""event"",""trial"",""time""
""focus"",""0"",""3""
""focus"",""84"",""479753""
","""event"",""trial"",""time""
""fullscreenenter"",""1"",""6615""
","""event"",""trial"",""time""
""fullscreenexit"",""84"",""472638""
","","","","","","959","images/table5.png","","","learning","images/furniture_choice3.png","images/furniture_choice1.png","images/furniture_choice2.png","[2,0,1]","0","1","1","images/furniture_choice3.png","-1","furniture","","table","2","0"
"html-keyboard-response","108","550725","0.0-9.0-2.0-0.11","1609","2","2","""event"",""trial"",""time""
""focus"",""0"",""3""
""fullscreenenter"",""1"",""6615""
""fullscreenexit"",""84"",""472638""
""blur"",""84"",""478994""
""focus"",""84"",""479753""
","""event"",""trial"",""time""
""blur"",""84"",""478994""
","""event"",""trial"",""time""
""focus"",""0"",""3""
""focus"",""84"",""479753""
","""event"",""trial"",""time""
""fullscreenenter"",""1"",""6615""
","""event"",""trial"",""time""
""fullscreenexit"",""84"",""472638""
","","","","","","null","<div style=""font-size:60px;"">+</div>","null","","fixation","","","","","","","","","","","","","",""
"learning-trial","109","554732","0.0-9.0-2.0-1.11","1609","2","2","""event"",""trial"",""time""
""focus"",""0"",""3""
""fullscreenenter"",""1"",""6615""
""fullscreenexit"",""84"",""472638""
""blur"",""84"",""478994""
""focus"",""84"",""479753""
","""event"",""trial"",""time""
""blur"",""84"",""478994""
","""event"",""trial"",""time""
""focus"",""0"",""3""
""focus"",""84"",""479753""
","""event"",""trial"",""time""
""fullscreenenter"",""1"",""6615""
","""event"",""trial"",""time""
""fullscreenexit"",""84"",""472638""
","","","","","","777","images/table5.png","","","learning","images/furniture_choice2.png","images/furniture_choice3.png","images/furniture_choice1.png","[1,2,0]","0","2","2","images/furniture_choice3.png","-1","furniture","","table","2","0"
"html-keyboard-response","110","555247","0.0-9.0-2.0-0.12","1609","2","2","""event"",""trial"",""time""
""focus"",""0"",""3""
""fullscreenenter"",""1"",""6615""
""fullscreenexit"",""84"",""472638""
""blur"",""84"",""478994""
""focus"",""84"",""479753""
","""event"",""trial"",""time""
""blur"",""84"",""478994""
","""event"",""trial"",""time""
""focus"",""0"",""3""
""focus"",""84"",""479753""
","""event"",""trial"",""time""
""fullscreenenter"",""1"",""6615""
","""event"",""trial"",""time""
""fullscreenexit"",""84"",""472638""
","","","","","","null","<div style=""font-size:60px;"">+</div>","null","","fixation","","","","","","","","","","","","","",""
"learning-trial","111","559260","0.0-9.0-2.0-1.12","1609","2","2","""event"",""trial"",""time""
""focus"",""0"",""3""
""fullscreenenter"",""1"",""6615""
""fullscreenexit"",""84"",""472638""
""blur"",""84"",""478994""
""focus"",""84"",""479753""
","""event"",""trial"",""time""
""blur"",""84"",""478994""
","""event"",""trial"",""time""
""focus"",""0"",""3""
""focus"",""84"",""479753""
","""event"",""trial"",""time""
""fullscreenenter"",""1"",""6615""
","""event"",""trial"",""time""
""fullscreenexit"",""84"",""472638""
","","","","","","962","images/table4.png","","","learning","images/furniture_choice2.png","images/furniture_choice1.png","images/furniture_choice3.png","[1,0,2]","2","2","3","images/furniture_choice3.png","1","furniture","","table","2","0"
"html-keyboard-response","112","559772","0.0-9.0-2.0-0.13","1609","2","2","""event"",""trial"",""time""
""focus"",""0"",""3""
""fullscreenenter"",""1"",""6615""
""fullscreenexit"",""84"",""472638""
""blur"",""84"",""478994""
""focus"",""84"",""479753""
","""event"",""trial"",""time""
""blur"",""84"",""478994""
","""event"",""trial"",""time""
""focus"",""0"",""3""
""focus"",""84"",""479753""
","""event"",""trial"",""time""
""fullscreenenter"",""1"",""6615""
","""event"",""trial"",""time""
""fullscreenexit"",""84"",""472638""
","","","","","","null","<div style=""font-size:60px;"">+</div>","null","","fixation","","","","","","","","","","","","","",""
"learning-trial","113","563788","0.0-9.0-2.0-1.13","1609","2","2","""event"",""trial"",""time""
""focus"",""0"",""3""
""fullscreenenter"",""1"",""6615""
""fullscreenexit"",""84"",""472638""
""blur"",""84"",""478994""
""focus"",""84"",""479753""
","""event"",""trial"",""time""
""blur"",""84"",""478994""
","""event"",""trial"",""time""
""focus"",""0"",""3""
""focus"",""84"",""479753""
","""event"",""trial"",""time""
""fullscreenenter"",""1"",""6615""
","""event"",""trial"",""time""
""fullscreenexit"",""84"",""472638""
","","","","","","1012","images/table5.png","","","learning","images/furniture_choice2.png","images/furniture_choice1.png","images/furniture_choice3.png","[1,0,2]","0","1","2","images/furniture_choice1.png","-1","furniture","","table","2","0"
"html-keyboard-response","114","564294","0.0-9.0-2.0-0.14","1609","2","2","""event"",""trial"",""time""
""focus"",""0"",""3""
""fullscreenenter"",""1"",""6615""
""fullscreenexit"",""84"",""472638""
""blur"",""84"",""478994""
""focus"",""84"",""479753""
","""event"",""trial"",""time""
""blur"",""84"",""478994""
","""event"",""trial"",""time""
""focus"",""0"",""3""
""focus"",""84"",""479753""
","""event"",""trial"",""time""
""fullscreenenter"",""1"",""6615""
","""event"",""trial"",""time""
""fullscreenexit"",""84"",""472638""
","","","","","","null","<div style=""font-size:60px;"">+</div>","null","","fixation","","","","","","","","","","","","","",""
"learning-trial","115","568303","0.0-9.0-2.0-1.14","1609","2","2","""event"",""trial"",""time""
""focus"",""0"",""3""
""fullscreenenter"",""1"",""6615""
""fullscreenexit"",""84"",""472638""
""blur"",""84"",""478994""
""focus"",""84"",""479753""
","""event"",""trial"",""time""
""blur"",""84"",""478994""
","""event"",""trial"",""time""
""focus"",""0"",""3""
""focus"",""84"",""479753""
","""event"",""trial"",""time""
""fullscreenenter"",""1"",""6615""
","""event"",""trial"",""time""
""fullscreenexit"",""84"",""472638""
","","","","","","2112","images/sofa2.png","","","learning","images/furniture_choice3.png","images/furniture_choice2.png","images/furniture_choice1.png","[2,1,0]","2","0","2","images/furniture_choice2.png","-1","furniture","","sofa","2","0"
"html-keyboard-response","116","568816","0.0-9.0-2.0-0.15","1609","2","2","""event"",""trial"",""time""
""focus"",""0"",""3""
""fullscreenenter"",""1"",""6615""
""fullscreenexit"",""84"",""472638""
""blur"",""84"",""478994""
""focus"",""84"",""479753""
","""event"",""trial"",""time""
""blur"",""84"",""478994""
","""event"",""trial"",""time""
""focus"",""0"",""3""
""focus"",""84"",""479753""
","""event"",""trial"",""time""
""fullscreenenter"",""1"",""6615""
","""event"",""trial"",""time""
""fullscreenexit"",""84"",""472638""
","","","","","","null","<div style=""font-size:60px;"">+</div>","null","","fixation","","","","","","","","","","","","","",""
"learning-trial","117","572832","0.0-9.0-2.0-1.15","1609","2","2","""event"",""trial"",""time""
""focus"",""0"",""3""
""fullscreenenter"",""1"",""6615""
""fullscreenexit"",""84"",""472638""
""blur"",""84"",""478994""
""focus"",""84"",""479753""
","""event"",""trial"",""time""
""blur"",""84"",""478994""
","""event"",""trial"",""time""
""focus"",""0"",""3""
""focus"",""84"",""479753""
","""event"",""trial"",""time""
""fullscreenenter"",""1"",""6615""
","""event"",""trial"",""time""
""fullscreenexit"",""84"",""472638""
","","","","","","1877","images/sofa4.png","","","learning","images/furniture_choice2.png","images/furniture_choice3.png","images/furniture_choice1.png","[1,2,0]","1","0","3","images/furniture_choice1.png","-1","furniture","","sofa","2","0"
"html-keyboard-response","118","573343","0.0-9.0-2.0-0.16","1609","2","2","""event"",""trial"",""time""
""focus"",""0"",""3""
""fullscreenenter"",""1"",""6615""
""fullscreenexit"",""84"",""472638""
""blur"",""84"",""478994""
""focus"",""84"",""479753""
","""event"",""trial"",""time""
""blur"",""84"",""478994""
","""event"",""trial"",""time""
""focus"",""0"",""3""
""focus"",""84"",""479753""
","""event"",""trial"",""time""
""fullscreenenter"",""1"",""6615""
","""event"",""trial"",""time""
""fullscreenexit"",""84"",""472638""
","","","","","","null","<div style=""font-size:60px;"">+</div>","null","","fixation","","","","","","","","","","","","","",""
"learning-trial","119","577348","0.0-9.0-2.0-1.16","1609","2","2","""event"",""trial"",""time""
""focus"",""0"",""3""
""fullscreenenter"",""1"",""6615""
""fullscreenexit"",""84"",""472638""
""blur"",""84"",""478994""
""focus"",""84"",""479753""
","""event"",""trial"",""time""
""blur"",""84"",""478994""
","""event"",""trial"",""time""
""focus"",""0"",""3""
""focus"",""84"",""479753""
","""event"",""trial"",""time""
""fullscreenenter"",""1"",""6615""
","""event"",""trial"",""time""
""fullscreenexit"",""84"",""472638""
","","","","","","1408","images/table4.png","","","learning","images/furniture_choice1.png","images/furniture_choice3.png","images/furniture_choice2.png","[0,2,1]","2","1","2","images/furniture_choice3.png","1","furniture","","table","2","0"
"html-keyboard-response","120","577852","0.0-9.0-2.0-0.17","1609","2","2","""event"",""trial"",""time""
""focus"",""0"",""3""
""fullscreenenter"",""1"",""6615""
""fullscreenexit"",""84"",""472638""
""blur"",""84"",""478994""
""focus"",""84"",""479753""
","""event"",""trial"",""time""
""blur"",""84"",""478994""
","""event"",""trial"",""time""
""focus"",""0"",""3""
""focus"",""84"",""479753""
","""event"",""trial"",""time""
""fullscreenenter"",""1"",""6615""
","""event"",""trial"",""time""
""fullscreenexit"",""84"",""472638""
","","","","","","null","<div style=""font-size:60px;"">+</div>","null","","fixation","","","","","","","","","","","","","",""
"learning-trial","121","581858","0.0-9.0-2.0-1.17","1609","2","2","""event"",""trial"",""time""
""focus"",""0"",""3""
""fullscreenenter"",""1"",""6615""
""fullscreenexit"",""84"",""472638""
""blur"",""84"",""478994""
""focus"",""84"",""479753""
","""event"",""trial"",""time""
""blur"",""84"",""478994""
","""event"",""trial"",""time""
""focus"",""0"",""3""
""focus"",""84"",""479753""
","""event"",""trial"",""time""
""fullscreenenter"",""1"",""6615""
","""event"",""trial"",""time""
""fullscreenexit"",""84"",""472638""
","","","","","","1580","images/bed3.png","","","learning","images/furniture_choice1.png","images/furniture_choice2.png","images/furniture_choice3.png","[0,1,2]","1","1","1","images/furniture_choice1.png","-1","furniture","","bed","2","0"
"html-keyboard-response","122","582368","0.0-9.0-2.0-0.18","1609","2","2","""event"",""trial"",""time""
""focus"",""0"",""3""
""fullscreenenter"",""1"",""6615""
""fullscreenexit"",""84"",""472638""
""blur"",""84"",""478994""
""focus"",""84"",""479753""
","""event"",""trial"",""time""
""blur"",""84"",""478994""
","""event"",""trial"",""time""
""focus"",""0"",""3""
""focus"",""84"",""479753""
","""event"",""trial"",""time""
""fullscreenenter"",""1"",""6615""
","""event"",""trial"",""time""
""fullscreenexit"",""84"",""472638""
","","","","","","null","<div style=""font-size:60px;"">+</div>","null","","fixation","","","","","","","","","","","","","",""
"learning-trial","123","586377","0.0-9.0-2.0-1.18","1609","2","2","""event"",""trial"",""time""
""focus"",""0"",""3""
""fullscreenenter"",""1"",""6615""
""fullscreenexit"",""84"",""472638""
""blur"",""84"",""478994""
""focus"",""84"",""479753""
","""event"",""trial"",""time""
""blur"",""84"",""478994""
","""event"",""trial"",""time""
""focus"",""0"",""3""
""focus"",""84"",""479753""
","""event"",""trial"",""time""
""fullscreenenter"",""1"",""6615""
","""event"",""trial"",""time""
""fullscreenexit"",""84"",""472638""
","","","","","","1062","images/bed3.png","","","learning","images/furniture_choice3.png","images/furniture_choice1.png","images/furniture_choice2.png","[2,0,1]","1","2","1","images/furniture_choice3.png","-1","furniture","","bed","2","0"
"html-keyboard-response","124","586882","0.0-9.0-2.0-0.19","1609","2","2","""event"",""trial"",""time""
""focus"",""0"",""3""
""fullscreenenter"",""1"",""6615""
""fullscreenexit"",""84"",""472638""
""blur"",""84"",""478994""
""focus"",""84"",""479753""
","""event"",""trial"",""time""
""blur"",""84"",""478994""
","""event"",""trial"",""time""
""focus"",""0"",""3""
""focus"",""84"",""479753""
","""event"",""trial"",""time""
""fullscreenenter"",""1"",""6615""
","""event"",""trial"",""time""
""fullscreenexit"",""84"",""472638""
","","","","","","null","<div style=""font-size:60px;"">+</div>","null","","fixation","","","","","","","","","","","","","",""
"learning-trial","125","590897","0.0-9.0-2.0-1.19","1609","2","2","""event"",""trial"",""time""
""focus"",""0"",""3""
""fullscreenenter"",""1"",""6615""
""fullscreenexit"",""84"",""472638""
""blur"",""84"",""478994""
""focus"",""84"",""479753""
","""event"",""trial"",""time""
""blur"",""84"",""478994""
","""event"",""trial"",""time""
""focus"",""0"",""3""
""focus"",""84"",""479753""
","""event"",""trial"",""time""
""fullscreenenter"",""1"",""6615""
","""event"",""trial"",""time""
""fullscreenexit"",""84"",""472638""
","","","","","","1666","images/sofa2.png","","","learning","images/furniture_choice3.png","images/furniture_choice1.png","images/furniture_choice2.png","[2,0,1]","2","0","1","images/furniture_choice3.png","1","furniture","","sofa","2","0"
"html-keyboard-response","126","591407","0.0-9.0-2.0-0.20","1609","2","2","""event"",""trial"",""time""
""focus"",""0"",""3""
""fullscreenenter"",""1"",""6615""
""fullscreenexit"",""84"",""472638""
""blur"",""84"",""478994""
""focus"",""84"",""479753""
","""event"",""trial"",""time""
""blur"",""84"",""478994""
","""event"",""trial"",""time""
""focus"",""0"",""3""
""focus"",""84"",""479753""
","""event"",""trial"",""time""
""fullscreenenter"",""1"",""6615""
","""event"",""trial"",""time""
""fullscreenexit"",""84"",""472638""
","","","","","","null","<div style=""font-size:60px;"">+</div>","null","","fixation","","","","","","","","","","","","","",""
"learning-trial","127","595423","0.0-9.0-2.0-1.20","1609","2","2","""event"",""trial"",""time""
""focus"",""0"",""3""
""fullscreenenter"",""1"",""6615""
""fullscreenexit"",""84"",""472638""
""blur"",""84"",""478994""
""focus"",""84"",""479753""
","""event"",""trial"",""time""
""blur"",""84"",""478994""
","""event"",""trial"",""time""
""focus"",""0"",""3""
""focus"",""84"",""479753""
","""event"",""trial"",""time""
""fullscreenenter"",""1"",""6615""
","""event"",""trial"",""time""
""fullscreenexit"",""84"",""472638""
","","","","","","1501","images/table4.png","","","learning","images/furniture_choice1.png","images/furniture_choice2.png","images/furniture_choice3.png","[0,1,2]","2","2","3","images/furniture_choice3.png","1","furniture","","table","2","0"
"html-keyboard-response","128","595932","0.0-9.0-2.0-0.21","1609","2","2","""event"",""trial"",""time""
""focus"",""0"",""3""
""fullscreenenter"",""1"",""6615""
""fullscreenexit"",""84"",""472638""
""blur"",""84"",""478994""
""focus"",""84"",""479753""
","""event"",""trial"",""time""
""blur"",""84"",""478994""
","""event"",""trial"",""time""
""focus"",""0"",""3""
""focus"",""84"",""479753""
","""event"",""trial"",""time""
""fullscreenenter"",""1"",""6615""
","""event"",""trial"",""time""
""fullscreenexit"",""84"",""472638""
","","","","","","null","<div style=""font-size:60px;"">+</div>","null","","fixation","","","","","","","","","","","","","",""
"learning-trial","129","599947","0.0-9.0-2.0-1.21","1609","2","2","""event"",""trial"",""time""
""focus"",""0"",""3""
""fullscreenenter"",""1"",""6615""
""fullscreenexit"",""84"",""472638""
""blur"",""84"",""478994""
""focus"",""84"",""479753""
","""event"",""trial"",""time""
""blur"",""84"",""478994""
","""event"",""trial"",""time""
""focus"",""0"",""3""
""focus"",""84"",""479753""
","""event"",""trial"",""time""
""fullscreenenter"",""1"",""6615""
","""event"",""trial"",""time""
""fullscreenexit"",""84"",""472638""
","","","","","","1251","images/table2.png","","","learning","images/furniture_choice1.png","images/furniture_choice2.png","images/furniture_choice3.png","[0,1,2]","1","1","1","images/furniture_choice1.png","-1","furniture","","table","2","0"
"html-keyboard-response","130","600458","0.0-9.0-2.0-0.22","1609","2","2","""event"",""trial"",""time""
""focus"",""0"",""3""
""fullscreenenter"",""1"",""6615""
""fullscreenexit"",""84"",""472638""
""blur"",""84"",""478994""
""focus"",""84"",""479753""
","""event"",""trial"",""time""
""blur"",""84"",""478994""
","""event"",""trial"",""time""
""focus"",""0"",""3""
""focus"",""84"",""479753""
","""event"",""trial"",""time""
""fullscreenenter"",""1"",""6615""
","""event"",""trial"",""time""
""fullscreenexit"",""84"",""472638""
","","","","","","null","<div style=""font-size:60px;"">+</div>","null","","fixation","","","","","","","","","","","","","",""
"learning-trial","131","604476","0.0-9.0-2.0-1.22","1609","2","2","""event"",""trial"",""time""
""focus"",""0"",""3""
""fullscreenenter"",""1"",""6615""
""fullscreenexit"",""84"",""472638""
""blur"",""84"",""478994""
""focus"",""84"",""479753""
","""event"",""trial"",""time""
""blur"",""84"",""478994""
","""event"",""trial"",""time""
""focus"",""0"",""3""
""focus"",""84"",""479753""
","""event"",""trial"",""time""
""fullscreenenter"",""1"",""6615""
","""event"",""trial"",""time""
""fullscreenexit"",""84"",""472638""
","","","","","","1686","images/sofa1.png","","","learning","images/furniture_choice1.png","images/furniture_choice2.png","images/furniture_choice3.png","[0,1,2]","0","0","1","images/furniture_choice1.png","1","furniture","","sofa","2","0"
"html-keyboard-response","132","604989","0.0-9.0-2.0-0.23","1609","2","2","""event"",""trial"",""time""
""focus"",""0"",""3""
""fullscreenenter"",""1"",""6615""
""fullscreenexit"",""84"",""472638""
""blur"",""84"",""478994""
""focus"",""84"",""479753""
","""event"",""trial"",""time""
""blur"",""84"",""478994""
","""event"",""trial"",""time""
""focus"",""0"",""3""
""focus"",""84"",""479753""
","""event"",""trial"",""time""
""fullscreenenter"",""1"",""6615""
","""event"",""trial"",""time""
""fullscreenexit"",""84"",""472638""
","","","","","","null","<div style=""font-size:60px;"">+</div>","null","","fixation","","","","","","","","","","","","","",""
"learning-trial","133","608999","0.0-9.0-2.0-1.23","1609","2","2","""event"",""trial"",""time""
""focus"",""0"",""3""
""fullscreenenter"",""1"",""6615""
""fullscreenexit"",""84"",""472638""
""blur"",""84"",""478994""
""focus"",""84"",""479753""
","""event"",""trial"",""time""
""blur"",""84"",""478994""
","""event"",""trial"",""time""
""focus"",""0"",""3""
""focus"",""84"",""479753""
","""event"",""trial"",""time""
""fullscreenenter"",""1"",""6615""
","""event"",""trial"",""time""
""fullscreenexit"",""84"",""472638""
","","","","","","2124","images/sofa2.png","","","learning","images/furniture_choice3.png","images/furniture_choice2.png","images/furniture_choice1.png","[2,1,0]","2","0","1","images/furniture_choice3.png","1","furniture","","sofa","2","0"
"html-keyboard-response","134","609511","0.0-9.0-2.0-0.24","1609","2","2","""event"",""trial"",""time""
""focus"",""0"",""3""
""fullscreenenter"",""1"",""6615""
""fullscreenexit"",""84"",""472638""
""blur"",""84"",""478994""
""focus"",""84"",""479753""
","""event"",""trial"",""time""
""blur"",""84"",""478994""
","""event"",""trial"",""time""
""focus"",""0"",""3""
""focus"",""84"",""479753""
","""event"",""trial"",""time""
""fullscreenenter"",""1"",""6615""
","""event"",""trial"",""time""
""fullscreenexit"",""84"",""472638""
","","","","","","null","<div style=""font-size:60px;"">+</div>","null","","fixation","","","","","","","","","","","","","",""
"learning-trial","135","613522","0.0-9.0-2.0-1.24","1609","2","2","""event"",""trial"",""time""
""focus"",""0"",""3""
""fullscreenenter"",""1"",""6615""
""fullscreenexit"",""84"",""472638""
""blur"",""84"",""478994""
""focus"",""84"",""479753""
","""event"",""trial"",""time""
""blur"",""84"",""478994""
","""event"",""trial"",""time""
""focus"",""0"",""3""
""focus"",""84"",""479753""
","""event"",""trial"",""time""
""fullscreenenter"",""1"",""6615""
","""event"",""trial"",""time""
""fullscreenexit"",""84"",""472638""
","","","","","","1144","images/table5.png","","","learning","images/furniture_choice3.png","images/furniture_choice1.png","images/furniture_choice2.png","[2,0,1]","0","1","2","images/furniture_choice1.png","1","furniture","","table","2","0"
"html-keyboard-response","136","614036","0.0-9.0-2.0-0.25","1609","2","2","""event"",""trial"",""time""
""focus"",""0"",""3""
""fullscreenenter"",""1"",""6615""
""fullscreenexit"",""84"",""472638""
""blur"",""84"",""478994""
""focus"",""84"",""479753""
","""event"",""trial"",""time""
""blur"",""84"",""478994""
","""event"",""trial"",""time""
""focus"",""0"",""3""
""focus"",""84"",""479753""
","""event"",""trial"",""time""
""fullscreenenter"",""1"",""6615""
","""event"",""trial"",""time""
""fullscreenexit"",""84"",""472638""
","","","","","","null","<div style=""font-size:60px;"">+</div>","null","","fixation","","","","","","","","","","","","","",""
"learning-trial","137","618043","0.0-9.0-2.0-1.25","1609","2","2","""event"",""trial"",""time""
""focus"",""0"",""3""
""fullscreenenter"",""1"",""6615""
""fullscreenexit"",""84"",""472638""
""blur"",""84"",""478994""
""focus"",""84"",""479753""
","""event"",""trial"",""time""
""blur"",""84"",""478994""
","""event"",""trial"",""time""
""focus"",""0"",""3""
""focus"",""84"",""479753""
","""event"",""trial"",""time""
""fullscreenenter"",""1"",""6615""
","""event"",""trial"",""time""
""fullscreenexit"",""84"",""472638""
","","","","","","2151","images/sofa1.png","","","learning","images/furniture_choice2.png","images/furniture_choice3.png","images/furniture_choice1.png","[1,2,0]","0","2","1","images/furniture_choice2.png","-1","furniture","","sofa","2","0"
"html-keyboard-response","138","618552","0.0-9.0-2.0-0.26","1609","2","2","""event"",""trial"",""time""
""focus"",""0"",""3""
""fullscreenenter"",""1"",""6615""
""fullscreenexit"",""84"",""472638""
""blur"",""84"",""478994""
""focus"",""84"",""479753""
","""event"",""trial"",""time""
""blur"",""84"",""478994""
","""event"",""trial"",""time""
""focus"",""0"",""3""
""focus"",""84"",""479753""
","""event"",""trial"",""time""
""fullscreenenter"",""1"",""6615""
","""event"",""trial"",""time""
""fullscreenexit"",""84"",""472638""
","","","","","","null","<div style=""font-size:60px;"">+</div>","null","","fixation","","","","","","","","","","","","","",""
"learning-trial","139","622567","0.0-9.0-2.0-1.26","1609","2","2","""event"",""trial"",""time""
""focus"",""0"",""3""
""fullscreenenter"",""1"",""6615""
""fullscreenexit"",""84"",""472638""
""blur"",""84"",""478994""
""focus"",""84"",""479753""
","""event"",""trial"",""time""
""blur"",""84"",""478994""
","""event"",""trial"",""time""
""focus"",""0"",""3""
""focus"",""84"",""479753""
","""event"",""trial"",""time""
""fullscreenenter"",""1"",""6615""
","""event"",""trial"",""time""
""fullscreenexit"",""84"",""472638""
","","","","","","1913","images/table2.png","","","learning","images/furniture_choice3.png","images/furniture_choice2.png","images/furniture_choice1.png","[2,1,0]","1","1","3","images/furniture_choice1.png","1","furniture","","table","2","0"
"html-keyboard-response","140","623082","0.0-9.0-2.0-0.27","1609","2","2","""event"",""trial"",""time""
""focus"",""0"",""3""
""fullscreenenter"",""1"",""6615""
""fullscreenexit"",""84"",""472638""
""blur"",""84"",""478994""
""focus"",""84"",""479753""
","""event"",""trial"",""time""
""blur"",""84"",""478994""
","""event"",""trial"",""time""
""focus"",""0"",""3""
""focus"",""84"",""479753""
","""event"",""trial"",""time""
""fullscreenenter"",""1"",""6615""
","""event"",""trial"",""time""
""fullscreenexit"",""84"",""472638""
","","","","","","null","<div style=""font-size:60px;"">+</div>","null","","fixation","","","","","","","","","","","","","",""
"learning-trial","141","627087","0.0-9.0-2.0-1.27","1609","2","2","""event"",""trial"",""time""
""focus"",""0"",""3""
""fullscreenenter"",""1"",""6615""
""fullscreenexit"",""84"",""472638""
""blur"",""84"",""478994""
""focus"",""84"",""479753""
","""event"",""trial"",""time""
""blur"",""84"",""478994""
","""event"",""trial"",""time""
""focus"",""0"",""3""
""focus"",""84"",""479753""
","""event"",""trial"",""time""
""fullscreenenter"",""1"",""6615""
","""event"",""trial"",""time""
""fullscreenexit"",""84"",""472638""
","","","","","","1708","images/sofa2.png","","","learning","images/furniture_choice1.png","images/furniture_choice2.png","images/furniture_choice3.png","[0,1,2]","2","2","1","images/furniture_choice1.png","1","furniture","","sofa","2","0"
"html-keyboard-response","142","627599","0.0-9.0-2.0-0.28","1609","2","2","""event"",""trial"",""time""
""focus"",""0"",""3""
""fullscreenenter"",""1"",""6615""
""fullscreenexit"",""84"",""472638""
""blur"",""84"",""478994""
""focus"",""84"",""479753""
","""event"",""trial"",""time""
""blur"",""84"",""478994""
","""event"",""trial"",""time""
""focus"",""0"",""3""
""focus"",""84"",""479753""
","""event"",""trial"",""time""
""fullscreenenter"",""1"",""6615""
","""event"",""trial"",""time""
""fullscreenexit"",""84"",""472638""
","","","","","","null","<div style=""font-size:60px;"">+</div>","null","","fixation","","","","","","","","","","","","","",""
"learning-trial","143","631617","0.0-9.0-2.0-1.28","1609","2","2","""event"",""trial"",""time""
""focus"",""0"",""3""
""fullscreenenter"",""1"",""6615""
""fullscreenexit"",""84"",""472638""
""blur"",""84"",""478994""
""focus"",""84"",""479753""
","""event"",""trial"",""time""
""blur"",""84"",""478994""
","""event"",""trial"",""time""
""focus"",""0"",""3""
""focus"",""84"",""479753""
","""event"",""trial"",""time""
""fullscreenenter"",""1"",""6615""
","""event"",""trial"",""time""
""fullscreenexit"",""84"",""472638""
","","","","","","1212","images/sofa1.png","","","learning","images/furniture_choice2.png","images/furniture_choice3.png","images/furniture_choice1.png","[1,2,0]","0","2","2","images/furniture_choice3.png","-1","furniture","","sofa","2","0"
"html-keyboard-response","144","632118","0.0-9.0-2.0-0.29","1609","2","2","""event"",""trial"",""time""
""focus"",""0"",""3""
""fullscreenenter"",""1"",""6615""
""fullscreenexit"",""84"",""472638""
""blur"",""84"",""478994""
""focus"",""84"",""479753""
","""event"",""trial"",""time""
""blur"",""84"",""478994""
","""event"",""trial"",""time""
""focus"",""0"",""3""
""focus"",""84"",""479753""
","""event"",""trial"",""time""
""fullscreenenter"",""1"",""6615""
","""event"",""trial"",""time""
""fullscreenexit"",""84"",""472638""
","","","","","","null","<div style=""font-size:60px;"">+</div>","null","","fixation","","","","","","","","","","","","","",""
"learning-trial","145","636124","0.0-9.0-2.0-1.29","1609","2","2","""event"",""trial"",""time""
""focus"",""0"",""3""
""fullscreenenter"",""1"",""6615""
""fullscreenexit"",""84"",""472638""
""blur"",""84"",""478994""
""focus"",""84"",""479753""
","""event"",""trial"",""time""
""blur"",""84"",""478994""
","""event"",""trial"",""time""
""focus"",""0"",""3""
""focus"",""84"",""479753""
","""event"",""trial"",""time""
""fullscreenenter"",""1"",""6615""
","""event"",""trial"",""time""
""fullscreenexit"",""84"",""472638""
","","","","","","1491","images/table4.png","","","learning","images/furniture_choice1.png","images/furniture_choice3.png","images/furniture_choice2.png","[0,2,1]","2","1","2","images/furniture_choice3.png","1","furniture","","table","2","0"
"html-keyboard-response","146","636636","0.0-9.0-2.0-0.30","1609","2","2","""event"",""trial"",""time""
""focus"",""0"",""3""
""fullscreenenter"",""1"",""6615""
""fullscreenexit"",""84"",""472638""
""blur"",""84"",""478994""
""focus"",""84"",""479753""
","""event"",""trial"",""time""
""blur"",""84"",""478994""
","""event"",""trial"",""time""
""focus"",""0"",""3""
""focus"",""84"",""479753""
","""event"",""trial"",""time""
""fullscreenenter"",""1"",""6615""
","""event"",""trial"",""time""
""fullscreenexit"",""84"",""472638""
","","","","","","null","<div style=""font-size:60px;"">+</div>","null","","fixation","","","","","","","","","","","","","",""
"learning-trial","147","640643","0.0-9.0-2.0-1.30","1609","2","2","""event"",""trial"",""time""
""focus"",""0"",""3""
""fullscreenenter"",""1"",""6615""
""fullscreenexit"",""84"",""472638""
""blur"",""84"",""478994""
""focus"",""84"",""479753""
","""event"",""trial"",""time""
""blur"",""84"",""478994""
","""event"",""trial"",""time""
""focus"",""0"",""3""
""focus"",""84"",""479753""
","""event"",""trial"",""time""
""fullscreenenter"",""1"",""6615""
","""event"",""trial"",""time""
""fullscreenexit"",""84"",""472638""
","","","","","","828","images/table4.png","","","learning","images/furniture_choice3.png","images/furniture_choice2.png","images/furniture_choice1.png","[2,1,0]","2","0","1","images/furniture_choice3.png","1","furniture","","table","2","0"
"html-keyboard-response","148","641147","0.0-9.0-2.0-0.31","1609","2","2","""event"",""trial"",""time""
""focus"",""0"",""3""
""fullscreenenter"",""1"",""6615""
""fullscreenexit"",""84"",""472638""
""blur"",""84"",""478994""
""focus"",""84"",""479753""
","""event"",""trial"",""time""
""blur"",""84"",""478994""
","""event"",""trial"",""time""
""focus"",""0"",""3""
""focus"",""84"",""479753""
","""event"",""trial"",""time""
""fullscreenenter"",""1"",""6615""
","""event"",""trial"",""time""
""fullscreenexit"",""84"",""472638""
","","","","","","null","<div style=""font-size:60px;"">+</div>","null","","fixation","","","","","","","","","","","","","",""
"learning-trial","149","645165","0.0-9.0-2.0-1.31","1609","2","2","""event"",""trial"",""time""
""focus"",""0"",""3""
""fullscreenenter"",""1"",""6615""
""fullscreenexit"",""84"",""472638""
""blur"",""84"",""478994""
""focus"",""84"",""479753""
","""event"",""trial"",""time""
""blur"",""84"",""478994""
","""event"",""trial"",""time""
""focus"",""0"",""3""
""focus"",""84"",""479753""
","""event"",""trial"",""time""
""fullscreenenter"",""1"",""6615""
","""event"",""trial"",""time""
""fullscreenexit"",""84"",""472638""
","","","","","","1256","images/sofa4.png","","","learning","images/furniture_choice1.png","images/furniture_choice2.png","images/furniture_choice3.png","[0,1,2]","1","1","1","images/furniture_choice1.png","-1","furniture","","sofa","2","0"
"html-keyboard-response","150","645668","0.0-9.0-2.0-0.32","1609","2","2","""event"",""trial"",""time""
""focus"",""0"",""3""
""fullscreenenter"",""1"",""6615""
""fullscreenexit"",""84"",""472638""
""blur"",""84"",""478994""
""focus"",""84"",""479753""
","""event"",""trial"",""time""
""blur"",""84"",""478994""
","""event"",""trial"",""time""
""focus"",""0"",""3""
""focus"",""84"",""479753""
","""event"",""trial"",""time""
""fullscreenenter"",""1"",""6615""
","""event"",""trial"",""time""
""fullscreenexit"",""84"",""472638""
","","","","","","null","<div style=""font-size:60px;"">+</div>","null","","fixation","","","","","","","","","","","","","",""
"learning-trial","151","649673","0.0-9.0-2.0-1.32","1609","2","2","""event"",""trial"",""time""
""focus"",""0"",""3""
""fullscreenenter"",""1"",""6615""
""fullscreenexit"",""84"",""472638""
""blur"",""84"",""478994""
""focus"",""84"",""479753""
","""event"",""trial"",""time""
""blur"",""84"",""478994""
","""event"",""trial"",""time""
""focus"",""0"",""3""
""focus"",""84"",""479753""
","""event"",""trial"",""time""
""fullscreenenter"",""1"",""6615""
","""event"",""trial"",""time""
""fullscreenexit"",""84"",""472638""
","","","","","","1167","images/bed2.png","","","learning","images/furniture_choice3.png","images/furniture_choice1.png","images/furniture_choice2.png","[2,0,1]","2","0","2","images/furniture_choice1.png","-1","furniture","","bed","2","0"
"html-keyboard-response","152","650187","0.0-9.0-2.0-0.33","1609","2","2","""event"",""trial"",""time""
""focus"",""0"",""3""
""fullscreenenter"",""1"",""6615""
""fullscreenexit"",""84"",""472638""
""blur"",""84"",""478994""
""focus"",""84"",""479753""
","""event"",""trial"",""time""
""blur"",""84"",""478994""
","""event"",""trial"",""time""
""focus"",""0"",""3""
""focus"",""84"",""479753""
","""event"",""trial"",""time""
""fullscreenenter"",""1"",""6615""
","""event"",""trial"",""time""
""fullscreenexit"",""84"",""472638""
","","","","","","null","<div style=""font-size:60px;"">+</div>","null","","fixation","","","","","","","","","","","","","",""
"learning-trial","153","654193","0.0-9.0-2.0-1.33","1609","2","2","""event"",""trial"",""time""
""focus"",""0"",""3""
""fullscreenenter"",""1"",""6615""
""fullscreenexit"",""84"",""472638""
""blur"",""84"",""478994""
""focus"",""84"",""479753""
","""event"",""trial"",""time""
""blur"",""84"",""478994""
","""event"",""trial"",""time""
""focus"",""0"",""3""
""focus"",""84"",""479753""
","""event"",""trial"",""time""
""fullscreenenter"",""1"",""6615""
","""event"",""trial"",""time""
""fullscreenexit"",""84"",""472638""
","","","","","","1309","images/bed1.png","","","learning","images/furniture_choice3.png","images/furniture_choice2.png","images/furniture_choice1.png","[2,1,0]","0","2","2","images/furniture_choice2.png","1","furniture","","bed","2","0"
"html-keyboard-response","154","654702","0.0-9.0-2.0-0.34","1609","2","2","""event"",""trial"",""time""
""focus"",""0"",""3""
""fullscreenenter"",""1"",""6615""
""fullscreenexit"",""84"",""472638""
""blur"",""84"",""478994""
""focus"",""84"",""479753""
","""event"",""trial"",""time""
""blur"",""84"",""478994""
","""event"",""trial"",""time""
""focus"",""0"",""3""
""focus"",""84"",""479753""
","""event"",""trial"",""time""
""fullscreenenter"",""1"",""6615""
","""event"",""trial"",""time""
""fullscreenexit"",""84"",""472638""
","","","","","","null","<div style=""font-size:60px;"">+</div>","null","","fixation","","","","","","","","","","","","","",""
"learning-trial","155","658717","0.0-9.0-2.0-1.34","1609","2","2","""event"",""trial"",""time""
""focus"",""0"",""3""
""fullscreenenter"",""1"",""6615""
""fullscreenexit"",""84"",""472638""
""blur"",""84"",""478994""
""focus"",""84"",""479753""
","""event"",""trial"",""time""
""blur"",""84"",""478994""
","""event"",""trial"",""time""
""focus"",""0"",""3""
""focus"",""84"",""479753""
","""event"",""trial"",""time""
""fullscreenenter"",""1"",""6615""
","""event"",""trial"",""time""
""fullscreenexit"",""84"",""472638""
","","","","","","1233","images/sofa2.png","","","learning","images/furniture_choice3.png","images/furniture_choice2.png","images/furniture_choice1.png","[2,1,0]","2","0","3","images/furniture_choice1.png","-1","furniture","","sofa","2","0"
"html-keyboard-response","156","659232","0.0-9.0-2.0-0.35","1609","2","2","""event"",""trial"",""time""
""focus"",""0"",""3""
""fullscreenenter"",""1"",""6615""
""fullscreenexit"",""84"",""472638""
""blur"",""84"",""478994""
""focus"",""84"",""479753""
","""event"",""trial"",""time""
""blur"",""84"",""478994""
","""event"",""trial"",""time""
""focus"",""0"",""3""
""focus"",""84"",""479753""
","""event"",""trial"",""time""
""fullscreenenter"",""1"",""6615""
","""event"",""trial"",""time""
""fullscreenexit"",""84"",""472638""
","","","","","","null","<div style=""font-size:60px;"">+</div>","null","","fixation","","","","","","","","","","","","","",""
"learning-trial","157","663242","0.0-9.0-2.0-1.35","1609","2","2","""event"",""trial"",""time""
""focus"",""0"",""3""
""fullscreenenter"",""1"",""6615""
""fullscreenexit"",""84"",""472638""
""blur"",""84"",""478994""
""focus"",""84"",""479753""
","""event"",""trial"",""time""
""blur"",""84"",""478994""
","""event"",""trial"",""time""
""focus"",""0"",""3""
""focus"",""84"",""479753""
","""event"",""trial"",""time""
""fullscreenenter"",""1"",""6615""
","""event"",""trial"",""time""
""fullscreenexit"",""84"",""472638""
","","","","","","1846","images/sofa1.png","","","learning","images/furniture_choice2.png","images/furniture_choice1.png","images/furniture_choice3.png","[1,0,2]","0","1","2","images/furniture_choice1.png","1","furniture","","sofa","2","0"
"html-keyboard-response","158","663748","0.0-9.0-2.0-0.36","1609","2","2","""event"",""trial"",""time""
""focus"",""0"",""3""
""fullscreenenter"",""1"",""6615""
""fullscreenexit"",""84"",""472638""
""blur"",""84"",""478994""
""focus"",""84"",""479753""
","""event"",""trial"",""time""
""blur"",""84"",""478994""
","""event"",""trial"",""time""
""focus"",""0"",""3""
""focus"",""84"",""479753""
","""event"",""trial"",""time""
""fullscreenenter"",""1"",""6615""
","""event"",""trial"",""time""
""fullscreenexit"",""84"",""472638""
","","","","","","null","<div style=""font-size:60px;"">+</div>","null","","fixation","","","","","","","","","","","","","",""
"learning-trial","159","667758","0.0-9.0-2.0-1.36","1609","2","2","""event"",""trial"",""time""
""focus"",""0"",""3""
""fullscreenenter"",""1"",""6615""
""fullscreenexit"",""84"",""472638""
""blur"",""84"",""478994""
""focus"",""84"",""479753""
","""event"",""trial"",""time""
""blur"",""84"",""478994""
","""event"",""trial"",""time""
""focus"",""0"",""3""
""focus"",""84"",""479753""
","""event"",""trial"",""time""
""fullscreenenter"",""1"",""6615""
","""event"",""trial"",""time""
""fullscreenexit"",""84"",""472638""
","","","","","","1913","images/bed3.png","","","learning","images/furniture_choice3.png","images/furniture_choice2.png","images/furniture_choice1.png","[2,1,0]","1","1","2","images/furniture_choice2.png","1","furniture","","bed","2","0"
"html-keyboard-response","160","668261","0.0-9.0-2.0-0.37","1609","2","2","""event"",""trial"",""time""
""focus"",""0"",""3""
""fullscreenenter"",""1"",""6615""
""fullscreenexit"",""84"",""472638""
""blur"",""84"",""478994""
""focus"",""84"",""479753""
","""event"",""trial"",""time""
""blur"",""84"",""478994""
","""event"",""trial"",""time""
""focus"",""0"",""3""
""focus"",""84"",""479753""
","""event"",""trial"",""time""
""fullscreenenter"",""1"",""6615""
","""event"",""trial"",""time""
""fullscreenexit"",""84"",""472638""
","","","","","","null","<div style=""font-size:60px;"">+</div>","null","","fixation","","","","","","","","","","","","","",""
"learning-trial","161","672265","0.0-9.0-2.0-1.37","1609","2","2","""event"",""trial"",""time""
""focus"",""0"",""3""
""fullscreenenter"",""1"",""6615""
""fullscreenexit"",""84"",""472638""
""blur"",""84"",""478994""
""focus"",""84"",""479753""
","""event"",""trial"",""time""
""blur"",""84"",""478994""
","""event"",""trial"",""time""
""focus"",""0"",""3""
""focus"",""84"",""479753""
","""event"",""trial"",""time""
""fullscreenenter"",""1"",""6615""
","""event"",""trial"",""time""
""fullscreenexit"",""84"",""472638""
","","","","","","1612","images/table2.png","","","learning","images/furniture_choice2.png","images/furniture_choice3.png","images/furniture_choice1.png","[1,2,0]","1","0","3","images/furniture_choice1.png","-1","furniture","","table","2","0"
