"trial_type","trial_index","time_elapsed","internal_node_id","subject_id","condition","task_version","interactions","blur_events","focus_events","fullscreenenter_events","fullscreenexit_events","success","timeout","failed_images","failed_audio","failed_video","rt","stimulus","response","button_pressed","task_part","left_choice","middle_choice","right_choice","choice_positions","correct_response","correct_position","key_press","option_selected","points","task_block","correct","stim_cat","block_condition","block_number"
"pavlovia","0","5","0.0-0.0","1573","2","2","""event"",""trial"",""time""
""fullscreenenter"",""1"",""6667""
","
","
","""event"",""trial"",""time""
""fullscreenenter"",""1"",""6667""
","
","","","","","","","","","","","","","","","","","","","","","","","",""
"fullscreen","1","7655","0.0-1.0","1573","2","2","""event"",""trial"",""time""
""fullscreenenter"",""1"",""6667""
","
","
","""event"",""trial"",""time""
""fullscreenenter"",""1"",""6667""
","
","true","","","","","","","","","","","","","","","","","","","","","","",""
"preload","2","29763","0.0-2.0","1573","2","2","""event"",""trial"",""time""
""fullscreenenter"",""1"",""6667""
","
","
","""event"",""trial"",""time""
""fullscreenenter"",""1"",""6667""
","
","true","false","[]","[]","[]","","","","","","","","","","","","","","","","","","",""
"audio-keyboard-response","3","35889","0.0-3.0","1573","2","2","""event"",""trial"",""time""
""fullscreenenter"",""1"",""6667""
","
","
","""event"",""trial"",""time""
""fullscreenenter"",""1"",""6667""
","
","","","","","","6120.000000000001","audio/beep_loop.wav"," ","","","","","","","","","","","","","","","",""
"audio-button-response","4","42182","0.0-4.0","1573","2","2","""event"",""trial"",""time""
""fullscreenenter"",""1"",""6667""
","
","
","""event"",""trial"",""time""
""fullscreenenter"",""1"",""6667""
","
","","","","","","6291","audio/shark.wav","4","","","","","","","","","","","","","","","",""
"audio-button-response","5","45828","0.0-5.0","1573","2","2","""event"",""trial"",""time""
""fullscreenenter"",""1"",""6667""
","
","
","""event"",""trial"",""time""
""fullscreenenter"",""1"",""6667""
","
","","","","","","2629","audio/turtle.wav","1","","","","","","","","","","","","","","","",""
"preload","6","56762","0.0-6.0","1573","2","2","""event"",""trial"",""time""
""fullscreenenter"",""1"",""6667""
","
","
","""event"",""trial"",""time""
""fullscreenenter"",""1"",""6667""
","
","true","false","[]","[]","[]","","","","","","","","","","","","","","","","","","",""
"html-keyboard-response","7","77245","0.0-7.0","1573","2","2","""event"",""trial"",""time""
""fullscreenenter"",""1"",""6667""
","
","
","""event"",""trial"",""time""
""fullscreenenter"",""1"",""6667""
","
","","","","","","20479.099999964237","Welcome to the experiment. Press any key to begin and to advance the instructions.","h","","","","","","","","","","","","","","","",""
"learning-instructions","8","89384","0.0-8.0-0.0-0.0","1573","2","2","""event"",""trial"",""time""
""fullscreenenter"",""1"",""6667""
","
","
","""event"",""trial"",""time""
""fullscreenenter"",""1"",""6667""
","
","","","","","","4389.800000011921","<p> Welcome! Today you are going to play 6 different rounds of a decision-making game. </p><p> Use the mouse to click next to continue. </p>","","0","instructions","","","","","","","","","","","","","",""
"learning-instructions","9","94517","0.0-8.0-0.0-0.1","1573","2","2","""event"",""trial"",""time""
""fullscreenenter"",""1"",""6667""
","
","
","""event"",""trial"",""time""
""fullscreenenter"",""1"",""6667""
","
","","","","","","2122.5","<p> You will start with a practice round to learn the rules. </p>","","0","instructions","","","","","","","","","","","","","",""
"learning-instructions","10","108586","0.0-8.0-0.0-0.2","1573","2","2","""event"",""trial"",""time""
""fullscreenenter"",""1"",""6667""
","
","
","""event"",""trial"",""time""
""fullscreenenter"",""1"",""6667""
","
","","","","","","6332.600000023842","<p> Your goal in this round is to deliver sports equipment to three different parks. </p><p> You will need to deliver many types of equipment. </p></div>","","0","instructions","","","","","","","","","","","","","",""
"learning-instructions","11","121023","0.0-8.0-0.0-0.3","1573","2","2","""event"",""trial"",""time""
""fullscreenenter"",""1"",""6667""
","
","
","""event"",""trial"",""time""
""fullscreenenter"",""1"",""6667""
","
","","","","","","3938.5","<p> On each turn, you will see one piece of sports equipment and three different parks.  </p><p> You need to select which park to deliver the equipment to.  </p>","","0","instructions","","","","","","","","","","","","","",""
"learning-instructions","12","136398","0.0-8.0-0.0-0.4","1573","2","2","""event"",""trial"",""time""
""fullscreenenter"",""1"",""6667""
","
","
","""event"",""trial"",""time""
""fullscreenenter"",""1"",""6667""
","
","","","","","","2083.400000035763","<p> You can select the park on the left by pressing the '1' key on your keyboard. <br>You can select the park in the middle by pressing the '2' key on your keyboard. <br>You can select the park on the right by pressing the '3' key on your keyboard.  </p><br><div class=""choice-instructions-grid""> <div class=""choice-option""><img src=""images/park1.png"" class=""choice-option-img"" stage=""instructions"" position=""0"" ><div class=""choice-option-text""> Press ""1."" </div></div><div class=""choice-option""><img src=""images/park2.png"" class=""choice-option-img"" stage=""instructions"" position=""1"" ><div class=""choice-option-text""> Press ""2."" </div></div><div class=""choice-option""><img src=""images/park3.png"" class=""choice-option-img"" stage=""instructions"" position=""2"" ><div class=""choice-option-text""> Press ""3."" </div></div></div>","","0","instructions","","","","","","","","","","","","","",""
"learning-instructions","13","142332","0.0-8.0-0.0-0.5","1573","2","2","""event"",""trial"",""time""
""fullscreenenter"",""1"",""6667""
","
","
","""event"",""trial"",""time""
""fullscreenenter"",""1"",""6667""
","
","","","","","","538.1000000238419","<p> If the kids in the park you chose like the equipment, they will be very happy! </p><div style='float: center;'><img src='images/check.png' width = '200' height = '200'></img>","","0","instructions","","","","","","","","","","","","","",""
"learning-instructions","14","148845","0.0-8.0-0.0-0.6","1573","2","2","""event"",""trial"",""time""
""fullscreenenter"",""1"",""6667""
","
","
","""event"",""trial"",""time""
""fullscreenenter"",""1"",""6667""
","
","","","","","","909.9000000357628","<p> But, if the kids in the park you chose do not like the equipment, they will be sad. </p><div style='float: center;'><img src='images/x.png' width = '200' height = '200'></img>","","0","instructions","","","","","","","","","","","","","",""
"learning-instructions","15","156241","0.0-8.0-0.0-0.7","1573","2","2","""event"",""trial"",""time""
""fullscreenenter"",""1"",""6667""
","
","
","""event"",""trial"",""time""
""fullscreenenter"",""1"",""6667""
","
","","","","","","957.3000000119209","<p> Importantly, the kids in each park like some pieces of sports equipment more than others. </p>","","0","instructions","","","","","","","","","","","","","",""
"learning-instructions","16","163112","0.0-8.0-0.0-0.8","1573","2","2","""event"",""trial"",""time""
""fullscreenenter"",""1"",""6667""
","
","
","""event"",""trial"",""time""
""fullscreenenter"",""1"",""6667""
","
","","","","","","807","<p> If you choose the best park for each piece of equipment, the kids there will usually be happy. </p>","","0","instructions","","","","","","","","","","","","","",""
"learning-instructions","17","170316","0.0-8.0-0.0-0.9","1573","2","2","""event"",""trial"",""time""
""fullscreenenter"",""1"",""6667""
","
","
","""event"",""trial"",""time""
""fullscreenenter"",""1"",""6667""
","
","","","","","","541","<p> However, even if you choose the best park for the equipment, the kids may sometimes be sad. </p>","","0","instructions","","","","","","","","","","","","","",""
"learning-instructions","18","190524","0.0-8.0-0.0-0.10","1573","2","2","""event"",""trial"",""time""
""fullscreenenter"",""1"",""6667""
","
","
","""event"",""trial"",""time""
""fullscreenenter"",""1"",""6667""
","
","","","","","","3765.800000011921","<p> Similarly, even if you choose the <i>wrong</i> park for the equipment, the kids may still be happy sometimes.","","0","instructions","","","","","","","","","","","","","",""
"learning-instructions","19","196633","0.0-8.0-0.0-0.11","1573","2","2","""event"",""trial"",""time""
""fullscreenenter"",""1"",""6667""
","
","
","""event"",""trial"",""time""
""fullscreenenter"",""1"",""6667""
","
","","","","","","1039","<p> For example, the best park for this soccer ball is this one.<div style='float: center;'><img src='images/i1.png' width = '500' height = '268'></img>","","0","instructions","","","","","","","","","","","","","",""
"learning-instructions","20","203203","0.0-8.0-0.0-0.12","1573","2","2","""event"",""trial"",""time""
""fullscreenenter"",""1"",""6667""
","
","
","""event"",""trial"",""time""
""fullscreenenter"",""1"",""6667""
","
","","","","","","1268.5","<p> Let's see what happens if you choose this park for the soccer ball five times.","","0","instructions","","","","","","","","","","","","","",""
"learning-instructions","21","206604","0.0-8.0-0.0-0.13","1573","2","2","""event"",""trial"",""time""
""fullscreenenter"",""1"",""6667""
","
","
","""event"",""trial"",""time""
""fullscreenenter"",""1"",""6667""
","
","","","","","","1210.8999999761581","<p> The kids are happy.<div style='float: left;'><img src='images/i2.png' width = '640' height = '360'></img>","","0","instructions","","","","","","","","","","","","","",""
"learning-instructions","22","209352","0.0-8.0-0.0-0.14","1573","2","2","""event"",""trial"",""time""
""fullscreenenter"",""1"",""6667""
","
","
","""event"",""trial"",""time""
""fullscreenenter"",""1"",""6667""
","
","","","","","","578","<p> The kids are happy.<div style='float: left;'><img src='images/i3.png' width = '640' height = '360'></img>","","0","instructions","","","","","","","","","","","","","",""
"learning-instructions","23","212199","0.0-8.0-0.0-0.15","1573","2","2","""event"",""trial"",""time""
""fullscreenenter"",""1"",""6667""
","
","
","""event"",""trial"",""time""
""fullscreenenter"",""1"",""6667""
","
","","","","","","664.6000000238419","<p> The kids are happy.<div style='float: left;'><img src='images/i4.png' width = '640' height = '360'></img>","","0","instructions","","","","","","","","","","","","","",""
"learning-instructions","24","216923","0.0-8.0-0.0-0.16","1573","2","2","""event"",""trial"",""time""
""fullscreenenter"",""1"",""6667""
","
","
","""event"",""trial"",""time""
""fullscreenenter"",""1"",""6667""
","
","","","","","","2518.300000011921","<p> The kids are sad.<div style='float: left;'><img src='images/i5.png' width = '640' height = '360'></img>","","0","instructions","","","","","","","","","","","","","",""
"learning-instructions","25","219939","0.0-8.0-0.0-0.17","1573","2","2","""event"",""trial"",""time""
""fullscreenenter"",""1"",""6667""
","
","
","""event"",""trial"",""time""
""fullscreenenter"",""1"",""6667""
","
","","","","","","844.5","<p> The kids are happy.<div style='float: left;'><img src='images/i6.png' width = '640' height = '360'></img>","","0","instructions","","","","","","","","","","","","","",""
"learning-instructions","26","233535","0.0-8.0-0.0-0.18","1573","2","2","""event"",""trial"",""time""
""fullscreenenter"",""1"",""6667""
","
","
","""event"",""trial"",""time""
""fullscreenenter"",""1"",""6667""
","
","","","","","","6321.899999976158","<p> As you can see, selecting that park for the soccer ball made the kids happy most of the time, but not all the time.","","0","instructions","","","","","","","","","","","","","",""
"learning-instructions","27","241945","0.0-8.0-0.0-0.19","1573","2","2","""event"",""trial"",""time""
""fullscreenenter"",""1"",""6667""
","
","
","""event"",""trial"",""time""
""fullscreenenter"",""1"",""6667""
","
","","","","","","2400.400000035763","<p> Now let's see what happens if you choose a DIFFERENT park for the soccer ball 5 times.","","0","instructions","","","","","","","","","","","","","",""
"learning-instructions","28","245395","0.0-8.0-0.0-0.20","1573","2","2","""event"",""trial"",""time""
""fullscreenenter"",""1"",""6667""
","
","
","""event"",""trial"",""time""
""fullscreenenter"",""1"",""6667""
","
","","","","","","1230.8999999761581","<p> The kids are sad.<div style='float: left;'><img src='images/i7.png' width = '640' height = '360'></img>","","0","instructions","","","","","","","","","","","","","",""
"learning-instructions","29","248205","0.0-8.0-0.0-0.21","1573","2","2","""event"",""trial"",""time""
""fullscreenenter"",""1"",""6667""
","
","
","""event"",""trial"",""time""
""fullscreenenter"",""1"",""6667""
","
","","","","","","601.3000000119209","<p> The kids are sad.<div style='float: left;'><img src='images/i8.png' width = '640' height = '360'></img>","","0","instructions","","","","","","","","","","","","","",""
"learning-instructions","30","251108","0.0-8.0-0.0-0.22","1573","2","2","""event"",""trial"",""time""
""fullscreenenter"",""1"",""6667""
","
","
","""event"",""trial"",""time""
""fullscreenenter"",""1"",""6667""
","
","","","","","","743.9000000357628","<p> The kids are happy.<div style='float: left;'><img src='images/i9.png' width = '640' height = '360'></img>","","0","instructions","","","","","","","","","","","","","",""
"learning-instructions","31","253811","0.0-8.0-0.0-0.23","1573","2","2","""event"",""trial"",""time""
""fullscreenenter"",""1"",""6667""
","
","
","""event"",""trial"",""time""
""fullscreenenter"",""1"",""6667""
","
","","","","","","496","<p> The kids are sad.<div style='float: left;'><img src='images/i10.png' width = '640' height = '360'></img>","","0","instructions","","","","","","","","","","","","","",""
"learning-instructions","32","256541","0.0-8.0-0.0-0.24","1573","2","2","""event"",""trial"",""time""
""fullscreenenter"",""1"",""6667""
","
","
","""event"",""trial"",""time""
""fullscreenenter"",""1"",""6667""
","
","","","","","","536.6999999880791","<p> The kids are sad.<div style='float: left;'><img src='images/i11.png' width = '640' height = '360'></img>","","0","instructions","","","","","","","","","","","","","",""
"learning-instructions","33","266932","0.0-8.0-0.0-0.25","1573","2","2","""event"",""trial"",""time""
""fullscreenenter"",""1"",""6667""
","
","
","""event"",""trial"",""time""
""fullscreenenter"",""1"",""6667""
","
","","","","","","2267","<p> As you can see, selecting the wrong park for the soccer ball made the kids sad most of the time, but not all the time.","","0","instructions","","","","","","","","","","","","","",""
"learning-instructions","34","276907","0.0-8.0-0.0-0.26","1573","2","2","""event"",""trial"",""time""
""fullscreenenter"",""1"",""6667""
","
","
","""event"",""trial"",""time""
""fullscreenenter"",""1"",""6667""
","
","","","","","","843.1999999880791","<p> The different pieces of equipment belong in different parks. You need to try to learn which is the best park for each piece of equipment.","","0","instructions","","","","","","","","","","","","","",""
"learning-instructions","35","294544","0.0-8.0-0.0-0.27","1573","2","2","""event"",""trial"",""time""
""fullscreenenter"",""1"",""6667""
","
","
","""event"",""trial"",""time""
""fullscreenenter"",""1"",""6667""
","
","","","","","","1249.5999999642372","<p> Try to choose the best park for each piece of equipment, because you will <b> WIN </b> 1 point for each time you make the kids happy and <b>LOSE</b> 1 point for each time you make them sad. </p><p> Remember, if you make the best choice, you will win 1 point most of the time, but not all the time. </p>","","0","instructions","","","","","","","","","","","","","",""
"learning-instructions","36","300952","0.0-8.0-0.0-0.28","1573","2","2","""event"",""trial"",""time""
""fullscreenenter"",""1"",""6667""
","
","
","""event"",""trial"",""time""
""fullscreenenter"",""1"",""6667""
","
","","","","","","918","<p> This is just a practice round, but in the real game, your bonus payment will depend on your total number of points.","","0","instructions","","","","","","","","","","","","","",""
"learning-instructions","37","311846","0.0-8.0-0.0-0.29","1573","2","2","""event"",""trial"",""time""
""fullscreenenter"",""1"",""6667""
","
","
","""event"",""trial"",""time""
""fullscreenenter"",""1"",""6667""
","
","","","","","","552.6000000238419","<p> The position where each park appears will change throughout the game. </p><p> The position where the park appears <i> does not </i> influence how likely the kids are to be happy or sad. </p>","","0","instructions","","","","","","","","","","","","","",""
"learning-instructions","38","325990","0.0-8.0-0.0-0.30","1573","2","2","""event"",""trial"",""time""
""fullscreenenter"",""1"",""6667""
","
","
","""event"",""trial"",""time""
""fullscreenenter"",""1"",""6667""
","
","","","","","","3236.399999976158","<p> You will have 4 seconds to make each choice. Try to respond before time runs out! </p><p> You will lose 1 point each time you do not make a response. </p>","","0","instructions","","","","","","","","","","","","","",""
"learning-instructions","39","334215","0.0-8.0-0.0-0.31","1573","2","2","""event"",""trial"",""time""
""fullscreenenter"",""1"",""6667""
","
","
","""event"",""trial"",""time""
""fullscreenenter"",""1"",""6667""
","
","","","","","","1430.6000000238419","<p> Remember, you should use the 1, 2, and 3 keys to select the park for each piece of equipment. </p><br><div class=""choice-instructions-grid""> <div class=""choice-option""><img src=""images/park1.png"" class=""choice-option-img"" stage=""instructions"" position=""0"" ><div class=""choice-option-text""> Press ""1."" </div></div><div class=""choice-option""><img src=""images/park2.png"" class=""choice-option-img"" stage=""instructions"" position=""1"" ><div class=""choice-option-text""> Press ""2."" </div></div><div class=""choice-option""><img src=""images/park3.png"" class=""choice-option-img"" stage=""instructions"" position=""2"" ><div class=""choice-option-text""> Press ""3."" </div></div></div>","","0","instructions","","","","","","","","","","","","","",""
"html-button-response","40","339284","0.0-8.0-1.0","1573","2","2","""event"",""trial"",""time""
""fullscreenenter"",""1"",""6667""
","
","
","""event"",""trial"",""time""
""fullscreenenter"",""1"",""6667""
","
","","","","","","4958.700000047684","<p> Ready to practice? </p>","0","","","","","","","","","","","","","","","",""
"html-keyboard-response","41","339894","0.0-8.0-2.0-0.0","1573","2","2","""event"",""trial"",""time""
""fullscreenenter"",""1"",""6667""
","
","
","""event"",""trial"",""time""
""fullscreenenter"",""1"",""6667""
","
","","","","","","null","<div style=""font-size:60px;"">+</div>","null","","fixation","","","","","","","","","","","","","",""
"learning-trial","42","343898","0.0-8.0-2.0-1.0","1573","2","2","""event"",""trial"",""time""
""fullscreenenter"",""1"",""6667""
","
","
","""event"",""trial"",""time""
""fullscreenenter"",""1"",""6667""
","
","","","","","","null","images/racket1.png","","","practice","images/park2.png","images/park3.png","images/park1.png","[1,2,0]","0","2","null","null","-1","practice","","","",""
"html-keyboard-response","43","344400","0.0-8.0-2.0-0.1","1573","2","2","""event"",""trial"",""time""
""fullscreenenter"",""1"",""6667""
","
","
","""event"",""trial"",""time""
""fullscreenenter"",""1"",""6667""
","
","","","","","","null","<div style=""font-size:60px;"">+</div>","null","","fixation","","","","","","","","","","","","","",""
"learning-trial","44","348411","0.0-8.0-2.0-1.1","1573","2","2","""event"",""trial"",""time""
""fullscreenenter"",""1"",""6667""
","
","
","""event"",""trial"",""time""
""fullscreenenter"",""1"",""6667""
","
","","","","","","3781.800000011921","images/racket2.png","","","practice","images/park3.png","images/park1.png","images/park2.png","[2,0,1]","2","0","3","images/park2.png","-1","practice","","","",""
"html-keyboard-response","45","348912","0.0-8.0-2.0-0.2","1573","2","2","""event"",""trial"",""time""
""fullscreenenter"",""1"",""6667""
","
","
","""event"",""trial"",""time""
""fullscreenenter"",""1"",""6667""
","
","","","","","","null","<div style=""font-size:60px;"">+</div>","null","","fixation","","","","","","","","","","","","","",""
"learning-trial","46","352923","0.0-8.0-2.0-1.2","1573","2","2","""event"",""trial"",""time""
""fullscreenenter"",""1"",""6667""
","
","
","""event"",""trial"",""time""
""fullscreenenter"",""1"",""6667""
","
","","","","","","2461.300000011921","images/ball4.png","","","practice","images/park1.png","images/park2.png","images/park3.png","[0,1,2]","1","1","1","images/park1.png","-1","practice","","","",""
"html-keyboard-response","47","353442","0.0-8.0-2.0-0.3","1573","2","2","""event"",""trial"",""time""
""fullscreenenter"",""1"",""6667""
","
","
","""event"",""trial"",""time""
""fullscreenenter"",""1"",""6667""
","
","","","","","","null","<div style=""font-size:60px;"">+</div>","null","","fixation","","","","","","","","","","","","","",""
"learning-trial","48","357463","0.0-8.0-2.0-1.3","1573","2","2","""event"",""trial"",""time""
""fullscreenenter"",""1"",""6667""
","
","
","""event"",""trial"",""time""
""fullscreenenter"",""1"",""6667""
","
","","","","","","2822.600000023842","images/ball1.png","","","practice","images/park3.png","images/park2.png","images/park1.png","[2,1,0]","0","2","2","images/park2.png","-1","practice","","","",""
"html-keyboard-response","49","357971","0.0-8.0-2.0-0.4","1573","2","2","""event"",""trial"",""time""
""fullscreenenter"",""1"",""6667""
","
","
","""event"",""trial"",""time""
""fullscreenenter"",""1"",""6667""
","
","","","","","","null","<div style=""font-size:60px;"">+</div>","null","","fixation","","","","","","","","","","","","","",""
"learning-trial","50","361992","0.0-8.0-2.0-1.4","1573","2","2","""event"",""trial"",""time""
""fullscreenenter"",""1"",""6667""
","
","
","""event"",""trial"",""time""
""fullscreenenter"",""1"",""6667""
","
","","","","","","2155.2999999523163","images/racket3.png","","","practice","images/park2.png","images/park3.png","images/park1.png","[1,2,0]","2","1","1","images/park2.png","-1","practice","","","",""
"html-keyboard-response","51","362502","0.0-8.0-2.0-0.5","1573","2","2","""event"",""trial"",""time""
""fullscreenenter"",""1"",""6667""
","
","
","""event"",""trial"",""time""
""fullscreenenter"",""1"",""6667""
","
","","","","","","null","<div style=""font-size:60px;"">+</div>","null","","fixation","","","","","","","","","","","","","",""
"learning-trial","52","366506","0.0-8.0-2.0-1.5","1573","2","2","""event"",""trial"",""time""
""fullscreenenter"",""1"",""6667""
","
","
","""event"",""trial"",""time""
""fullscreenenter"",""1"",""6667""
","
","","","","","","1689","images/racket2.png","","","practice","images/park2.png","images/park3.png","images/park1.png","[1,2,0]","2","1","3","images/park1.png","-1","practice","","","",""
"html-keyboard-response","53","367008","0.0-8.0-2.0-0.6","1573","2","2","""event"",""trial"",""time""
""fullscreenenter"",""1"",""6667""
","
","
","""event"",""trial"",""time""
""fullscreenenter"",""1"",""6667""
","
","","","","","","null","<div style=""font-size:60px;"">+</div>","null","","fixation","","","","","","","","","","","","","",""
"learning-trial","54","371013","0.0-8.0-2.0-1.6","1573","2","2","""event"",""trial"",""time""
""fullscreenenter"",""1"",""6667""
","
","
","""event"",""trial"",""time""
""fullscreenenter"",""1"",""6667""
","
","","","","","","1773.6000000238419","images/ball3.png","","","practice","images/park3.png","images/park1.png","images/park2.png","[2,0,1]","1","2","1","images/park3.png","-1","practice","","","",""
"html-keyboard-response","55","371515","0.0-8.0-2.0-0.7","1573","2","2","""event"",""trial"",""time""
""fullscreenenter"",""1"",""6667""
","
","
","""event"",""trial"",""time""
""fullscreenenter"",""1"",""6667""
","
","","","","","","null","<div style=""font-size:60px;"">+</div>","null","","fixation","","","","","","","","","","","","","",""
"learning-trial","56","375522","0.0-8.0-2.0-1.7","1573","2","2","""event"",""trial"",""time""
""fullscreenenter"",""1"",""6667""
","
","
","""event"",""trial"",""time""
""fullscreenenter"",""1"",""6667""
","
","","","","","","879.1000000238419","images/racket3.png","","","practice","images/park1.png","images/park3.png","images/park2.png","[0,2,1]","2","1","3","images/park2.png","-1","practice","","","",""
"html-keyboard-response","57","376024","0.0-8.0-2.0-0.8","1573","2","2","""event"",""trial"",""time""
""fullscreenenter"",""1"",""6667""
","
","
","""event"",""trial"",""time""
""fullscreenenter"",""1"",""6667""
","
","","","","","","null","<div style=""font-size:60px;"">+</div>","null","","fixation","","","","","","","","","","","","","",""
"learning-trial","58","380029","0.0-8.0-2.0-1.8","1573","2","2","""event"",""trial"",""time""
""fullscreenenter"",""1"",""6667""
","
","
","""event"",""trial"",""time""
""fullscreenenter"",""1"",""6667""
","
","","","","","","1569.1000000238419","images/ball3.png","","","practice","images/park1.png","images/park3.png","images/park2.png","[0,2,1]","1","2","3","images/park2.png","1","practice","","","",""
"html-keyboard-response","59","380531","0.0-8.0-2.0-0.9","1573","2","2","""event"",""trial"",""time""
""fullscreenenter"",""1"",""6667""
","
","
","""event"",""trial"",""time""
""fullscreenenter"",""1"",""6667""
","
","","","","","","null","<div style=""font-size:60px;"">+</div>","null","","fixation","","","","","","","","","","","","","",""
"learning-trial","60","384537","0.0-8.0-2.0-1.9","1573","2","2","""event"",""trial"",""time""
""fullscreenenter"",""1"",""6667""
","
","
","""event"",""trial"",""time""
""fullscreenenter"",""1"",""6667""
","
","","","","","","1558.4000000357628","images/racket1.png","","","practice","images/park2.png","images/park1.png","images/park3.png","[1,0,2]","0","1","2","images/park1.png","1","practice","","","",""
"html-keyboard-response","61","385038","0.0-8.0-2.0-0.10","1573","2","2","""event"",""trial"",""time""
""fullscreenenter"",""1"",""6667""
","
","
","""event"",""trial"",""time""
""fullscreenenter"",""1"",""6667""
","
","","","","","","null","<div style=""font-size:60px;"">+</div>","null","","fixation","","","","","","","","","","","","","",""
"learning-trial","62","389043","0.0-8.0-2.0-1.10","1573","2","2","""event"",""trial"",""time""
""fullscreenenter"",""1"",""6667""
","
","
","""event"",""trial"",""time""
""fullscreenenter"",""1"",""6667""
","
","","","","","","1875.5999999642372","images/ball4.png","","","practice","images/park2.png","images/park1.png","images/park3.png","[1,0,2]","1","0","1","images/park2.png","1","practice","","","",""
"html-keyboard-response","63","389546","0.0-8.0-2.0-0.11","1573","2","2","""event"",""trial"",""time""
""fullscreenenter"",""1"",""6667""
","
","
","""event"",""trial"",""time""
""fullscreenenter"",""1"",""6667""
","
","","","","","","null","<div style=""font-size:60px;"">+</div>","null","","fixation","","","","","","","","","","","","","",""
"learning-trial","64","393550","0.0-8.0-2.0-1.11","1573","2","2","""event"",""trial"",""time""
""fullscreenenter"",""1"",""6667""
","
","
","""event"",""trial"",""time""
""fullscreenenter"",""1"",""6667""
","
","","","","","","471.60000002384186","images/ball1.png","","","practice","images/park3.png","images/park1.png","images/park2.png","[2,0,1]","0","1","1","images/park3.png","-1","practice","","","",""
"html-button-response","65","397358","0.0-8.0-3.0","1573","2","2","""event"",""trial"",""time""
""fullscreenenter"",""1"",""6667""
","
","
","""event"",""trial"",""time""
""fullscreenenter"",""1"",""6667""
","
","","","","","","3804.100000023842","<p> You earned -6 points in the practice round! </p>","0","","break","","","","","","","","","","","","","",""
"learning-instructions","66","407939","0.0-8.0-4.0-0.0","1573","2","2","""event"",""trial"",""time""
""fullscreenenter"",""1"",""6667""
","
","
","""event"",""trial"",""time""
""fullscreenenter"",""1"",""6667""
","
","","","","","","2815.300000011921","<p> It's almost time to start the real game. </p><p> Before you start, we're going to ask you a few questions about how the game works. </p>","","0","instructions","","","","","","","","","","","","","",""
"preload","67","411617","0.0-8.0-5.0","1573","2","2","""event"",""trial"",""time""
""fullscreenenter"",""1"",""6667""
","
","
","""event"",""trial"",""time""
""fullscreenenter"",""1"",""6667""
","
","true","false","[]","[]","[]","","","","","","","","","","","","","","","","","","",""
"comp-q","68","422829","0.0-8.0-6.0-0.0","1573","2","2","""event"",""trial"",""time""
""fullscreenenter"",""1"",""6667""
","
","
","""event"",""trial"",""time""
""fullscreenenter"",""1"",""6667""
","
","","","","","","5765","<p> <b> True or False? </b> </p><p> If you choose the best option, you will always earn 1 point. </p>","","0","comp_question","","","","","","","","","","","false","","",""
"comp-q","69","448774","0.0-8.0-6.0-1.0","1573","2","2","""event"",""trial"",""time""
""fullscreenenter"",""1"",""6667""
","
","
","""event"",""trial"",""time""
""fullscreenenter"",""1"",""6667""
","
","","","","","","20390.5","<p><b> Incorrect. </b> Sometimes you will lose 1 point, even if you choose the best option. </p>","","0","comp_answer","","","","","","","","","","","","","",""
"comp-q","70","454990","0.0-8.0-6.0-0.1","1573","2","2","""event"",""trial"",""time""
""fullscreenenter"",""1"",""6667""
","
","
","""event"",""trial"",""time""
""fullscreenenter"",""1"",""6667""
","
","","","","","","1565.5999999642372","<p> <b> True or False? </b> </p><p> You will have as much time as you want to make each choice. </p>","","1","comp_question","","","","","","","","","","","true","","",""
"comp-q","71","462173","0.0-8.0-6.0-1.1","1573","2","2","""event"",""trial"",""time""
""fullscreenenter"",""1"",""6667""
","
","
","""event"",""trial"",""time""
""fullscreenenter"",""1"",""6667""
","
","","","","","","2349.300000011921","<p> <b> That's right! </b> You will only have 4 seconds to make each choice. </p>","","0","comp_answer","","","","","","","","","","","","","",""
"comp-q","72","468788","0.0-8.0-6.0-0.2","1573","2","2","""event"",""trial"",""time""
""fullscreenenter"",""1"",""6667""
","
","
","""event"",""trial"",""time""
""fullscreenenter"",""1"",""6667""
","
","","","","","","453.80000001192093","<p> <b> True or False? </b> </p><p> You should use the '1', '2', and '3' keys to make your choices. </p>","","0","comp_question","","","","","","","","","","","true","","",""
"comp-q","73","476408","0.0-8.0-6.0-1.2","1573","2","2","""event"",""trial"",""time""
""fullscreenenter"",""1"",""6667""
","
","
","""event"",""trial"",""time""
""fullscreenenter"",""1"",""6667""
","
","","","","","","2763.699999988079","<p> <b> That's right! </b> You should use the '1', '2', and '3' keys to make each choice. </p>","","0","comp_answer","","","","","","","","","","","","","",""
"learning-instructions","74","487414","0.0-8.0-7.0-0.0","1573","2","2","""event"",""trial"",""time""
""fullscreenenter"",""1"",""6667""
","
","
","""event"",""trial"",""time""
""fullscreenenter"",""1"",""6667""
","
","","","","","","2510.199999988079","<p> It's now time to start the real game. </p>Do your best, because the points you earn in the next rounds will influence your bonus payment. </p>","","0","instructions","","","","","","","","","","","","","",""
"preload","75","490768","0.0-9.0-0.0","1573","2","2","""event"",""trial"",""time""
""fullscreenenter"",""1"",""6667""
","
","
","""event"",""trial"",""time""
""fullscreenenter"",""1"",""6667""
","
","true","false","[]","[]","[]","","","","","","","","","","","","","","","","","","",""
"learning-instructions","76","500230","0.0-9.0-1.0-0.0","1573","2","2","""event"",""trial"",""time""
""fullscreenenter"",""1"",""6667""
","
","
","""event"",""trial"",""time""
""fullscreenenter"",""1"",""6667""
","
","","","","","","1807","<p> Your goal in this round is to return farm animals to the barns where they live. </p><p>  Different animals wandered away from different barns! </p></div>","","0","instructions","","","","","","","","","","","","","",""
"learning-instructions","77","509528","0.0-9.0-1.0-0.1","1573","2","2","""event"",""trial"",""time""
""fullscreenenter"",""1"",""6667""
","
","
","""event"",""trial"",""time""
""fullscreenenter"",""1"",""6667""
","
","","","","","","654.9000000357628","<p> On each turn, you will see a picture of a farm animal and three different barns.  </p><p> You need to select the barn where each animal lives.  </p>","","0","instructions","","","","","","","","","","","","","",""
"learning-instructions","78","517703","0.0-9.0-1.0-0.2","1573","2","2","""event"",""trial"",""time""
""fullscreenenter"",""1"",""6667""
","
","
","""event"",""trial"",""time""
""fullscreenenter"",""1"",""6667""
","
","","","","","","989","<p> You can select the barn on the left by pressing 1, the barn in the middle by pressing 2, and the barn on the right by pressing 3. </p><br><div class=""choice-instructions-grid""> <div class=""choice-option""><img src=""images/animals_choice1.png"" class=""choice-option-img"" stage=""instructions"" position=""0"" ><div class=""choice-option-text""> Press ""1."" </div></div><div class=""choice-option""><img src=""images/animals_choice2.png"" class=""choice-option-img"" stage=""instructions"" position=""1"" ><div class=""choice-option-text""> Press ""2."" </div></div><div class=""choice-option""><img src=""images/animals_choice3.png"" class=""choice-option-img"" stage=""instructions"" position=""2"" ><div class=""choice-option-text""> Press ""3."" </div></div></div>","","0","instructions","","","","","","","","","","","","","",""
"learning-instructions","79","526133","0.0-9.0-1.0-0.3","1573","2","2","""event"",""trial"",""time""
""fullscreenenter"",""1"",""6667""
","
","
","""event"",""trial"",""time""
""fullscreenenter"",""1"",""6667""
","
","","","","","","3280.199999988079","<p> If you return the farm animal to the correct barn, it will usually be happy! </p><div style='float: center;'><img src='images/check.png' width = '200' height = '200'></img>","","0","instructions","","","","","","","","","","","","","",""
"learning-instructions","80","533936","0.0-9.0-1.0-0.4","1573","2","2","""event"",""trial"",""time""
""fullscreenenter"",""1"",""6667""
","
","
","""event"",""trial"",""time""
""fullscreenenter"",""1"",""6667""
","
","","","","","","2483.699999988079","<p> But, if you return the farm animal to the wrong barn, it will usually be sad. </p><div style='float: center;'><img src='images/x.png' width = '200' height = '200'></img>","","0","instructions","","","","","","","","","","","","","",""
"learning-instructions","81","545428","0.0-9.0-1.0-0.5","1573","2","2","""event"",""trial"",""time""
""fullscreenenter"",""1"",""6667""
","
","
","""event"",""trial"",""time""
""fullscreenenter"",""1"",""6667""
","
","","","","","","936.3000000119209","<p> Importantly, each farm animal belongs in one of the barns. </p><p> If you choose the correct barn, the farm animal will return home safely and will be more likely to be happy! </p>","","0","instructions","","","","","","","","","","","","","",""
"learning-instructions","82","559988","0.0-9.0-1.0-0.6","1573","2","2","""event"",""trial"",""time""
""fullscreenenter"",""1"",""6667""
","
","
","""event"",""trial"",""time""
""fullscreenenter"",""1"",""6667""
","
","","","","","","4023.800000011921","<p> However, even if you choose the correct barn for the farm animal, it might still feel sad. </p><p> Similarly, even if you choose the <i>wrong</i> barn, it might still feel happy.","","0","instructions","","","","","","","","","","","","","",""
"learning-instructions","83","576852","0.0-9.0-1.0-0.7","1573","2","2","""event"",""trial"",""time""
""fullscreenenter"",""1"",""6667""
","
","
","""event"",""trial"",""time""
""fullscreenenter"",""1"",""6667""
","
","","","","","","3158.300000011921","<p> Try to choose the correct barn for each farm animal, because you will <b> WIN </b> 1 point for each farm animal you make happy and <b>LOSE</b> 1 point for each farm animal you make sad. </p><p> Your bonus payment will depend on your total number of points.","","0","instructions","","","","","","","","","","","","","",""
"learning-instructions","84","585773","0.0-9.0-1.0-0.8","1573","2","2","""event"",""trial"",""time""
""fullscreenenter"",""1"",""6667""
","
","
","""event"",""trial"",""time""
""fullscreenenter"",""1"",""6667""
","
","","","","","","800.3999999761581","<p> The position of each barn will change throughout the round. </p><p> The barn's position <i> does not </i> influence how likely it is to be the correct one. </p>","","0","instructions","","","","","","","","","","","","","",""
"learning-instructions","85","595857","0.0-9.0-1.0-0.9","1573","2","2","""event"",""trial"",""time""
""fullscreenenter"",""1"",""6667""
","
","
","""event"",""trial"",""time""
""fullscreenenter"",""1"",""6667""
","
","","","","","","773.6000000238419","<p> You will have 4 seconds to make each choice. Try to respond before time runs out! </p><p> You will lose 1 point each time you do not make a response. </p>","","0","instructions","","","","","","","","","","","","","",""
"html-keyboard-response","86","596471","0.0-9.0-2.0-0.0","1573","2","2","""event"",""trial"",""time""
""fullscreenenter"",""1"",""6667""
","
","
","""event"",""trial"",""time""
""fullscreenenter"",""1"",""6667""
","
","","","","","","null","<div style=""font-size:60px;"">+</div>","null","","fixation","","","","","","","","","","","","","",""
"learning-trial","87","600481","0.0-9.0-2.0-1.0","1573","2","2","""event"",""trial"",""time""
""fullscreenenter"",""1"",""6667""
","
","
","""event"",""trial"",""time""
""fullscreenenter"",""1"",""6667""
","
","","","","","","3285.900000035763","images/horse1.png","","","learning","images/animals_choice3.png","images/animals_choice1.png","images/animals_choice2.png","[2,0,1]","1","2","2","images/animals_choice1.png","1","animals","","horse","2","0"
"html-keyboard-response","88","601002","0.0-9.0-2.0-0.1","1573","2","2","""event"",""trial"",""time""
""fullscreenenter"",""1"",""6667""
","
","
","""event"",""trial"",""time""
""fullscreenenter"",""1"",""6667""
","
","","","","","","null","<div style=""font-size:60px;"">+</div>","null","","fixation","","","","","","","","","","","","","",""
"learning-trial","89","605011","0.0-9.0-2.0-1.1","1573","2","2","""event"",""trial"",""time""
""fullscreenenter"",""1"",""6667""
","
","
","""event"",""trial"",""time""
""fullscreenenter"",""1"",""6667""
","
","","","","","","1325.4000000357628","images/horse1.png","","","learning","images/animals_choice2.png","images/animals_choice1.png","images/animals_choice3.png","[1,0,2]","1","0","2","images/animals_choice1.png","-1","animals","","horse","2","0"
"html-keyboard-response","90","605521","0.0-9.0-2.0-0.2","1573","2","2","""event"",""trial"",""time""
""fullscreenenter"",""1"",""6667""
","
","
","""event"",""trial"",""time""
""fullscreenenter"",""1"",""6667""
","
","","","","","","null","<div style=""font-size:60px;"">+</div>","null","","fixation","","","","","","","","","","","","","",""
"learning-trial","91","609542","0.0-9.0-2.0-1.2","1573","2","2","""event"",""trial"",""time""
""fullscreenenter"",""1"",""6667""
","
","
","""event"",""trial"",""time""
""fullscreenenter"",""1"",""6667""
","
","","","","","","518.8000000119209","images/goat2.png","","","learning","images/animals_choice2.png","images/animals_choice1.png","images/animals_choice3.png","[1,0,2]","2","2","3","images/animals_choice3.png","1","animals","","goat","2","0"
"html-keyboard-response","92","610051","0.0-9.0-2.0-0.3","1573","2","2","""event"",""trial"",""time""
""fullscreenenter"",""1"",""6667""
","
","
","""event"",""trial"",""time""
""fullscreenenter"",""1"",""6667""
","
","","","","","","null","<div style=""font-size:60px;"">+</div>","null","","fixation","","","","","","","","","","","","","",""
"learning-trial","93","614063","0.0-9.0-2.0-1.3","1573","2","2","""event"",""trial"",""time""
""fullscreenenter"",""1"",""6667""
","
","
","""event"",""trial"",""time""
""fullscreenenter"",""1"",""6667""
","
","","","","","","667.4000000357628","images/horse1.png","","","learning","images/animals_choice3.png","images/animals_choice1.png","images/animals_choice2.png","[2,0,1]","1","2","1","images/animals_choice3.png","-1","animals","","horse","2","0"
"html-keyboard-response","94","614581","0.0-9.0-2.0-0.4","1573","2","2","""event"",""trial"",""time""
""fullscreenenter"",""1"",""6667""
","
","
","""event"",""trial"",""time""
""fullscreenenter"",""1"",""6667""
","
","","","","","","null","<div style=""font-size:60px;"">+</div>","null","","fixation","","","","","","","","","","","","","",""
"learning-trial","95","618592","0.0-9.0-2.0-1.4","1573","2","2","""event"",""trial"",""time""
""fullscreenenter"",""1"",""6667""
","
","
","""event"",""trial"",""time""
""fullscreenenter"",""1"",""6667""
","
","","","","","","2320.699999988079","images/cow5.png","","","learning","images/animals_choice2.png","images/animals_choice3.png","images/animals_choice1.png","[1,2,0]","2","1","1","images/animals_choice2.png","-1","animals","","cow","2","0"
"html-keyboard-response","96","619111","0.0-9.0-2.0-0.5","1573","2","2","""event"",""trial"",""time""
""fullscreenenter"",""1"",""6667""
","
","
","""event"",""trial"",""time""
""fullscreenenter"",""1"",""6667""
","
","","","","","","null","<div style=""font-size:60px;"">+</div>","null","","fixation","","","","","","","","","","","","","",""
"learning-trial","97","623120","0.0-9.0-2.0-1.5","1573","2","2","""event"",""trial"",""time""
""fullscreenenter"",""1"",""6667""
","
","
","""event"",""trial"",""time""
""fullscreenenter"",""1"",""6667""
","
","","","","","","1676","images/horse1.png","","","learning","images/animals_choice2.png","images/animals_choice1.png","images/animals_choice3.png","[1,0,2]","1","0","2","images/animals_choice1.png","-1","animals","","horse","2","0"
"html-keyboard-response","98","623630","0.0-9.0-2.0-0.6","1573","2","2","""event"",""trial"",""time""
""fullscreenenter"",""1"",""6667""
","
","
","""event"",""trial"",""time""
""fullscreenenter"",""1"",""6667""
","
","","","","","","null","<div style=""font-size:60px;"">+</div>","null","","fixation","","","","","","","","","","","","","",""
"learning-trial","99","627636","0.0-9.0-2.0-1.6","1573","2","2","""event"",""trial"",""time""
""fullscreenenter"",""1"",""6667""
","
","
","""event"",""trial"",""time""
""fullscreenenter"",""1"",""6667""
","
","","","","","","1470.9000000357628","images/goat3.png","","","learning","images/animals_choice3.png","images/animals_choice2.png","images/animals_choice1.png","[2,1,0]","0","2","2","images/animals_choice2.png","-1","animals","","goat","2","0"
"html-keyboard-response","100","628138","0.0-9.0-2.0-0.7","1573","2","2","""event"",""trial"",""time""
""fullscreenenter"",""1"",""6667""
","
","
","""event"",""trial"",""time""
""fullscreenenter"",""1"",""6667""
","
","","","","","","null","<div style=""font-size:60px;"">+</div>","null","","fixation","","","","","","","","","","","","","",""
"learning-trial","101","632145","0.0-9.0-2.0-1.7","1573","2","2","""event"",""trial"",""time""
""fullscreenenter"",""1"",""6667""
","
","
","""event"",""trial"",""time""
""fullscreenenter"",""1"",""6667""
","
","","","","","","2163","images/horse4.png","","","learning","images/animals_choice1.png","images/animals_choice2.png","images/animals_choice3.png","[0,1,2]","0","0","1","images/animals_choice1.png","1","animals","","horse","2","0"
"html-keyboard-response","102","632655","0.0-9.0-2.0-0.8","1573","2","2","""event"",""trial"",""time""
""fullscreenenter"",""1"",""6667""
","
","
","""event"",""trial"",""time""
""fullscreenenter"",""1"",""6667""
","
","","","","","","null","<div style=""font-size:60px;"">+</div>","null","","fixation","","","","","","","","","","","","","",""
"learning-trial","103","636660","0.0-9.0-2.0-1.8","1573","2","2","""event"",""trial"",""time""
""fullscreenenter"",""1"",""6667""
","
","
","""event"",""trial"",""time""
""fullscreenenter"",""1"",""6667""
","
","","","","","","1135.800000011921","images/horse3.png","","","learning","images/animals_choice3.png","images/animals_choice1.png","images/animals_choice2.png","[2,0,1]","2","0","2","images/animals_choice1.png","-1","animals","","horse","2","0"
"html-keyboard-response","104","637162","0.0-9.0-2.0-0.9","1573","2","2","""event"",""trial"",""time""
""fullscreenenter"",""1"",""6667""
","
","
","""event"",""trial"",""time""
""fullscreenenter"",""1"",""6667""
","
","","","","","","null","<div style=""font-size:60px;"">+</div>","null","","fixation","","","","","","","","","","","","","",""
"learning-trial","105","641167","0.0-9.0-2.0-1.9","1573","2","2","""event"",""trial"",""time""
""fullscreenenter"",""1"",""6667""
","
","
","""event"",""trial"",""time""
""fullscreenenter"",""1"",""6667""
","
","","","","","","2541.899999976158","images/goat1.png","","","learning","images/animals_choice1.png","images/animals_choice3.png","images/animals_choice2.png","[0,2,1]","1","2","2","images/animals_choice3.png","-1","animals","","goat","2","0"
"html-keyboard-response","106","641669","0.0-9.0-2.0-0.10","1573","2","2","""event"",""trial"",""time""
""fullscreenenter"",""1"",""6667""
","
","
","""event"",""trial"",""time""
""fullscreenenter"",""1"",""6667""
","
","","","","","","null","<div style=""font-size:60px;"">+</div>","null","","fixation","","","","","","","","","","","","","",""
"learning-trial","107","645675","0.0-9.0-2.0-1.10","1573","2","2","""event"",""trial"",""time""
""fullscreenenter"",""1"",""6667""
","
","
","""event"",""trial"",""time""
""fullscreenenter"",""1"",""6667""
","
","","","","","","3268","images/horse1.png","","","learning","images/animals_choice3.png","images/animals_choice2.png","images/animals_choice1.png","[2,1,0]","1","1","2","images/animals_choice2.png","1","animals","","horse","2","0"
"html-keyboard-response","108","646177","0.0-9.0-2.0-0.11","1573","2","2","""event"",""trial"",""time""
""fullscreenenter"",""1"",""6667""
","
","
","""event"",""trial"",""time""
""fullscreenenter"",""1"",""6667""
","
","","","","","","null","<div style=""font-size:60px;"">+</div>","null","","fixation","","","","","","","","","","","","","",""
"learning-trial","109","650181","0.0-9.0-2.0-1.11","1573","2","2","""event"",""trial"",""time""
""fullscreenenter"",""1"",""6667""
","
","
","""event"",""trial"",""time""
""fullscreenenter"",""1"",""6667""
","
","","","","","","1185.5","images/cow4.png","","","learning","images/animals_choice2.png","images/animals_choice3.png","images/animals_choice1.png","[1,2,0]","1","0","3","images/animals_choice1.png","1","animals","","cow","2","0"
"html-keyboard-response","110","650685","0.0-9.0-2.0-0.12","1573","2","2","""event"",""trial"",""time""
""fullscreenenter"",""1"",""6667""
","
","
","""event"",""trial"",""time""
""fullscreenenter"",""1"",""6667""
","
","","","","","","null","<div style=""font-size:60px;"">+</div>","null","","fixation","","","","","","","","","","","","","",""
"learning-trial","111","654690","0.0-9.0-2.0-1.12","1573","2","2","""event"",""trial"",""time""
""fullscreenenter"",""1"",""6667""
","
","
","""event"",""trial"",""time""
""fullscreenenter"",""1"",""6667""
","
","","","","","","1463.8999999761581","images/horse4.png","","","learning","images/animals_choice3.png","images/animals_choice2.png","images/animals_choice1.png","[2,1,0]","0","2","1","images/animals_choice3.png","-1","animals","","horse","2","0"
"html-keyboard-response","112","655191","0.0-9.0-2.0-0.13","1573","2","2","""event"",""trial"",""time""
""fullscreenenter"",""1"",""6667""
","
","
","""event"",""trial"",""time""
""fullscreenenter"",""1"",""6667""
","
","","","","","","null","<div style=""font-size:60px;"">+</div>","null","","fixation","","","","","","","","","","","","","",""
"learning-trial","113","659199","0.0-9.0-2.0-1.13","1573","2","2","""event"",""trial"",""time""
""fullscreenenter"",""1"",""6667""
","
","
","""event"",""trial"",""time""
""fullscreenenter"",""1"",""6667""
","
","","","","","","2120.699999988079","images/cow5.png","","","learning","images/animals_choice3.png","images/animals_choice1.png","images/animals_choice2.png","[2,0,1]","2","0","3","images/animals_choice2.png","1","animals","","cow","2","0"
"html-keyboard-response","114","659701","0.0-9.0-2.0-0.14","1573","2","2","""event"",""trial"",""time""
""fullscreenenter"",""1"",""6667""
","
","
","""event"",""trial"",""time""
""fullscreenenter"",""1"",""6667""
","
","","","","","","null","<div style=""font-size:60px;"">+</div>","null","","fixation","","","","","","","","","","","","","",""
"learning-trial","115","663707","0.0-9.0-2.0-1.14","1573","2","2","""event"",""trial"",""time""
""fullscreenenter"",""1"",""6667""
","
","
","""event"",""trial"",""time""
""fullscreenenter"",""1"",""6667""
","
","","","","","","1538.3999999761581","images/cow4.png","","","learning","images/animals_choice1.png","images/animals_choice2.png","images/animals_choice3.png","[0,1,2]","1","1","3","images/animals_choice3.png","-1","animals","","cow","2","0"
"html-keyboard-response","116","664210","0.0-9.0-2.0-0.15","1573","2","2","""event"",""trial"",""time""
""fullscreenenter"",""1"",""6667""
","
","
","""event"",""trial"",""time""
""fullscreenenter"",""1"",""6667""
","
","","","","","","null","<div style=""font-size:60px;"">+</div>","null","","fixation","","","","","","","","","","","","","",""
"learning-trial","117","668213","0.0-9.0-2.0-1.15","1573","2","2","""event"",""trial"",""time""
""fullscreenenter"",""1"",""6667""
","
","
","""event"",""trial"",""time""
""fullscreenenter"",""1"",""6667""
","
","","","","","","1188.8999999761581","images/horse3.png","","","learning","images/animals_choice1.png","images/animals_choice3.png","images/animals_choice2.png","[0,2,1]","2","1","2","images/animals_choice3.png","1","animals","","horse","2","0"
"html-keyboard-response","118","668714","0.0-9.0-2.0-0.16","1573","2","2","""event"",""trial"",""time""
""fullscreenenter"",""1"",""6667""
","
","
","""event"",""trial"",""time""
""fullscreenenter"",""1"",""6667""
","
","","","","","","null","<div style=""font-size:60px;"">+</div>","null","","fixation","","","","","","","","","","","","","",""
"learning-trial","119","672718","0.0-9.0-2.0-1.16","1573","2","2","""event"",""trial"",""time""
""fullscreenenter"",""1"",""6667""
","
","
","""event"",""trial"",""time""
""fullscreenenter"",""1"",""6667""
","
","","","","","","1468.8999999761581","images/horse4.png","","","learning","images/animals_choice1.png","images/animals_choice3.png","images/animals_choice2.png","[0,2,1]","0","0","3","images/animals_choice2.png","-1","animals","","horse","2","0"
"html-keyboard-response","120","673221","0.0-9.0-2.0-0.17","1573","2","2","""event"",""trial"",""time""
""fullscreenenter"",""1"",""6667""
","
","
","""event"",""trial"",""time""
""fullscreenenter"",""1"",""6667""
","
","","","","","","null","<div style=""font-size:60px;"">+</div>","null","","fixation","","","","","","","","","","","","","",""
"learning-trial","121","677228","0.0-9.0-2.0-1.17","1573","2","2","""event"",""trial"",""time""
""fullscreenenter"",""1"",""6667""
","
","
","""event"",""trial"",""time""
""fullscreenenter"",""1"",""6667""
","
","","","","","","1236.5","images/cow1.png","","","learning","images/animals_choice2.png","images/animals_choice1.png","images/animals_choice3.png","[1,0,2]","0","1","2","images/animals_choice1.png","1","animals","","cow","2","0"
"html-keyboard-response","122","677731","0.0-9.0-2.0-0.18","1573","2","2","""event"",""trial"",""time""
""fullscreenenter"",""1"",""6667""
","
","
","""event"",""trial"",""time""
""fullscreenenter"",""1"",""6667""
","
","","","","","","null","<div style=""font-size:60px;"">+</div>","null","","fixation","","","","","","","","","","","","","",""
"learning-trial","123","681737","0.0-9.0-2.0-1.18","1573","2","2","""event"",""trial"",""time""
""fullscreenenter"",""1"",""6667""
","
","
","""event"",""trial"",""time""
""fullscreenenter"",""1"",""6667""
","
","","","","","","2057.100000023842","images/goat1.png","","","learning","images/animals_choice1.png","images/animals_choice3.png","images/animals_choice2.png","[0,2,1]","1","2","3","images/animals_choice2.png","1","animals","","goat","2","0"
"html-keyboard-response","124","682239","0.0-9.0-2.0-0.19","1573","2","2","""event"",""trial"",""time""
""fullscreenenter"",""1"",""6667""
","
","
","""event"",""trial"",""time""
""fullscreenenter"",""1"",""6667""
","
","","","","","","null","<div style=""font-size:60px;"">+</div>","null","","fixation","","","","","","","","","","","","","",""
"learning-trial","125","686246","0.0-9.0-2.0-1.19","1573","2","2","""event"",""trial"",""time""
""fullscreenenter"",""1"",""6667""
","
","
","""event"",""trial"",""time""
""fullscreenenter"",""1"",""6667""
","
","","","","","","1923.300000011921","images/cow1.png","","","learning","images/animals_choice2.png","images/animals_choice1.png","images/animals_choice3.png","[1,0,2]","0","1","2","images/animals_choice1.png","-1","animals","","cow","2","0"
"html-keyboard-response","126","686749","0.0-9.0-2.0-0.20","1573","2","2","""event"",""trial"",""time""
""fullscreenenter"",""1"",""6667""
","
","
","""event"",""trial"",""time""
""fullscreenenter"",""1"",""6667""
","
","","","","","","null","<div style=""font-size:60px;"">+</div>","null","","fixation","","","","","","","","","","","","","",""
"learning-trial","127","690758","0.0-9.0-2.0-1.20","1573","2","2","""event"",""trial"",""time""
""fullscreenenter"",""1"",""6667""
","
","
","""event"",""trial"",""time""
""fullscreenenter"",""1"",""6667""
","
","","","","","","2696.899999976158","images/goat3.png","","","learning","images/animals_choice1.png","images/animals_choice3.png","images/animals_choice2.png","[0,2,1]","0","0","3","images/animals_choice2.png","-1","animals","","goat","2","0"
"html-keyboard-response","128","691260","0.0-9.0-2.0-0.21","1573","2","2","""event"",""trial"",""time""
""fullscreenenter"",""1"",""6667""
","
","
","""event"",""trial"",""time""
""fullscreenenter"",""1"",""6667""
","
","","","","","","null","<div style=""font-size:60px;"">+</div>","null","","fixation","","","","","","","","","","","","","",""
"learning-trial","129","695266","0.0-9.0-2.0-1.21","1573","2","2","""event"",""trial"",""time""
""fullscreenenter"",""1"",""6667""
","
","
","""event"",""trial"",""time""
""fullscreenenter"",""1"",""6667""
","
","","","","","","1205.5999999642372","images/goat2.png","","","learning","images/animals_choice1.png","images/animals_choice3.png","images/animals_choice2.png","[0,2,1]","2","1","2","images/animals_choice3.png","1","animals","","goat","2","0"
"html-keyboard-response","130","695768","0.0-9.0-2.0-0.22","1573","2","2","""event"",""trial"",""time""
""fullscreenenter"",""1"",""6667""
","
","
","""event"",""trial"",""time""
""fullscreenenter"",""1"",""6667""
","
","","","","","","null","<div style=""font-size:60px;"">+</div>","null","","fixation","","","","","","","","","","","","","",""
"learning-trial","131","699770","0.0-9.0-2.0-1.22","1573","2","2","""event"",""trial"",""time""
""fullscreenenter"",""1"",""6667""
","
","
","""event"",""trial"",""time""
""fullscreenenter"",""1"",""6667""
","
","","","","","","1212.199999988079","images/goat2.png","","","learning","images/animals_choice1.png","images/animals_choice2.png","images/animals_choice3.png","[0,1,2]","2","2","1","images/animals_choice1.png","-1","animals","","goat","2","0"
"html-keyboard-response","132","700272","0.0-9.0-2.0-0.23","1573","2","2","""event"",""trial"",""time""
""fullscreenenter"",""1"",""6667""
","
","
","""event"",""trial"",""time""
""fullscreenenter"",""1"",""6667""
","
","","","","","","null","<div style=""font-size:60px;"">+</div>","null","","fixation","","","","","","","","","","","","","",""
"learning-trial","133","704278","0.0-9.0-2.0-1.23","1573","2","2","""event"",""trial"",""time""
""fullscreenenter"",""1"",""6667""
","
","
","""event"",""trial"",""time""
""fullscreenenter"",""1"",""6667""
","
","","","","","","2842.099999964237","images/cow4.png","","","learning","images/animals_choice1.png","images/animals_choice3.png","images/animals_choice2.png","[0,2,1]","1","2","1","images/animals_choice1.png","-1","animals","","cow","2","0"
"html-keyboard-response","134","704780","0.0-9.0-2.0-0.24","1573","2","2","""event"",""trial"",""time""
""fullscreenenter"",""1"",""6667""
","
","
","""event"",""trial"",""time""
""fullscreenenter"",""1"",""6667""
","
","","","","","","null","<div style=""font-size:60px;"">+</div>","null","","fixation","","","","","","","","","","","","","",""
"learning-trial","135","708784","0.0-9.0-2.0-1.24","1573","2","2","""event"",""trial"",""time""
""fullscreenenter"",""1"",""6667""
","
","
","""event"",""trial"",""time""
""fullscreenenter"",""1"",""6667""
","
","","","","","","605.6000000238419","images/horse3.png","","","learning","images/animals_choice1.png","images/animals_choice2.png","images/animals_choice3.png","[0,1,2]","2","2","3","images/animals_choice3.png","1","animals","","horse","2","0"
"html-keyboard-response","136","709285","0.0-9.0-2.0-0.25","1573","2","2","""event"",""trial"",""time""
""fullscreenenter"",""1"",""6667""
","
","
","""event"",""trial"",""time""
""fullscreenenter"",""1"",""6667""
","
","","","","","","null","<div style=""font-size:60px;"">+</div>","null","","fixation","","","","","","","","","","","","","",""
"learning-trial","137","713288","0.0-9.0-2.0-1.25","1573","2","2","""event"",""trial"",""time""
""fullscreenenter"",""1"",""6667""
","
","
","""event"",""trial"",""time""
""fullscreenenter"",""1"",""6667""
","
","","","","","","659.5999999642372","images/horse1.png","","","learning","images/animals_choice1.png","images/animals_choice2.png","images/animals_choice3.png","[0,1,2]","1","1","2","images/animals_choice2.png","1","animals","","horse","2","0"
"html-keyboard-response","138","713790","0.0-9.0-2.0-0.26","1573","2","2","""event"",""trial"",""time""
""fullscreenenter"",""1"",""6667""
","
","
","""event"",""trial"",""time""
""fullscreenenter"",""1"",""6667""
","
","","","","","","null","<div style=""font-size:60px;"">+</div>","null","","fixation","","","","","","","","","","","","","",""
"learning-trial","139","717796","0.0-9.0-2.0-1.26","1573","2","2","""event"",""trial"",""time""
""fullscreenenter"",""1"",""6667""
","
","
","""event"",""trial"",""time""
""fullscreenenter"",""1"",""6667""
","
","","","","","","2260.699999988079","images/cow1.png","","","learning","images/animals_choice2.png","images/animals_choice3.png","images/animals_choice1.png","[1,2,0]","0","2","1","images/animals_choice2.png","-1","animals","","cow","2","0"
"html-keyboard-response","140","718298","0.0-9.0-2.0-0.27","1573","2","2","""event"",""trial"",""time""
""fullscreenenter"",""1"",""6667""
","
","
","""event"",""trial"",""time""
""fullscreenenter"",""1"",""6667""
","
","","","","","","null","<div style=""font-size:60px;"">+</div>","null","","fixation","","","","","","","","","","","","","",""
"learning-trial","141","722301","0.0-9.0-2.0-1.27","1573","2","2","""event"",""trial"",""time""
""fullscreenenter"",""1"",""6667""
","
","
","""event"",""trial"",""time""
""fullscreenenter"",""1"",""6667""
","
","","","","","","1237.699999988079","images/goat1.png","","","learning","images/animals_choice3.png","images/animals_choice2.png","images/animals_choice1.png","[2,1,0]","1","1","3","images/animals_choice1.png","-1","animals","","goat","2","0"
"html-keyboard-response","142","722802","0.0-9.0-2.0-0.28","1573","2","2","""event"",""trial"",""time""
""fullscreenenter"",""1"",""6667""
","
","
","""event"",""trial"",""time""
""fullscreenenter"",""1"",""6667""
","
","","","","","","null","<div style=""font-size:60px;"">+</div>","null","","fixation","","","","","","","","","","","","","",""
"learning-trial","143","726806","0.0-9.0-2.0-1.28","1573","2","2","""event"",""trial"",""time""
""fullscreenenter"",""1"",""6667""
","
","
","""event"",""trial"",""time""
""fullscreenenter"",""1"",""6667""
","
","","","","","","548.0999999642372","images/goat1.png","","","learning","images/animals_choice2.png","images/animals_choice3.png","images/animals_choice1.png","[1,2,0]","1","0","2","images/animals_choice3.png","1","animals","","goat","2","0"
"html-keyboard-response","144","727308","0.0-9.0-2.0-0.29","1573","2","2","""event"",""trial"",""time""
""fullscreenenter"",""1"",""6667""
","
","
","""event"",""trial"",""time""
""fullscreenenter"",""1"",""6667""
","
","","","","","","null","<div style=""font-size:60px;"">+</div>","null","","fixation","","","","","","","","","","","","","",""
"learning-trial","145","731311","0.0-9.0-2.0-1.29","1573","2","2","""event"",""trial"",""time""
""fullscreenenter"",""1"",""6667""
","
","
","""event"",""trial"",""time""
""fullscreenenter"",""1"",""6667""
","
","","","","","","2349.100000023842","images/goat1.png","","","learning","images/animals_choice2.png","images/animals_choice1.png","images/animals_choice3.png","[1,0,2]","1","0","2","images/animals_choice1.png","-1","animals","","goat","2","0"
"html-keyboard-response","146","731829","0.0-9.0-2.0-0.30","1573","2","2","""event"",""trial"",""time""
""fullscreenenter"",""1"",""6667""
","
","
","""event"",""trial"",""time""
""fullscreenenter"",""1"",""6667""
","
","","","","","","null","<div style=""font-size:60px;"">+</div>","null","","fixation","","","","","","","","","","","","","",""
"learning-trial","147","735834","0.0-9.0-2.0-1.30","1573","2","2","""event"",""trial"",""time""
""fullscreenenter"",""1"",""6667""
","
","
","""event"",""trial"",""time""
""fullscreenenter"",""1"",""6667""
","
","","","","","","1868.3999999761581","images/goat3.png","","","learning","images/animals_choice3.png","images/animals_choice2.png","images/animals_choice1.png","[2,1,0]","0","2","2","images/animals_choice2.png","-1","animals","","goat","2","0"
"html-keyboard-response","148","736336","0.0-9.0-2.0-0.31","1573","2","2","""event"",""trial"",""time""
""fullscreenenter"",""1"",""6667""
","
","
","""event"",""trial"",""time""
""fullscreenenter"",""1"",""6667""
","
","","","","","","null","<div style=""font-size:60px;"">+</div>","null","","fixation","","","","","","","","","","","","","",""
"learning-trial","149","740341","0.0-9.0-2.0-1.31","1573","2","2","""event"",""trial"",""time""
""fullscreenenter"",""1"",""6667""
","
","
","""event"",""trial"",""time""
""fullscreenenter"",""1"",""6667""
","
","","","","","","2833.5","images/horse3.png","","","learning","images/animals_choice2.png","images/animals_choice3.png","images/animals_choice1.png","[1,2,0]","2","1","3","images/animals_choice1.png","1","animals","","horse","2","0"
"html-keyboard-response","150","740843","0.0-9.0-2.0-0.32","1573","2","2","""event"",""trial"",""time""
""fullscreenenter"",""1"",""6667""
","
","
","""event"",""trial"",""time""
""fullscreenenter"",""1"",""6667""
","
","","","","","","null","<div style=""font-size:60px;"">+</div>","null","","fixation","","","","","","","","","","","","","",""
"learning-trial","151","744848","0.0-9.0-2.0-1.32","1573","2","2","""event"",""trial"",""time""
""fullscreenenter"",""1"",""6667""
","
","
","""event"",""trial"",""time""
""fullscreenenter"",""1"",""6667""
","
","","","","","","1189","images/horse1.png","","","learning","images/animals_choice2.png","images/animals_choice3.png","images/animals_choice1.png","[1,2,0]","1","0","3","images/animals_choice1.png","-1","animals","","horse","2","0"
"html-keyboard-response","152","745350","0.0-9.0-2.0-0.33","1573","2","2","""event"",""trial"",""time""
""fullscreenenter"",""1"",""6667""
","
","
","""event"",""trial"",""time""
""fullscreenenter"",""1"",""6667""
","
","","","","","","null","<div style=""font-size:60px;"">+</div>","null","","fixation","","","","","","","","","","","","","",""
"learning-trial","153","749353","0.0-9.0-2.0-1.33","1573","2","2","""event"",""trial"",""time""
""fullscreenenter"",""1"",""6667""
","
","
","""event"",""trial"",""time""
""fullscreenenter"",""1"",""6667""
","
","","","","","","895.3000000119209","images/horse4.png","","","learning","images/animals_choice3.png","images/animals_choice1.png","images/animals_choice2.png","[2,0,1]","0","1","2","images/animals_choice1.png","1","animals","","horse","2","0"
"html-keyboard-response","154","749856","0.0-9.0-2.0-0.34","1573","2","2","""event"",""trial"",""time""
""fullscreenenter"",""1"",""6667""
","
","
","""event"",""trial"",""time""
""fullscreenenter"",""1"",""6667""
","
","","","","","","null","<div style=""font-size:60px;"">+</div>","null","","fixation","","","","","","","","","","","","","",""
"learning-trial","155","753862","0.0-9.0-2.0-1.34","1573","2","2","""event"",""trial"",""time""
""fullscreenenter"",""1"",""6667""
","
","
","""event"",""trial"",""time""
""fullscreenenter"",""1"",""6667""
","
","","","","","","513.8000000119209","images/goat3.png","","","learning","images/animals_choice1.png","images/animals_choice2.png","images/animals_choice3.png","[0,1,2]","0","0","2","images/animals_choice2.png","-1","animals","","goat","2","0"
"html-keyboard-response","156","754365","0.0-9.0-2.0-0.35","1573","2","2","""event"",""trial"",""time""
""fullscreenenter"",""1"",""6667""
","
","
","""event"",""trial"",""time""
""fullscreenenter"",""1"",""6667""
","
","","","","","","null","<div style=""font-size:60px;"">+</div>","null","","fixation","","","","","","","","","","","","","",""
"learning-trial","157","758372","0.0-9.0-2.0-1.35","1573","2","2","""event"",""trial"",""time""
""fullscreenenter"",""1"",""6667""
","
","
","""event"",""trial"",""time""
""fullscreenenter"",""1"",""6667""
","
","","","","","","471.89999997615814","images/goat2.png","","","learning","images/animals_choice2.png","images/animals_choice1.png","images/animals_choice3.png","[1,0,2]","2","2","1","images/animals_choice2.png","-1","animals","","goat","2","0"
"html-keyboard-response","158","758875","0.0-9.0-2.0-0.36","1573","2","2","""event"",""trial"",""time""
""fullscreenenter"",""1"",""6667""
","
","
","""event"",""trial"",""time""
""fullscreenenter"",""1"",""6667""
","
","","","","","","null","<div style=""font-size:60px;"">+</div>","null","","fixation","","","","","","","","","","","","","",""
"learning-trial","159","762877","0.0-9.0-2.0-1.36","1573","2","2","""event"",""trial"",""time""
""fullscreenenter"",""1"",""6667""
","
","
","""event"",""trial"",""time""
""fullscreenenter"",""1"",""6667""
","
","","","","","","543.3000000119209","images/cow5.png","","","learning","images/animals_choice2.png","images/animals_choice1.png","images/animals_choice3.png","[1,0,2]","2","2","2","images/animals_choice1.png","1","animals","","cow","2","0"
"html-keyboard-response","160","763379","0.0-9.0-2.0-0.37","1573","2","2","""event"",""trial"",""time""
""fullscreenenter"",""1"",""6667""
","
","
","""event"",""trial"",""time""
""fullscreenenter"",""1"",""6667""
","
","","","","","","null","<div style=""font-size:60px;"">+</div>","null","","fixation","","","","","","","","","","","","","",""
"learning-trial","161","767382","0.0-9.0-2.0-1.37","1573","2","2","""event"",""trial"",""time""
""fullscreenenter"",""1"",""6667""
","
","
","""event"",""trial"",""time""
""fullscreenenter"",""1"",""6667""
","
","","","","","","null","images/cow5.png","","","learning","images/animals_choice1.png","images/animals_choice2.png","images/animals_choice3.png","[0,1,2]","2","2","null","null","-1","animals","","cow","2","0"
"html-keyboard-response","162","767883","0.0-9.0-2.0-0.38","1573","2","2","""event"",""trial"",""time""
""fullscreenenter"",""1"",""6667""
","
","
","""event"",""trial"",""time""
""fullscreenenter"",""1"",""6667""
","
","","","","","","null","<div style=""font-size:60px;"">+</div>","null","","fixation","","","","","","","","","","","","","",""
"learning-trial","163","771886","0.0-9.0-2.0-1.38","1573","2","2","""event"",""trial"",""time""
""fullscreenenter"",""1"",""6667""
","
","
","""event"",""trial"",""time""
""fullscreenenter"",""1"",""6667""
","
","","","","","","3641","images/goat2.png","","","learning","images/animals_choice2.png","images/animals_choice1.png","images/animals_choice3.png","[1,0,2]","2","2","1","images/animals_choice2.png","-1","animals","","goat","2","0"
"html-keyboard-response","164","772388","0.0-9.0-2.0-0.39","1573","2","2","""event"",""trial"",""time""
""fullscreenenter"",""1"",""6667""
","
","
","""event"",""trial"",""time""
""fullscreenenter"",""1"",""6667""
","
","","","","","","null","<div style=""font-size:60px;"">+</div>","null","","fixation","","","","","","","","","","","","","",""
"learning-trial","165","776391","0.0-9.0-2.0-1.39","1573","2","2","""event"",""trial"",""time""
""fullscreenenter"",""1"",""6667""
","
","
","""event"",""trial"",""time""
""fullscreenenter"",""1"",""6667""
","
","","","","","","null","images/cow5.png","","","learning","images/animals_choice2.png","images/animals_choice3.png","images/animals_choice1.png","[1,2,0]","2","1","null","null","-1","animals","","cow","2","0"
"html-keyboard-response","166","776893","0.0-9.0-2.0-0.40","1573","2","2","""event"",""trial"",""time""
""fullscreenenter"",""1"",""6667""
","
","
","""event"",""trial"",""time""
""fullscreenenter"",""1"",""6667""
","
","","","","","","null","<div style=""font-size:60px;"">+</div>","null","","fixation","","","","","","","","","","","","","",""
"learning-trial","167","780901","0.0-9.0-2.0-1.40","1573","2","2","""event"",""trial"",""time""
""fullscreenenter"",""1"",""6667""
","
","
","""event"",""trial"",""time""
""fullscreenenter"",""1"",""6667""
","
","","","","","","1010.5","images/horse4.png","","","learning","images/animals_choice1.png","images/animals_choice2.png","images/animals_choice3.png","[0,1,2]","0","0","1","images/animals_choice1.png","1","animals","","horse","2","0"
"html-keyboard-response","168","781403","0.0-9.0-2.0-0.41","1573","2","2","""event"",""trial"",""time""
""fullscreenenter"",""1"",""6667""
","
","
","""event"",""trial"",""time""
""fullscreenenter"",""1"",""6667""
","
","","","","","","null","<div style=""font-size:60px;"">+</div>","null","","fixation","","","","","","","","","","","","","",""
"learning-trial","169","785408","0.0-9.0-2.0-1.41","1573","2","2","""event"",""trial"",""time""
""fullscreenenter"",""1"",""6667""
","
","
","""event"",""trial"",""time""
""fullscreenenter"",""1"",""6667""
","
","","","","","","679.5999999642372","images/horse3.png","","","learning","images/animals_choice3.png","images/animals_choice2.png","images/animals_choice1.png","[2,1,0]","2","0","2","images/animals_choice2.png","-1","animals","","horse","2","0"
"html-keyboard-response","170","785921","0.0-9.0-2.0-0.42","1573","2","2","""event"",""trial"",""time""
""fullscreenenter"",""1"",""6667""
","
","
","""event"",""trial"",""time""
""fullscreenenter"",""1"",""6667""
","
","","","","","","null","<div style=""font-size:60px;"">+</div>","null","","fixation","","","","","","","","","","","","","",""
"learning-trial","171","789926","0.0-9.0-2.0-1.42","1573","2","2","""event"",""trial"",""time""
""fullscreenenter"",""1"",""6667""
","
","
","""event"",""trial"",""time""
""fullscreenenter"",""1"",""6667""
","
","","","","","","829.0999999642372","images/cow1.png","","","learning","images/animals_choice1.png","images/animals_choice2.png","images/animals_choice3.png","[0,1,2]","0","0","1","images/animals_choice1.png","1","animals","","cow","2","0"
"html-keyboard-response","172","790428","0.0-9.0-2.0-0.43","1573","2","2","""event"",""trial"",""time""
""fullscreenenter"",""1"",""6667""
","
","
","""event"",""trial"",""time""
""fullscreenenter"",""1"",""6667""
","
","","","","","","null","<div style=""font-size:60px;"">+</div>","null","","fixation","","","","","","","","","","","","","",""
"learning-trial","173","794433","0.0-9.0-2.0-1.43","1573","2","2","""event"",""trial"",""time""
""fullscreenenter"",""1"",""6667""
","
","
","""event"",""trial"",""time""
""fullscreenenter"",""1"",""6667""
","
","","","","","","1633.800000011921","images/cow1.png","","","learning","images/animals_choice1.png","images/animals_choice2.png","images/animals_choice3.png","[0,1,2]","0","0","2","images/animals_choice2.png","-1","animals","","cow","2","0"
"html-keyboard-response","174","794935","0.0-9.0-2.0-0.44","1573","2","2","""event"",""trial"",""time""
""fullscreenenter"",""1"",""6667""
","
","
","""event"",""trial"",""time""
""fullscreenenter"",""1"",""6667""
","
","","","","","","null","<div style=""font-size:60px;"">+</div>","null","","fixation","","","","","","","","","","","","","",""
"learning-trial","175","798937","0.0-9.0-2.0-1.44","1573","2","2","""event"",""trial"",""time""
""fullscreenenter"",""1"",""6667""
","
","
","""event"",""trial"",""time""
""fullscreenenter"",""1"",""6667""
","
","","","","","","2172.800000011921","images/goat2.png","","","learning","images/animals_choice3.png","images/animals_choice2.png","images/animals_choice1.png","[2,1,0]","2","0","3","images/animals_choice1.png","-1","animals","","goat","2","0"
"html-keyboard-response","176","799438","0.0-9.0-2.0-0.45","1573","2","2","""event"",""trial"",""time""
""fullscreenenter"",""1"",""6667""
","
","
","""event"",""trial"",""time""
""fullscreenenter"",""1"",""6667""
","
","","","","","","null","<div style=""font-size:60px;"">+</div>","null","","fixation","","","","","","","","","","","","","",""
"learning-trial","177","803443","0.0-9.0-2.0-1.45","1573","2","2","""event"",""trial"",""time""
""fullscreenenter"",""1"",""6667""
","
","
","""event"",""trial"",""time""
""fullscreenenter"",""1"",""6667""
","
","","","","","","973.5999999642372","images/goat3.png","","","learning","images/animals_choice3.png","images/animals_choice1.png","images/animals_choice2.png","[2,0,1]","0","1","1","images/animals_choice3.png","-1","animals","","goat","2","0"
"html-keyboard-response","178","803945","0.0-9.0-2.0-0.46","1573","2","2","""event"",""trial"",""time""
""fullscreenenter"",""1"",""6667""
","
","
","""event"",""trial"",""time""
""fullscreenenter"",""1"",""6667""
","
","","","","","","null","<div style=""font-size:60px;"">+</div>","null","","fixation","","","","","","","","","","","","","",""
"learning-trial","179","807948","0.0-9.0-2.0-1.46","1573","2","2","""event"",""trial"",""time""
""fullscreenenter"",""1"",""6667""
","
","
","""event"",""trial"",""time""
""fullscreenenter"",""1"",""6667""
","
","","","","","","1587.699999988079","images/horse3.png","","","learning","images/animals_choice1.png","images/animals_choice3.png","images/animals_choice2.png","[0,2,1]","2","1","3","images/animals_choice2.png","-1","animals","","horse","2","0"
"html-keyboard-response","180","808449","0.0-9.0-2.0-0.47","1573","2","2","""event"",""trial"",""time""
""fullscreenenter"",""1"",""6667""
","
","
","""event"",""trial"",""time""
""fullscreenenter"",""1"",""6667""
","
","","","","","","null","<div style=""font-size:60px;"">+</div>","null","","fixation","","","","","","","","","","","","","",""
"learning-trial","181","812452","0.0-9.0-2.0-1.47","1573","2","2","""event"",""trial"",""time""
""fullscreenenter"",""1"",""6667""
","
","
","""event"",""trial"",""time""
""fullscreenenter"",""1"",""6667""
","
","","","","","","734.0999999642372","images/cow1.png","","","learning","images/animals_choice2.png","images/animals_choice1.png","images/animals_choice3.png","[1,0,2]","0","1","2","images/animals_choice1.png","1","animals","","cow","2","0"
"html-keyboard-response","182","812953","0.0-9.0-2.0-0.48","1573","2","2","""event"",""trial"",""time""
""fullscreenenter"",""1"",""6667""
","
","
","""event"",""trial"",""time""
""fullscreenenter"",""1"",""6667""
","
","","","","","","null","<div style=""font-size:60px;"">+</div>","null","","fixation","","","","","","","","","","","","","",""
"learning-trial","183","816956","0.0-9.0-2.0-1.48","1573","2","2","""event"",""trial"",""time""
""fullscreenenter"",""1"",""6667""
","
","
","""event"",""trial"",""time""
""fullscreenenter"",""1"",""6667""
","
","","","","","","1327.2999999523163","images/goat2.png","","","learning","images/animals_choice3.png","images/animals_choice1.png","images/animals_choice2.png","[2,0,1]","2","0","2","images/animals_choice1.png","-1","animals","","goat","2","0"
"html-keyboard-response","184","817457","0.0-9.0-2.0-0.49","1573","2","2","""event"",""trial"",""time""
""fullscreenenter"",""1"",""6667""
","
","
","""event"",""trial"",""time""
""fullscreenenter"",""1"",""6667""
","
","","","","","","null","<div style=""font-size:60px;"">+</div>","null","","fixation","","","","","","","","","","","","","",""
"learning-trial","185","821462","0.0-9.0-2.0-1.49","1573","2","2","""event"",""trial"",""time""
""fullscreenenter"",""1"",""6667""
","
","
","""event"",""trial"",""time""
""fullscreenenter"",""1"",""6667""
","
","","","","","","2488.099999964237","images/goat3.png","","","learning","images/animals_choice1.png","images/animals_choice2.png","images/animals_choice3.png","[0,1,2]","0","0","3","images/animals_choice3.png","-1","animals","","goat","2","0"
"html-keyboard-response","186","821965","0.0-9.0-2.0-0.50","1573","2","2","""event"",""trial"",""time""
""fullscreenenter"",""1"",""6667""
","
","
","""event"",""trial"",""time""
""fullscreenenter"",""1"",""6667""
","
","","","","","","null","<div style=""font-size:60px;"">+</div>","null","","fixation","","","","","","","","","","","","","",""
"learning-trial","187","825968","0.0-9.0-2.0-1.50","1573","2","2","""event"",""trial"",""time""
""fullscreenenter"",""1"",""6667""
","
","
","""event"",""trial"",""time""
""fullscreenenter"",""1"",""6667""
","
","","","","","","2551.5","images/cow4.png","","","learning","images/animals_choice3.png","images/animals_choice2.png","images/animals_choice1.png","[2,1,0]","1","1","3","images/animals_choice1.png","1","animals","","cow","2","0"
"html-keyboard-response","188","826469","0.0-9.0-2.0-0.51","1573","2","2","""event"",""trial"",""time""
""fullscreenenter"",""1"",""6667""
","
","
","""event"",""trial"",""time""
""fullscreenenter"",""1"",""6667""
","
","","","","","","null","<div style=""font-size:60px;"">+</div>","null","","fixation","","","","","","","","","","","","","",""
"learning-trial","189","830472","0.0-9.0-2.0-1.51","1573","2","2","""event"",""trial"",""time""
""fullscreenenter"",""1"",""6667""
","
","
","""event"",""trial"",""time""
""fullscreenenter"",""1"",""6667""
","
","","","","","","2661.300000011921","images/horse3.png","","","learning","images/animals_choice3.png","images/animals_choice1.png","images/animals_choice2.png","[2,0,1]","2","0","3","images/animals_choice2.png","-1","animals","","horse","2","0"
"html-keyboard-response","190","830975","0.0-9.0-2.0-0.52","1573","2","2","""event"",""trial"",""time""
""fullscreenenter"",""1"",""6667""
","
","
","""event"",""trial"",""time""
""fullscreenenter"",""1"",""6667""
","
","","","","","","null","<div style=""font-size:60px;"">+</div>","null","","fixation","","","","","","","","","","","","","",""
"learning-trial","191","834978","0.0-9.0-2.0-1.52","1573","2","2","""event"",""trial"",""time""
""fullscreenenter"",""1"",""6667""
","
","
","""event"",""trial"",""time""
""fullscreenenter"",""1"",""6667""
","
","","","","","","2498.5","images/cow5.png","","","learning","images/animals_choice1.png","images/animals_choice3.png","images/animals_choice2.png","[0,2,1]","2","1","2","images/animals_choice3.png","-1","animals","","cow","2","0"
"html-keyboard-response","192","835479","0.0-9.0-2.0-0.53","1573","2","2","""event"",""trial"",""time""
""fullscreenenter"",""1"",""6667""
","
","
","""event"",""trial"",""time""
""fullscreenenter"",""1"",""6667""
","
","","","","","","null","<div style=""font-size:60px;"">+</div>","null","","fixation","","","","","","","","","","","","","",""
"learning-trial","193","839489","0.0-9.0-2.0-1.53","1573","2","2","""event"",""trial"",""time""
""fullscreenenter"",""1"",""6667""
","
","
","""event"",""trial"",""time""
""fullscreenenter"",""1"",""6667""
","
","","","","","","3302.400000035763","images/horse4.png","","","learning","images/animals_choice3.png","images/animals_choice2.png","images/animals_choice1.png","[2,1,0]","0","2","2","images/animals_choice2.png","-1","animals","","horse","2","0"
"html-keyboard-response","194","839991","0.0-9.0-2.0-0.54","1573","2","2","""event"",""trial"",""time""
""fullscreenenter"",""1"",""6667""
","
","
","""event"",""trial"",""time""
""fullscreenenter"",""1"",""6667""
","
","","","","","","null","<div style=""font-size:60px;"">+</div>","null","","fixation","","","","","","","","","","","","","",""
"learning-trial","195","843997","0.0-9.0-2.0-1.54","1573","2","2","""event"",""trial"",""time""
""fullscreenenter"",""1"",""6667""
","
","
","""event"",""trial"",""time""
""fullscreenenter"",""1"",""6667""
","
","","","","","","1994.9000000357628","images/goat1.png","","","learning","images/animals_choice2.png","images/animals_choice1.png","images/animals_choice3.png","[1,0,2]","1","0","3","images/animals_choice3.png","-1","animals","","goat","2","0"
"html-keyboard-response","196","844514","0.0-9.0-2.0-0.55","1573","2","2","""event"",""trial"",""time""
""fullscreenenter"",""1"",""6667""
","
","
","""event"",""trial"",""time""
""fullscreenenter"",""1"",""6667""
","
","","","","","","null","<div style=""font-size:60px;"">+</div>","null","","fixation","","","","","","","","","","","","","",""
"learning-trial","197","848518","0.0-9.0-2.0-1.55","1573","2","2","""event"",""trial"",""time""
""fullscreenenter"",""1"",""6667""
","
","
","""event"",""trial"",""time""
""fullscreenenter"",""1"",""6667""
","
","","","","","","1798.800000011921","images/cow5.png","","","learning","images/animals_choice2.png","images/animals_choice3.png","images/animals_choice1.png","[1,2,0]","2","1","1","images/animals_choice2.png","-1","animals","","cow","2","0"
"html-keyboard-response","198","849020","0.0-9.0-2.0-0.56","1573","2","2","""event"",""trial"",""time""
""fullscreenenter"",""1"",""6667""
","
","
","""event"",""trial"",""time""
""fullscreenenter"",""1"",""6667""
","
","","","","","","null","<div style=""font-size:60px;"">+</div>","null","","fixation","","","","","","","","","","","","","",""
"learning-trial","199","853023","0.0-9.0-2.0-1.56","1573","2","2","""event"",""trial"",""time""
""fullscreenenter"",""1"",""6667""
","
","
","""event"",""trial"",""time""
""fullscreenenter"",""1"",""6667""
","
","","","","","","1687.6000000238419","images/cow4.png","","","learning","images/animals_choice1.png","images/animals_choice2.png","images/animals_choice3.png","[0,1,2]","1","1","1","images/animals_choice1.png","-1","animals","","cow","2","0"
"html-keyboard-response","200","853525","0.0-9.0-2.0-0.57","1573","2","2","""event"",""trial"",""time""
""fullscreenenter"",""1"",""6667""
","
","
","""event"",""trial"",""time""
""fullscreenenter"",""1"",""6667""
","
","","","","","","null","<div style=""font-size:60px;"">+</div>","null","","fixation","","","","","","","","","","","","","",""
"learning-trial","201","857530","0.0-9.0-2.0-1.57","1573","2","2","""event"",""trial"",""time""
""fullscreenenter"",""1"",""6667""
","
","
","""event"",""trial"",""time""
""fullscreenenter"",""1"",""6667""
","
","","","","","","3719.300000011921","images/horse4.png","","","learning","images/animals_choice1.png","images/animals_choice3.png","images/animals_choice2.png","[0,2,1]","0","0","3","images/animals_choice2.png","-1","animals","","horse","2","0"
"html-keyboard-response","202","858031","0.0-9.0-2.0-0.58","1573","2","2","""event"",""trial"",""time""
""fullscreenenter"",""1"",""6667""
","
","
","""event"",""trial"",""time""
""fullscreenenter"",""1"",""6667""
","
","","","","","","null","<div style=""font-size:60px;"">+</div>","null","","fixation","","","","","","","","","","","","","",""
"learning-trial","203","862035","0.0-9.0-2.0-1.58","1573","2","2","""event"",""trial"",""time""
""fullscreenenter"",""1"",""6667""
","
","
","""event"",""trial"",""time""
""fullscreenenter"",""1"",""6667""
","
","","","","","","2597.199999988079","images/horse1.png","","","learning","images/animals_choice3.png","images/animals_choice2.png","images/animals_choice1.png","[2,1,0]","1","1","2","images/animals_choice2.png","1","animals","","horse","2","0"
"html-keyboard-response","204","862537","0.0-9.0-2.0-0.59","1573","2","2","""event"",""trial"",""time""
""fullscreenenter"",""1"",""6667""
","
","
","""event"",""trial"",""time""
""fullscreenenter"",""1"",""6667""
","
","","","","","","null","<div style=""font-size:60px;"">+</div>","null","","fixation","","","","","","","","","","","","","",""
"learning-trial","205","866539","0.0-9.0-2.0-1.59","1573","2","2","""event"",""trial"",""time""
""fullscreenenter"",""1"",""6667""
","
","
","""event"",""trial"",""time""
""fullscreenenter"",""1"",""6667""
","
","","","","","","463.60000002384186","images/cow4.png","","","learning","images/animals_choice2.png","images/animals_choice1.png","images/animals_choice3.png","[1,0,2]","1","0","3","images/animals_choice3.png","1","animals","","cow","2","0"
"html-keyboard-response","206","867041","0.0-9.0-2.0-0.60","1573","2","2","""event"",""trial"",""time""
""fullscreenenter"",""1"",""6667""
","
","
","""event"",""trial"",""time""
""fullscreenenter"",""1"",""6667""
","
","","","","","","null","<div style=""font-size:60px;"">+</div>","null","","fixation","","","","","","","","","","","","","",""
"learning-trial","207","871046","0.0-9.0-2.0-1.60","1573","2","2","""event"",""trial"",""time""
""fullscreenenter"",""1"",""6667""
","
","
","""event"",""trial"",""time""
""fullscreenenter"",""1"",""6667""
","
","","","","","","501.19999998807907","images/cow5.png","","","learning","images/animals_choice1.png","images/animals_choice2.png","images/animals_choice3.png","[0,1,2]","2","2","1","images/animals_choice1.png","-1","animals","","cow","2","0"
"html-keyboard-response","208","871548","0.0-9.0-2.0-0.61","1573","2","2","""event"",""trial"",""time""
""fullscreenenter"",""1"",""6667""
","
","
","""event"",""trial"",""time""
""fullscreenenter"",""1"",""6667""
","
","","","","","","null","<div style=""font-size:60px;"">+</div>","null","","fixation","","","","","","","","","","","","","",""
"learning-trial","209","875553","0.0-9.0-2.0-1.61","1573","2","2","""event"",""trial"",""time""
""fullscreenenter"",""1"",""6667""
","
","
","""event"",""trial"",""time""
""fullscreenenter"",""1"",""6667""
","
","","","","","","3481","images/goat3.png","","","learning","images/animals_choice3.png","images/animals_choice1.png","images/animals_choice2.png","[2,0,1]","0","1","3","images/animals_choice2.png","-1","animals","","goat","2","0"
"html-keyboard-response","210","876054","0.0-9.0-2.0-0.62","1573","2","2","""event"",""trial"",""time""
""fullscreenenter"",""1"",""6667""
","
","
","""event"",""trial"",""time""
""fullscreenenter"",""1"",""6667""
","
","","","","","","null","<div style=""font-size:60px;"">+</div>","null","","fixation","","","","","","","","","","","","","",""
"learning-trial","211","880057","0.0-9.0-2.0-1.62","1573","2","2","""event"",""trial"",""time""
""fullscreenenter"",""1"",""6667""
","
","
","""event"",""trial"",""time""
""fullscreenenter"",""1"",""6667""
","
","","","","","","1375.6000000238419","images/cow1.png","","","learning","images/animals_choice1.png","images/animals_choice3.png","images/animals_choice2.png","[0,2,1]","0","0","2","images/animals_choice3.png","-1","animals","","cow","2","0"
"html-keyboard-response","212","880560","0.0-9.0-2.0-0.63","1573","2","2","""event"",""trial"",""time""
""fullscreenenter"",""1"",""6667""
","
","
","""event"",""trial"",""time""
""fullscreenenter"",""1"",""6667""
","
","","","","","","null","<div style=""font-size:60px;"">+</div>","null","","fixation","","","","","","","","","","","","","",""
"learning-trial","213","884563","0.0-9.0-2.0-1.63","1573","2","2","""event"",""trial"",""time""
""fullscreenenter"",""1"",""6667""
","
","
","""event"",""trial"",""time""
""fullscreenenter"",""1"",""6667""
","
","","","","","","2123.800000011921","images/goat1.png","","","learning","images/animals_choice1.png","images/animals_choice2.png","images/animals_choice3.png","[0,1,2]","1","1","1","images/animals_choice1.png","-1","animals","","goat","2","0"
"html-keyboard-response","214","885065","0.0-9.0-2.0-0.64","1573","2","2","""event"",""trial"",""time""
""fullscreenenter"",""1"",""6667""
","
","
","""event"",""trial"",""time""
""fullscreenenter"",""1"",""6667""
","
","","","","","","null","<div style=""font-size:60px;"">+</div>","null","","fixation","","","","","","","","","","","","","",""
"learning-trial","215","889068","0.0-9.0-2.0-1.64","1573","2","2","""event"",""trial"",""time""
""fullscreenenter"",""1"",""6667""
","
","
","""event"",""trial"",""time""
""fullscreenenter"",""1"",""6667""
","
","","","","","","1668.3999999761581","images/cow4.png","","","learning","images/animals_choice1.png","images/animals_choice2.png","images/animals_choice3.png","[0,1,2]","1","1","2","images/animals_choice2.png","1","animals","","cow","2","0"
"html-keyboard-response","216","889571","0.0-9.0-2.0-0.65","1573","2","2","""event"",""trial"",""time""
""fullscreenenter"",""1"",""6667""
","
","
","""event"",""trial"",""time""
""fullscreenenter"",""1"",""6667""
","
","","","","","","null","<div style=""font-size:60px;"">+</div>","null","","fixation","","","","","","","","","","","","","",""
"learning-trial","217","893578","0.0-9.0-2.0-1.65","1573","2","2","""event"",""trial"",""time""
""fullscreenenter"",""1"",""6667""
","
","
","""event"",""trial"",""time""
""fullscreenenter"",""1"",""6667""
","
","","","","","","1792.800000011921","images/goat2.png","","","learning","images/animals_choice1.png","images/animals_choice3.png","images/animals_choice2.png","[0,2,1]","2","1","3","images/animals_choice2.png","-1","animals","","goat","2","0"
"html-keyboard-response","218","894080","0.0-9.0-2.0-0.66","1573","2","2","""event"",""trial"",""time""
""fullscreenenter"",""1"",""6667""
","
","
","""event"",""trial"",""time""
""fullscreenenter"",""1"",""6667""
","
","","","","","","null","<div style=""font-size:60px;"">+</div>","null","","fixation","","","","","","","","","","","","","",""
"learning-trial","219","898085","0.0-9.0-2.0-1.66","1573","2","2","""event"",""trial"",""time""
""fullscreenenter"",""1"",""6667""
","
","
","""event"",""trial"",""time""
""fullscreenenter"",""1"",""6667""
","
","","","","","","580.2000000476837","images/horse4.png","","","learning","images/animals_choice1.png","images/animals_choice3.png","images/animals_choice2.png","[0,2,1]","0","0","1","images/animals_choice1.png","1","animals","","horse","2","0"
"html-keyboard-response","220","898587","0.0-9.0-2.0-0.67","1573","2","2","""event"",""trial"",""time""
""fullscreenenter"",""1"",""6667""
","
","
","""event"",""trial"",""time""
""fullscreenenter"",""1"",""6667""
","
","","","","","","null","<div style=""font-size:60px;"">+</div>","null","","fixation","","","","","","","","","","","","","",""
"learning-trial","221","902592","0.0-9.0-2.0-1.67","1573","2","2","""event"",""trial"",""time""
""fullscreenenter"",""1"",""6667""
","
","
","""event"",""trial"",""time""
""fullscreenenter"",""1"",""6667""
","
","","","","","","507.4000000357628","images/goat3.png","","","learning","images/animals_choice3.png","images/animals_choice2.png","images/animals_choice1.png","[2,1,0]","0","2","2","images/animals_choice2.png","-1","animals","","goat","2","0"
"html-keyboard-response","222","903094","0.0-9.0-2.0-0.68","1573","2","2","""event"",""trial"",""time""
""fullscreenenter"",""1"",""6667""
","
","
","""event"",""trial"",""time""
""fullscreenenter"",""1"",""6667""
","
","","","","","","null","<div style=""font-size:60px;"">+</div>","null","","fixation","","","","","","","","","","","","","",""
"learning-trial","223","907099","0.0-9.0-2.0-1.68","1573","2","2","""event"",""trial"",""time""
""fullscreenenter"",""1"",""6667""
","
","
","""event"",""trial"",""time""
""fullscreenenter"",""1"",""6667""
","
","","","","","","523.6999999880791","images/goat1.png","","","learning","images/animals_choice2.png","images/animals_choice1.png","images/animals_choice3.png","[1,0,2]","1","0","3","images/animals_choice3.png","-1","animals","","goat","2","0"
"html-keyboard-response","224","907601","0.0-9.0-2.0-0.69","1573","2","2","""event"",""trial"",""time""
""fullscreenenter"",""1"",""6667""
","
","
","""event"",""trial"",""time""
""fullscreenenter"",""1"",""6667""
","
","","","","","","null","<div style=""font-size:60px;"">+</div>","null","","fixation","","","","","","","","","","","","","",""
"learning-trial","225","911605","0.0-9.0-2.0-1.69","1573","2","2","""event"",""trial"",""time""
""fullscreenenter"",""1"",""6667""
","
","
","""event"",""trial"",""time""
""fullscreenenter"",""1"",""6667""
","
","","","","","","873.6999999880791","images/cow4.png","","","learning","images/animals_choice2.png","images/animals_choice3.png","images/animals_choice1.png","[1,2,0]","1","0","1","images/animals_choice2.png","-1","animals","","cow","2","0"
"html-keyboard-response","226","912106","0.0-9.0-2.0-0.70","1573","2","2","""event"",""trial"",""time""
""fullscreenenter"",""1"",""6667""
","
","
","""event"",""trial"",""time""
""fullscreenenter"",""1"",""6667""
","
","","","","","","null","<div style=""font-size:60px;"">+</div>","null","","fixation","","","","","","","","","","","","","",""
"learning-trial","227","916112","0.0-9.0-2.0-1.70","1573","2","2","""event"",""trial"",""time""
""fullscreenenter"",""1"",""6667""
","
","
","""event"",""trial"",""time""
""fullscreenenter"",""1"",""6667""
","
","","","","","","1690.800000011921","images/cow1.png","","","learning","images/animals_choice3.png","images/animals_choice1.png","images/animals_choice2.png","[2,0,1]","0","1","2","images/animals_choice1.png","1","animals","","cow","2","0"
"html-keyboard-response","228","916614","0.0-9.0-2.0-0.71","1573","2","2","""event"",""trial"",""time""
""fullscreenenter"",""1"",""6667""
","
","
","""event"",""trial"",""time""
""fullscreenenter"",""1"",""6667""
","
","","","","","","null","<div style=""font-size:60px;"">+</div>","null","","fixation","","","","","","","","","","","","","",""
"learning-trial","229","920620","0.0-9.0-2.0-1.71","1573","2","2","""event"",""trial"",""time""
""fullscreenenter"",""1"",""6667""
","
","
","""event"",""trial"",""time""
""fullscreenenter"",""1"",""6667""
","
","","","","","","849.8999999761581","images/horse3.png","","","learning","images/animals_choice2.png","images/animals_choice1.png","images/animals_choice3.png","[1,0,2]","2","2","2","images/animals_choice1.png","-1","animals","","horse","2","0"
"html-button-response","230","926674","0.0-9.0-3.0","1573","2","2","""event"",""trial"",""time""
""fullscreenenter"",""1"",""6667""
","
","
","""event"",""trial"",""time""
""fullscreenenter"",""1"",""6667""
","
","","","","","","6051.699999988079","<p> You have completed the round! <p> In this round, you earned -22 points! </p>","0","","break","","","","","","","","","","","","","",""
"html-button-response","231","929909","0.0-10.0","1573","2","2","""event"",""trial"",""time""
""fullscreenenter"",""1"",""6667""
","
","
","""event"",""trial"",""time""
""fullscreenenter"",""1"",""6667""
","
","","","","","","3234.300000011921","<p> Now it's time to play another round. </p>","0","","transition_screen","","","","","","","","","","","","","",""
"preload","232","936345","0.0-11.0-0.0","1573","2","2","""event"",""trial"",""time""
""fullscreenenter"",""1"",""6667""
","
","
","""event"",""trial"",""time""
""fullscreenenter"",""1"",""6667""
","
","true","false","[]","[]","[]","","","","","","","","","","","","","","","","","","",""
"learning-instructions","233","945949","0.0-11.0-1.0-0.0","1573","2","2","""event"",""trial"",""time""
""fullscreenenter"",""1"",""6667""
","
","
","""event"",""trial"",""time""
""fullscreenenter"",""1"",""6667""
","
","","","","","","2943.7000000476837","<p> Your goal in this round is to feed all of your pets with the foods they like. </p><p> You will need to feed many pets. </p></div>","","0","instructions","","","","","","","","","","","","","",""
"learning-instructions","234","955645","0.0-11.0-1.0-0.1","1573","2","2","""event"",""trial"",""time""
""fullscreenenter"",""1"",""6667""
","
","
","""event"",""trial"",""time""
""fullscreenenter"",""1"",""6667""
","
","","","","","","1699.8999999761581","<p> On each turn, you will see a picture of one of your pets and three different types of foods.  </p><p> You need to select the food that you want to give to your pet.  </p>","","0","instructions","","","","","","","","","","","","","",""
"learning-instructions","235","965026","0.0-11.0-1.0-0.2","1573","2","2","""event"",""trial"",""time""
""fullscreenenter"",""1"",""6667""
","
","
","""event"",""trial"",""time""
""fullscreenenter"",""1"",""6667""
","
","","","","","","2661.099999964237","<p> You can select the food on the left by pressing 1, the food in the middle by pressing 2, and the food on the right by pressing 3. </p><br><div class=""choice-instructions-grid""> <div class=""choice-option""><img src=""images/pets_choice1.png"" class=""choice-option-img"" stage=""instructions"" position=""0"" ><div class=""choice-option-text""> Press ""1."" </div></div><div class=""choice-option""><img src=""images/pets_choice2.png"" class=""choice-option-img"" stage=""instructions"" position=""1"" ><div class=""choice-option-text""> Press ""2."" </div></div><div class=""choice-option""><img src=""images/pets_choice3.png"" class=""choice-option-img"" stage=""instructions"" position=""2"" ><div class=""choice-option-text""> Press ""3."" </div></div></div>","","0","instructions","","","","","","","","","","","","","",""
"learning-instructions","236","969591","0.0-11.0-1.0-0.3","1573","2","2","""event"",""trial"",""time""
