"trial_type","trial_index","time_elapsed","internal_node_id","subject_id","condition","task_version","interactions","blur_events","focus_events","fullscreenenter_events","fullscreenexit_events","success","timeout","failed_images","failed_audio","failed_video","rt","stimulus","response","button_pressed","task_part","left_choice","middle_choice","right_choice","choice_positions","correct_response","correct_position","key_press","option_selected","points","task_block","correct","stim_cat","block_condition","block_number"
"pavlovia","0","3","0.0-0.0","1599","1","2","""event"",""trial"",""time""
""fullscreenenter"",""1"",""2491""
","
","
","""event"",""trial"",""time""
""fullscreenenter"",""1"",""2491""
","
","","","","","","","","","","","","","","","","","","","","","","","",""
"fullscreen","1","3430","0.0-1.0","1599","1","2","""event"",""trial"",""time""
""fullscreenenter"",""1"",""2491""
","
","
","""event"",""trial"",""time""
""fullscreenenter"",""1"",""2491""
","
","true","","","","","","","","","","","","","","","","","","","","","","",""
"preload","2","53981","0.0-2.0","1599","1","2","""event"",""trial"",""time""
""fullscreenenter"",""1"",""2491""
","
","
","""event"",""trial"",""time""
""fullscreenenter"",""1"",""2491""
","
","true","false","[]","[]","[]","","","","","","","","","","","","","","","","","","",""
"audio-keyboard-response","3","57797","0.0-3.0","1599","1","2","""event"",""trial"",""time""
""fullscreenenter"",""1"",""2491""
","
","
","""event"",""trial"",""time""
""fullscreenenter"",""1"",""2491""
","
","","","","","","3668.752834467121","audio/beep_loop.wav"," ","","","","","","","","","","","","","","","",""
"audio-button-response","4","61836","0.0-4.0","1599","1","2","""event"",""trial"",""time""
""fullscreenenter"",""1"",""2491""
","
","
","""event"",""trial"",""time""
""fullscreenenter"",""1"",""2491""
","
","","","","","","4040","audio/shark.wav","0","","","","","","","","","","","","","","","",""
"audio-button-response","5","63885","0.0-5.0","1599","1","2","""event"",""trial"",""time""
""fullscreenenter"",""1"",""2491""
","
","
","""event"",""trial"",""time""
""fullscreenenter"",""1"",""2491""
","
","","","","","","1051","audio/turtle.wav","1","","","","","","","","","","","","","","","",""
"preload","6","94408","0.0-6.0","1599","1","2","""event"",""trial"",""time""
""fullscreenenter"",""1"",""2491""
","
","
","""event"",""trial"",""time""
""fullscreenenter"",""1"",""2491""
","
","true","false","[]","[]","[]","","","","","","","","","","","","","","","","","","",""
"html-keyboard-response","7","96886","0.0-7.0","1599","1","2","""event"",""trial"",""time""
""fullscreenenter"",""1"",""2491""
","
","
","""event"",""trial"",""time""
""fullscreenenter"",""1"",""2491""
","
","","","","","","2476.300000011921","Welcome to the experiment. Press any key to begin and to advance the instructions."," ","","","","","","","","","","","","","","","",""
"learning-instructions","8","105995","0.0-8.0-0.0-0.0","1599","1","2","""event"",""trial"",""time""
""fullscreenenter"",""1"",""2491""
","
","
","""event"",""trial"",""time""
""fullscreenenter"",""1"",""2491""
","
","","","","","","1327","<p> Welcome! Today you are going to play 6 different rounds of a decision-making game. </p><p> Use the mouse to click next to continue. </p>","","0","instructions","","","","","","","","","","","","","",""
"learning-instructions","9","111598","0.0-8.0-0.0-0.1","1599","1","2","""event"",""trial"",""time""
""fullscreenenter"",""1"",""2491""
","
","
","""event"",""trial"",""time""
""fullscreenenter"",""1"",""2491""
","
","","","","","","2596.899999976158","<p> You will start with a practice round to learn the rules. </p>","","0","instructions","","","","","","","","","","","","","",""
"learning-instructions","10","120460","0.0-8.0-0.0-0.2","1599","1","2","""event"",""trial"",""time""
""fullscreenenter"",""1"",""2491""
","
","
","""event"",""trial"",""time""
""fullscreenenter"",""1"",""2491""
","
","","","","","","1117.5999999642372","<p> Your goal in this round is to deliver sports equipment to three different parks. </p><p> You will need to deliver many types of equipment. </p></div>","","0","instructions","","","","","","","","","","","","","",""
"learning-instructions","11","129765","0.0-8.0-0.0-0.3","1599","1","2","""event"",""trial"",""time""
""fullscreenenter"",""1"",""2491""
","
","
","""event"",""trial"",""time""
""fullscreenenter"",""1"",""2491""
","
","","","","","","822.5","<p> On each turn, you will see one piece of sports equipment and three different parks.  </p><p> You need to select which park to deliver the equipment to.  </p>","","0","instructions","","","","","","","","","","","","","",""
"learning-instructions","12","144098","0.0-8.0-0.0-0.4","1599","1","2","""event"",""trial"",""time""
""fullscreenenter"",""1"",""2491""
","
","
","""event"",""trial"",""time""
""fullscreenenter"",""1"",""2491""
","
","","","","","","1054.2999999523163","<p> You can select the park on the left by pressing the '1' key on your keyboard. <br>You can select the park in the middle by pressing the '2' key on your keyboard. <br>You can select the park on the right by pressing the '3' key on your keyboard.  </p><br><div class=""choice-instructions-grid""> <div class=""choice-option""><img src=""images/park1.png"" class=""choice-option-img"" stage=""instructions"" position=""0"" ><div class=""choice-option-text""> Press ""1."" </div></div><div class=""choice-option""><img src=""images/park2.png"" class=""choice-option-img"" stage=""instructions"" position=""1"" ><div class=""choice-option-text""> Press ""2."" </div></div><div class=""choice-option""><img src=""images/park3.png"" class=""choice-option-img"" stage=""instructions"" position=""2"" ><div class=""choice-option-text""> Press ""3."" </div></div></div>","","0","instructions","","","","","","","","","","","","","",""
"learning-instructions","13","150244","0.0-8.0-0.0-0.5","1599","1","2","""event"",""trial"",""time""
""fullscreenenter"",""1"",""2491""
","
","
","""event"",""trial"",""time""
""fullscreenenter"",""1"",""2491""
","
","","","","","","768.8000000119209","<p> If the kids in the park you chose like the equipment, they will be very happy! </p><div style='float: center;'><img src='images/check.png' width = '200' height = '200'></img>","","0","instructions","","","","","","","","","","","","","",""
"learning-instructions","14","157315","0.0-8.0-0.0-0.6","1599","1","2","""event"",""trial"",""time""
""fullscreenenter"",""1"",""2491""
","
","
","""event"",""trial"",""time""
""fullscreenenter"",""1"",""2491""
","
","","","","","","1483.300000011921","<p> But, if the kids in the park you chose do not like the equipment, they will be sad. </p><div style='float: center;'><img src='images/x.png' width = '200' height = '200'></img>","","0","instructions","","","","","","","","","","","","","",""
"learning-instructions","15","164344","0.0-8.0-0.0-0.7","1599","1","2","""event"",""trial"",""time""
""fullscreenenter"",""1"",""2491""
","
","
","""event"",""trial"",""time""
""fullscreenenter"",""1"",""2491""
","
","","","","","","593.2999999523163","<p> Importantly, the kids in each park like some pieces of sports equipment more than others. </p>","","0","instructions","","","","","","","","","","","","","",""
"learning-instructions","16","170899","0.0-8.0-0.0-0.8","1599","1","2","""event"",""trial"",""time""
""fullscreenenter"",""1"",""2491""
","
","
","""event"",""trial"",""time""
""fullscreenenter"",""1"",""2491""
","
","","","","","","507.5","<p> If you choose the best park for each piece of equipment, the kids there will usually be happy. </p>","","0","instructions","","","","","","","","","","","","","",""
"learning-instructions","17","179099","0.0-8.0-0.0-0.9","1599","1","2","""event"",""trial"",""time""
""fullscreenenter"",""1"",""2491""
","
","
","""event"",""trial"",""time""
""fullscreenenter"",""1"",""2491""
","
","","","","","","1548.800000011921","<p> However, even if you choose the best park for the equipment, the kids may sometimes be sad. </p>","","0","instructions","","","","","","","","","","","","","",""
"learning-instructions","18","187819","0.0-8.0-0.0-0.10","1599","1","2","""event"",""trial"",""time""
""fullscreenenter"",""1"",""2491""
","
","
","""event"",""trial"",""time""
""fullscreenenter"",""1"",""2491""
","
","","","","","","1492.4000000357628","<p> Similarly, even if you choose the <i>wrong</i> park for the equipment, the kids may still be happy sometimes.","","0","instructions","","","","","","","","","","","","","",""
"learning-instructions","19","193867","0.0-8.0-0.0-0.11","1599","1","2","""event"",""trial"",""time""
""fullscreenenter"",""1"",""2491""
","
","
","""event"",""trial"",""time""
""fullscreenenter"",""1"",""2491""
","
","","","","","","984.3000000119209","<p> For example, the best park for this soccer ball is this one.<div style='float: center;'><img src='images/i1.png' width = '500' height = '268'></img>","","0","instructions","","","","","","","","","","","","","",""
"learning-instructions","20","199693","0.0-8.0-0.0-0.12","1599","1","2","""event"",""trial"",""time""
""fullscreenenter"",""1"",""2491""
","
","
","""event"",""trial"",""time""
""fullscreenenter"",""1"",""2491""
","
","","","","","","543.3000000119209","<p> Let's see what happens if you choose this park for the soccer ball five times.","","0","instructions","","","","","","","","","","","","","",""
"learning-instructions","21","203802","0.0-8.0-0.0-0.13","1599","1","2","""event"",""trial"",""time""
""fullscreenenter"",""1"",""2491""
","
","
","""event"",""trial"",""time""
""fullscreenenter"",""1"",""2491""
","
","","","","","","1939.4000000357628","<p> The kids are happy.<div style='float: left;'><img src='images/i2.png' width = '640' height = '360'></img>","","0","instructions","","","","","","","","","","","","","",""
"learning-instructions","22","206525","0.0-8.0-0.0-0.14","1599","1","2","""event"",""trial"",""time""
""fullscreenenter"",""1"",""2491""
","
","
","""event"",""trial"",""time""
""fullscreenenter"",""1"",""2491""
","
","","","","","","559.9000000357628","<p> The kids are happy.<div style='float: left;'><img src='images/i3.png' width = '640' height = '360'></img>","","0","instructions","","","","","","","","","","","","","",""
"learning-instructions","23","209261","0.0-8.0-0.0-0.15","1599","1","2","""event"",""trial"",""time""
""fullscreenenter"",""1"",""2491""
","
","
","""event"",""trial"",""time""
""fullscreenenter"",""1"",""2491""
","
","","","","","","573.3000000119209","<p> The kids are happy.<div style='float: left;'><img src='images/i4.png' width = '640' height = '360'></img>","","0","instructions","","","","","","","","","","","","","",""
"learning-instructions","24","211958","0.0-8.0-0.0-0.16","1599","1","2","""event"",""trial"",""time""
""fullscreenenter"",""1"",""2491""
","
","
","""event"",""trial"",""time""
""fullscreenenter"",""1"",""2491""
","
","","","","","","473.10000002384186","<p> The kids are sad.<div style='float: left;'><img src='images/i5.png' width = '640' height = '360'></img>","","0","instructions","","","","","","","","","","","","","",""
"learning-instructions","25","215159","0.0-8.0-0.0-0.17","1599","1","2","""event"",""trial"",""time""
""fullscreenenter"",""1"",""2491""
","
","
","""event"",""trial"",""time""
""fullscreenenter"",""1"",""2491""
","
","","","","","","1007.7999999523163","<p> The kids are happy.<div style='float: left;'><img src='images/i6.png' width = '640' height = '360'></img>","","0","instructions","","","","","","","","","","","","","",""
"learning-instructions","26","223149","0.0-8.0-0.0-0.18","1599","1","2","""event"",""trial"",""time""
""fullscreenenter"",""1"",""2491""
","
","
","""event"",""trial"",""time""
""fullscreenenter"",""1"",""2491""
","
","","","","","","725.6999999880791","<p> As you can see, selecting that park for the soccer ball made the kids happy most of the time, but not all the time.","","0","instructions","","","","","","","","","","","","","",""
"learning-instructions","27","230776","0.0-8.0-0.0-0.19","1599","1","2","""event"",""trial"",""time""
""fullscreenenter"",""1"",""2491""
","
","
","""event"",""trial"",""time""
""fullscreenenter"",""1"",""2491""
","
","","","","","","1625","<p> Now let's see what happens if you choose a DIFFERENT park for the soccer ball 5 times.","","0","instructions","","","","","","","","","","","","","",""
"learning-instructions","28","233407","0.0-8.0-0.0-0.20","1599","1","2","""event"",""trial"",""time""
""fullscreenenter"",""1"",""2491""
","
","
","""event"",""trial"",""time""
""fullscreenenter"",""1"",""2491""
","
","","","","","","424.5","<p> The kids are sad.<div style='float: left;'><img src='images/i7.png' width = '640' height = '360'></img>","","0","instructions","","","","","","","","","","","","","",""
"learning-instructions","29","236217","0.0-8.0-0.0-0.21","1599","1","2","""event"",""trial"",""time""
""fullscreenenter"",""1"",""2491""
","
","
","""event"",""trial"",""time""
""fullscreenenter"",""1"",""2491""
","
","","","","","","604.1999999880791","<p> The kids are sad.<div style='float: left;'><img src='images/i8.png' width = '640' height = '360'></img>","","0","instructions","","","","","","","","","","","","","",""
"learning-instructions","30","238658","0.0-8.0-0.0-0.22","1599","1","2","""event"",""trial"",""time""
""fullscreenenter"",""1"",""2491""
","
","
","""event"",""trial"",""time""
""fullscreenenter"",""1"",""2491""
","
","","","","","","277","<p> The kids are happy.<div style='float: left;'><img src='images/i9.png' width = '640' height = '360'></img>","","0","instructions","","","","","","","","","","","","","",""
"learning-instructions","31","241773","0.0-8.0-0.0-0.23","1599","1","2","""event"",""trial"",""time""
""fullscreenenter"",""1"",""2491""
","
","
","""event"",""trial"",""time""
""fullscreenenter"",""1"",""2491""
","
","","","","","","912.8999999761581","<p> The kids are sad.<div style='float: left;'><img src='images/i10.png' width = '640' height = '360'></img>","","0","instructions","","","","","","","","","","","","","",""
"learning-instructions","32","244168","0.0-8.0-0.0-0.24","1599","1","2","""event"",""trial"",""time""
""fullscreenenter"",""1"",""2491""
","
","
","""event"",""trial"",""time""
""fullscreenenter"",""1"",""2491""
","
","","","","","","190.5","<p> The kids are sad.<div style='float: left;'><img src='images/i11.png' width = '640' height = '360'></img>","","0","instructions","","","","","","","","","","","","","",""
"learning-instructions","33","252511","0.0-8.0-0.0-0.25","1599","1","2","""event"",""trial"",""time""
""fullscreenenter"",""1"",""2491""
","
","
","""event"",""trial"",""time""
""fullscreenenter"",""1"",""2491""
","
","","","","","","223.80000001192093","<p> As you can see, selecting the wrong park for the soccer ball made the kids sad most of the time, but not all the time.","","0","instructions","","","","","","","","","","","","","",""
"learning-instructions","34","262978","0.0-8.0-0.0-0.26","1599","1","2","""event"",""trial"",""time""
""fullscreenenter"",""1"",""2491""
","
","
","""event"",""trial"",""time""
""fullscreenenter"",""1"",""2491""
","
","","","","","","1352","<p> The different pieces of equipment belong in different parks. You need to try to learn which is the best park for each piece of equipment.","","0","instructions","","","","","","","","","","","","","",""
"learning-instructions","35","279940","0.0-8.0-0.0-0.27","1599","1","2","""event"",""trial"",""time""
""fullscreenenter"",""1"",""2491""
","
","
","""event"",""trial"",""time""
""fullscreenenter"",""1"",""2491""
","
","","","","","","574.3000000119209","<p> Try to choose the best park for each piece of equipment, because you will <b> WIN </b> 1 point for each time you make the kids happy and <b>LOSE</b> 1 point for each time you make them sad. </p><p> Remember, if you make the best choice, you will win 1 point most of the time, but not all the time. </p>","","0","instructions","","","","","","","","","","","","","",""
"learning-instructions","36","289522","0.0-8.0-0.0-0.28","1599","1","2","""event"",""trial"",""time""
""fullscreenenter"",""1"",""2491""
","
","
","""event"",""trial"",""time""
""fullscreenenter"",""1"",""2491""
","
","","","","","","4101.700000047684","<p> This is just a practice round, but in the real game, your bonus payment will depend on your total number of points.","","0","instructions","","","","","","","","","","","","","",""
"learning-instructions","37","300471","0.0-8.0-0.0-0.29","1599","1","2","""event"",""trial"",""time""
""fullscreenenter"",""1"",""2491""
","
","
","""event"",""trial"",""time""
""fullscreenenter"",""1"",""2491""
","
","","","","","","625.3000000119209","<p> The position where each park appears will change throughout the game. </p><p> The position where the park appears <i> does not </i> influence how likely the kids are to be happy or sad. </p>","","0","instructions","","","","","","","","","","","","","",""
"learning-instructions","38","315157","0.0-8.0-0.0-0.30","1599","1","2","""event"",""trial"",""time""
""fullscreenenter"",""1"",""2491""
","
","
","""event"",""trial"",""time""
""fullscreenenter"",""1"",""2491""
","
","","","","","","2545.2999999523163","<p> You will have 4 seconds to make each choice. Try to respond before time runs out! </p><p> You will lose 1 point each time you do not make a response. </p>","","0","instructions","","","","","","","","","","","","","",""
"learning-instructions","39","323111","0.0-8.0-0.0-0.31","1599","1","2","""event"",""trial"",""time""
""fullscreenenter"",""1"",""2491""
","
","
","""event"",""trial"",""time""
""fullscreenenter"",""1"",""2491""
","
","","","","","","1163.9000000357628","<p> Remember, you should use the 1, 2, and 3 keys to select the park for each piece of equipment. </p><br><div class=""choice-instructions-grid""> <div class=""choice-option""><img src=""images/park1.png"" class=""choice-option-img"" stage=""instructions"" position=""0"" ><div class=""choice-option-text""> Press ""1."" </div></div><div class=""choice-option""><img src=""images/park2.png"" class=""choice-option-img"" stage=""instructions"" position=""1"" ><div class=""choice-option-text""> Press ""2."" </div></div><div class=""choice-option""><img src=""images/park3.png"" class=""choice-option-img"" stage=""instructions"" position=""2"" ><div class=""choice-option-text""> Press ""3."" </div></div></div>","","0","instructions","","","","","","","","","","","","","",""
"html-button-response","40","324313","0.0-8.0-1.0","1599","1","2","""event"",""trial"",""time""
""fullscreenenter"",""1"",""2491""
","
","
","""event"",""trial"",""time""
""fullscreenenter"",""1"",""2491""
","
","","","","","","1101.0999999642372","<p> Ready to practice? </p>","0","","","","","","","","","","","","","","","",""
"html-keyboard-response","41","324919","0.0-8.0-2.0-0.0","1599","1","2","""event"",""trial"",""time""
""fullscreenenter"",""1"",""2491""
","
","
","""event"",""trial"",""time""
""fullscreenenter"",""1"",""2491""
","
","","","","","","null","<div style=""font-size:60px;"">+</div>","null","","fixation","","","","","","","","","","","","","",""
"learning-trial","42","328925","0.0-8.0-2.0-1.0","1599","1","2","""event"",""trial"",""time""
""fullscreenenter"",""1"",""2491""
","
","
","""event"",""trial"",""time""
""fullscreenenter"",""1"",""2491""
","
","","","","","","1274.5","images/ball3.png","","","practice","images/park1.png","images/park2.png","images/park3.png","[0,1,2]","2","2","1","images/park1.png","-1","practice","","","",""
"html-keyboard-response","43","329426","0.0-8.0-2.0-0.1","1599","1","2","""event"",""trial"",""time""
""fullscreenenter"",""1"",""2491""
","
","
","""event"",""trial"",""time""
""fullscreenenter"",""1"",""2491""
","
","","","","","","null","<div style=""font-size:60px;"">+</div>","null","","fixation","","","","","","","","","","","","","",""
"learning-trial","44","333429","0.0-8.0-2.0-1.1","1599","1","2","""event"",""trial"",""time""
""fullscreenenter"",""1"",""2491""
","
","
","""event"",""trial"",""time""
""fullscreenenter"",""1"",""2491""
","
","","","","","","1483.5","images/ball3.png","","","practice","images/park3.png","images/park1.png","images/park2.png","[2,0,1]","2","0","1","images/park3.png","1","practice","","","",""
"html-keyboard-response","45","333934","0.0-8.0-2.0-0.2","1599","1","2","""event"",""trial"",""time""
""fullscreenenter"",""1"",""2491""
","
","
","""event"",""trial"",""time""
""fullscreenenter"",""1"",""2491""
","
","","","","","","null","<div style=""font-size:60px;"">+</div>","null","","fixation","","","","","","","","","","","","","",""
"learning-trial","46","337940","0.0-8.0-2.0-1.2","1599","1","2","""event"",""trial"",""time""
""fullscreenenter"",""1"",""2491""
","
","
","""event"",""trial"",""time""
""fullscreenenter"",""1"",""2491""
","
","","","","","","1342","images/racket4.png","","","practice","images/park2.png","images/park1.png","images/park3.png","[1,0,2]","1","0","3","images/park3.png","-1","practice","","","",""
"html-keyboard-response","47","338444","0.0-8.0-2.0-0.3","1599","1","2","""event"",""trial"",""time""
""fullscreenenter"",""1"",""2491""
","
","
","""event"",""trial"",""time""
""fullscreenenter"",""1"",""2491""
","
","","","","","","null","<div style=""font-size:60px;"">+</div>","null","","fixation","","","","","","","","","","","","","",""
"learning-trial","48","342448","0.0-8.0-2.0-1.3","1599","1","2","""event"",""trial"",""time""
""fullscreenenter"",""1"",""2491""
","
","
","""event"",""trial"",""time""
""fullscreenenter"",""1"",""2491""
","
","","","","","","904.5","images/ball1.png","","","practice","images/park1.png","images/park2.png","images/park3.png","[0,1,2]","2","2","3","images/park3.png","1","practice","","","",""
"html-keyboard-response","49","342949","0.0-8.0-2.0-0.4","1599","1","2","""event"",""trial"",""time""
""fullscreenenter"",""1"",""2491""
","
","
","""event"",""trial"",""time""
""fullscreenenter"",""1"",""2491""
","
","","","","","","null","<div style=""font-size:60px;"">+</div>","null","","fixation","","","","","","","","","","","","","",""
"learning-trial","50","346955","0.0-8.0-2.0-1.4","1599","1","2","""event"",""trial"",""time""
""fullscreenenter"",""1"",""2491""
","
","
","""event"",""trial"",""time""
""fullscreenenter"",""1"",""2491""
","
","","","","","","899.1000000238419","images/ball1.png","","","practice","images/park3.png","images/park2.png","images/park1.png","[2,1,0]","2","0","1","images/park3.png","-1","practice","","","",""
"html-keyboard-response","51","347469","0.0-8.0-2.0-0.5","1599","1","2","""event"",""trial"",""time""
""fullscreenenter"",""1"",""2491""
","
","
","""event"",""trial"",""time""
""fullscreenenter"",""1"",""2491""
","
","","","","","","null","<div style=""font-size:60px;"">+</div>","null","","fixation","","","","","","","","","","","","","",""
"learning-trial","52","351529","0.0-8.0-2.0-1.5","1599","1","2","""event"",""trial"",""time""
""fullscreenenter"",""1"",""2491""
","
","
","""event"",""trial"",""time""
""fullscreenenter"",""1"",""2491""
","
","","","","","","1006.8000000119209","images/ball4.png","","","practice","images/park2.png","images/park3.png","images/park1.png","[1,2,0]","1","0","2","images/park3.png","-1","practice","","","",""
"html-keyboard-response","53","352031","0.0-8.0-2.0-0.6","1599","1","2","""event"",""trial"",""time""
""fullscreenenter"",""1"",""2491""
","
","
","""event"",""trial"",""time""
""fullscreenenter"",""1"",""2491""
","
","","","","","","null","<div style=""font-size:60px;"">+</div>","null","","fixation","","","","","","","","","","","","","",""
"learning-trial","54","356040","0.0-8.0-2.0-1.6","1599","1","2","""event"",""trial"",""time""
""fullscreenenter"",""1"",""2491""
","
","
","""event"",""trial"",""time""
""fullscreenenter"",""1"",""2491""
","
","","","","","","1536.3999999761581","images/racket2.png","","","practice","images/park1.png","images/park2.png","images/park3.png","[0,1,2]","0","0","2","images/park2.png","-1","practice","","","",""
"html-keyboard-response","55","356540","0.0-8.0-2.0-0.7","1599","1","2","""event"",""trial"",""time""
""fullscreenenter"",""1"",""2491""
","
","
","""event"",""trial"",""time""
""fullscreenenter"",""1"",""2491""
","
","","","","","","null","<div style=""font-size:60px;"">+</div>","null","","fixation","","","","","","","","","","","","","",""
"learning-trial","56","360545","0.0-8.0-2.0-1.7","1599","1","2","""event"",""trial"",""time""
""fullscreenenter"",""1"",""2491""
","
","
","""event"",""trial"",""time""
""fullscreenenter"",""1"",""2491""
","
","","","","","","1085.800000011921","images/racket1.png","","","practice","images/park3.png","images/park2.png","images/park1.png","[2,1,0]","0","2","3","images/park1.png","-1","practice","","","",""
"html-keyboard-response","57","361050","0.0-8.0-2.0-0.8","1599","1","2","""event"",""trial"",""time""
""fullscreenenter"",""1"",""2491""
","
","
","""event"",""trial"",""time""
""fullscreenenter"",""1"",""2491""
","
","","","","","","null","<div style=""font-size:60px;"">+</div>","null","","fixation","","","","","","","","","","","","","",""
"learning-trial","58","365055","0.0-8.0-2.0-1.8","1599","1","2","""event"",""trial"",""time""
""fullscreenenter"",""1"",""2491""
","
","
","""event"",""trial"",""time""
""fullscreenenter"",""1"",""2491""
","
","","","","","","1055.300000011921","images/racket2.png","","","practice","images/park2.png","images/park1.png","images/park3.png","[1,0,2]","0","1","3","images/park3.png","-1","practice","","","",""
"html-keyboard-response","59","365561","0.0-8.0-2.0-0.9","1599","1","2","""event"",""trial"",""time""
""fullscreenenter"",""1"",""2491""
","
","
","""event"",""trial"",""time""
""fullscreenenter"",""1"",""2491""
","
","","","","","","null","<div style=""font-size:60px;"">+</div>","null","","fixation","","","","","","","","","","","","","",""
"learning-trial","60","369566","0.0-8.0-2.0-1.9","1599","1","2","""event"",""trial"",""time""
""fullscreenenter"",""1"",""2491""
","
","
","""event"",""trial"",""time""
""fullscreenenter"",""1"",""2491""
","
","","","","","","1084.699999988079","images/racket4.png","","","practice","images/park3.png","images/park1.png","images/park2.png","[2,0,1]","1","2","1","images/park3.png","-1","practice","","","",""
"html-keyboard-response","61","370071","0.0-8.0-2.0-0.10","1599","1","2","""event"",""trial"",""time""
""fullscreenenter"",""1"",""2491""
","
","
","""event"",""trial"",""time""
""fullscreenenter"",""1"",""2491""
","
","","","","","","null","<div style=""font-size:60px;"">+</div>","null","","fixation","","","","","","","","","","","","","",""
"learning-trial","62","374077","0.0-8.0-2.0-1.10","1599","1","2","""event"",""trial"",""time""
""fullscreenenter"",""1"",""2491""
","
","
","""event"",""trial"",""time""
""fullscreenenter"",""1"",""2491""
","
","","","","","","749.5999999642372","images/ball4.png","","","practice","images/park3.png","images/park1.png","images/park2.png","[2,0,1]","1","2","1","images/park3.png","-1","practice","","","",""
"html-keyboard-response","63","374578","0.0-8.0-2.0-0.11","1599","1","2","""event"",""trial"",""time""
""fullscreenenter"",""1"",""2491""
","
","
","""event"",""trial"",""time""
""fullscreenenter"",""1"",""2491""
","
","","","","","","null","<div style=""font-size:60px;"">+</div>","null","","fixation","","","","","","","","","","","","","",""
"learning-trial","64","378582","0.0-8.0-2.0-1.11","1599","1","2","""event"",""trial"",""time""
""fullscreenenter"",""1"",""2491""
","
","
","""event"",""trial"",""time""
""fullscreenenter"",""1"",""2491""
","
","","","","","","996.1000000238419","images/racket1.png","","","practice","images/park2.png","images/park3.png","images/park1.png","[1,2,0]","0","2","3","images/park1.png","-1","practice","","","",""
"html-button-response","65","380529","0.0-8.0-3.0","1599","1","2","""event"",""trial"",""time""
""fullscreenenter"",""1"",""2491""
","
","
","""event"",""trial"",""time""
""fullscreenenter"",""1"",""2491""
","
","","","","","","1946.300000011921","<p> You earned -8 points in the practice round! </p>","0","","break","","","","","","","","","","","","","",""
"learning-instructions","66","390078","0.0-8.0-4.0-0.0","1599","1","2","""event"",""trial"",""time""
""fullscreenenter"",""1"",""2491""
","
","
","""event"",""trial"",""time""
""fullscreenenter"",""1"",""2491""
","
","","","","","","1723.699999988079","<p> It's almost time to start the real game. </p><p> Before you start, we're going to ask you a few questions about how the game works. </p>","","0","instructions","","","","","","","","","","","","","",""
"preload","67","397370","0.0-8.0-5.0","1599","1","2","""event"",""trial"",""time""
""fullscreenenter"",""1"",""2491""
","
","
","""event"",""trial"",""time""
""fullscreenenter"",""1"",""2491""
","
","true","false","[]","[]","[]","","","","","","","","","","","","","","","","","","",""
"comp-q","68","404971","0.0-8.0-6.0-0.0","1599","1","2","""event"",""trial"",""time""
""fullscreenenter"",""1"",""2491""
","
","
","""event"",""trial"",""time""
""fullscreenenter"",""1"",""2491""
","
","","","","","","2148.199999988079","<p> <b> True or False? </b> </p><p> If you choose the best option, you will always earn 1 point. </p>","","1","comp_question","","","","","","","","","","","true","","",""
"comp-q","69","411720","0.0-8.0-6.0-1.0","1599","1","2","""event"",""trial"",""time""
""fullscreenenter"",""1"",""2491""
","
","
","""event"",""trial"",""time""
""fullscreenenter"",""1"",""2491""
","
","","","","","","1089.5","<p><b> That's right! </b> Sometimes you will lose 1 point, even if you choose the best option. </p>","","0","comp_answer","","","","","","","","","","","","","",""
"comp-q","70","417839","0.0-8.0-6.0-0.1","1599","1","2","""event"",""trial"",""time""
""fullscreenenter"",""1"",""2491""
","
","
","""event"",""trial"",""time""
""fullscreenenter"",""1"",""2491""
","
","","","","","","1476.5","<p> <b> True or False? </b> </p><p> You will have as much time as you want to make each choice. </p>","","1","comp_question","","","","","","","","","","","true","","",""
"comp-q","71","425133","0.0-8.0-6.0-1.1","1599","1","2","""event"",""trial"",""time""
""fullscreenenter"",""1"",""2491""
","
","
","""event"",""trial"",""time""
""fullscreenenter"",""1"",""2491""
","
","","","","","","2479","<p> <b> That's right! </b> You will only have 4 seconds to make each choice. </p>","","0","comp_answer","","","","","","","","","","","","","",""
"comp-q","72","433134","0.0-8.0-6.0-0.2","1599","1","2","""event"",""trial"",""time""
""fullscreenenter"",""1"",""2491""
","
","
","""event"",""trial"",""time""
""fullscreenenter"",""1"",""2491""
","
","","","","","","1832.6000000238419","<p> <b> True or False? </b> </p><p> You should use the '1', '2', and '3' keys to make your choices. </p>","","0","comp_question","","","","","","","","","","","true","","",""
"comp-q","73","440451","0.0-8.0-6.0-1.2","1599","1","2","""event"",""trial"",""time""
""fullscreenenter"",""1"",""2491""
","
","
","""event"",""trial"",""time""
""fullscreenenter"",""1"",""2491""
","
","","","","","","2456.800000011921","<p> <b> That's right! </b> You should use the '1', '2', and '3' keys to make each choice. </p>","","0","comp_answer","","","","","","","","","","","","","",""
"learning-instructions","74","450940","0.0-8.0-7.0-0.0","1599","1","2","""event"",""trial"",""time""
""fullscreenenter"",""1"",""2491""
","
","
","""event"",""trial"",""time""
""fullscreenenter"",""1"",""2491""
","
","","","","","","2001.300000011921","<p> It's now time to start the real game. </p>Do your best, because the points you earn in the next rounds will influence your bonus payment. </p>","","0","instructions","","","","","","","","","","","","","",""
"preload","75","478558","0.0-9.0-0.0","1599","1","2","""event"",""trial"",""time""
""fullscreenenter"",""1"",""2491""
","
","
","""event"",""trial"",""time""
""fullscreenenter"",""1"",""2491""
","
","true","false","[]","[]","[]","","","","","","","","","","","","","","","","","","",""
"learning-instructions","76","485893","0.0-9.0-1.0-0.0","1599","1","2","""event"",""trial"",""time""
""fullscreenenter"",""1"",""2491""
","
","
","""event"",""trial"",""time""
""fullscreenenter"",""1"",""2491""
","
","","","","","","840.8999999761581","<p> Your goal in this round is to buy different types of fruits. </p><p> You will try to purchase many fruits from different stores. </p></div>","","0","instructions","","","","","","","","","","","","","",""
"learning-instructions","77","494765","0.0-9.0-1.0-0.1","1599","1","2","""event"",""trial"",""time""
""fullscreenenter"",""1"",""2491""
","
","
","""event"",""trial"",""time""
""fullscreenenter"",""1"",""2491""
","
","","","","","","377.89999997615814","<p> On each turn, you will see a picture of a fruit and three different stores.  </p><p> You need to select the store where you can buy that fruit.  </p>","","0","instructions","","","","","","","","","","","","","",""
"learning-instructions","78","503664","0.0-9.0-1.0-0.2","1599","1","2","""event"",""trial"",""time""
""fullscreenenter"",""1"",""2491""
","
","
","""event"",""trial"",""time""
""fullscreenenter"",""1"",""2491""
","
","","","","","","1511.8999999761581","<p> You can select the store on the left by pressing 1, the store in the middle by pressing 2, and the store on the right by pressing 3. </p><br><div class=""choice-instructions-grid""> <div class=""choice-option""><img src=""images/fruit_choice1.png"" class=""choice-option-img"" stage=""instructions"" position=""0"" ><div class=""choice-option-text""> Press ""1."" </div></div><div class=""choice-option""><img src=""images/fruit_choice2.png"" class=""choice-option-img"" stage=""instructions"" position=""1"" ><div class=""choice-option-text""> Press ""2."" </div></div><div class=""choice-option""><img src=""images/fruit_choice3.png"" class=""choice-option-img"" stage=""instructions"" position=""2"" ><div class=""choice-option-text""> Press ""3."" </div></div></div>","","0","instructions","","","","","","","","","","","","","",""
"learning-instructions","79","508991","0.0-9.0-1.0-0.3","1599","1","2","""event"",""trial"",""time""
""fullscreenenter"",""1"",""2491""
","
","
","""event"",""trial"",""time""
""fullscreenenter"",""1"",""2491""
","
","","","","","","386.80000001192093","<p> If you find the fruit in the store you chose, you will get to buy and eat it! </p><div style='float: center;'><img src='images/check.png' width = '200' height = '200'></img>","","0","instructions","","","","","","","","","","","","","",""
"learning-instructions","80","513839","0.0-9.0-1.0-0.4","1599","1","2","""event"",""trial"",""time""
""fullscreenenter"",""1"",""2491""
","
","
","""event"",""trial"",""time""
""fullscreenenter"",""1"",""2491""
","
","","","","","","372.60000002384186","<p> But, if the fruit is not in that store, you will be hungry. </p><div style='float: center;'><img src='images/x.png' width = '200' height = '200'></img>","","0","instructions","","","","","","","","","","","","","",""
"learning-instructions","81","526798","0.0-9.0-1.0-0.5","1599","1","2","""event"",""trial"",""time""
""fullscreenenter"",""1"",""2491""
","
","
","""event"",""trial"",""time""
""fullscreenenter"",""1"",""2491""
","
","","","","","","3187.400000035763","<p> Importantly, each fruit is more likely to be found in one of the stores. </p><p> If you choose the correct store, you will be more likely to be able to buy the fruit! </p>","","0","instructions","","","","","","","","","","","","","",""
"learning-instructions","82","537589","0.0-9.0-1.0-0.6","1599","1","2","""event"",""trial"",""time""
""fullscreenenter"",""1"",""2491""
","
","
","""event"",""trial"",""time""
""fullscreenenter"",""1"",""2491""
","
","","","","","","336.5","<p> However, even if you choose the best store for the fruit, the store might not have it sometimes. </p><p> Similarly, even if you choose the <i>wrong</i> store, it might still have the fruit.","","0","instructions","","","","","","","","","","","","","",""
"learning-instructions","83","550212","0.0-9.0-1.0-0.7","1599","1","2","""event"",""trial"",""time""
""fullscreenenter"",""1"",""2491""
","
","
","""event"",""trial"",""time""
""fullscreenenter"",""1"",""2491""
","
","","","","","","444.10000002384186","<p> Try to choose the best store for each fruit, because you will <b> WIN </b> 1 point for each fruit you eat and <b>LOSE</b> 1 point each time you are hungry. </p><p> Your bonus payment will depend on your total number of points.","","0","instructions","","","","","","","","","","","","","",""
"learning-instructions","84","560729","0.0-9.0-1.0-0.8","1599","1","2","""event"",""trial"",""time""
""fullscreenenter"",""1"",""2491""
","
","
","""event"",""trial"",""time""
""fullscreenenter"",""1"",""2491""
","
","","","","","","2306.400000035763","<p> The position of each store will change throughout the round. </p><p> The store's position <i> does not </i> influence how likely you are to find the fruit. </p>","","0","instructions","","","","","","","","","","","","","",""
"learning-instructions","85","570826","0.0-9.0-1.0-0.9","1599","1","2","""event"",""trial"",""time""
""fullscreenenter"",""1"",""2491""
","
","
","""event"",""trial"",""time""
""fullscreenenter"",""1"",""2491""
","
","","","","","","803.2000000476837","<p> You will have 4 seconds to make each choice. Try to respond before time runs out! </p><p> You will lose 1 point each time you do not make a response. </p>","","0","instructions","","","","","","","","","","","","","",""
"html-keyboard-response","86","571444","0.0-9.0-2.0-0.0","1599","1","2","""event"",""trial"",""time""
""fullscreenenter"",""1"",""2491""
","
","
","""event"",""trial"",""time""
""fullscreenenter"",""1"",""2491""
","
","","","","","","null","<div style=""font-size:60px;"">+</div>","null","","fixation","","","","","","","","","","","","","",""
"learning-trial","87","575448","0.0-9.0-2.0-1.0","1599","1","2","""event"",""trial"",""time""
""fullscreenenter"",""1"",""2491""
","
","
","""event"",""trial"",""time""
""fullscreenenter"",""1"",""2491""
","
","","","","","","670.1999999880791","images/orange1.png","","","learning","images/fruit_choice2.png","images/fruit_choice3.png","images/fruit_choice1.png","[1,2,0]","2","1","2","images/fruit_choice3.png","1","fruit","","orange","1","0"
"html-keyboard-response","88","575951","0.0-9.0-2.0-0.1","1599","1","2","""event"",""trial"",""time""
""fullscreenenter"",""1"",""2491""
","
","
","""event"",""trial"",""time""
""fullscreenenter"",""1"",""2491""
","
","","","","","","null","<div style=""font-size:60px;"">+</div>","null","","fixation","","","","","","","","","","","","","",""
"learning-trial","89","579969","0.0-9.0-2.0-1.1","1599","1","2","""event"",""trial"",""time""
""fullscreenenter"",""1"",""2491""
","
","
","""event"",""trial"",""time""
""fullscreenenter"",""1"",""2491""
","
","","","","","","1014.3999999761581","images/orange2.png","","","learning","images/fruit_choice2.png","images/fruit_choice1.png","images/fruit_choice3.png","[1,0,2]","2","2","3","images/fruit_choice3.png","1","fruit","","orange","1","0"
"html-keyboard-response","90","580472","0.0-9.0-2.0-0.2","1599","1","2","""event"",""trial"",""time""
""fullscreenenter"",""1"",""2491""
","
","
","""event"",""trial"",""time""
""fullscreenenter"",""1"",""2491""
","
","","","","","","null","<div style=""font-size:60px;"">+</div>","null","","fixation","","","","","","","","","","","","","",""
"learning-trial","91","584473","0.0-9.0-2.0-1.2","1599","1","2","""event"",""trial"",""time""
""fullscreenenter"",""1"",""2491""
","
","
","""event"",""trial"",""time""
""fullscreenenter"",""1"",""2491""
","
","","","","","","1026.199999988079","images/straw5.png","","","learning","images/fruit_choice3.png","images/fruit_choice1.png","images/fruit_choice2.png","[2,0,1]","1","2","2","images/fruit_choice1.png","-1","fruit","","straw","1","0"
"html-keyboard-response","92","584976","0.0-9.0-2.0-0.3","1599","1","2","""event"",""trial"",""time""
""fullscreenenter"",""1"",""2491""
","
","
","""event"",""trial"",""time""
""fullscreenenter"",""1"",""2491""
","
","","","","","","null","<div style=""font-size:60px;"">+</div>","null","","fixation","","","","","","","","","","","","","",""
"learning-trial","93","588982","0.0-9.0-2.0-1.3","1599","1","2","""event"",""trial"",""time""
""fullscreenenter"",""1"",""2491""
","
","
","""event"",""trial"",""time""
""fullscreenenter"",""1"",""2491""
","
","","","","","","1045.2000000476837","images/banana1.png","","","learning","images/fruit_choice1.png","images/fruit_choice2.png","images/fruit_choice3.png","[0,1,2]","0","0","3","images/fruit_choice3.png","-1","fruit","","banana","1","0"
"html-keyboard-response","94","589484","0.0-9.0-2.0-0.4","1599","1","2","""event"",""trial"",""time""
""fullscreenenter"",""1"",""2491""
","
","
","""event"",""trial"",""time""
""fullscreenenter"",""1"",""2491""
","
","","","","","","null","<div style=""font-size:60px;"">+</div>","null","","fixation","","","","","","","","","","","","","",""
"learning-trial","95","593486","0.0-9.0-2.0-1.4","1599","1","2","""event"",""trial"",""time""
""fullscreenenter"",""1"",""2491""
","
","
","""event"",""trial"",""time""
""fullscreenenter"",""1"",""2491""
","
","","","","","","920.8000000119209","images/orange4.png","","","learning","images/fruit_choice2.png","images/fruit_choice3.png","images/fruit_choice1.png","[1,2,0]","2","1","2","images/fruit_choice3.png","1","fruit","","orange","1","0"
"html-keyboard-response","96","593992","0.0-9.0-2.0-0.5","1599","1","2","""event"",""trial"",""time""
""fullscreenenter"",""1"",""2491""
","
","
","""event"",""trial"",""time""
""fullscreenenter"",""1"",""2491""
","
","","","","","","null","<div style=""font-size:60px;"">+</div>","null","","fixation","","","","","","","","","","","","","",""
"learning-trial","97","597994","0.0-9.0-2.0-1.5","1599","1","2","""event"",""trial"",""time""
""fullscreenenter"",""1"",""2491""
","
","
","""event"",""trial"",""time""
""fullscreenenter"",""1"",""2491""
","
","","","","","","797.8999999761581","images/banana4.png","","","learning","images/fruit_choice2.png","images/fruit_choice3.png","images/fruit_choice1.png","[1,2,0]","0","2","3","images/fruit_choice1.png","1","fruit","","banana","1","0"
"html-keyboard-response","98","598497","0.0-9.0-2.0-0.6","1599","1","2","""event"",""trial"",""time""
""fullscreenenter"",""1"",""2491""
","
","
","""event"",""trial"",""time""
""fullscreenenter"",""1"",""2491""
","
","","","","","","null","<div style=""font-size:60px;"">+</div>","null","","fixation","","","","","","","","","","","","","",""
"learning-trial","99","602498","0.0-9.0-2.0-1.6","1599","1","2","""event"",""trial"",""time""
""fullscreenenter"",""1"",""2491""
","
","
","""event"",""trial"",""time""
""fullscreenenter"",""1"",""2491""
","
","","","","","","1188.199999988079","images/banana1.png","","","learning","images/fruit_choice1.png","images/fruit_choice3.png","images/fruit_choice2.png","[0,2,1]","0","0","1","images/fruit_choice1.png","1","fruit","","banana","1","0"
"html-keyboard-response","100","603003","0.0-9.0-2.0-0.7","1599","1","2","""event"",""trial"",""time""
""fullscreenenter"",""1"",""2491""
","
","
","""event"",""trial"",""time""
""fullscreenenter"",""1"",""2491""
","
","","","","","","null","<div style=""font-size:60px;"">+</div>","null","","fixation","","","","","","","","","","","","","",""
"learning-trial","101","607036","0.0-9.0-2.0-1.7","1599","1","2","""event"",""trial"",""time""
""fullscreenenter"",""1"",""2491""
","
","
","""event"",""trial"",""time""
""fullscreenenter"",""1"",""2491""
","
","","","","","","960.2999999523163","images/banana4.png","","","learning","images/fruit_choice3.png","images/fruit_choice1.png","images/fruit_choice2.png","[2,0,1]","0","1","2","images/fruit_choice1.png","1","fruit","","banana","1","0"
"html-keyboard-response","102","607541","0.0-9.0-2.0-0.8","1599","1","2","""event"",""trial"",""time""
""fullscreenenter"",""1"",""2491""
","
","
","""event"",""trial"",""time""
""fullscreenenter"",""1"",""2491""
","
","","","","","","null","<div style=""font-size:60px;"">+</div>","null","","fixation","","","","","","","","","","","","","",""
"learning-trial","103","611543","0.0-9.0-2.0-1.8","1599","1","2","""event"",""trial"",""time""
""fullscreenenter"",""1"",""2491""
","
","
","""event"",""trial"",""time""
""fullscreenenter"",""1"",""2491""
","
","","","","","","749.6000000238419","images/banana5.png","","","learning","images/fruit_choice3.png","images/fruit_choice2.png","images/fruit_choice1.png","[2,1,0]","0","2","3","images/fruit_choice1.png","1","fruit","","banana","1","0"
"html-keyboard-response","104","612047","0.0-9.0-2.0-0.9","1599","1","2","""event"",""trial"",""time""
""fullscreenenter"",""1"",""2491""
","
","
","""event"",""trial"",""time""
""fullscreenenter"",""1"",""2491""
","
","","","","","","null","<div style=""font-size:60px;"">+</div>","null","","fixation","","","","","","","","","","","","","",""
"learning-trial","105","616053","0.0-9.0-2.0-1.9","1599","1","2","""event"",""trial"",""time""
""fullscreenenter"",""1"",""2491""
","
","
","""event"",""trial"",""time""
""fullscreenenter"",""1"",""2491""
","
","","","","","","744.1999999880791","images/banana4.png","","","learning","images/fruit_choice1.png","images/fruit_choice2.png","images/fruit_choice3.png","[0,1,2]","0","0","1","images/fruit_choice1.png","-1","fruit","","banana","1","0"
"html-keyboard-response","106","616578","0.0-9.0-2.0-0.10","1599","1","2","""event"",""trial"",""time""
""fullscreenenter"",""1"",""2491""
","
","
","""event"",""trial"",""time""
""fullscreenenter"",""1"",""2491""
","
","","","","","","null","<div style=""font-size:60px;"">+</div>","null","","fixation","","","","","","","","","","","","","",""
"learning-trial","107","620604","0.0-9.0-2.0-1.10","1599","1","2","""event"",""trial"",""time""
""fullscreenenter"",""1"",""2491""
","
","
","""event"",""trial"",""time""
""fullscreenenter"",""1"",""2491""
","
","","","","","","712.6999999880791","images/banana1.png","","","learning","images/fruit_choice1.png","images/fruit_choice2.png","images/fruit_choice3.png","[0,1,2]","0","0","1","images/fruit_choice1.png","1","fruit","","banana","1","0"
"html-keyboard-response","108","621114","0.0-9.0-2.0-0.11","1599","1","2","""event"",""trial"",""time""
""fullscreenenter"",""1"",""2491""
","
","
","""event"",""trial"",""time""
""fullscreenenter"",""1"",""2491""
","
","","","","","","null","<div style=""font-size:60px;"">+</div>","null","","fixation","","","","","","","","","","","","","",""
"learning-trial","109","625117","0.0-9.0-2.0-1.11","1599","1","2","""event"",""trial"",""time""
""fullscreenenter"",""1"",""2491""
","
","
","""event"",""trial"",""time""
""fullscreenenter"",""1"",""2491""
","
","","","","","","1120","images/orange1.png","","","learning","images/fruit_choice1.png","images/fruit_choice2.png","images/fruit_choice3.png","[0,1,2]","2","2","3","images/fruit_choice3.png","1","fruit","","orange","1","0"
"html-keyboard-response","110","625620","0.0-9.0-2.0-0.12","1599","1","2","""event"",""trial"",""time""
""fullscreenenter"",""1"",""2491""
","
","
","""event"",""trial"",""time""
""fullscreenenter"",""1"",""2491""
","
","","","","","","null","<div style=""font-size:60px;"">+</div>","null","","fixation","","","","","","","","","","","","","",""
"learning-trial","111","629626","0.0-9.0-2.0-1.12","1599","1","2","""event"",""trial"",""time""
""fullscreenenter"",""1"",""2491""
","
","
","""event"",""trial"",""time""
""fullscreenenter"",""1"",""2491""
","
","","","","","","637.4000000357628","images/straw4.png","","","learning","images/fruit_choice1.png","images/fruit_choice2.png","images/fruit_choice3.png","[0,1,2]","1","1","2","images/fruit_choice2.png","-1","fruit","","straw","1","0"
"html-keyboard-response","112","630131","0.0-9.0-2.0-0.13","1599","1","2","""event"",""trial"",""time""
""fullscreenenter"",""1"",""2491""
","
","
","""event"",""trial"",""time""
""fullscreenenter"",""1"",""2491""
","
","","","","","","null","<div style=""font-size:60px;"">+</div>","null","","fixation","","","","","","","","","","","","","",""
"learning-trial","113","634137","0.0-9.0-2.0-1.13","1599","1","2","""event"",""trial"",""time""
""fullscreenenter"",""1"",""2491""
","
","
","""event"",""trial"",""time""
""fullscreenenter"",""1"",""2491""
","
","","","","","","602.2999999523163","images/straw5.png","","","learning","images/fruit_choice3.png","images/fruit_choice2.png","images/fruit_choice1.png","[2,1,0]","1","1","2","images/fruit_choice2.png","-1","fruit","","straw","1","0"
"html-keyboard-response","114","634641","0.0-9.0-2.0-0.14","1599","1","2","""event"",""trial"",""time""
""fullscreenenter"",""1"",""2491""
","
","
","""event"",""trial"",""time""
""fullscreenenter"",""1"",""2491""
","
","","","","","","null","<div style=""font-size:60px;"">+</div>","null","","fixation","","","","","","","","","","","","","",""
"learning-trial","115","638647","0.0-9.0-2.0-1.14","1599","1","2","""event"",""trial"",""time""
""fullscreenenter"",""1"",""2491""
","
","
","""event"",""trial"",""time""
""fullscreenenter"",""1"",""2491""
","
","","","","","","750.1999999880791","images/straw5.png","","","learning","images/fruit_choice3.png","images/fruit_choice1.png","images/fruit_choice2.png","[2,0,1]","1","2","2","images/fruit_choice1.png","-1","fruit","","straw","1","0"
"html-keyboard-response","116","639151","0.0-9.0-2.0-0.15","1599","1","2","""event"",""trial"",""time""
""fullscreenenter"",""1"",""2491""
","
","
","""event"",""trial"",""time""
""fullscreenenter"",""1"",""2491""
","
","","","","","","null","<div style=""font-size:60px;"">+</div>","null","","fixation","","","","","","","","","","","","","",""
"learning-trial","117","643157","0.0-9.0-2.0-1.15","1599","1","2","""event"",""trial"",""time""
""fullscreenenter"",""1"",""2491""
","
","
","""event"",""trial"",""time""
""fullscreenenter"",""1"",""2491""
","
","","","","","","1891.3999999761581","images/orange1.png","","","learning","images/fruit_choice1.png","images/fruit_choice2.png","images/fruit_choice3.png","[0,1,2]","2","2","1","images/fruit_choice1.png","-1","fruit","","orange","1","0"
"html-keyboard-response","118","643681","0.0-9.0-2.0-0.16","1599","1","2","""event"",""trial"",""time""
""fullscreenenter"",""1"",""2491""
","
","
","""event"",""trial"",""time""
""fullscreenenter"",""1"",""2491""
","
","","","","","","null","<div style=""font-size:60px;"">+</div>","null","","fixation","","","","","","","","","","","","","",""
"learning-trial","119","647685","0.0-9.0-2.0-1.16","1599","1","2","""event"",""trial"",""time""
""fullscreenenter"",""1"",""2491""
","
","
","""event"",""trial"",""time""
""fullscreenenter"",""1"",""2491""
","
","","","","","","1119.2999999523163","images/orange1.png","","","learning","images/fruit_choice1.png","images/fruit_choice2.png","images/fruit_choice3.png","[0,1,2]","2","2","3","images/fruit_choice3.png","1","fruit","","orange","1","0"
"html-keyboard-response","120","648191","0.0-9.0-2.0-0.17","1599","1","2","""event"",""trial"",""time""
""fullscreenenter"",""1"",""2491""
","
","
","""event"",""trial"",""time""
""fullscreenenter"",""1"",""2491""
","
","","","","","","null","<div style=""font-size:60px;"">+</div>","null","","fixation","","","","","","","","","","","","","",""
"learning-trial","121","652196","0.0-9.0-2.0-1.17","1599","1","2","""event"",""trial"",""time""
""fullscreenenter"",""1"",""2491""
","
","
","""event"",""trial"",""time""
""fullscreenenter"",""1"",""2491""
","
","","","","","","1047.6000000238419","images/orange2.png","","","learning","images/fruit_choice3.png","images/fruit_choice1.png","images/fruit_choice2.png","[2,0,1]","2","0","1","images/fruit_choice3.png","1","fruit","","orange","1","0"
"html-keyboard-response","122","652701","0.0-9.0-2.0-0.18","1599","1","2","""event"",""trial"",""time""
""fullscreenenter"",""1"",""2491""
","
","
","""event"",""trial"",""time""
""fullscreenenter"",""1"",""2491""
","
","","","","","","null","<div style=""font-size:60px;"">+</div>","null","","fixation","","","","","","","","","","","","","",""
"learning-trial","123","656707","0.0-9.0-2.0-1.18","1599","1","2","""event"",""trial"",""time""
""fullscreenenter"",""1"",""2491""
","
","
","""event"",""trial"",""time""
""fullscreenenter"",""1"",""2491""
","
","","","","","","1045","images/banana5.png","","","learning","images/fruit_choice3.png","images/fruit_choice1.png","images/fruit_choice2.png","[2,0,1]","0","1","2","images/fruit_choice1.png","-1","fruit","","banana","1","0"
"html-keyboard-response","124","657211","0.0-9.0-2.0-0.19","1599","1","2","""event"",""trial"",""time""
""fullscreenenter"",""1"",""2491""
","
","
","""event"",""trial"",""time""
""fullscreenenter"",""1"",""2491""
","
","","","","","","null","<div style=""font-size:60px;"">+</div>","null","","fixation","","","","","","","","","","","","","",""
"learning-trial","125","661218","0.0-9.0-2.0-1.19","1599","1","2","""event"",""trial"",""time""
""fullscreenenter"",""1"",""2491""
","
","
","""event"",""trial"",""time""
""fullscreenenter"",""1"",""2491""
","
","","","","","","1486.300000011921","images/orange1.png","","","learning","images/fruit_choice3.png","images/fruit_choice2.png","images/fruit_choice1.png","[2,1,0]","2","0","1","images/fruit_choice3.png","1","fruit","","orange","1","0"
"html-keyboard-response","126","661725","0.0-9.0-2.0-0.20","1599","1","2","""event"",""trial"",""time""
""fullscreenenter"",""1"",""2491""
","
","
","""event"",""trial"",""time""
""fullscreenenter"",""1"",""2491""
","
","","","","","","null","<div style=""font-size:60px;"">+</div>","null","","fixation","","","","","","","","","","","","","",""
"learning-trial","127","665730","0.0-9.0-2.0-1.20","1599","1","2","""event"",""trial"",""time""
""fullscreenenter"",""1"",""2491""
","
","
","""event"",""trial"",""time""
""fullscreenenter"",""1"",""2491""
","
","","","","","","1404.7000000476837","images/banana1.png","","","learning","images/fruit_choice3.png","images/fruit_choice2.png","images/fruit_choice1.png","[2,1,0]","0","2","1","images/fruit_choice3.png","-1","fruit","","banana","1","0"
"html-keyboard-response","128","666232","0.0-9.0-2.0-0.21","1599","1","2","""event"",""trial"",""time""
""fullscreenenter"",""1"",""2491""
","
","
","""event"",""trial"",""time""
""fullscreenenter"",""1"",""2491""
","
","","","","","","null","<div style=""font-size:60px;"">+</div>","null","","fixation","","","","","","","","","","","","","",""
"learning-trial","129","670239","0.0-9.0-2.0-1.21","1599","1","2","""event"",""trial"",""time""
""fullscreenenter"",""1"",""2491""
","
","
","""event"",""trial"",""time""
""fullscreenenter"",""1"",""2491""
","
","","","","","","981.6999999880791","images/banana1.png","","","learning","images/fruit_choice3.png","images/fruit_choice2.png","images/fruit_choice1.png","[2,1,0]","0","2","3","images/fruit_choice1.png","1","fruit","","banana","1","0"
"html-keyboard-response","130","670743","0.0-9.0-2.0-0.22","1599","1","2","""event"",""trial"",""time""
""fullscreenenter"",""1"",""2491""
","
","
","""event"",""trial"",""time""
""fullscreenenter"",""1"",""2491""
","
","","","","","","null","<div style=""font-size:60px;"">+</div>","null","","fixation","","","","","","","","","","","","","",""
"learning-trial","131","674749","0.0-9.0-2.0-1.22","1599","1","2","""event"",""trial"",""time""
""fullscreenenter"",""1"",""2491""
","
","
","""event"",""trial"",""time""
""fullscreenenter"",""1"",""2491""
","
","","","","","","1424.300000011921","images/straw5.png","","","learning","images/fruit_choice2.png","images/fruit_choice1.png","images/fruit_choice3.png","[1,0,2]","1","0","1","images/fruit_choice2.png","1","fruit","","straw","1","0"
"html-keyboard-response","132","675254","0.0-9.0-2.0-0.23","1599","1","2","""event"",""trial"",""time""
""fullscreenenter"",""1"",""2491""
","
","
","""event"",""trial"",""time""
""fullscreenenter"",""1"",""2491""
","
","","","","","","null","<div style=""font-size:60px;"">+</div>","null","","fixation","","","","","","","","","","","","","",""
"learning-trial","133","679260","0.0-9.0-2.0-1.23","1599","1","2","""event"",""trial"",""time""
""fullscreenenter"",""1"",""2491""
","
","
","""event"",""trial"",""time""
""fullscreenenter"",""1"",""2491""
","
","","","","","","1739.199999988079","images/orange2.png","","","learning","images/fruit_choice1.png","images/fruit_choice3.png","images/fruit_choice2.png","[0,2,1]","2","1","2","images/fruit_choice3.png","1","fruit","","orange","1","0"
"html-keyboard-response","134","679764","0.0-9.0-2.0-0.24","1599","1","2","""event"",""trial"",""time""
""fullscreenenter"",""1"",""2491""
","
","
","""event"",""trial"",""time""
""fullscreenenter"",""1"",""2491""
","
","","","","","","null","<div style=""font-size:60px;"">+</div>","null","","fixation","","","","","","","","","","","","","",""
"learning-trial","135","683770","0.0-9.0-2.0-1.24","1599","1","2","""event"",""trial"",""time""
""fullscreenenter"",""1"",""2491""
","
","
","""event"",""trial"",""time""
""fullscreenenter"",""1"",""2491""
","
","","","","","","913.1000000238419","images/banana4.png","","","learning","images/fruit_choice2.png","images/fruit_choice1.png","images/fruit_choice3.png","[1,0,2]","0","1","2","images/fruit_choice1.png","1","fruit","","banana","1","0"
"html-keyboard-response","136","684276","0.0-9.0-2.0-0.25","1599","1","2","""event"",""trial"",""time""
""fullscreenenter"",""1"",""2491""
","
","
","""event"",""trial"",""time""
""fullscreenenter"",""1"",""2491""
","
","","","","","","null","<div style=""font-size:60px;"">+</div>","null","","fixation","","","","","","","","","","","","","",""
"learning-trial","137","688281","0.0-9.0-2.0-1.25","1599","1","2","""event"",""trial"",""time""
""fullscreenenter"",""1"",""2491""
","
","
","""event"",""trial"",""time""
""fullscreenenter"",""1"",""2491""
","
","","","","","","741","images/straw2.png","","","learning","images/fruit_choice3.png","images/fruit_choice2.png","images/fruit_choice1.png","[2,1,0]","1","1","2","images/fruit_choice2.png","1","fruit","","straw","1","0"
"html-keyboard-response","138","688786","0.0-9.0-2.0-0.26","1599","1","2","""event"",""trial"",""time""
""fullscreenenter"",""1"",""2491""
","
","
","""event"",""trial"",""time""
""fullscreenenter"",""1"",""2491""
","
","","","","","","null","<div style=""font-size:60px;"">+</div>","null","","fixation","","","","","","","","","","","","","",""
"learning-trial","139","692792","0.0-9.0-2.0-1.26","1599","1","2","""event"",""trial"",""time""
""fullscreenenter"",""1"",""2491""
","
","
","""event"",""trial"",""time""
""fullscreenenter"",""1"",""2491""
","
","","","","","","672.5","images/banana5.png","","","learning","images/fruit_choice3.png","images/fruit_choice2.png","images/fruit_choice1.png","[2,1,0]","0","2","3","images/fruit_choice1.png","1","fruit","","banana","1","0"
"html-keyboard-response","140","693296","0.0-9.0-2.0-0.27","1599","1","2","""event"",""trial"",""time""
""fullscreenenter"",""1"",""2491""
","
","
","""event"",""trial"",""time""
""fullscreenenter"",""1"",""2491""
","
","","","","","","null","<div style=""font-size:60px;"">+</div>","null","","fixation","","","","","","","","","","","","","",""
"learning-trial","141","697302","0.0-9.0-2.0-1.27","1599","1","2","""event"",""trial"",""time""
""fullscreenenter"",""1"",""2491""
","
","
","""event"",""trial"",""time""
""fullscreenenter"",""1"",""2491""
","
","","","","","","744.1999999880791","images/straw5.png","","","learning","images/fruit_choice1.png","images/fruit_choice3.png","images/fruit_choice2.png","[0,2,1]","1","2","3","images/fruit_choice2.png","1","fruit","","straw","1","0"
"html-keyboard-response","142","697807","0.0-9.0-2.0-0.28","1599","1","2","""event"",""trial"",""time""
""fullscreenenter"",""1"",""2491""
","
","
","""event"",""trial"",""time""
""fullscreenenter"",""1"",""2491""
","
","","","","","","null","<div style=""font-size:60px;"">+</div>","null","","fixation","","","","","","","","","","","","","",""
"learning-trial","143","701812","0.0-9.0-2.0-1.28","1599","1","2","""event"",""trial"",""time""
""fullscreenenter"",""1"",""2491""
","
","
","""event"",""trial"",""time""
""fullscreenenter"",""1"",""2491""
","
","","","","","","1421.800000011921","images/orange4.png","","","learning","images/fruit_choice1.png","images/fruit_choice3.png","images/fruit_choice2.png","[0,2,1]","2","1","1","images/fruit_choice1.png","-1","fruit","","orange","1","0"
"html-keyboard-response","144","702317","0.0-9.0-2.0-0.29","1599","1","2","""event"",""trial"",""time""
""fullscreenenter"",""1"",""2491""
","
","
","""event"",""trial"",""time""
""fullscreenenter"",""1"",""2491""
","
","","","","","","null","<div style=""font-size:60px;"">+</div>","null","","fixation","","","","","","","","","","","","","",""
"learning-trial","145","706323","0.0-9.0-2.0-1.29","1599","1","2","""event"",""trial"",""time""
""fullscreenenter"",""1"",""2491""
","
","
","""event"",""trial"",""time""
""fullscreenenter"",""1"",""2491""
","
","","","","","","639.1000000238419","images/straw2.png","","","learning","images/fruit_choice3.png","images/fruit_choice1.png","images/fruit_choice2.png","[2,0,1]","1","2","3","images/fruit_choice2.png","1","fruit","","straw","1","0"
"html-keyboard-response","146","706823","0.0-9.0-2.0-0.30","1599","1","2","""event"",""trial"",""time""
""fullscreenenter"",""1"",""2491""
","
","
","""event"",""trial"",""time""
""fullscreenenter"",""1"",""2491""
","
","","","","","","null","<div style=""font-size:60px;"">+</div>","null","","fixation","","","","","","","","","","","","","",""
"learning-trial","147","710843","0.0-9.0-2.0-1.30","1599","1","2","""event"",""trial"",""time""
""fullscreenenter"",""1"",""2491""
","
","
","""event"",""trial"",""time""
""fullscreenenter"",""1"",""2491""
","
","","","","","","668.8999999761581","images/straw5.png","","","learning","images/fruit_choice1.png","images/fruit_choice3.png","images/fruit_choice2.png","[0,2,1]","1","2","3","images/fruit_choice2.png","-1","fruit","","straw","1","0"
"html-keyboard-response","148","711349","0.0-9.0-2.0-0.31","1599","1","2","""event"",""trial"",""time""
""fullscreenenter"",""1"",""2491""
","
","
","""event"",""trial"",""time""
""fullscreenenter"",""1"",""2491""
","
","","","","","","null","<div style=""font-size:60px;"">+</div>","null","","fixation","","","","","","","","","","","","","",""
"learning-trial","149","715350","0.0-9.0-2.0-1.31","1599","1","2","""event"",""trial"",""time""
""fullscreenenter"",""1"",""2491""
","
","
","""event"",""trial"",""time""
""fullscreenenter"",""1"",""2491""
","
","","","","","","997.3000000119209","images/straw4.png","","","learning","images/fruit_choice2.png","images/fruit_choice3.png","images/fruit_choice1.png","[1,2,0]","1","0","1","images/fruit_choice2.png","1","fruit","","straw","1","0"
"html-keyboard-response","150","715855","0.0-9.0-2.0-0.32","1599","1","2","""event"",""trial"",""time""
""fullscreenenter"",""1"",""2491""
","
","
","""event"",""trial"",""time""
""fullscreenenter"",""1"",""2491""
","
","","","","","","null","<div style=""font-size:60px;"">+</div>","null","","fixation","","","","","","","","","","","","","",""
"learning-trial","151","719862","0.0-9.0-2.0-1.32","1599","1","2","""event"",""trial"",""time""
""fullscreenenter"",""1"",""2491""
","
","
","""event"",""trial"",""time""
""fullscreenenter"",""1"",""2491""
","
","","","","","","2156.100000023842","images/orange4.png","","","learning","images/fruit_choice3.png","images/fruit_choice2.png","images/fruit_choice1.png","[2,1,0]","2","0","3","images/fruit_choice1.png","-1","fruit","","orange","1","0"
"html-keyboard-response","152","720366","0.0-9.0-2.0-0.33","1599","1","2","""event"",""trial"",""time""
""fullscreenenter"",""1"",""2491""
","
","
","""event"",""trial"",""time""
""fullscreenenter"",""1"",""2491""
","
","","","","","","null","<div style=""font-size:60px;"">+</div>","null","","fixation","","","","","","","","","","","","","",""
"learning-trial","153","724372","0.0-9.0-2.0-1.33","1599","1","2","""event"",""trial"",""time""
""fullscreenenter"",""1"",""2491""
","
","
","""event"",""trial"",""time""
""fullscreenenter"",""1"",""2491""
","
","","","","","","994.6000000238419","images/orange2.png","","","learning","images/fruit_choice1.png","images/fruit_choice2.png","images/fruit_choice3.png","[0,1,2]","2","2","3","images/fruit_choice3.png","-1","fruit","","orange","1","0"
"html-keyboard-response","154","724876","0.0-9.0-2.0-0.34","1599","1","2","""event"",""trial"",""time""
""fullscreenenter"",""1"",""2491""
","
","
","""event"",""trial"",""time""
""fullscreenenter"",""1"",""2491""
","
","","","","","","null","<div style=""font-size:60px;"">+</div>","null","","fixation","","","","","","","","","","","","","",""
"learning-trial","155","728889","0.0-9.0-2.0-1.34","1599","1","2","""event"",""trial"",""time""
""fullscreenenter"",""1"",""2491""
","
","
","""event"",""trial"",""time""
""fullscreenenter"",""1"",""2491""
","
","","","","","","661.3999999761581","images/straw4.png","","","learning","images/fruit_choice3.png","images/fruit_choice2.png","images/fruit_choice1.png","[2,1,0]","1","1","2","images/fruit_choice2.png","1","fruit","","straw","1","0"
"html-keyboard-response","156","729393","0.0-9.0-2.0-0.35","1599","1","2","""event"",""trial"",""time""
""fullscreenenter"",""1"",""2491""
","
","
","""event"",""trial"",""time""
""fullscreenenter"",""1"",""2491""
","
","","","","","","null","<div style=""font-size:60px;"">+</div>","null","","fixation","","","","","","","","","","","","","",""
"learning-trial","157","733398","0.0-9.0-2.0-1.35","1599","1","2","""event"",""trial"",""time""
""fullscreenenter"",""1"",""2491""
","
","
","""event"",""trial"",""time""
""fullscreenenter"",""1"",""2491""
","
","","","","","","2101.399999976158","images/orange4.png","","","learning","images/fruit_choice2.png","images/fruit_choice1.png","images/fruit_choice3.png","[1,0,2]","2","2","3","images/fruit_choice3.png","-1","fruit","","orange","1","0"
"html-keyboard-response","158","733899","0.0-9.0-2.0-0.36","1599","1","2","""event"",""trial"",""time""
""fullscreenenter"",""1"",""2491""
","
","
","""event"",""trial"",""time""
""fullscreenenter"",""1"",""2491""
","
","","","","","","null","<div style=""font-size:60px;"">+</div>","null","","fixation","","","","","","","","","","","","","",""
"learning-trial","159","737910","0.0-9.0-2.0-1.36","1599","1","2","""event"",""trial"",""time""
""fullscreenenter"",""1"",""2491""
","
","
","""event"",""trial"",""time""
""fullscreenenter"",""1"",""2491""
","
","","","","","","1035.300000011921","images/banana4.png","","","learning","images/fruit_choice2.png","images/fruit_choice1.png","images/fruit_choice3.png","[1,0,2]","0","1","2","images/fruit_choice1.png","1","fruit","","banana","1","0"
"html-keyboard-response","160","738414","0.0-9.0-2.0-0.37","1599","1","2","""event"",""trial"",""time""
""fullscreenenter"",""1"",""2491""
","
","
","""event"",""trial"",""time""
""fullscreenenter"",""1"",""2491""
","
","","","","","","null","<div style=""font-size:60px;"">+</div>","null","","fixation","","","","","","","","","","","","","",""
"learning-trial","161","742437","0.0-9.0-2.0-1.37","1599","1","2","""event"",""trial"",""time""
""fullscreenenter"",""1"",""2491""
","
","
","""event"",""trial"",""time""
""fullscreenenter"",""1"",""2491""
","
","","","","","","599.5","images/banana1.png","","","learning","images/fruit_choice3.png","images/fruit_choice1.png","images/fruit_choice2.png","[2,0,1]","0","1","2","images/fruit_choice1.png","1","fruit","","banana","1","0"
"html-keyboard-response","162","742960","0.0-9.0-2.0-0.38","1599","1","2","""event"",""trial"",""time""
""fullscreenenter"",""1"",""2491""
","
","
","""event"",""trial"",""time""
""fullscreenenter"",""1"",""2491""
","
","","","","","","null","<div style=""font-size:60px;"">+</div>","null","","fixation","","","","","","","","","","","","","",""
"learning-trial","163","746965","0.0-9.0-2.0-1.38","1599","1","2","""event"",""trial"",""time""
""fullscreenenter"",""1"",""2491""
","
","
","""event"",""trial"",""time""
""fullscreenenter"",""1"",""2491""
","
","","","","","","710.6000000238419","images/straw4.png","","","learning","images/fruit_choice2.png","images/fruit_choice3.png","images/fruit_choice1.png","[1,2,0]","1","0","1","images/fruit_choice2.png","1","fruit","","straw","1","0"
"html-keyboard-response","164","747475","0.0-9.0-2.0-0.39","1599","1","2","""event"",""trial"",""time""
""fullscreenenter"",""1"",""2491""
","
","
","""event"",""trial"",""time""
""fullscreenenter"",""1"",""2491""
","
","","","","","","null","<div style=""font-size:60px;"">+</div>","null","","fixation","","","","","","","","","","","","","",""
"learning-trial","165","751516","0.0-9.0-2.0-1.39","1599","1","2","""event"",""trial"",""time""
""fullscreenenter"",""1"",""2491""
","
","
","""event"",""trial"",""time""
""fullscreenenter"",""1"",""2491""
","
","","","","","","614.7999999523163","images/straw2.png","","","learning","images/fruit_choice2.png","images/fruit_choice3.png","images/fruit_choice1.png","[1,2,0]","1","0","1","images/fruit_choice2.png","1","fruit","","straw","1","0"
"html-keyboard-response","166","752036","0.0-9.0-2.0-0.40","1599","1","2","""event"",""trial"",""time""
""fullscreenenter"",""1"",""2491""
","
","
","""event"",""trial"",""time""
""fullscreenenter"",""1"",""2491""
","
","","","","","","null","<div style=""font-size:60px;"">+</div>","null","","fixation","","","","","","","","","","","","","",""
"learning-trial","167","756044","0.0-9.0-2.0-1.40","1599","1","2","""event"",""trial"",""time""
""fullscreenenter"",""1"",""2491""
","
","
","""event"",""trial"",""time""
""fullscreenenter"",""1"",""2491""
","
","","","","","","659.1000000238419","images/straw4.png","","","learning","images/fruit_choice3.png","images/fruit_choice2.png","images/fruit_choice1.png","[2,1,0]","1","1","2","images/fruit_choice2.png","1","fruit","","straw","1","0"
"html-keyboard-response","168","756566","0.0-9.0-2.0-0.41","1599","1","2","""event"",""trial"",""time""
""fullscreenenter"",""1"",""2491""
","
","
","""event"",""trial"",""time""
""fullscreenenter"",""1"",""2491""
","
","","","","","","null","<div style=""font-size:60px;"">+</div>","null","","fixation","","","","","","","","","","","","","",""
"learning-trial","169","760609","0.0-9.0-2.0-1.41","1599","1","2","""event"",""trial"",""time""
""fullscreenenter"",""1"",""2491""
","
","
","""event"",""trial"",""time""
""fullscreenenter"",""1"",""2491""
","
","","","","","","980.1000000238419","images/orange4.png","","","learning","images/fruit_choice2.png","images/fruit_choice3.png","images/fruit_choice1.png","[1,2,0]","2","1","2","images/fruit_choice3.png","1","fruit","","orange","1","0"
"html-keyboard-response","170","761113","0.0-9.0-2.0-0.42","1599","1","2","""event"",""trial"",""time""
""fullscreenenter"",""1"",""2491""
","
","
","""event"",""trial"",""time""
""fullscreenenter"",""1"",""2491""
","
","","","","","","null","<div style=""font-size:60px;"">+</div>","null","","fixation","","","","","","","","","","","","","",""
"learning-trial","171","765118","0.0-9.0-2.0-1.42","1599","1","2","""event"",""trial"",""time""
""fullscreenenter"",""1"",""2491""
","
","
","""event"",""trial"",""time""
""fullscreenenter"",""1"",""2491""
","
","","","","","","793.1999999880791","images/orange4.png","","","learning","images/fruit_choice3.png","images/fruit_choice1.png","images/fruit_choice2.png","[2,0,1]","2","0","1","images/fruit_choice3.png","1","fruit","","orange","1","0"
"html-keyboard-response","172","765639","0.0-9.0-2.0-0.43","1599","1","2","""event"",""trial"",""time""
""fullscreenenter"",""1"",""2491""
","
","
","""event"",""trial"",""time""
""fullscreenenter"",""1"",""2491""
","
","","","","","","null","<div style=""font-size:60px;"">+</div>","null","","fixation","","","","","","","","","","","","","",""
"learning-trial","173","769641","0.0-9.0-2.0-1.43","1599","1","2","""event"",""trial"",""time""
""fullscreenenter"",""1"",""2491""
","
","
","""event"",""trial"",""time""
""fullscreenenter"",""1"",""2491""
","
","","","","","","669.5999999642372","images/straw5.png","","","learning","images/fruit_choice1.png","images/fruit_choice3.png","images/fruit_choice2.png","[0,2,1]","1","2","3","images/fruit_choice2.png","1","fruit","","straw","1","0"
"html-keyboard-response","174","770146","0.0-9.0-2.0-0.44","1599","1","2","""event"",""trial"",""time""
""fullscreenenter"",""1"",""2491""
","
","
","""event"",""trial"",""time""
""fullscreenenter"",""1"",""2491""
","
","","","","","","null","<div style=""font-size:60px;"">+</div>","null","","fixation","","","","","","","","","","","","","",""
"learning-trial","175","774151","0.0-9.0-2.0-1.44","1599","1","2","""event"",""trial"",""time""
""fullscreenenter"",""1"",""2491""
","
","
","""event"",""trial"",""time""
""fullscreenenter"",""1"",""2491""
","
","","","","","","683.2000000476837","images/straw2.png","","","learning","images/fruit_choice2.png","images/fruit_choice1.png","images/fruit_choice3.png","[1,0,2]","1","0","1","images/fruit_choice2.png","1","fruit","","straw","1","0"
"html-keyboard-response","176","774651","0.0-9.0-2.0-0.45","1599","1","2","""event"",""trial"",""time""
""fullscreenenter"",""1"",""2491""
","
","
","""event"",""trial"",""time""
""fullscreenenter"",""1"",""2491""
","
","","","","","","null","<div style=""font-size:60px;"">+</div>","null","","fixation","","","","","","","","","","","","","",""
"learning-trial","177","778653","0.0-9.0-2.0-1.45","1599","1","2","""event"",""trial"",""time""
""fullscreenenter"",""1"",""2491""
","
","
","""event"",""trial"",""time""
""fullscreenenter"",""1"",""2491""
","
","","","","","","2320.599999964237","images/orange1.png","","","learning","images/fruit_choice1.png","images/fruit_choice2.png","images/fruit_choice3.png","[0,1,2]","2","2","3","images/fruit_choice3.png","1","fruit","","orange","1","0"
"html-keyboard-response","178","779156","0.0-9.0-2.0-0.46","1599","1","2","""event"",""trial"",""time""
""fullscreenenter"",""1"",""2491""
","
","
","""event"",""trial"",""time""
""fullscreenenter"",""1"",""2491""
","
","","","","","","null","<div style=""font-size:60px;"">+</div>","null","","fixation","","","","","","","","","","","","","",""
"learning-trial","179","783160","0.0-9.0-2.0-1.46","1599","1","2","""event"",""trial"",""time""
""fullscreenenter"",""1"",""2491""
","
","
","""event"",""trial"",""time""
""fullscreenenter"",""1"",""2491""
","
","","","","","","1322.800000011921","images/orange2.png","","","learning","images/fruit_choice2.png","images/fruit_choice3.png","images/fruit_choice1.png","[1,2,0]","2","1","2","images/fruit_choice3.png","-1","fruit","","orange","1","0"
"html-keyboard-response","180","783665","0.0-9.0-2.0-0.47","1599","1","2","""event"",""trial"",""time""
""fullscreenenter"",""1"",""2491""
","
","
","""event"",""trial"",""time""
""fullscreenenter"",""1"",""2491""
","
","","","","","","null","<div style=""font-size:60px;"">+</div>","null","","fixation","","","","","","","","","","","","","",""
"learning-trial","181","787672","0.0-9.0-2.0-1.47","1599","1","2","""event"",""trial"",""time""
""fullscreenenter"",""1"",""2491""
","
","
","""event"",""trial"",""time""
""fullscreenenter"",""1"",""2491""
","
","","","","","","1012.7000000476837","images/straw5.png","","","learning","images/fruit_choice1.png","images/fruit_choice3.png","images/fruit_choice2.png","[0,2,1]","1","2","3","images/fruit_choice2.png","1","fruit","","straw","1","0"
"html-keyboard-response","182","788176","0.0-9.0-2.0-0.48","1599","1","2","""event"",""trial"",""time""
""fullscreenenter"",""1"",""2491""
","
","
","""event"",""trial"",""time""
""fullscreenenter"",""1"",""2491""
","
","","","","","","null","<div style=""font-size:60px;"">+</div>","null","","fixation","","","","","","","","","","","","","",""
"learning-trial","183","792182","0.0-9.0-2.0-1.48","1599","1","2","""event"",""trial"",""time""
""fullscreenenter"",""1"",""2491""
","
","
","""event"",""trial"",""time""
""fullscreenenter"",""1"",""2491""
","
","","","","","","1952.5","images/banana1.png","","","learning","images/fruit_choice2.png","images/fruit_choice1.png","images/fruit_choice3.png","[1,0,2]","0","1","3","images/fruit_choice3.png","-1","fruit","","banana","1","0"
"html-keyboard-response","184","792686","0.0-9.0-2.0-0.49","1599","1","2","""event"",""trial"",""time""
""fullscreenenter"",""1"",""2491""
","
","
","""event"",""trial"",""time""
""fullscreenenter"",""1"",""2491""
","
","","","","","","null","<div style=""font-size:60px;"">+</div>","null","","fixation","","","","","","","","","","","","","",""
"learning-trial","185","796702","0.0-9.0-2.0-1.49","1599","1","2","""event"",""trial"",""time""
""fullscreenenter"",""1"",""2491""
","
","
","""event"",""trial"",""time""
""fullscreenenter"",""1"",""2491""
","
","","","","","","749.3000000119209","images/orange2.png","","","learning","images/fruit_choice2.png","images/fruit_choice1.png","images/fruit_choice3.png","[1,0,2]","2","2","3","images/fruit_choice3.png","1","fruit","","orange","1","0"
"html-keyboard-response","186","797203","0.0-9.0-2.0-0.50","1599","1","2","""event"",""trial"",""time""
""fullscreenenter"",""1"",""2491""
","
","
","""event"",""trial"",""time""
""fullscreenenter"",""1"",""2491""
","
","","","","","","null","<div style=""font-size:60px;"">+</div>","null","","fixation","","","","","","","","","","","","","",""
"learning-trial","187","801322","0.0-9.0-2.0-1.50","1599","1","2","""event"",""trial"",""time""
""fullscreenenter"",""1"",""2491""
","
","
","""event"",""trial"",""time""
""fullscreenenter"",""1"",""2491""
","
","","","","","","1378.5","images/banana1.png","","","learning","images/fruit_choice1.png","images/fruit_choice2.png","images/fruit_choice3.png","[0,1,2]","0","0","1","images/fruit_choice1.png","1","fruit","","banana","1","0"
"html-keyboard-response","188","801867","0.0-9.0-2.0-0.51","1599","1","2","""event"",""trial"",""time""
""fullscreenenter"",""1"",""2491""
","
","
","""event"",""trial"",""time""
""fullscreenenter"",""1"",""2491""
","
","","","","","","null","<div style=""font-size:60px;"">+</div>","null","","fixation","","","","","","","","","","","","","",""
"learning-trial","189","805952","0.0-9.0-2.0-1.51","1599","1","2","""event"",""trial"",""time""
""fullscreenenter"",""1"",""2491""
","
","
","""event"",""trial"",""time""
""fullscreenenter"",""1"",""2491""
","
","","","","","","872.5","images/banana5.png","","","learning","images/fruit_choice3.png","images/fruit_choice2.png","images/fruit_choice1.png","[2,1,0]","0","2","3","images/fruit_choice1.png","-1","fruit","","banana","1","0"
"html-keyboard-response","190","806457","0.0-9.0-2.0-0.52","1599","1","2","""event"",""trial"",""time""
""fullscreenenter"",""1"",""2491""
","
","
","""event"",""trial"",""time""
""fullscreenenter"",""1"",""2491""
","
","","","","","","null","<div style=""font-size:60px;"">+</div>","null","","fixation","","","","","","","","","","","","","",""
"learning-trial","191","810462","0.0-9.0-2.0-1.52","1599","1","2","""event"",""trial"",""time""
""fullscreenenter"",""1"",""2491""
","
","
","""event"",""trial"",""time""
""fullscreenenter"",""1"",""2491""
","
","","","","","","1217.8999999761581","images/banana4.png","","","learning","images/fruit_choice1.png","images/fruit_choice2.png","images/fruit_choice3.png","[0,1,2]","0","0","1","images/fruit_choice1.png","1","fruit","","banana","1","0"
"html-keyboard-response","192","810977","0.0-9.0-2.0-0.53","1599","1","2","""event"",""trial"",""time""
""fullscreenenter"",""1"",""2491""
","
","
","""event"",""trial"",""time""
""fullscreenenter"",""1"",""2491""
","
","","","","","","null","<div style=""font-size:60px;"">+</div>","null","","fixation","","","","","","","","","","","","","",""
"learning-trial","193","814979","0.0-9.0-2.0-1.53","1599","1","2","""event"",""trial"",""time""
""fullscreenenter"",""1"",""2491""
","
","
","""event"",""trial"",""time""
""fullscreenenter"",""1"",""2491""
","
","","","","","","2249.800000011921","images/orange4.png","","","learning","images/fruit_choice1.png","images/fruit_choice3.png","images/fruit_choice2.png","[0,2,1]","2","1","2","images/fruit_choice3.png","1","fruit","","orange","1","0"
"html-keyboard-response","194","815485","0.0-9.0-2.0-0.54","1599","1","2","""event"",""trial"",""time""
""fullscreenenter"",""1"",""2491""
","
","
","""event"",""trial"",""time""
""fullscreenenter"",""1"",""2491""
","
","","","","","","null","<div style=""font-size:60px;"">+</div>","null","","fixation","","","","","","","","","","","","","",""
"learning-trial","195","819500","0.0-9.0-2.0-1.54","1599","1","2","""event"",""trial"",""time""
""fullscreenenter"",""1"",""2491""
","
","
","""event"",""trial"",""time""
""fullscreenenter"",""1"",""2491""
","
","","","","","","948","images/banana4.png","","","learning","images/fruit_choice3.png","images/fruit_choice2.png","images/fruit_choice1.png","[2,1,0]","0","2","3","images/fruit_choice1.png","1","fruit","","banana","1","0"
"html-keyboard-response","196","820001","0.0-9.0-2.0-0.55","1599","1","2","""event"",""trial"",""time""
""fullscreenenter"",""1"",""2491""
","
","
","""event"",""trial"",""time""
""fullscreenenter"",""1"",""2491""
","
","","","","","","null","<div style=""font-size:60px;"">+</div>","null","","fixation","","","","","","","","","","","","","",""
"learning-trial","197","824006","0.0-9.0-2.0-1.55","1599","1","2","""event"",""trial"",""time""
""fullscreenenter"",""1"",""2491""
","
","
","""event"",""trial"",""time""
""fullscreenenter"",""1"",""2491""
","
","","","","","","880","images/banana5.png","","","learning","images/fruit_choice3.png","images/fruit_choice2.png","images/fruit_choice1.png","[2,1,0]","0","2","3","images/fruit_choice1.png","1","fruit","","banana","1","0"
"html-keyboard-response","198","824510","0.0-9.0-2.0-0.56","1599","1","2","""event"",""trial"",""time""
""fullscreenenter"",""1"",""2491""
","
","
","""event"",""trial"",""time""
""fullscreenenter"",""1"",""2491""
","
","","","","","","null","<div style=""font-size:60px;"">+</div>","null","","fixation","","","","","","","","","","","","","",""
"learning-trial","199","828517","0.0-9.0-2.0-1.56","1599","1","2","""event"",""trial"",""time""
""fullscreenenter"",""1"",""2491""
","
","
","""event"",""trial"",""time""
""fullscreenenter"",""1"",""2491""
","
","","","","","","754.5999999642372","images/straw4.png","","","learning","images/fruit_choice3.png","images/fruit_choice1.png","images/fruit_choice2.png","[2,0,1]","1","2","3","images/fruit_choice2.png","1","fruit","","straw","1","0"
"html-keyboard-response","200","829021","0.0-9.0-2.0-0.57","1599","1","2","""event"",""trial"",""time""
""fullscreenenter"",""1"",""2491""
","
","
","""event"",""trial"",""time""
""fullscreenenter"",""1"",""2491""
","
","","","","","","null","<div style=""font-size:60px;"">+</div>","null","","fixation","","","","","","","","","","","","","",""
"learning-trial","201","833027","0.0-9.0-2.0-1.57","1599","1","2","""event"",""trial"",""time""
""fullscreenenter"",""1"",""2491""
","
","
","""event"",""trial"",""time""
""fullscreenenter"",""1"",""2491""
","
","","","","","","686.2000000476837","images/straw2.png","","","learning","images/fruit_choice1.png","images/fruit_choice3.png","images/fruit_choice2.png","[0,2,1]","1","2","3","images/fruit_choice2.png","1","fruit","","straw","1","0"
"html-keyboard-response","202","833532","0.0-9.0-2.0-0.58","1599","1","2","""event"",""trial"",""time""
""fullscreenenter"",""1"",""2491""
","
","
","""event"",""trial"",""time""
""fullscreenenter"",""1"",""2491""
","
","","","","","","null","<div style=""font-size:60px;"">+</div>","null","","fixation","","","","","","","","","","","","","",""
"learning-trial","203","837538","0.0-9.0-2.0-1.58","1599","1","2","""event"",""trial"",""time""
""fullscreenenter"",""1"",""2491""
","
","
","""event"",""trial"",""time""
""fullscreenenter"",""1"",""2491""
","
","","","","","","823.5999999642372","images/straw2.png","","","learning","images/fruit_choice2.png","images/fruit_choice1.png","images/fruit_choice3.png","[1,0,2]","1","0","1","images/fruit_choice2.png","1","fruit","","straw","1","0"
"html-keyboard-response","204","838043","0.0-9.0-2.0-0.59","1599","1","2","""event"",""trial"",""time""
""fullscreenenter"",""1"",""2491""
","
","
","""event"",""trial"",""time""
""fullscreenenter"",""1"",""2491""
","
","","","","","","null","<div style=""font-size:60px;"">+</div>","null","","fixation","","","","","","","","","","","","","",""
"learning-trial","205","842048","0.0-9.0-2.0-1.59","1599","1","2","""event"",""trial"",""time""
""fullscreenenter"",""1"",""2491""
","
","
","""event"",""trial"",""time""
""fullscreenenter"",""1"",""2491""
","
","","","","","","911.4000000357628","images/banana4.png","","","learning","images/fruit_choice2.png","images/fruit_choice1.png","images/fruit_choice3.png","[1,0,2]","0","1","2","images/fruit_choice1.png","1","fruit","","banana","1","0"
"html-keyboard-response","206","842553","0.0-9.0-2.0-0.60","1599","1","2","""event"",""trial"",""time""
""fullscreenenter"",""1"",""2491""
","
","
","""event"",""trial"",""time""
""fullscreenenter"",""1"",""2491""
","
","","","","","","null","<div style=""font-size:60px;"">+</div>","null","","fixation","","","","","","","","","","","","","",""
"learning-trial","207","846558","0.0-9.0-2.0-1.60","1599","1","2","""event"",""trial"",""time""
""fullscreenenter"",""1"",""2491""
","
","
","""event"",""trial"",""time""
""fullscreenenter"",""1"",""2491""
","
","","","","","","1843.5","images/orange4.png","","","learning","images/fruit_choice2.png","images/fruit_choice3.png","images/fruit_choice1.png","[1,2,0]","2","1","2","images/fruit_choice3.png","1","fruit","","orange","1","0"
"html-keyboard-response","208","847063","0.0-9.0-2.0-0.61","1599","1","2","""event"",""trial"",""time""
""fullscreenenter"",""1"",""2491""
","
","
","""event"",""trial"",""time""
""fullscreenenter"",""1"",""2491""
","
","","","","","","null","<div style=""font-size:60px;"">+</div>","null","","fixation","","","","","","","","","","","","","",""
"learning-trial","209","851115","0.0-9.0-2.0-1.61","1599","1","2","""event"",""trial"",""time""
""fullscreenenter"",""1"",""2491""
","
","
","""event"",""trial"",""time""
""fullscreenenter"",""1"",""2491""
","
","","","","","","710.3000000119209","images/straw2.png","","","learning","images/fruit_choice1.png","images/fruit_choice2.png","images/fruit_choice3.png","[0,1,2]","1","1","2","images/fruit_choice2.png","1","fruit","","straw","1","0"
"html-keyboard-response","210","851633","0.0-9.0-2.0-0.62","1599","1","2","""event"",""trial"",""time""
""fullscreenenter"",""1"",""2491""
","
","
","""event"",""trial"",""time""
""fullscreenenter"",""1"",""2491""
","
","","","","","","null","<div style=""font-size:60px;"">+</div>","null","","fixation","","","","","","","","","","","","","",""
"learning-trial","211","855638","0.0-9.0-2.0-1.62","1599","1","2","""event"",""trial"",""time""
""fullscreenenter"",""1"",""2491""
","
","
","""event"",""trial"",""time""
""fullscreenenter"",""1"",""2491""
","
","","","","","","842","images/straw4.png","","","learning","images/fruit_choice3.png","images/fruit_choice2.png","images/fruit_choice1.png","[2,1,0]","1","1","2","images/fruit_choice2.png","1","fruit","","straw","1","0"
"html-keyboard-response","212","856150","0.0-9.0-2.0-0.63","1599","1","2","""event"",""trial"",""time""
""fullscreenenter"",""1"",""2491""
","
","
","""event"",""trial"",""time""
""fullscreenenter"",""1"",""2491""
","
","","","","","","null","<div style=""font-size:60px;"">+</div>","null","","fixation","","","","","","","","","","","","","",""
"learning-trial","213","860154","0.0-9.0-2.0-1.63","1599","1","2","""event"",""trial"",""time""
""fullscreenenter"",""1"",""2491""
","
","
","""event"",""trial"",""time""
""fullscreenenter"",""1"",""2491""
","
","","","","","","1079.800000011921","images/banana5.png","","","learning","images/fruit_choice2.png","images/fruit_choice1.png","images/fruit_choice3.png","[1,0,2]","0","1","2","images/fruit_choice1.png","1","fruit","","banana","1","0"
"html-keyboard-response","214","860659","0.0-9.0-2.0-0.64","1599","1","2","""event"",""trial"",""time""
""fullscreenenter"",""1"",""2491""
","
","
","""event"",""trial"",""time""
""fullscreenenter"",""1"",""2491""
","
","","","","","","null","<div style=""font-size:60px;"">+</div>","null","","fixation","","","","","","","","","","","","","",""
"learning-trial","215","864662","0.0-9.0-2.0-1.64","1599","1","2","""event"",""trial"",""time""
""fullscreenenter"",""1"",""2491""
","
","
","""event"",""trial"",""time""
""fullscreenenter"",""1"",""2491""
","
","","","","","","671.4000000357628","images/banana5.png","","","learning","images/fruit_choice2.png","images/fruit_choice1.png","images/fruit_choice3.png","[1,0,2]","0","1","2","images/fruit_choice1.png","1","fruit","","banana","1","0"
"html-keyboard-response","216","865175","0.0-9.0-2.0-0.65","1599","1","2","""event"",""trial"",""time""
""fullscreenenter"",""1"",""2491""
","
","
","""event"",""trial"",""time""
""fullscreenenter"",""1"",""2491""
","
","","","","","","null","<div style=""font-size:60px;"">+</div>","null","","fixation","","","","","","","","","","","","","",""
"learning-trial","217","869184","0.0-9.0-2.0-1.65","1599","1","2","""event"",""trial"",""time""
""fullscreenenter"",""1"",""2491""
","
","
","""event"",""trial"",""time""
""fullscreenenter"",""1"",""2491""
","
","","","","","","665","images/straw2.png","","","learning","images/fruit_choice2.png","images/fruit_choice3.png","images/fruit_choice1.png","[1,2,0]","1","0","1","images/fruit_choice2.png","1","fruit","","straw","1","0"
"html-keyboard-response","218","869693","0.0-9.0-2.0-0.66","1599","1","2","""event"",""trial"",""time""
""fullscreenenter"",""1"",""2491""
","
","
","""event"",""trial"",""time""
""fullscreenenter"",""1"",""2491""
","
","","","","","","null","<div style=""font-size:60px;"">+</div>","null","","fixation","","","","","","","","","","","","","",""
"learning-trial","219","873709","0.0-9.0-2.0-1.66","1599","1","2","""event"",""trial"",""time""
""fullscreenenter"",""1"",""2491""
","
","
","""event"",""trial"",""time""
""fullscreenenter"",""1"",""2491""
","
","","","","","","1199","images/orange1.png","","","learning","images/fruit_choice1.png","images/fruit_choice2.png","images/fruit_choice3.png","[0,1,2]","2","2","3","images/fruit_choice3.png","1","fruit","","orange","1","0"
"html-keyboard-response","220","874214","0.0-9.0-2.0-0.67","1599","1","2","""event"",""trial"",""time""
""fullscreenenter"",""1"",""2491""
","
","
","""event"",""trial"",""time""
""fullscreenenter"",""1"",""2491""
","
","","","","","","null","<div style=""font-size:60px;"">+</div>","null","","fixation","","","","","","","","","","","","","",""
"learning-trial","221","878220","0.0-9.0-2.0-1.67","1599","1","2","""event"",""trial"",""time""
""fullscreenenter"",""1"",""2491""
","
","
","""event"",""trial"",""time""
""fullscreenenter"",""1"",""2491""
","
","","","","","","1409.800000011921","images/banana5.png","","","learning","images/fruit_choice1.png","images/fruit_choice2.png","images/fruit_choice3.png","[0,1,2]","0","0","1","images/fruit_choice1.png","1","fruit","","banana","1","0"
"html-keyboard-response","222","878725","0.0-9.0-2.0-0.68","1599","1","2","""event"",""trial"",""time""
""fullscreenenter"",""1"",""2491""
","
","
","""event"",""trial"",""time""
""fullscreenenter"",""1"",""2491""
","
","","","","","","null","<div style=""font-size:60px;"">+</div>","null","","fixation","","","","","","","","","","","","","",""
"learning-trial","223","882731","0.0-9.0-2.0-1.68","1599","1","2","""event"",""trial"",""time""
""fullscreenenter"",""1"",""2491""
","
","
","""event"",""trial"",""time""
""fullscreenenter"",""1"",""2491""
","
","","","","","","933.8999999761581","images/orange2.png","","","learning","images/fruit_choice1.png","images/fruit_choice3.png","images/fruit_choice2.png","[0,2,1]","2","1","2","images/fruit_choice3.png","-1","fruit","","orange","1","0"
"html-keyboard-response","224","883235","0.0-9.0-2.0-0.69","1599","1","2","""event"",""trial"",""time""
""fullscreenenter"",""1"",""2491""
","
","
","""event"",""trial"",""time""
""fullscreenenter"",""1"",""2491""
","
","","","","","","null","<div style=""font-size:60px;"">+</div>","null","","fixation","","","","","","","","","","","","","",""
"learning-trial","225","887257","0.0-9.0-2.0-1.69","1599","1","2","""event"",""trial"",""time""
""fullscreenenter"",""1"",""2491""
","
","
","""event"",""trial"",""time""
""fullscreenenter"",""1"",""2491""
","
","","","","","","933.1000000238419","images/orange2.png","","","learning","images/fruit_choice1.png","images/fruit_choice3.png","images/fruit_choice2.png","[0,2,1]","2","1","2","images/fruit_choice3.png","1","fruit","","orange","1","0"
"html-keyboard-response","226","887762","0.0-9.0-2.0-0.70","1599","1","2","""event"",""trial"",""time""
""fullscreenenter"",""1"",""2491""
","
","
","""event"",""trial"",""time""
""fullscreenenter"",""1"",""2491""
","
","","","","","","null","<div style=""font-size:60px;"">+</div>","null","","fixation","","","","","","","","","","","","","",""
"learning-trial","227","891807","0.0-9.0-2.0-1.70","1599","1","2","""event"",""trial"",""time""
""fullscreenenter"",""1"",""2491""
","
","
","""event"",""trial"",""time""
""fullscreenenter"",""1"",""2491""
","
","","","","","","687.1999999880791","images/straw4.png","","","learning","images/fruit_choice1.png","images/fruit_choice2.png","images/fruit_choice3.png","[0,1,2]","1","1","2","images/fruit_choice2.png","1","fruit","","straw","1","0"
"html-keyboard-response","228","892309","0.0-9.0-2.0-0.71","1599","1","2","""event"",""trial"",""time""
""fullscreenenter"",""1"",""2491""
","
","
","""event"",""trial"",""time""
""fullscreenenter"",""1"",""2491""
","
","","","","","","null","<div style=""font-size:60px;"">+</div>","null","","fixation","","","","","","","","","","","","","",""
"learning-trial","229","896315","0.0-9.0-2.0-1.71","1599","1","2","""event"",""trial"",""time""
""fullscreenenter"",""1"",""2491""
","
","
","""event"",""trial"",""time""
""fullscreenenter"",""1"",""2491""
","
","","","","","","1433.300000011921","images/orange1.png","","","learning","images/fruit_choice3.png","images/fruit_choice1.png","images/fruit_choice2.png","[2,0,1]","2","0","1","images/fruit_choice3.png","1","fruit","","orange","1","0"
"html-button-response","230","909825","0.0-9.0-3.0","1599","1","2","""event"",""trial"",""time""
""fullscreenenter"",""1"",""2491""
","
","
","""event"",""trial"",""time""
""fullscreenenter"",""1"",""2491""
","
","","","","","","13509","<p> You have completed the round! <p> In this round, you earned 36 points! </p>","0","","break","","","","","","","","","","","","","",""
"html-button-response","231","910794","0.0-10.0","1599","1","2","""event"",""trial"",""time""
""fullscreenenter"",""1"",""2491""
","
","
","""event"",""trial"",""time""
""fullscreenenter"",""1"",""2491""
","
","","","","","","968.0999999642372","<p> Now it's time to play another round. </p>","0","","transition_screen","","","","","","","","","","","","","",""
"preload","232","942950","0.0-11.0-0.0","1599","1","2","""event"",""trial"",""time""
""fullscreenenter"",""1"",""2491""
","
","
","""event"",""trial"",""time""
""fullscreenenter"",""1"",""2491""
","
","true","false","[]","[]","[]","","","","","","","","","","","","","","","","","","",""
"learning-instructions","233","950357","0.0-11.0-1.0-0.0","1599","1","2","""event"",""trial"",""time""
""fullscreenenter"",""1"",""2491""
","
","
","""event"",""trial"",""time""
""fullscreenenter"",""1"",""2491""
","
","","","","","","795.6999999880791","<p> Your goal in this round is to feed all of your pets with the foods they like. </p><p> You will need to feed many pets. </p></div>","","0","instructions","","","","","","","","","","","","","",""
"learning-instructions","234","958882","0.0-11.0-1.0-0.1","1599","1","2","""event"",""trial"",""time""
""fullscreenenter"",""1"",""2491""
","
","
","""event"",""trial"",""time""
""fullscreenenter"",""1"",""2491""
","
","","","","","","531.1999999880791","<p> On each turn, you will see a picture of one of your pets and three different types of foods.  </p><p> You need to select the food that you want to give to your pet.  </p>","","0","instructions","","","","","","","","","","","","","",""
"learning-instructions","235","965974","0.0-11.0-1.0-0.2","1599","1","2","""event"",""trial"",""time""
""fullscreenenter"",""1"",""2491""
","
","
","""event"",""trial"",""time""
""fullscreenenter"",""1"",""2491""
","
","","","","","","389.4000000357628","<p> You can select the food on the left by pressing 1, the food in the middle by pressing 2, and the food on the right by pressing 3. </p><br><div class=""choice-instructions-grid""> <div class=""choice-option""><img src=""images/pets_choice1.png"" class=""choice-option-img"" stage=""instructions"" position=""0"" ><div class=""choice-option-text""> Press ""1."" </div></div><div class=""choice-option""><img src=""images/pets_choice2.png"" class=""choice-option-img"" stage=""instructions"" position=""1"" ><div class=""choice-option-text""> Press ""2."" </div></div><div class=""choice-option""><img src=""images/pets_choice3.png"" class=""choice-option-img"" stage=""instructions"" position=""2"" ><div class=""choice-option-text""> Press ""3."" </div></div></div>","","0","instructions","","","","","","","","","","","","","",""
"learning-instructions","236","970774","0.0-11.0-1.0-0.3","1599","1","2","""event"",""trial"",""time""
""fullscreenenter"",""1"",""2491""
","
","
","""event"",""trial"",""time""
""fullscreenenter"",""1"",""2491""
","
","","","","","","779.1000000238419","<p> If your pet likes the food you chose, it will be very happy! </p><div style='float: center;'><img src='images/check.png' width = '200' height = '200'></img>","","0","instructions","","","","","","","","","","","","","",""
"learning-instructions","237","976150","0.0-11.0-1.0-0.4","1599","1","2","""event"",""trial"",""time""
""fullscreenenter"",""1"",""2491""
","
","
