"trial_type","trial_index","time_elapsed","internal_node_id","subject_id","condition","task_version","interactions","blur_events","focus_events","fullscreenenter_events","fullscreenexit_events","success","timeout","failed_images","failed_audio","failed_video","rt","stimulus","response","button_pressed","task_part","left_choice","middle_choice","right_choice","choice_positions","correct_response","correct_position","key_press","option_selected","points","task_block","correct","stim_cat","block_condition","block_number"
"pavlovia","0","6","0.0-0.0","1910","1","2","""event"",""trial"",""time""
""fullscreenenter"",""1"",""22606""
","
","
","""event"",""trial"",""time""
""fullscreenenter"",""1"",""22606""
","
","","","","","","","","","","","","","","","","","","","","","","","",""
"fullscreen","1","23568","0.0-1.0","1910","1","2","""event"",""trial"",""time""
""fullscreenenter"",""1"",""22606""
","
","
","""event"",""trial"",""time""
""fullscreenenter"",""1"",""22606""
","
","true","","","","","","","","","","","","","","","","","","","","","","",""
"preload","2","70768","0.0-2.0","1910","1","2","""event"",""trial"",""time""
""fullscreenenter"",""1"",""22606""
","
","
","""event"",""trial"",""time""
""fullscreenenter"",""1"",""22606""
","
","true","false","[]","[]","[]","","","","","","","","","","","","","","","","","","",""
"audio-keyboard-response","3","77217","0.0-3.0","1910","1","2","""event"",""trial"",""time""
""fullscreenenter"",""1"",""22606""
","
","
","""event"",""trial"",""time""
""fullscreenenter"",""1"",""22606""
","
","","","","","","6061.333333333338","audio/beep_loop.wav"," ","","","","","","","","","","","","","","","",""
"audio-button-response","4","79535","0.0-4.0","1910","1","2","""event"",""trial"",""time""
""fullscreenenter"",""1"",""22606""
","
","
","""event"",""trial"",""time""
""fullscreenenter"",""1"",""22606""
","
","","","","","","2309","audio/shark.wav","4","","","","","","","","","","","","","","","",""
"audio-button-response","5","83408","0.0-5.0","1910","1","2","""event"",""trial"",""time""
""fullscreenenter"",""1"",""22606""
","
","
","""event"",""trial"",""time""
""fullscreenenter"",""1"",""22606""
","
","","","","","","2869","audio/turtle.wav","1","","","","","","","","","","","","","","","",""
"preload","6","124511","0.0-6.0","1910","1","2","""event"",""trial"",""time""
""fullscreenenter"",""1"",""22606""
","
","
","""event"",""trial"",""time""
""fullscreenenter"",""1"",""22606""
","
","true","false","[]","[]","[]","","","","","","","","","","","","","","","","","","",""
"html-keyboard-response","7","129224","0.0-7.0","1910","1","2","""event"",""trial"",""time""
""fullscreenenter"",""1"",""22606""
","
","
","""event"",""trial"",""time""
""fullscreenenter"",""1"",""22606""
","
","","","","","","4710.399999976158","Welcome to the experiment. Press any key to begin and to advance the instructions."," ","","","","","","","","","","","","","","","",""
"learning-instructions","8","192223","0.0-8.0-0.0-0.0","1910","1","2","""event"",""trial"",""time""
""fullscreenenter"",""1"",""22606""
","
","
","""event"",""trial"",""time""
""fullscreenenter"",""1"",""22606""
","
","","","","","","54849.39999997616","<p> Welcome! Today you are going to play 6 different rounds of a decision-making game. </p><p> Use the mouse to click next to continue. </p>","","0","instructions","","","","","","","","","","","","","",""
"learning-instructions","9","201404","0.0-8.0-0.0-0.1","1910","1","2","""event"",""trial"",""time""
""fullscreenenter"",""1"",""22606""
","
","
","""event"",""trial"",""time""
""fullscreenenter"",""1"",""22606""
","
","","","","","","5820.5","<p> You will start with a practice round to learn the rules. </p>","","0","instructions","","","","","","","","","","","","","",""
"learning-instructions","10","210857","0.0-8.0-0.0-0.2","1910","1","2","""event"",""trial"",""time""
""fullscreenenter"",""1"",""22606""
","
","
","""event"",""trial"",""time""
""fullscreenenter"",""1"",""22606""
","
","","","","","","1692.7000000476837","<p> Your goal in this round is to deliver sports equipment to three different parks. </p><p> You will need to deliver many types of equipment. </p></div>","","0","instructions","","","","","","","","","","","","","",""
"learning-instructions","11","232428","0.0-8.0-0.0-0.3","1910","1","2","""event"",""trial"",""time""
""fullscreenenter"",""1"",""22606""
","
","
","""event"",""trial"",""time""
""fullscreenenter"",""1"",""22606""
","
","","","","","","13074.800000071526","<p> On each turn, you will see one piece of sports equipment and three different parks.  </p><p> You need to select which park to deliver the equipment to.  </p>","","0","instructions","","","","","","","","","","","","","",""
"learning-instructions","12","248251","0.0-8.0-0.0-0.4","1910","1","2","""event"",""trial"",""time""
""fullscreenenter"",""1"",""22606""
","
","
","""event"",""trial"",""time""
""fullscreenenter"",""1"",""22606""
","
","","","","","","2536.7999999523163","<p> You can select the park on the left by pressing the '1' key on your keyboard. <br>You can select the park in the middle by pressing the '2' key on your keyboard. <br>You can select the park on the right by pressing the '3' key on your keyboard.  </p><br><div class=""choice-instructions-grid""> <div class=""choice-option""><img src=""images/park1.png"" class=""choice-option-img"" stage=""instructions"" position=""0"" ><div class=""choice-option-text""> Press ""1."" </div></div><div class=""choice-option""><img src=""images/park2.png"" class=""choice-option-img"" stage=""instructions"" position=""1"" ><div class=""choice-option-text""> Press ""2."" </div></div><div class=""choice-option""><img src=""images/park3.png"" class=""choice-option-img"" stage=""instructions"" position=""2"" ><div class=""choice-option-text""> Press ""3."" </div></div></div>","","0","instructions","","","","","","","","","","","","","",""
"learning-instructions","13","255487","0.0-8.0-0.0-0.5","1910","1","2","""event"",""trial"",""time""
""fullscreenenter"",""1"",""22606""
","
","
","""event"",""trial"",""time""
""fullscreenenter"",""1"",""22606""
","
","","","","","","1842.6000000238419","<p> If the kids in the park you chose like the equipment, they will be very happy! </p><div style='float: center;'><img src='images/check.png' width = '200' height = '200'></img>","","0","instructions","","","","","","","","","","","","","",""
"learning-instructions","14","261687","0.0-8.0-0.0-0.6","1910","1","2","""event"",""trial"",""time""
""fullscreenenter"",""1"",""22606""
","
","
","""event"",""trial"",""time""
""fullscreenenter"",""1"",""22606""
","
","","","","","","601.8000000715256","<p> But, if the kids in the park you chose do not like the equipment, they will be sad. </p><div style='float: center;'><img src='images/x.png' width = '200' height = '200'></img>","","0","instructions","","","","","","","","","","","","","",""
"learning-instructions","15","272059","0.0-8.0-0.0-0.7","1910","1","2","""event"",""trial"",""time""
""fullscreenenter"",""1"",""22606""
","
","
","""event"",""trial"",""time""
""fullscreenenter"",""1"",""22606""
","
","","","","","","3934.5999999046326","<p> Importantly, the kids in each park like some pieces of sports equipment more than others. </p>","","0","instructions","","","","","","","","","","","","","",""
"learning-instructions","16","279487","0.0-8.0-0.0-0.8","1910","1","2","""event"",""trial"",""time""
""fullscreenenter"",""1"",""22606""
","
","
","""event"",""trial"",""time""
""fullscreenenter"",""1"",""22606""
","
","","","","","","1362.3000000715256","<p> If you choose the best park for each piece of equipment, the kids there will usually be happy. </p>","","0","instructions","","","","","","","","","","","","","",""
"learning-instructions","17","286804","0.0-8.0-0.0-0.9","1910","1","2","""event"",""trial"",""time""
""fullscreenenter"",""1"",""22606""
","
","
","""event"",""trial"",""time""
""fullscreenenter"",""1"",""22606""
","
","","","","","","670.1000000238419","<p> However, even if you choose the best park for the equipment, the kids may sometimes be sad. </p>","","0","instructions","","","","","","","","","","","","","",""
"learning-instructions","18","294930","0.0-8.0-0.0-0.10","1910","1","2","""event"",""trial"",""time""
""fullscreenenter"",""1"",""22606""
","
","
","""event"",""trial"",""time""
""fullscreenenter"",""1"",""22606""
","
","","","","","","875.2000000476837","<p> Similarly, even if you choose the <i>wrong</i> park for the equipment, the kids may still be happy sometimes.","","0","instructions","","","","","","","","","","","","","",""
"learning-instructions","19","301265","0.0-8.0-0.0-0.11","1910","1","2","""event"",""trial"",""time""
""fullscreenenter"",""1"",""22606""
","
","
","""event"",""trial"",""time""
""fullscreenenter"",""1"",""22606""
","
","","","","","","1280.7000000476837","<p> For example, the best park for this soccer ball is this one.<div style='float: center;'><img src='images/i1.png' width = '500' height = '268'></img>","","0","instructions","","","","","","","","","","","","","",""
"learning-instructions","20","308399","0.0-8.0-0.0-0.12","1910","1","2","""event"",""trial"",""time""
""fullscreenenter"",""1"",""22606""
","
","
","""event"",""trial"",""time""
""fullscreenenter"",""1"",""22606""
","
","","","","","","1835.7000000476837","<p> Let's see what happens if you choose this park for the soccer ball five times.","","0","instructions","","","","","","","","","","","","","",""
"learning-instructions","21","314614","0.0-8.0-0.0-0.13","1910","1","2","""event"",""trial"",""time""
""fullscreenenter"",""1"",""22606""
","
","
","""event"",""trial"",""time""
""fullscreenenter"",""1"",""22606""
","
","","","","","","4039.3000000715256","<p> The kids are happy.<div style='float: left;'><img src='images/i2.png' width = '640' height = '360'></img>","","0","instructions","","","","","","","","","","","","","",""
"learning-instructions","22","317794","0.0-8.0-0.0-0.14","1910","1","2","""event"",""trial"",""time""
""fullscreenenter"",""1"",""22606""
","
","
","""event"",""trial"",""time""
""fullscreenenter"",""1"",""22606""
","
","","","","","","1009.6999999284744","<p> The kids are happy.<div style='float: left;'><img src='images/i3.png' width = '640' height = '360'></img>","","0","instructions","","","","","","","","","","","","","",""
"learning-instructions","23","320934","0.0-8.0-0.0-0.15","1910","1","2","""event"",""trial"",""time""
""fullscreenenter"",""1"",""22606""
","
","
","""event"",""trial"",""time""
""fullscreenenter"",""1"",""22606""
","
","","","","","","959.5999999046326","<p> The kids are happy.<div style='float: left;'><img src='images/i4.png' width = '640' height = '360'></img>","","0","instructions","","","","","","","","","","","","","",""
"learning-instructions","24","324073","0.0-8.0-0.0-0.16","1910","1","2","""event"",""trial"",""time""
""fullscreenenter"",""1"",""22606""
","
","
","""event"",""trial"",""time""
""fullscreenenter"",""1"",""22606""
","
","","","","","","908.9000000953674","<p> The kids are sad.<div style='float: left;'><img src='images/i5.png' width = '640' height = '360'></img>","","0","instructions","","","","","","","","","","","","","",""
"learning-instructions","25","327415","0.0-8.0-0.0-0.17","1910","1","2","""event"",""trial"",""time""
""fullscreenenter"",""1"",""22606""
","
","
","""event"",""trial"",""time""
""fullscreenenter"",""1"",""22606""
","
","","","","","","1161.8999999761581","<p> The kids are happy.<div style='float: left;'><img src='images/i6.png' width = '640' height = '360'></img>","","0","instructions","","","","","","","","","","","","","",""
"learning-instructions","26","337775","0.0-8.0-0.0-0.18","1910","1","2","""event"",""trial"",""time""
""fullscreenenter"",""1"",""22606""
","
","
","""event"",""trial"",""time""
""fullscreenenter"",""1"",""22606""
","
","","","","","","3071.1999999284744","<p> As you can see, selecting that park for the soccer ball made the kids happy most of the time, but not all the time.","","0","instructions","","","","","","","","","","","","","",""
"learning-instructions","27","353974","0.0-8.0-0.0-0.19","1910","1","2","""event"",""trial"",""time""
""fullscreenenter"",""1"",""22606""
","
","
","""event"",""trial"",""time""
""fullscreenenter"",""1"",""22606""
","
","","","","","","10200.600000023842","<p> Now let's see what happens if you choose a DIFFERENT park for the soccer ball 5 times.","","0","instructions","","","","","","","","","","","","","",""
"learning-instructions","28","357114","0.0-8.0-0.0-0.20","1910","1","2","""event"",""trial"",""time""
""fullscreenenter"",""1"",""22606""
","
","
","""event"",""trial"",""time""
""fullscreenenter"",""1"",""22606""
","
","","","","","","930.4000000953674","<p> The kids are sad.<div style='float: left;'><img src='images/i7.png' width = '640' height = '360'></img>","","0","instructions","","","","","","","","","","","","","",""
"learning-instructions","29","359823","0.0-8.0-0.0-0.21","1910","1","2","""event"",""trial"",""time""
""fullscreenenter"",""1"",""22606""
","
","
","""event"",""trial"",""time""
""fullscreenenter"",""1"",""22606""
","
","","","","","","489.2999999523163","<p> The kids are sad.<div style='float: left;'><img src='images/i8.png' width = '640' height = '360'></img>","","0","instructions","","","","","","","","","","","","","",""
"learning-instructions","30","362614","0.0-8.0-0.0-0.22","1910","1","2","""event"",""trial"",""time""
""fullscreenenter"",""1"",""22606""
","
","
","""event"",""trial"",""time""
""fullscreenenter"",""1"",""22606""
","
","","","","","","609.7999999523163","<p> The kids are happy.<div style='float: left;'><img src='images/i9.png' width = '640' height = '360'></img>","","0","instructions","","","","","","","","","","","","","",""
"learning-instructions","31","365555","0.0-8.0-0.0-0.23","1910","1","2","""event"",""trial"",""time""
""fullscreenenter"",""1"",""22606""
","
","
","""event"",""trial"",""time""
""fullscreenenter"",""1"",""22606""
","
","","","","","","730.5","<p> The kids are sad.<div style='float: left;'><img src='images/i10.png' width = '640' height = '360'></img>","","0","instructions","","","","","","","","","","","","","",""
"learning-instructions","32","390204","0.0-8.0-0.0-0.24","1910","1","2","""event"",""trial"",""time""
""fullscreenenter"",""1"",""22606""
","
","
","""event"",""trial"",""time""
""fullscreenenter"",""1"",""22606""
","
","","","","","","22430.299999952316","<p> The kids are sad.<div style='float: left;'><img src='images/i11.png' width = '640' height = '360'></img>","","0","instructions","","","","","","","","","","","","","",""
"learning-instructions","33","404233","0.0-8.0-0.0-0.25","1910","1","2","""event"",""trial"",""time""
""fullscreenenter"",""1"",""22606""
","
","
","""event"",""trial"",""time""
""fullscreenenter"",""1"",""22606""
","
","","","","","","5900","<p> As you can see, selecting the wrong park for the soccer ball made the kids sad most of the time, but not all the time.","","0","instructions","","","","","","","","","","","","","",""
"learning-instructions","34","421405","0.0-8.0-0.0-0.26","1910","1","2","""event"",""trial"",""time""
""fullscreenenter"",""1"",""22606""
","
","
","""event"",""trial"",""time""
""fullscreenenter"",""1"",""22606""
","
","","","","","","8060.300000071526","<p> The different pieces of equipment belong in different parks. You need to try to learn which is the best park for each piece of equipment.","","0","instructions","","","","","","","","","","","","","",""
"learning-instructions","35","449014","0.0-8.0-0.0-0.27","1910","1","2","""event"",""trial"",""time""
""fullscreenenter"",""1"",""22606""
","
","
","""event"",""trial"",""time""
""fullscreenenter"",""1"",""22606""
","
","","","","","","11220.5","<p> Try to choose the best park for each piece of equipment, because you will <b> WIN </b> 1 point for each time you make the kids happy and <b>LOSE</b> 1 point for each time you make them sad. </p><p> Remember, if you make the best choice, you will win 1 point most of the time, but not all the time. </p>","","0","instructions","","","","","","","","","","","","","",""
"learning-instructions","36","455573","0.0-8.0-0.0-0.28","1910","1","2","""event"",""trial"",""time""
""fullscreenenter"",""1"",""22606""
","
","
","""event"",""trial"",""time""
""fullscreenenter"",""1"",""22606""
","
","","","","","","1059.8999999761581","<p> This is just a practice round, but in the real game, your bonus payment will depend on your total number of points.","","0","instructions","","","","","","","","","","","","","",""
"learning-instructions","37","466744","0.0-8.0-0.0-0.29","1910","1","2","""event"",""trial"",""time""
""fullscreenenter"",""1"",""22606""
","
","
","""event"",""trial"",""time""
""fullscreenenter"",""1"",""22606""
","
","","","","","","841.3000000715256","<p> The position where each park appears will change throughout the game. </p><p> The position where the park appears <i> does not </i> influence how likely the kids are to be happy or sad. </p>","","0","instructions","","","","","","","","","","","","","",""
"learning-instructions","38","499254","0.0-8.0-0.0-0.30","1910","1","2","""event"",""trial"",""time""
""fullscreenenter"",""1"",""22606""
","
","
","""event"",""trial"",""time""
""fullscreenenter"",""1"",""22606""
","
","","","","","","18590.899999976158","<p> You will have 4 seconds to make each choice. Try to respond before time runs out! </p><p> You will lose 1 point each time you do not make a response. </p>","","0","instructions","","","","","","","","","","","","","",""
"learning-instructions","39","509004","0.0-8.0-0.0-0.31","1910","1","2","""event"",""trial"",""time""
""fullscreenenter"",""1"",""22606""
","
","
","""event"",""trial"",""time""
""fullscreenenter"",""1"",""22606""
","
","","","","","","2949.7000000476837","<p> Remember, you should use the 1, 2, and 3 keys to select the park for each piece of equipment. </p><br><div class=""choice-instructions-grid""> <div class=""choice-option""><img src=""images/park1.png"" class=""choice-option-img"" stage=""instructions"" position=""0"" ><div class=""choice-option-text""> Press ""1."" </div></div><div class=""choice-option""><img src=""images/park2.png"" class=""choice-option-img"" stage=""instructions"" position=""1"" ><div class=""choice-option-text""> Press ""2."" </div></div><div class=""choice-option""><img src=""images/park3.png"" class=""choice-option-img"" stage=""instructions"" position=""2"" ><div class=""choice-option-text""> Press ""3."" </div></div></div>","","0","instructions","","","","","","","","","","","","","",""
"html-button-response","40","519213","0.0-8.0-1.0","1910","1","2","""event"",""trial"",""time""
""fullscreenenter"",""1"",""22606""
","
","
","""event"",""trial"",""time""
""fullscreenenter"",""1"",""22606""
","
","","","","","","10091","<p> Ready to practice? </p>","0","","","","","","","","","","","","","","","",""
"html-keyboard-response","41","519842","0.0-8.0-2.0-0.0","1910","1","2","""event"",""trial"",""time""
""fullscreenenter"",""1"",""22606""
","
","
","""event"",""trial"",""time""
""fullscreenenter"",""1"",""22606""
","
","","","","","","null","<div style=""font-size:60px;"">+</div>","null","","fixation","","","","","","","","","","","","","",""
"learning-trial","42","523850","0.0-8.0-2.0-1.0","1910","1","2","""event"",""trial"",""time""
""fullscreenenter"",""1"",""22606""
","
","
","""event"",""trial"",""time""
""fullscreenenter"",""1"",""22606""
","
","","","","","","1596.8999999761581","images/ball2.png","","","practice","images/park2.png","images/park1.png","images/park3.png","[1,0,2]","0","1","1","images/park2.png","-1","practice","","","",""
"html-keyboard-response","43","524367","0.0-8.0-2.0-0.1","1910","1","2","""event"",""trial"",""time""
""fullscreenenter"",""1"",""22606""
","
","
","""event"",""trial"",""time""
""fullscreenenter"",""1"",""22606""
","
","","","","","","null","<div style=""font-size:60px;"">+</div>","null","","fixation","","","","","","","","","","","","","",""
"learning-trial","44","528374","0.0-8.0-2.0-1.1","1910","1","2","""event"",""trial"",""time""
""fullscreenenter"",""1"",""22606""
","
","
","""event"",""trial"",""time""
""fullscreenenter"",""1"",""22606""
","
","","","","","","2214.8000000715256","images/ball4.png","","","practice","images/park2.png","images/park1.png","images/park3.png","[1,0,2]","2","2","2","images/park1.png","-1","practice","","","",""
"html-keyboard-response","45","528890","0.0-8.0-2.0-0.2","1910","1","2","""event"",""trial"",""time""
""fullscreenenter"",""1"",""22606""
","
","
","""event"",""trial"",""time""
""fullscreenenter"",""1"",""22606""
","
","","","","","","null","<div style=""font-size:60px;"">+</div>","null","","fixation","","","","","","","","","","","","","",""
"learning-trial","46","532901","0.0-8.0-2.0-1.2","1910","1","2","""event"",""trial"",""time""
""fullscreenenter"",""1"",""22606""
","
","
","""event"",""trial"",""time""
""fullscreenenter"",""1"",""22606""
","
","","","","","","2212.2000000476837","images/ball3.png","","","practice","images/park3.png","images/park2.png","images/park1.png","[2,1,0]","1","1","1","images/park3.png","-1","practice","","","",""
"html-keyboard-response","47","533416","0.0-8.0-2.0-0.3","1910","1","2","""event"",""trial"",""time""
""fullscreenenter"",""1"",""22606""
","
","
","""event"",""trial"",""time""
""fullscreenenter"",""1"",""22606""
","
","","","","","","null","<div style=""font-size:60px;"">+</div>","null","","fixation","","","","","","","","","","","","","",""
"learning-trial","48","537433","0.0-8.0-2.0-1.3","1910","1","2","""event"",""trial"",""time""
""fullscreenenter"",""1"",""22606""
","
","
","""event"",""trial"",""time""
""fullscreenenter"",""1"",""22606""
","
","","","","","","1471.7000000476837","images/ball4.png","","","practice","images/park3.png","images/park2.png","images/park1.png","[2,1,0]","2","0","3","images/park1.png","1","practice","","","",""
"html-keyboard-response","49","537947","0.0-8.0-2.0-0.4","1910","1","2","""event"",""trial"",""time""
""fullscreenenter"",""1"",""22606""
","
","
","""event"",""trial"",""time""
""fullscreenenter"",""1"",""22606""
","
","","","","","","null","<div style=""font-size:60px;"">+</div>","null","","fixation","","","","","","","","","","","","","",""
"learning-trial","50","541956","0.0-8.0-2.0-1.4","1910","1","2","""event"",""trial"",""time""
""fullscreenenter"",""1"",""22606""
","
","
","""event"",""trial"",""time""
""fullscreenenter"",""1"",""22606""
","
","","","","","","1691","images/racket1.png","","","practice","images/park2.png","images/park1.png","images/park3.png","[1,0,2]","2","2","3","images/park3.png","1","practice","","","",""
"html-keyboard-response","51","542470","0.0-8.0-2.0-0.5","1910","1","2","""event"",""trial"",""time""
""fullscreenenter"",""1"",""22606""
","
","
","""event"",""trial"",""time""
""fullscreenenter"",""1"",""22606""
","
","","","","","","null","<div style=""font-size:60px;"">+</div>","null","","fixation","","","","","","","","","","","","","",""
"learning-trial","52","546481","0.0-8.0-2.0-1.5","1910","1","2","""event"",""trial"",""time""
""fullscreenenter"",""1"",""22606""
","
","
","""event"",""trial"",""time""
""fullscreenenter"",""1"",""22606""
","
","","","","","","1255.8999999761581","images/ball1.png","","","practice","images/park3.png","images/park2.png","images/park1.png","[2,1,0]","0","2","2","images/park2.png","-1","practice","","","",""
"html-keyboard-response","53","546992","0.0-8.0-2.0-0.6","1910","1","2","""event"",""trial"",""time""
""fullscreenenter"",""1"",""22606""
","
","
","""event"",""trial"",""time""
""fullscreenenter"",""1"",""22606""
","
","","","","","","null","<div style=""font-size:60px;"">+</div>","null","","fixation","","","","","","","","","","","","","",""
"learning-trial","54","551002","0.0-8.0-2.0-1.6","1910","1","2","""event"",""trial"",""time""
""fullscreenenter"",""1"",""22606""
","
","
","""event"",""trial"",""time""
""fullscreenenter"",""1"",""22606""
","
","","","","","","1614.6000000238419","images/ball2.png","","","practice","images/park1.png","images/park2.png","images/park3.png","[0,1,2]","0","0","1","images/park1.png","1","practice","","","",""
"html-keyboard-response","55","551511","0.0-8.0-2.0-0.7","1910","1","2","""event"",""trial"",""time""
""fullscreenenter"",""1"",""22606""
","
","
","""event"",""trial"",""time""
""fullscreenenter"",""1"",""22606""
","
","","","","","","null","<div style=""font-size:60px;"">+</div>","null","","fixation","","","","","","","","","","","","","",""
"learning-trial","56","555528","0.0-8.0-2.0-1.7","1910","1","2","""event"",""trial"",""time""
""fullscreenenter"",""1"",""22606""
","
","
","""event"",""trial"",""time""
""fullscreenenter"",""1"",""22606""
","
","","","","","","1251.3999999761581","images/racket4.png","","","practice","images/park1.png","images/park2.png","images/park3.png","[0,1,2]","1","1","3","images/park3.png","-1","practice","","","",""
"html-keyboard-response","57","556030","0.0-8.0-2.0-0.8","1910","1","2","""event"",""trial"",""time""
""fullscreenenter"",""1"",""22606""
","
","
","""event"",""trial"",""time""
""fullscreenenter"",""1"",""22606""
","
","","","","","","null","<div style=""font-size:60px;"">+</div>","null","","fixation","","","","","","","","","","","","","",""
"learning-trial","58","560042","0.0-8.0-2.0-1.8","1910","1","2","""event"",""trial"",""time""
""fullscreenenter"",""1"",""22606""
","
","
","""event"",""trial"",""time""
""fullscreenenter"",""1"",""22606""
","
","","","","","","1194.1000000238419","images/racket4.png","","","practice","images/park1.png","images/park2.png","images/park3.png","[0,1,2]","1","1","3","images/park3.png","-1","practice","","","",""
"html-keyboard-response","59","560559","0.0-8.0-2.0-0.9","1910","1","2","""event"",""trial"",""time""
""fullscreenenter"",""1"",""22606""
","
","
","""event"",""trial"",""time""
""fullscreenenter"",""1"",""22606""
","
","","","","","","null","<div style=""font-size:60px;"">+</div>","null","","fixation","","","","","","","","","","","","","",""
"learning-trial","60","564571","0.0-8.0-2.0-1.9","1910","1","2","""event"",""trial"",""time""
""fullscreenenter"",""1"",""22606""
","
","
","""event"",""trial"",""time""
""fullscreenenter"",""1"",""22606""
","
","","","","","","1810.5","images/racket1.png","","","practice","images/park1.png","images/park3.png","images/park2.png","[0,2,1]","2","1","2","images/park3.png","1","practice","","","",""
"html-keyboard-response","61","565090","0.0-8.0-2.0-0.10","1910","1","2","""event"",""trial"",""time""
""fullscreenenter"",""1"",""22606""
","
","
","""event"",""trial"",""time""
""fullscreenenter"",""1"",""22606""
","
","","","","","","null","<div style=""font-size:60px;"">+</div>","null","","fixation","","","","","","","","","","","","","",""
"learning-trial","62","569104","0.0-8.0-2.0-1.10","1910","1","2","""event"",""trial"",""time""
""fullscreenenter"",""1"",""22606""
","
","
","""event"",""trial"",""time""
""fullscreenenter"",""1"",""22606""
","
","","","","","","1826.2999999523163","images/ball3.png","","","practice","images/park1.png","images/park2.png","images/park3.png","[0,1,2]","1","1","2","images/park2.png","1","practice","","","",""
"html-keyboard-response","63","569615","0.0-8.0-2.0-0.11","1910","1","2","""event"",""trial"",""time""
""fullscreenenter"",""1"",""22606""
","
","
","""event"",""trial"",""time""
""fullscreenenter"",""1"",""22606""
","
","","","","","","null","<div style=""font-size:60px;"">+</div>","null","","fixation","","","","","","","","","","","","","",""
"learning-trial","64","573625","0.0-8.0-2.0-1.11","1910","1","2","""event"",""trial"",""time""
""fullscreenenter"",""1"",""22606""
","
","
","""event"",""trial"",""time""
""fullscreenenter"",""1"",""22606""
","
","","","","","","1221.6999999284744","images/ball1.png","","","practice","images/park3.png","images/park2.png","images/park1.png","[2,1,0]","0","2","2","images/park2.png","-1","practice","","","",""
"html-button-response","65","612280","0.0-8.0-3.0","1910","1","2","""event"",""trial"",""time""
""fullscreenenter"",""1"",""22606""
","
","
","""event"",""trial"",""time""
""fullscreenenter"",""1"",""22606""
","
","","","","","","38649.59999990463","<p> You earned -2 points in the practice round! </p>","0","","break","","","","","","","","","","","","","",""
"learning-instructions","66","622435","0.0-8.0-4.0-0.0","1910","1","2","""event"",""trial"",""time""
""fullscreenenter"",""1"",""22606""
","
","
","""event"",""trial"",""time""
""fullscreenenter"",""1"",""22606""
","
","","","","","","2128.4000000953674","<p> It's almost time to start the real game. </p><p> Before you start, we're going to ask you a few questions about how the game works. </p>","","0","instructions","","","","","","","","","","","","","",""
"preload","67","634440","0.0-8.0-5.0","1910","1","2","""event"",""trial"",""time""
""fullscreenenter"",""1"",""22606""
","
","
","""event"",""trial"",""time""
""fullscreenenter"",""1"",""22606""
","
","true","false","[]","[]","[]","","","","","","","","","","","","","","","","","","",""
"comp-q","68","646159","0.0-8.0-6.0-0.0","1910","1","2","""event"",""trial"",""time""
""fullscreenenter"",""1"",""22606""
","
","
","""event"",""trial"",""time""
""fullscreenenter"",""1"",""22606""
","
","","","","","","6270.899999976158","<p> <b> True or False? </b> </p><p> If you choose the best option, you will always earn 1 point. </p>","","0","comp_question","","","","","","","","","","","false","","",""
"comp-q","69","658439","0.0-8.0-6.0-1.0","1910","1","2","""event"",""trial"",""time""
""fullscreenenter"",""1"",""22606""
","
","
","""event"",""trial"",""time""
""fullscreenenter"",""1"",""22606""
","
","","","","","","6722.100000023842","<p><b> Incorrect. </b> Sometimes you will lose 1 point, even if you choose the best option. </p>","","0","comp_answer","","","","","","","","","","","","","",""
"comp-q","70","672527","0.0-8.0-6.0-0.1","1910","1","2","""event"",""trial"",""time""
""fullscreenenter"",""1"",""22606""
","
","
","""event"",""trial"",""time""
""fullscreenenter"",""1"",""22606""
","
","","","","","","9439.399999976158","<p> <b> True or False? </b> </p><p> You will have as much time as you want to make each choice. </p>","","1","comp_question","","","","","","","","","","","true","","",""
"comp-q","71","679520","0.0-8.0-6.0-1.1","1910","1","2","""event"",""trial"",""time""
""fullscreenenter"",""1"",""22606""
","
","
","""event"",""trial"",""time""
""fullscreenenter"",""1"",""22606""
","
","","","","","","2162.2999999523163","<p> <b> That's right! </b> You will only have 4 seconds to make each choice. </p>","","0","comp_answer","","","","","","","","","","","","","",""
"comp-q","72","687648","0.0-8.0-6.0-0.2","1910","1","2","""event"",""trial"",""time""
""fullscreenenter"",""1"",""22606""
","
","
","""event"",""trial"",""time""
""fullscreenenter"",""1"",""22606""
","
","","","","","","1970.2999999523163","<p> <b> True or False? </b> </p><p> You should use the '1', '2', and '3' keys to make your choices. </p>","","0","comp_question","","","","","","","","","","","true","","",""
"comp-q","73","705875","0.0-8.0-6.0-1.2","1910","1","2","""event"",""trial"",""time""
""fullscreenenter"",""1"",""22606""
","
","
","""event"",""trial"",""time""
""fullscreenenter"",""1"",""22606""
","
","","","","","","13367.5","<p> <b> That's right! </b> You should use the '1', '2', and '3' keys to make each choice. </p>","","0","comp_answer","","","","","","","","","","","","","",""
"learning-instructions","74","716716","0.0-8.0-7.0-0.0","1910","1","2","""event"",""trial"",""time""
""fullscreenenter"",""1"",""22606""
","
","
","""event"",""trial"",""time""
""fullscreenenter"",""1"",""22606""
","
","","","","","","2338","<p> It's now time to start the real game. </p>Do your best, because the points you earn in the next rounds will influence your bonus payment. </p>","","0","instructions","","","","","","","","","","","","","",""
"preload","75","737674","0.0-9.0-0.0","1910","1","2","""event"",""trial"",""time""
""fullscreenenter"",""1"",""22606""
","
","
","""event"",""trial"",""time""
""fullscreenenter"",""1"",""22606""
","
","true","false","[]","[]","[]","","","","","","","","","","","","","","","","","","",""
"learning-instructions","76","746707","0.0-9.0-1.0-0.0","1910","1","2","""event"",""trial"",""time""
""fullscreenenter"",""1"",""22606""
","
","
","""event"",""trial"",""time""
""fullscreenenter"",""1"",""22606""
","
","","","","","","1250.2000000476837","<p> Your goal in this round is to deliver furniture to three different buildings. </p><p> You will need to deliver many pieces of furniture. </p></div>","","0","instructions","","","","","","","","","","","","","",""
"learning-instructions","77","757615","0.0-9.0-1.0-0.1","1910","1","2","""event"",""trial"",""time""
""fullscreenenter"",""1"",""22606""
","
","
","""event"",""trial"",""time""
""fullscreenenter"",""1"",""22606""
","
","","","","","","3468.2000000476837","<p> On each turn, you will see a picture of a furniture item and three different buildings.  </p><p> You need to select the building that you want to deliver the furniture to.  </p>","","0","instructions","","","","","","","","","","","","","",""
"learning-instructions","78","767487","0.0-9.0-1.0-0.2","1910","1","2","""event"",""trial"",""time""
""fullscreenenter"",""1"",""22606""
","
","
","""event"",""trial"",""time""
""fullscreenenter"",""1"",""22606""
","
","","","","","","1569.2999999523163","<p> You can select the building on the left by pressing 1, the building in the middle by pressing 2, and the building on the right by pressing 3.  </p><br><div class=""choice-instructions-grid""> <div class=""choice-option""><img src=""images/furniture_choice1.png"" class=""choice-option-img"" stage=""instructions"" position=""0"" ><div class=""choice-option-text""> Press ""1."" </div></div><div class=""choice-option""><img src=""images/furniture_choice2.png"" class=""choice-option-img"" stage=""instructions"" position=""1"" ><div class=""choice-option-text""> Press ""2."" </div></div><div class=""choice-option""><img src=""images/furniture_choice3.png"" class=""choice-option-img"" stage=""instructions"" position=""2"" ><div class=""choice-option-text""> Press ""3."" </div></div></div>","","0","instructions","","","","","","","","","","","","","",""
"learning-instructions","79","782107","0.0-9.0-1.0-0.3","1910","1","2","""event"",""trial"",""time""
""fullscreenenter"",""1"",""22606""
","
","
","""event"",""trial"",""time""
""fullscreenenter"",""1"",""22606""
","
","","","","","","8579.599999904633","<p> If the furniture belongs in the building you chose, the building owner will likely be very happy! </p><div style='float: center;'><img src='images/check.png' width = '200' height = '200'></img>","","0","instructions","","","","","","","","","","","","","",""
"learning-instructions","80","791386","0.0-9.0-1.0-0.4","1910","1","2","""event"",""trial"",""time""
""fullscreenenter"",""1"",""22606""
","
","
","""event"",""trial"",""time""
""fullscreenenter"",""1"",""22606""
","
","","","","","","3278.5","<p> But, if the furniture does not belong in the building you chose, the owner will likely be mad. </p><div style='float: center;'><img src='images/x.png' width = '200' height = '200'></img>","","0","instructions","","","","","","","","","","","","","",""
"learning-instructions","81","809268","0.0-9.0-1.0-0.5","1910","1","2","""event"",""trial"",""time""
""fullscreenenter"",""1"",""22606""
","
","
","""event"",""trial"",""time""
""fullscreenenter"",""1"",""22606""
","
","","","","","","6660.300000071526","<p> Importantly, each piece of furniture belongs in one of the three buildings. </p><p> If you choose the correct building for the piece of furniture, you will be more likely to make the building owner happy! </p>","","0","instructions","","","","","","","","","","","","","",""
"learning-instructions","82","822638","0.0-9.0-1.0-0.6","1910","1","2","""event"",""trial"",""time""
""fullscreenenter"",""1"",""22606""
","
","
","""event"",""trial"",""time""
""fullscreenenter"",""1"",""22606""
","
","","","","","","1840.1000000238419","<p> However, even if you choose the best building for the furniture, the owner may still be mad sometimes. </p><p> Similarly, even if you choose the <i>wrong</i> building, the owner may still be happy.","","0","instructions","","","","","","","","","","","","","",""
"learning-instructions","83","837487","0.0-9.0-1.0-0.7","1910","1","2","""event"",""trial"",""time""
""fullscreenenter"",""1"",""22606""
","
","
","""event"",""trial"",""time""
""fullscreenenter"",""1"",""22606""
","
","","","","","","1589.3999999761581","<p> Try to choose the best building for each piece of furniture, because you will <b> WIN </b> 1 point each time a building owner is happy and <b>LOSE</b>  1 point each time a building owner is mad. </p><p> Your bonus payment will depend on your total number of points.","","0","instructions","","","","","","","","","","","","","",""
"learning-instructions","84","846905","0.0-9.0-1.0-0.8","1910","1","2","""event"",""trial"",""time""
""fullscreenenter"",""1"",""22606""
","
","
","""event"",""trial"",""time""
""fullscreenenter"",""1"",""22606""
","
","","","","","","436.1999999284744","<p> The position of each building will change throughout the round. </p><p> The building's position <i> does not </i> influence how likely the owner is to be happy or mad. </p>","","0","instructions","","","","","","","","","","","","","",""
"learning-instructions","85","857004","0.0-9.0-1.0-0.9","1910","1","2","""event"",""trial"",""time""
""fullscreenenter"",""1"",""22606""
","
","
","""event"",""trial"",""time""
""fullscreenenter"",""1"",""22606""
","
","","","","","","805.6999999284744","<p> You will have 4 seconds to make each choice. Try to respond before time runs out! </p><p> You will lose 1 point each time you do not make a response. </p>","","0","instructions","","","","","","","","","","","","","",""
"html-keyboard-response","86","857625","0.0-9.0-2.0-0.0","1910","1","2","""event"",""trial"",""time""
""fullscreenenter"",""1"",""22606""
","
","
","""event"",""trial"",""time""
""fullscreenenter"",""1"",""22606""
","
","","","","","","null","<div style=""font-size:60px;"">+</div>","null","","fixation","","","","","","","","","","","","","",""
"learning-trial","87","861636","0.0-9.0-2.0-1.0","1910","1","2","""event"",""trial"",""time""
""fullscreenenter"",""1"",""22606""
","
","
","""event"",""trial"",""time""
""fullscreenenter"",""1"",""22606""
","
","","","","","","1739","images/chair3.png","","","learning","images/furniture_choice2.png","images/furniture_choice3.png","images/furniture_choice1.png","[1,2,0]","0","2","3","images/furniture_choice1.png","1","furniture","","chair","1","0"
"html-keyboard-response","88","862155","0.0-9.0-2.0-0.1","1910","1","2","""event"",""trial"",""time""
""fullscreenenter"",""1"",""22606""
","
","
","""event"",""trial"",""time""
""fullscreenenter"",""1"",""22606""
","
","","","","","","null","<div style=""font-size:60px;"">+</div>","null","","fixation","","","","","","","","","","","","","",""
"learning-trial","89","866176","0.0-9.0-2.0-1.1","1910","1","2","""event"",""trial"",""time""
""fullscreenenter"",""1"",""22606""
","
","
","""event"",""trial"",""time""
""fullscreenenter"",""1"",""22606""
","
","","","","","","948.6000000238419","images/chair3.png","","","learning","images/furniture_choice3.png","images/furniture_choice2.png","images/furniture_choice1.png","[2,1,0]","0","2","3","images/furniture_choice1.png","1","furniture","","chair","1","0"
"html-keyboard-response","90","866687","0.0-9.0-2.0-0.2","1910","1","2","""event"",""trial"",""time""
""fullscreenenter"",""1"",""22606""
","
","
","""event"",""trial"",""time""
""fullscreenenter"",""1"",""22606""
","
","","","","","","null","<div style=""font-size:60px;"">+</div>","null","","fixation","","","","","","","","","","","","","",""
"learning-trial","91","870695","0.0-9.0-2.0-1.2","1910","1","2","""event"",""trial"",""time""
""fullscreenenter"",""1"",""22606""
","
","
","""event"",""trial"",""time""
""fullscreenenter"",""1"",""22606""
","
","","","","","","1225.6000000238419","images/bed3.png","","","learning","images/furniture_choice1.png","images/furniture_choice2.png","images/furniture_choice3.png","[0,1,2]","2","2","2","images/furniture_choice2.png","-1","furniture","","bed","1","0"
"html-keyboard-response","92","871205","0.0-9.0-2.0-0.3","1910","1","2","""event"",""trial"",""time""
""fullscreenenter"",""1"",""22606""
","
","
","""event"",""trial"",""time""
""fullscreenenter"",""1"",""22606""
","
","","","","","","null","<div style=""font-size:60px;"">+</div>","null","","fixation","","","","","","","","","","","","","",""
"learning-trial","93","875225","0.0-9.0-2.0-1.3","1910","1","2","""event"",""trial"",""time""
""fullscreenenter"",""1"",""22606""
","
","
","""event"",""trial"",""time""
""fullscreenenter"",""1"",""22606""
","
","","","","","","1963.6000000238419","images/chair1.png","","","learning","images/furniture_choice3.png","images/furniture_choice2.png","images/furniture_choice1.png","[2,1,0]","0","2","2","images/furniture_choice2.png","-1","furniture","","chair","1","0"
"html-keyboard-response","94","875745","0.0-9.0-2.0-0.4","1910","1","2","""event"",""trial"",""time""
""fullscreenenter"",""1"",""22606""
","
","
","""event"",""trial"",""time""
""fullscreenenter"",""1"",""22606""
","
","","","","","","null","<div style=""font-size:60px;"">+</div>","null","","fixation","","","","","","","","","","","","","",""
"learning-trial","95","879765","0.0-9.0-2.0-1.4","1910","1","2","""event"",""trial"",""time""
""fullscreenenter"",""1"",""22606""
","
","
","""event"",""trial"",""time""
""fullscreenenter"",""1"",""22606""
","
","","","","","","1981.2999999523163","images/bed2.png","","","learning","images/furniture_choice2.png","images/furniture_choice3.png","images/furniture_choice1.png","[1,2,0]","2","1","2","images/furniture_choice3.png","1","furniture","","bed","1","0"
"html-keyboard-response","96","880284","0.0-9.0-2.0-0.5","1910","1","2","""event"",""trial"",""time""
""fullscreenenter"",""1"",""22606""
","
","
","""event"",""trial"",""time""
""fullscreenenter"",""1"",""22606""
","
","","","","","","null","<div style=""font-size:60px;"">+</div>","null","","fixation","","","","","","","","","","","","","",""
"learning-trial","97","884305","0.0-9.0-2.0-1.5","1910","1","2","""event"",""trial"",""time""
""fullscreenenter"",""1"",""22606""
","
","
","""event"",""trial"",""time""
""fullscreenenter"",""1"",""22606""
","
","","","","","","1625.5999999046326","images/chair2.png","","","learning","images/furniture_choice1.png","images/furniture_choice2.png","images/furniture_choice3.png","[0,1,2]","0","0","1","images/furniture_choice1.png","1","furniture","","chair","1","0"
"html-keyboard-response","98","884811","0.0-9.0-2.0-0.6","1910","1","2","""event"",""trial"",""time""
""fullscreenenter"",""1"",""22606""
","
","
","""event"",""trial"",""time""
""fullscreenenter"",""1"",""22606""
","
","","","","","","null","<div style=""font-size:60px;"">+</div>","null","","fixation","","","","","","","","","","","","","",""
"learning-trial","99","888822","0.0-9.0-2.0-1.6","1910","1","2","""event"",""trial"",""time""
""fullscreenenter"",""1"",""22606""
","
","
","""event"",""trial"",""time""
""fullscreenenter"",""1"",""22606""
","
","","","","","","1358","images/chair1.png","","","learning","images/furniture_choice2.png","images/furniture_choice3.png","images/furniture_choice1.png","[1,2,0]","0","2","2","images/furniture_choice3.png","-1","furniture","","chair","1","0"
"html-keyboard-response","100","889339","0.0-9.0-2.0-0.7","1910","1","2","""event"",""trial"",""time""
""fullscreenenter"",""1"",""22606""
","
","
","""event"",""trial"",""time""
""fullscreenenter"",""1"",""22606""
","
","","","","","","null","<div style=""font-size:60px;"">+</div>","null","","fixation","","","","","","","","","","","","","",""
"learning-trial","101","893353","0.0-9.0-2.0-1.7","1910","1","2","""event"",""trial"",""time""
""fullscreenenter"",""1"",""22606""
","
","
","""event"",""trial"",""time""
""fullscreenenter"",""1"",""22606""
","
","","","","","","2118.3000000715256","images/bed2.png","","","learning","images/furniture_choice1.png","images/furniture_choice3.png","images/furniture_choice2.png","[0,2,1]","2","1","2","images/furniture_choice3.png","-1","furniture","","bed","1","0"
"html-keyboard-response","102","893858","0.0-9.0-2.0-0.8","1910","1","2","""event"",""trial"",""time""
""fullscreenenter"",""1"",""22606""
","
","
","""event"",""trial"",""time""
""fullscreenenter"",""1"",""22606""
","
","","","","","","null","<div style=""font-size:60px;"">+</div>","null","","fixation","","","","","","","","","","","","","",""
"learning-trial","103","897864","0.0-9.0-2.0-1.8","1910","1","2","""event"",""trial"",""time""
""fullscreenenter"",""1"",""22606""
","
","
","""event"",""trial"",""time""
""fullscreenenter"",""1"",""22606""
","
","","","","","","1347.4000000953674","images/chair1.png","","","learning","images/furniture_choice2.png","images/furniture_choice1.png","images/furniture_choice3.png","[1,0,2]","0","1","3","images/furniture_choice3.png","1","furniture","","chair","1","0"
"html-keyboard-response","104","898375","0.0-9.0-2.0-0.9","1910","1","2","""event"",""trial"",""time""
""fullscreenenter"",""1"",""22606""
","
","
","""event"",""trial"",""time""
""fullscreenenter"",""1"",""22606""
","
","","","","","","null","<div style=""font-size:60px;"">+</div>","null","","fixation","","","","","","","","","","","","","",""
"learning-trial","105","902383","0.0-9.0-2.0-1.9","1910","1","2","""event"",""trial"",""time""
""fullscreenenter"",""1"",""22606""
","
","
","""event"",""trial"",""time""
""fullscreenenter"",""1"",""22606""
","
","","","","","","1347.1000000238419","images/chair2.png","","","learning","images/furniture_choice2.png","images/furniture_choice3.png","images/furniture_choice1.png","[1,2,0]","0","2","1","images/furniture_choice2.png","-1","furniture","","chair","1","0"
"html-keyboard-response","106","902895","0.0-9.0-2.0-0.10","1910","1","2","""event"",""trial"",""time""
""fullscreenenter"",""1"",""22606""
","
","
","""event"",""trial"",""time""
""fullscreenenter"",""1"",""22606""
","
","","","","","","null","<div style=""font-size:60px;"">+</div>","null","","fixation","","","","","","","","","","","","","",""
"learning-trial","107","906904","0.0-9.0-2.0-1.10","1910","1","2","""event"",""trial"",""time""
""fullscreenenter"",""1"",""22606""
","
","
","""event"",""trial"",""time""
""fullscreenenter"",""1"",""22606""
","
","","","","","","870.2000000476837","images/chair2.png","","","learning","images/furniture_choice1.png","images/furniture_choice2.png","images/furniture_choice3.png","[0,1,2]","0","0","3","images/furniture_choice3.png","-1","furniture","","chair","1","0"
"html-keyboard-response","108","907413","0.0-9.0-2.0-0.11","1910","1","2","""event"",""trial"",""time""
""fullscreenenter"",""1"",""22606""
","
","
","""event"",""trial"",""time""
""fullscreenenter"",""1"",""22606""
","
","","","","","","null","<div style=""font-size:60px;"">+</div>","null","","fixation","","","","","","","","","","","","","",""
"learning-trial","109","911422","0.0-9.0-2.0-1.11","1910","1","2","""event"",""trial"",""time""
""fullscreenenter"",""1"",""22606""
","
","
","""event"",""trial"",""time""
""fullscreenenter"",""1"",""22606""
","
","","","","","","991.2999999523163","images/chair2.png","","","learning","images/furniture_choice2.png","images/furniture_choice1.png","images/furniture_choice3.png","[1,0,2]","0","1","2","images/furniture_choice1.png","1","furniture","","chair","1","0"
"html-keyboard-response","110","911938","0.0-9.0-2.0-0.12","1910","1","2","""event"",""trial"",""time""
""fullscreenenter"",""1"",""22606""
","
","
","""event"",""trial"",""time""
""fullscreenenter"",""1"",""22606""
","
","","","","","","null","<div style=""font-size:60px;"">+</div>","null","","fixation","","","","","","","","","","","","","",""
"learning-trial","111","915955","0.0-9.0-2.0-1.12","1910","1","2","""event"",""trial"",""time""
""fullscreenenter"",""1"",""22606""
","
","
","""event"",""trial"",""time""
""fullscreenenter"",""1"",""22606""
","
","","","","","","2051.7999999523163","images/bed1.png","","","learning","images/furniture_choice1.png","images/furniture_choice2.png","images/furniture_choice3.png","[0,1,2]","2","2","3","images/furniture_choice3.png","1","furniture","","bed","1","0"
"html-keyboard-response","112","916460","0.0-9.0-2.0-0.13","1910","1","2","""event"",""trial"",""time""
""fullscreenenter"",""1"",""22606""
","
","
","""event"",""trial"",""time""
""fullscreenenter"",""1"",""22606""
","
","","","","","","null","<div style=""font-size:60px;"">+</div>","null","","fixation","","","","","","","","","","","","","",""
"learning-trial","113","920469","0.0-9.0-2.0-1.13","1910","1","2","""event"",""trial"",""time""
""fullscreenenter"",""1"",""22606""
","
","
","""event"",""trial"",""time""
""fullscreenenter"",""1"",""22606""
","
","","","","","","2279.4000000953674","images/bed3.png","","","learning","images/furniture_choice1.png","images/furniture_choice2.png","images/furniture_choice3.png","[0,1,2]","2","2","2","images/furniture_choice2.png","-1","furniture","","bed","1","0"
"html-keyboard-response","114","920984","0.0-9.0-2.0-0.14","1910","1","2","""event"",""trial"",""time""
""fullscreenenter"",""1"",""22606""
","
","
","""event"",""trial"",""time""
""fullscreenenter"",""1"",""22606""
","
","","","","","","null","<div style=""font-size:60px;"">+</div>","null","","fixation","","","","","","","","","","","","","",""
"learning-trial","115","924995","0.0-9.0-2.0-1.14","1910","1","2","""event"",""trial"",""time""
""fullscreenenter"",""1"",""22606""
","
","
","""event"",""trial"",""time""
""fullscreenenter"",""1"",""22606""
","
","","","","","","1303.6999999284744","images/bed3.png","","","learning","images/furniture_choice2.png","images/furniture_choice3.png","images/furniture_choice1.png","[1,2,0]","2","1","2","images/furniture_choice3.png","1","furniture","","bed","1","0"
"html-keyboard-response","116","925500","0.0-9.0-2.0-0.15","1910","1","2","""event"",""trial"",""time""
""fullscreenenter"",""1"",""22606""
","
","
","""event"",""trial"",""time""
""fullscreenenter"",""1"",""22606""
","
","","","","","","null","<div style=""font-size:60px;"">+</div>","null","","fixation","","","","","","","","","","","","","",""
"learning-trial","117","929520","0.0-9.0-2.0-1.15","1910","1","2","""event"",""trial"",""time""
""fullscreenenter"",""1"",""22606""
","
","
","""event"",""trial"",""time""
""fullscreenenter"",""1"",""22606""
","
","","","","","","2063.600000023842","images/sofa5.png","","","learning","images/furniture_choice1.png","images/furniture_choice2.png","images/furniture_choice3.png","[0,1,2]","1","1","3","images/furniture_choice3.png","-1","furniture","","sofa","1","0"
"html-keyboard-response","118","930031","0.0-9.0-2.0-0.16","1910","1","2","""event"",""trial"",""time""
""fullscreenenter"",""1"",""22606""
","
","
","""event"",""trial"",""time""
""fullscreenenter"",""1"",""22606""
","
","","","","","","null","<div style=""font-size:60px;"">+</div>","null","","fixation","","","","","","","","","","","","","",""
"learning-trial","119","934044","0.0-9.0-2.0-1.16","1910","1","2","""event"",""trial"",""time""
""fullscreenenter"",""1"",""22606""
","
","
","""event"",""trial"",""time""
""fullscreenenter"",""1"",""22606""
","
","","","","","","1715.6000000238419","images/sofa1.png","","","learning","images/furniture_choice1.png","images/furniture_choice2.png","images/furniture_choice3.png","[0,1,2]","1","1","2","images/furniture_choice2.png","1","furniture","","sofa","1","0"
"html-keyboard-response","120","934550","0.0-9.0-2.0-0.17","1910","1","2","""event"",""trial"",""time""
""fullscreenenter"",""1"",""22606""
","
","
","""event"",""trial"",""time""
""fullscreenenter"",""1"",""22606""
","
","","","","","","null","<div style=""font-size:60px;"">+</div>","null","","fixation","","","","","","","","","","","","","",""
"learning-trial","121","938562","0.0-9.0-2.0-1.17","1910","1","2","""event"",""trial"",""time""
""fullscreenenter"",""1"",""22606""
","
","
","""event"",""trial"",""time""
""fullscreenenter"",""1"",""22606""
","
","","","","","","2035.7000000476837","images/chair2.png","","","learning","images/furniture_choice3.png","images/furniture_choice2.png","images/furniture_choice1.png","[2,1,0]","0","2","1","images/furniture_choice3.png","-1","furniture","","chair","1","0"
"html-keyboard-response","122","939072","0.0-9.0-2.0-0.18","1910","1","2","""event"",""trial"",""time""
""fullscreenenter"",""1"",""22606""
","
","
","""event"",""trial"",""time""
""fullscreenenter"",""1"",""22606""
","
","","","","","","null","<div style=""font-size:60px;"">+</div>","null","","fixation","","","","","","","","","","","","","",""
"learning-trial","123","943088","0.0-9.0-2.0-1.18","1910","1","2","""event"",""trial"",""time""
""fullscreenenter"",""1"",""22606""
","
","
","""event"",""trial"",""time""
""fullscreenenter"",""1"",""22606""
","
","","","","","","1278.6000000238419","images/sofa2.png","","","learning","images/furniture_choice1.png","images/furniture_choice2.png","images/furniture_choice3.png","[0,1,2]","1","1","2","images/furniture_choice2.png","1","furniture","","sofa","1","0"
"html-keyboard-response","124","943591","0.0-9.0-2.0-0.19","1910","1","2","""event"",""trial"",""time""
""fullscreenenter"",""1"",""22606""
","
","
","""event"",""trial"",""time""
""fullscreenenter"",""1"",""22606""
","
","","","","","","null","<div style=""font-size:60px;"">+</div>","null","","fixation","","","","","","","","","","","","","",""
"learning-trial","125","947603","0.0-9.0-2.0-1.19","1910","1","2","""event"",""trial"",""time""
""fullscreenenter"",""1"",""22606""
","
","
","""event"",""trial"",""time""
""fullscreenenter"",""1"",""22606""
","
","","","","","","1137.5","images/bed3.png","","","learning","images/furniture_choice3.png","images/furniture_choice2.png","images/furniture_choice1.png","[2,1,0]","2","0","2","images/furniture_choice2.png","1","furniture","","bed","1","0"
"html-keyboard-response","126","948106","0.0-9.0-2.0-0.20","1910","1","2","""event"",""trial"",""time""
""fullscreenenter"",""1"",""22606""
","
","
","""event"",""trial"",""time""
""fullscreenenter"",""1"",""22606""
","
","","","","","","null","<div style=""font-size:60px;"">+</div>","null","","fixation","","","","","","","","","","","","","",""
"learning-trial","127","952113","0.0-9.0-2.0-1.20","1910","1","2","""event"",""trial"",""time""
""fullscreenenter"",""1"",""22606""
","
","
","""event"",""trial"",""time""
""fullscreenenter"",""1"",""22606""
","
","","","","","","993.2000000476837","images/sofa5.png","","","learning","images/furniture_choice3.png","images/furniture_choice2.png","images/furniture_choice1.png","[2,1,0]","1","1","3","images/furniture_choice1.png","-1","furniture","","sofa","1","0"
"html-keyboard-response","128","952619","0.0-9.0-2.0-0.21","1910","1","2","""event"",""trial"",""time""
""fullscreenenter"",""1"",""22606""
","
","
","""event"",""trial"",""time""
""fullscreenenter"",""1"",""22606""
","
","","","","","","null","<div style=""font-size:60px;"">+</div>","null","","fixation","","","","","","","","","","","","","",""
"learning-trial","129","956625","0.0-9.0-2.0-1.21","1910","1","2","""event"",""trial"",""time""
""fullscreenenter"",""1"",""22606""
","
","
","""event"",""trial"",""time""
""fullscreenenter"",""1"",""22606""
","
","","","","","","1418.1000000238419","images/chair3.png","","","learning","images/furniture_choice1.png","images/furniture_choice2.png","images/furniture_choice3.png","[0,1,2]","0","0","1","images/furniture_choice1.png","1","furniture","","chair","1","0"
"html-keyboard-response","130","957135","0.0-9.0-2.0-0.22","1910","1","2","""event"",""trial"",""time""
""fullscreenenter"",""1"",""22606""
","
","
","""event"",""trial"",""time""
""fullscreenenter"",""1"",""22606""
","
","","","","","","null","<div style=""font-size:60px;"">+</div>","null","","fixation","","","","","","","","","","","","","",""
"learning-trial","131","961147","0.0-9.0-2.0-1.22","1910","1","2","""event"",""trial"",""time""
""fullscreenenter"",""1"",""22606""
","
","
","""event"",""trial"",""time""
""fullscreenenter"",""1"",""22606""
","
","","","","","","1623.9000000953674","images/sofa2.png","","","learning","images/furniture_choice3.png","images/furniture_choice1.png","images/furniture_choice2.png","[2,0,1]","1","2","1","images/furniture_choice3.png","-1","furniture","","sofa","1","0"
"html-keyboard-response","132","961659","0.0-9.0-2.0-0.23","1910","1","2","""event"",""trial"",""time""
""fullscreenenter"",""1"",""22606""
","
","
","""event"",""trial"",""time""
""fullscreenenter"",""1"",""22606""
","
","","","","","","null","<div style=""font-size:60px;"">+</div>","null","","fixation","","","","","","","","","","","","","",""
"learning-trial","133","965671","0.0-9.0-2.0-1.23","1910","1","2","""event"",""trial"",""time""
""fullscreenenter"",""1"",""22606""
","
","
","""event"",""trial"",""time""
""fullscreenenter"",""1"",""22606""
","
","","","","","","1076.1999999284744","images/bed1.png","","","learning","images/furniture_choice1.png","images/furniture_choice3.png","images/furniture_choice2.png","[0,2,1]","2","1","2","images/furniture_choice3.png","1","furniture","","bed","1","0"
"html-keyboard-response","134","966176","0.0-9.0-2.0-0.24","1910","1","2","""event"",""trial"",""time""
""fullscreenenter"",""1"",""22606""
","
","
","""event"",""trial"",""time""
""fullscreenenter"",""1"",""22606""
","
","","","","","","null","<div style=""font-size:60px;"">+</div>","null","","fixation","","","","","","","","","","","","","",""
"learning-trial","135","970193","0.0-9.0-2.0-1.24","1910","1","2","""event"",""trial"",""time""
""fullscreenenter"",""1"",""22606""
","
","
","""event"",""trial"",""time""
""fullscreenenter"",""1"",""22606""
","
","","","","","","606.3999999761581","images/bed1.png","","","learning","images/furniture_choice1.png","images/furniture_choice3.png","images/furniture_choice2.png","[0,2,1]","2","1","3","images/furniture_choice2.png","1","furniture","","bed","1","0"
"html-keyboard-response","136","970698","0.0-9.0-2.0-0.25","1910","1","2","""event"",""trial"",""time""
""fullscreenenter"",""1"",""22606""
","
","
","""event"",""trial"",""time""
""fullscreenenter"",""1"",""22606""
","
","","","","","","null","<div style=""font-size:60px;"">+</div>","null","","fixation","","","","","","","","","","","","","",""
"learning-trial","137","974709","0.0-9.0-2.0-1.25","1910","1","2","""event"",""trial"",""time""
""fullscreenenter"",""1"",""22606""
","
","
","""event"",""trial"",""time""
""fullscreenenter"",""1"",""22606""
","
","","","","","","1674.3999999761581","images/sofa5.png","","","learning","images/furniture_choice1.png","images/furniture_choice2.png","images/furniture_choice3.png","[0,1,2]","1","1","2","images/furniture_choice2.png","1","furniture","","sofa","1","0"
"html-keyboard-response","138","975216","0.0-9.0-2.0-0.26","1910","1","2","""event"",""trial"",""time""
""fullscreenenter"",""1"",""22606""
","
","
","""event"",""trial"",""time""
""fullscreenenter"",""1"",""22606""
","
","","","","","","null","<div style=""font-size:60px;"">+</div>","null","","fixation","","","","","","","","","","","","","",""
"learning-trial","139","979223","0.0-9.0-2.0-1.26","1910","1","2","""event"",""trial"",""time""
""fullscreenenter"",""1"",""22606""
","
","
","""event"",""trial"",""time""
""fullscreenenter"",""1"",""22606""
","
","","","","","","671.3999999761581","images/sofa1.png","","","learning","images/furniture_choice3.png","images/furniture_choice2.png","images/furniture_choice1.png","[2,1,0]","1","1","3","images/furniture_choice1.png","1","furniture","","sofa","1","0"
"html-keyboard-response","140","979730","0.0-9.0-2.0-0.27","1910","1","2","""event"",""trial"",""time""
""fullscreenenter"",""1"",""22606""
","
","
","""event"",""trial"",""time""
""fullscreenenter"",""1"",""22606""
","
","","","","","","null","<div style=""font-size:60px;"">+</div>","null","","fixation","","","","","","","","","","","","","",""
"learning-trial","141","983738","0.0-9.0-2.0-1.27","1910","1","2","""event"",""trial"",""time""
""fullscreenenter"",""1"",""22606""
","
","
","""event"",""trial"",""time""
""fullscreenenter"",""1"",""22606""
","
","","","","","","468.6999999284744","images/chair3.png","","","learning","images/furniture_choice3.png","images/furniture_choice2.png","images/furniture_choice1.png","[2,1,0]","0","2","2","images/furniture_choice2.png","-1","furniture","","chair","1","0"
"html-keyboard-response","142","984245","0.0-9.0-2.0-0.28","1910","1","2","""event"",""trial"",""time""
""fullscreenenter"",""1"",""22606""
","
","
","""event"",""trial"",""time""
""fullscreenenter"",""1"",""22606""
","
","","","","","","null","<div style=""font-size:60px;"">+</div>","null","","fixation","","","","","","","","","","","","","",""
"learning-trial","143","988251","0.0-9.0-2.0-1.28","1910","1","2","""event"",""trial"",""time""
""fullscreenenter"",""1"",""22606""
","
","
","""event"",""trial"",""time""
""fullscreenenter"",""1"",""22606""
","
","","","","","","860.7000000476837","images/bed2.png","","","learning","images/furniture_choice2.png","images/furniture_choice1.png","images/furniture_choice3.png","[1,0,2]","2","2","2","images/furniture_choice1.png","-1","furniture","","bed","1","0"
"html-keyboard-response","144","988766","0.0-9.0-2.0-0.29","1910","1","2","""event"",""trial"",""time""
""fullscreenenter"",""1"",""22606""
","
","
","""event"",""trial"",""time""
""fullscreenenter"",""1"",""22606""
","
","","","","","","null","<div style=""font-size:60px;"">+</div>","null","","fixation","","","","","","","","","","","","","",""
"learning-trial","145","992777","0.0-9.0-2.0-1.29","1910","1","2","""event"",""trial"",""time""
""fullscreenenter"",""1"",""22606""
","
","
","""event"",""trial"",""time""
""fullscreenenter"",""1"",""22606""
","
","","","","","","885.1000000238419","images/chair1.png","","","learning","images/furniture_choice2.png","images/furniture_choice1.png","images/furniture_choice3.png","[1,0,2]","0","1","1","images/furniture_choice2.png","1","furniture","","chair","1","0"
"html-keyboard-response","146","993281","0.0-9.0-2.0-0.30","1910","1","2","""event"",""trial"",""time""
""fullscreenenter"",""1"",""22606""
","
","
","""event"",""trial"",""time""
""fullscreenenter"",""1"",""22606""
","
","","","","","","null","<div style=""font-size:60px;"">+</div>","null","","fixation","","","","","","","","","","","","","",""
"learning-trial","147","997293","0.0-9.0-2.0-1.30","1910","1","2","""event"",""trial"",""time""
""fullscreenenter"",""1"",""22606""
","
","
","""event"",""trial"",""time""
""fullscreenenter"",""1"",""22606""
","
","","","","","","1334.7999999523163","images/sofa5.png","","","learning","images/furniture_choice3.png","images/furniture_choice2.png","images/furniture_choice1.png","[2,1,0]","1","1","3","images/furniture_choice1.png","1","furniture","","sofa","1","0"
"html-keyboard-response","148","997801","0.0-9.0-2.0-0.31","1910","1","2","""event"",""trial"",""time""
""fullscreenenter"",""1"",""22606""
","
","
","""event"",""trial"",""time""
""fullscreenenter"",""1"",""22606""
","
","","","","","","null","<div style=""font-size:60px;"">+</div>","null","","fixation","","","","","","","","","","","","","",""
"learning-trial","149","1001824","0.0-9.0-2.0-1.31","1910","1","2","""event"",""trial"",""time""
""fullscreenenter"",""1"",""22606""
","
","
","""event"",""trial"",""time""
""fullscreenenter"",""1"",""22606""
","
","","","","","","739.2999999523163","images/sofa2.png","","","learning","images/furniture_choice2.png","images/furniture_choice1.png","images/furniture_choice3.png","[1,0,2]","1","0","2","images/furniture_choice1.png","-1","furniture","","sofa","1","0"
"html-keyboard-response","150","1002332","0.0-9.0-2.0-0.32","1910","1","2","""event"",""trial"",""time""
""fullscreenenter"",""1"",""22606""
","
","
","""event"",""trial"",""time""
""fullscreenenter"",""1"",""22606""
","
","","","","","","null","<div style=""font-size:60px;"">+</div>","null","","fixation","","","","","","","","","","","","","",""
"learning-trial","151","1006345","0.0-9.0-2.0-1.32","1910","1","2","""event"",""trial"",""time""
""fullscreenenter"",""1"",""22606""
","
","
","""event"",""trial"",""time""
""fullscreenenter"",""1"",""22606""
","
","","","","","","823.5","images/chair1.png","","","learning","images/furniture_choice3.png","images/furniture_choice2.png","images/furniture_choice1.png","[2,1,0]","0","2","3","images/furniture_choice1.png","1","furniture","","chair","1","0"
"html-keyboard-response","152","1006854","0.0-9.0-2.0-0.33","1910","1","2","""event"",""trial"",""time""
""fullscreenenter"",""1"",""22606""
","
","
","""event"",""trial"",""time""
""fullscreenenter"",""1"",""22606""
","
","","","","","","null","<div style=""font-size:60px;"">+</div>","null","","fixation","","","","","","","","","","","","","",""
"learning-trial","153","1010862","0.0-9.0-2.0-1.33","1910","1","2","""event"",""trial"",""time""
""fullscreenenter"",""1"",""22606""
","
","
","""event"",""trial"",""time""
""fullscreenenter"",""1"",""22606""
","
","","","","","","460","images/bed1.png","","","learning","images/furniture_choice2.png","images/furniture_choice3.png","images/furniture_choice1.png","[1,2,0]","2","1","1","images/furniture_choice2.png","1","furniture","","bed","1","0"
"html-keyboard-response","154","1011372","0.0-9.0-2.0-0.34","1910","1","2","""event"",""trial"",""time""
""fullscreenenter"",""1"",""22606""
","
","
","""event"",""trial"",""time""
""fullscreenenter"",""1"",""22606""
","
","","","","","","null","<div style=""font-size:60px;"">+</div>","null","","fixation","","","","","","","","","","","","","",""
"learning-trial","155","1015385","0.0-9.0-2.0-1.34","1910","1","2","""event"",""trial"",""time""
""fullscreenenter"",""1"",""22606""
","
","
","""event"",""trial"",""time""
""fullscreenenter"",""1"",""22606""
","
","","","","","","1004.2999999523163","images/bed2.png","","","learning","images/furniture_choice2.png","images/furniture_choice1.png","images/furniture_choice3.png","[1,0,2]","2","2","2","images/furniture_choice1.png","-1","furniture","","bed","1","0"
"html-keyboard-response","156","1015901","0.0-9.0-2.0-0.35","1910","1","2","""event"",""trial"",""time""
""fullscreenenter"",""1"",""22606""
","
","
","""event"",""trial"",""time""
""fullscreenenter"",""1"",""22606""
","
","","","","","","null","<div style=""font-size:60px;"">+</div>","null","","fixation","","","","","","","","","","","","","",""
"learning-trial","157","1019912","0.0-9.0-2.0-1.35","1910","1","2","""event"",""trial"",""time""
""fullscreenenter"",""1"",""22606""
","
","
","""event"",""trial"",""time""
""fullscreenenter"",""1"",""22606""
","
","","","","","","899.6999999284744","images/bed3.png","","","learning","images/furniture_choice3.png","images/furniture_choice1.png","images/furniture_choice2.png","[2,0,1]","2","0","3","images/furniture_choice2.png","-1","furniture","","bed","1","0"
"html-keyboard-response","158","1020417","0.0-9.0-2.0-0.36","1910","1","2","""event"",""trial"",""time""
""fullscreenenter"",""1"",""22606""
","
","
","""event"",""trial"",""time""
""fullscreenenter"",""1"",""22606""
","
","","","","","","null","<div style=""font-size:60px;"">+</div>","null","","fixation","","","","","","","","","","","","","",""
"learning-trial","159","1024432","0.0-9.0-2.0-1.36","1910","1","2","""event"",""trial"",""time""
""fullscreenenter"",""1"",""22606""
","
","
","""event"",""trial"",""time""
""fullscreenenter"",""1"",""22606""
","
","","","","","","1035.5999999046326","images/sofa1.png","","","learning","images/furniture_choice1.png","images/furniture_choice3.png","images/furniture_choice2.png","[0,2,1]","1","2","1","images/furniture_choice1.png","1","furniture","","sofa","1","0"
"html-keyboard-response","160","1024942","0.0-9.0-2.0-0.37","1910","1","2","""event"",""trial"",""time""
""fullscreenenter"",""1"",""22606""
","
","
","""event"",""trial"",""time""
""fullscreenenter"",""1"",""22606""
","
","","","","","","null","<div style=""font-size:60px;"">+</div>","null","","fixation","","","","","","","","","","","","","",""
"learning-trial","161","1028952","0.0-9.0-2.0-1.37","1910","1","2","""event"",""trial"",""time""
""fullscreenenter"",""1"",""22606""
","
","
","""event"",""trial"",""time""
""fullscreenenter"",""1"",""22606""
","
","","","","","","966.1000000238419","images/chair2.png","","","learning","images/furniture_choice1.png","images/furniture_choice3.png","images/furniture_choice2.png","[0,2,1]","0","0","1","images/furniture_choice1.png","1","furniture","","chair","1","0"
"html-keyboard-response","162","1029470","0.0-9.0-2.0-0.38","1910","1","2","""event"",""trial"",""time""
""fullscreenenter"",""1"",""22606""
","
","
","""event"",""trial"",""time""
""fullscreenenter"",""1"",""22606""
","
","","","","","","null","<div style=""font-size:60px;"">+</div>","null","","fixation","","","","","","","","","","","","","",""
"learning-trial","163","1033479","0.0-9.0-2.0-1.38","1910","1","2","""event"",""trial"",""time""
""fullscreenenter"",""1"",""22606""
","
","
","""event"",""trial"",""time""
""fullscreenenter"",""1"",""22606""
","
","","","","","","1794.3000000715256","images/bed1.png","","","learning","images/furniture_choice3.png","images/furniture_choice2.png","images/furniture_choice1.png","[2,1,0]","2","0","3","images/furniture_choice1.png","-1","furniture","","bed","1","0"
"html-keyboard-response","164","1033990","0.0-9.0-2.0-0.39","1910","1","2","""event"",""trial"",""time""
""fullscreenenter"",""1"",""22606""
","
","
","""event"",""trial"",""time""
""fullscreenenter"",""1"",""22606""
","
","","","","","","null","<div style=""font-size:60px;"">+</div>","null","","fixation","","","","","","","","","","","","","",""
"learning-trial","165","1038006","0.0-9.0-2.0-1.39","1910","1","2","""event"",""trial"",""time""
""fullscreenenter"",""1"",""22606""
","
","
","""event"",""trial"",""time""
""fullscreenenter"",""1"",""22606""
","
","","","","","","1402.5","images/sofa2.png","","","learning","images/furniture_choice1.png","images/furniture_choice3.png","images/furniture_choice2.png","[0,2,1]","1","2","1","images/furniture_choice1.png","-1","furniture","","sofa","1","0"
"html-keyboard-response","166","1038509","0.0-9.0-2.0-0.40","1910","1","2","""event"",""trial"",""time""
""fullscreenenter"",""1"",""22606""
","
","
","""event"",""trial"",""time""
""fullscreenenter"",""1"",""22606""
","
","","","","","","null","<div style=""font-size:60px;"">+</div>","null","","fixation","","","","","","","","","","","","","",""
"learning-trial","167","1042522","0.0-9.0-2.0-1.40","1910","1","2","""event"",""trial"",""time""
""fullscreenenter"",""1"",""22606""
","
","
","""event"",""trial"",""time""
""fullscreenenter"",""1"",""22606""
","
","","","","","","1028.1999999284744","images/sofa2.png","","","learning","images/furniture_choice3.png","images/furniture_choice2.png","images/furniture_choice1.png","[2,1,0]","1","1","3","images/furniture_choice1.png","-1","furniture","","sofa","1","0"
"html-keyboard-response","168","1043033","0.0-9.0-2.0-0.41","1910","1","2","""event"",""trial"",""time""
""fullscreenenter"",""1"",""22606""
","
","
","""event"",""trial"",""time""
""fullscreenenter"",""1"",""22606""
","
","","","","","","null","<div style=""font-size:60px;"">+</div>","null","","fixation","","","","","","","","","","","","","",""
"learning-trial","169","1047052","0.0-9.0-2.0-1.41","1910","1","2","""event"",""trial"",""time""
""fullscreenenter"",""1"",""22606""
","
","
","""event"",""trial"",""time""
""fullscreenenter"",""1"",""22606""
","
","","","","","","821.0999999046326","images/bed1.png","","","learning","images/furniture_choice2.png","images/furniture_choice1.png","images/furniture_choice3.png","[1,0,2]","2","2","2","images/furniture_choice1.png","-1","furniture","","bed","1","0"
"html-keyboard-response","170","1047568","0.0-9.0-2.0-0.42","1910","1","2","""event"",""trial"",""time""
""fullscreenenter"",""1"",""22606""
","
","
","""event"",""trial"",""time""
""fullscreenenter"",""1"",""22606""
","
","","","","","","null","<div style=""font-size:60px;"">+</div>","null","","fixation","","","","","","","","","","","","","",""
"learning-trial","171","1051576","0.0-9.0-2.0-1.42","1910","1","2","""event"",""trial"",""time""
""fullscreenenter"",""1"",""22606""
","
","
","""event"",""trial"",""time""
""fullscreenenter"",""1"",""22606""
","
","","","","","","1611.8999999761581","images/chair3.png","","","learning","images/furniture_choice3.png","images/furniture_choice2.png","images/furniture_choice1.png","[2,1,0]","0","2","2","images/furniture_choice2.png","-1","furniture","","chair","1","0"
"html-keyboard-response","172","1052080","0.0-9.0-2.0-0.43","1910","1","2","""event"",""trial"",""time""
""fullscreenenter"",""1"",""22606""
","
","
","""event"",""trial"",""time""
""fullscreenenter"",""1"",""22606""
","
","","","","","","null","<div style=""font-size:60px;"">+</div>","null","","fixation","","","","","","","","","","","","","",""
"learning-trial","173","1056090","0.0-9.0-2.0-1.43","1910","1","2","""event"",""trial"",""time""
""fullscreenenter"",""1"",""22606""
","
","
","""event"",""trial"",""time""
""fullscreenenter"",""1"",""22606""
","
","","","","","","1603.1999999284744","images/chair3.png","","","learning","images/furniture_choice2.png","images/furniture_choice1.png","images/furniture_choice3.png","[1,0,2]","0","1","3","images/furniture_choice3.png","-1","furniture","","chair","1","0"
"html-keyboard-response","174","1056593","0.0-9.0-2.0-0.44","1910","1","2","""event"",""trial"",""time""
""fullscreenenter"",""1"",""22606""
","
","
","""event"",""trial"",""time""
""fullscreenenter"",""1"",""22606""
","
","","","","","","null","<div style=""font-size:60px;"">+</div>","null","","fixation","","","","","","","","","","","","","",""
"learning-trial","175","1060606","0.0-9.0-2.0-1.44","1910","1","2","""event"",""trial"",""time""
""fullscreenenter"",""1"",""22606""
","
","
","""event"",""trial"",""time""
""fullscreenenter"",""1"",""22606""
","
","","","","","","1192.5999999046326","images/chair1.png","","","learning","images/furniture_choice1.png","images/furniture_choice3.png","images/furniture_choice2.png","[0,2,1]","0","0","3","images/furniture_choice2.png","1","furniture","","chair","1","0"
"html-keyboard-response","176","1061109","0.0-9.0-2.0-0.45","1910","1","2","""event"",""trial"",""time""
""fullscreenenter"",""1"",""22606""
","
","
","""event"",""trial"",""time""
""fullscreenenter"",""1"",""22606""
","
","","","","","","null","<div style=""font-size:60px;"">+</div>","null","","fixation","","","","","","","","","","","","","",""
"learning-trial","177","1065123","0.0-9.0-2.0-1.45","1910","1","2","""event"",""trial"",""time""
""fullscreenenter"",""1"",""22606""
","
","
","""event"",""trial"",""time""
""fullscreenenter"",""1"",""22606""
","
","","","","","","1694.8999999761581","images/sofa2.png","","","learning","images/furniture_choice2.png","images/furniture_choice3.png","images/furniture_choice1.png","[1,2,0]","1","0","2","images/furniture_choice3.png","-1","furniture","","sofa","1","0"
"html-keyboard-response","178","1065630","0.0-9.0-2.0-0.46","1910","1","2","""event"",""trial"",""time""
""fullscreenenter"",""1"",""22606""
","
","
","""event"",""trial"",""time""
""fullscreenenter"",""1"",""22606""
","
","","","","","","null","<div style=""font-size:60px;"">+</div>","null","","fixation","","","","","","","","","","","","","",""
"learning-trial","179","1069648","0.0-9.0-2.0-1.46","1910","1","2","""event"",""trial"",""time""
""fullscreenenter"",""1"",""22606""
","
","
","""event"",""trial"",""time""
""fullscreenenter"",""1"",""22606""
","
","","","","","","1536.8999999761581","images/sofa1.png","","","learning","images/furniture_choice1.png","images/furniture_choice3.png","images/furniture_choice2.png","[0,2,1]","1","2","3","images/furniture_choice2.png","1","furniture","","sofa","1","0"
"html-keyboard-response","180","1070153","0.0-9.0-2.0-0.47","1910","1","2","""event"",""trial"",""time""
""fullscreenenter"",""1"",""22606""
","
","
","""event"",""trial"",""time""
""fullscreenenter"",""1"",""22606""
","
","","","","","","null","<div style=""font-size:60px;"">+</div>","null","","fixation","","","","","","","","","","","","","",""
"learning-trial","181","1074162","0.0-9.0-2.0-1.47","1910","1","2","""event"",""trial"",""time""
""fullscreenenter"",""1"",""22606""
","
","
","""event"",""trial"",""time""
""fullscreenenter"",""1"",""22606""
","
","","","","","","1138.7999999523163","images/bed3.png","","","learning","images/furniture_choice2.png","images/furniture_choice3.png","images/furniture_choice1.png","[1,2,0]","2","1","2","images/furniture_choice3.png","1","furniture","","bed","1","0"
"html-keyboard-response","182","1074670","0.0-9.0-2.0-0.48","1910","1","2","""event"",""trial"",""time""
""fullscreenenter"",""1"",""22606""
","
","
","""event"",""trial"",""time""
""fullscreenenter"",""1"",""22606""
","
","","","","","","null","<div style=""font-size:60px;"">+</div>","null","","fixation","","","","","","","","","","","","","",""
"learning-trial","183","1078683","0.0-9.0-2.0-1.48","1910","1","2","""event"",""trial"",""time""
""fullscreenenter"",""1"",""22606""
","
","
","""event"",""trial"",""time""
""fullscreenenter"",""1"",""22606""
","
","","","","","","2014.1000000238419","images/bed1.png","","","learning","images/furniture_choice1.png","images/furniture_choice3.png","images/furniture_choice2.png","[0,2,1]","2","1","2","images/furniture_choice3.png","1","furniture","","bed","1","0"
"html-keyboard-response","184","1079192","0.0-9.0-2.0-0.49","1910","1","2","""event"",""trial"",""time""
""fullscreenenter"",""1"",""22606""
","
","
","""event"",""trial"",""time""
""fullscreenenter"",""1"",""22606""
","
","","","","","","null","<div style=""font-size:60px;"">+</div>","null","","fixation","","","","","","","","","","","","","",""
"learning-trial","185","1083203","0.0-9.0-2.0-1.49","1910","1","2","""event"",""trial"",""time""
""fullscreenenter"",""1"",""22606""
","
","
","""event"",""trial"",""time""
""fullscreenenter"",""1"",""22606""
","
","","","","","","2198.7999999523163","images/sofa1.png","","","learning","images/furniture_choice1.png","images/furniture_choice2.png","images/furniture_choice3.png","[0,1,2]","1","1","2","images/furniture_choice2.png","1","furniture","","sofa","1","0"
"html-keyboard-response","186","1083708","0.0-9.0-2.0-0.50","1910","1","2","""event"",""trial"",""time""
""fullscreenenter"",""1"",""22606""
","
","
","""event"",""trial"",""time""
""fullscreenenter"",""1"",""22606""
","
","","","","","","null","<div style=""font-size:60px;"">+</div>","null","","fixation","","","","","","","","","","","","","",""
"learning-trial","187","1087722","0.0-9.0-2.0-1.50","1910","1","2","""event"",""trial"",""time""
""fullscreenenter"",""1"",""22606""
","
","
","""event"",""trial"",""time""
""fullscreenenter"",""1"",""22606""
","
","","","","","","2019.0999999046326","images/sofa5.png","","","learning","images/furniture_choice2.png","images/furniture_choice3.png","images/furniture_choice1.png","[1,2,0]","1","0","3","images/furniture_choice1.png","-1","furniture","","sofa","1","0"
"html-keyboard-response","188","1088239","0.0-9.0-2.0-0.51","1910","1","2","""event"",""trial"",""time""
""fullscreenenter"",""1"",""22606""
","
","
","""event"",""trial"",""time""
""fullscreenenter"",""1"",""22606""
","
","","","","","","null","<div style=""font-size:60px;"">+</div>","null","","fixation","","","","","","","","","","","","","",""
"learning-trial","189","1092253","0.0-9.0-2.0-1.51","1910","1","2","""event"",""trial"",""time""
""fullscreenenter"",""1"",""22606""
","
","
","""event"",""trial"",""time""
""fullscreenenter"",""1"",""22606""
","
","","","","","","811.5","images/chair2.png","","","learning","images/furniture_choice3.png","images/furniture_choice1.png","images/furniture_choice2.png","[2,0,1]","0","1","2","images/furniture_choice1.png","1","furniture","","chair","1","0"
"html-keyboard-response","190","1092767","0.0-9.0-2.0-0.52","1910","1","2","""event"",""trial"",""time""
""fullscreenenter"",""1"",""22606""
","
","
","""event"",""trial"",""time""
""fullscreenenter"",""1"",""22606""
","
","","","","","","null","<div style=""font-size:60px;"">+</div>","null","","fixation","","","","","","","","","","","","","",""
"learning-trial","191","1096784","0.0-9.0-2.0-1.52","1910","1","2","""event"",""trial"",""time""
""fullscreenenter"",""1"",""22606""
","
","
","""event"",""trial"",""time""
""fullscreenenter"",""1"",""22606""
","
","","","","","","null","images/sofa5.png","","","learning","images/furniture_choice1.png","images/furniture_choice3.png","images/furniture_choice2.png","[0,2,1]","1","2","null","null","-1","furniture","","sofa","1","0"
"html-keyboard-response","192","1097291","0.0-9.0-2.0-0.53","1910","1","2","""event"",""trial"",""time""
""fullscreenenter"",""1"",""22606""
","
","
","""event"",""trial"",""time""
""fullscreenenter"",""1"",""22606""
","
","","","","","","null","<div style=""font-size:60px;"">+</div>","null","","fixation","","","","","","","","","","","","","",""
"learning-trial","193","1101300","0.0-9.0-2.0-1.53","1910","1","2","""event"",""trial"",""time""
""fullscreenenter"",""1"",""22606""
","
","
","""event"",""trial"",""time""
""fullscreenenter"",""1"",""22606""
","
","","","","","","1794.2000000476837","images/chair2.png","","","learning","images/furniture_choice1.png","images/furniture_choice3.png","images/furniture_choice2.png","[0,2,1]","0","0","2","images/furniture_choice3.png","-1","furniture","","chair","1","0"
"html-keyboard-response","194","1101803","0.0-9.0-2.0-0.54","1910","1","2","""event"",""trial"",""time""
""fullscreenenter"",""1"",""22606""
","
","
","""event"",""trial"",""time""
""fullscreenenter"",""1"",""22606""
","
","","","","","","null","<div style=""font-size:60px;"">+</div>","null","","fixation","","","","","","","","","","","","","",""
"learning-trial","195","1105811","0.0-9.0-2.0-1.54","1910","1","2","""event"",""trial"",""time""
""fullscreenenter"",""1"",""22606""
","
","
","""event"",""trial"",""time""
""fullscreenenter"",""1"",""22606""
","
","","","","","","1364.6000000238419","images/chair1.png","","","learning","images/furniture_choice3.png","images/furniture_choice1.png","images/furniture_choice2.png","[2,0,1]","0","1","3","images/furniture_choice2.png","-1","furniture","","chair","1","0"
"html-keyboard-response","196","1106330","0.0-9.0-2.0-0.55","1910","1","2","""event"",""trial"",""time""
""fullscreenenter"",""1"",""22606""
","
","
","""event"",""trial"",""time""
""fullscreenenter"",""1"",""22606""
","
","","","","","","null","<div style=""font-size:60px;"">+</div>","null","","fixation","","","","","","","","","","","","","",""
"learning-trial","197","1110343","0.0-9.0-2.0-1.55","1910","1","2","""event"",""trial"",""time""
""fullscreenenter"",""1"",""22606""
","
","
","""event"",""trial"",""time""
""fullscreenenter"",""1"",""22606""
","
","","","","","","891.5","images/bed2.png","","","learning","images/furniture_choice1.png","images/furniture_choice3.png","images/furniture_choice2.png","[0,2,1]","2","1","2","images/furniture_choice3.png","1","furniture","","bed","1","0"
"html-keyboard-response","198","1110860","0.0-9.0-2.0-0.56","1910","1","2","""event"",""trial"",""time""
""fullscreenenter"",""1"",""22606""
","
","
","""event"",""trial"",""time""
""fullscreenenter"",""1"",""22606""
","
","","","","","","null","<div style=""font-size:60px;"">+</div>","null","","fixation","","","","","","","","","","","","","",""
"learning-trial","199","1114874","0.0-9.0-2.0-1.56","1910","1","2","""event"",""trial"",""time""
""fullscreenenter"",""1"",""22606""
","
","
","""event"",""trial"",""time""
""fullscreenenter"",""1"",""22606""
","
","","","","","","2541.5","images/chair3.png","","","learning","images/furniture_choice2.png","images/furniture_choice3.png","images/furniture_choice1.png","[1,2,0]","0","2","3","images/furniture_choice1.png","1","furniture","","chair","1","0"
"html-keyboard-response","200","1115379","0.0-9.0-2.0-0.57","1910","1","2","""event"",""trial"",""time""
""fullscreenenter"",""1"",""22606""
","
","
","""event"",""trial"",""time""
""fullscreenenter"",""1"",""22606""
","
","","","","","","null","<div style=""font-size:60px;"">+</div>","null","","fixation","","","","","","","","","","","","","",""
"learning-trial","201","1119396","0.0-9.0-2.0-1.57","1910","1","2","""event"",""trial"",""time""
""fullscreenenter"",""1"",""22606""
","
","
","""event"",""trial"",""time""
""fullscreenenter"",""1"",""22606""
","
","","","","","","1638.2000000476837","images/chair1.png","","","learning","images/furniture_choice3.png","images/furniture_choice1.png","images/furniture_choice2.png","[2,0,1]","0","1","2","images/furniture_choice1.png","1","furniture","","chair","1","0"
"html-keyboard-response","202","1119905","0.0-9.0-2.0-0.58","1910","1","2","""event"",""trial"",""time""
""fullscreenenter"",""1"",""22606""
","
","
","""event"",""trial"",""time""
""fullscreenenter"",""1"",""22606""
","
","","","","","","null","<div style=""font-size:60px;"">+</div>","null","","fixation","","","","","","","","","","","","","",""
"learning-trial","203","1123913","0.0-9.0-2.0-1.58","1910","1","2","""event"",""trial"",""time""
""fullscreenenter"",""1"",""22606""
","
","
","""event"",""trial"",""time""
""fullscreenenter"",""1"",""22606""
","
","","","","","","1207.3999999761581","images/chair3.png","","","learning","images/furniture_choice2.png","images/furniture_choice3.png","images/furniture_choice1.png","[1,2,0]","0","2","2","images/furniture_choice3.png","-1","furniture","","chair","1","0"
"html-keyboard-response","204","1124429","0.0-9.0-2.0-0.59","1910","1","2","""event"",""trial"",""time""
""fullscreenenter"",""1"",""22606""
","
","
","""event"",""trial"",""time""
""fullscreenenter"",""1"",""22606""
","
","","","","","","null","<div style=""font-size:60px;"">+</div>","null","","fixation","","","","","","","","","","","","","",""
"learning-trial","205","1128445","0.0-9.0-2.0-1.59","1910","1","2","""event"",""trial"",""time""
""fullscreenenter"",""1"",""22606""
","
","
","""event"",""trial"",""time""
""fullscreenenter"",""1"",""22606""
","
","","","","","","1053.1000000238419","images/bed2.png","","","learning","images/furniture_choice3.png","images/furniture_choice2.png","images/furniture_choice1.png","[2,1,0]","2","0","1","images/furniture_choice3.png","1","furniture","","bed","1","0"
"html-keyboard-response","206","1128958","0.0-9.0-2.0-0.60","1910","1","2","""event"",""trial"",""time""
""fullscreenenter"",""1"",""22606""
","
","
","""event"",""trial"",""time""
""fullscreenenter"",""1"",""22606""
","
","","","","","","null","<div style=""font-size:60px;"">+</div>","null","","fixation","","","","","","","","","","","","","",""
"learning-trial","207","1132973","0.0-9.0-2.0-1.60","1910","1","2","""event"",""trial"",""time""
""fullscreenenter"",""1"",""22606""
","
","
","""event"",""trial"",""time""
""fullscreenenter"",""1"",""22606""
","
","","","","","","839.2999999523163","images/sofa5.png","","","learning","images/furniture_choice3.png","images/furniture_choice1.png","images/furniture_choice2.png","[2,0,1]","1","2","2","images/furniture_choice1.png","-1","furniture","","sofa","1","0"
"html-keyboard-response","208","1133475","0.0-9.0-2.0-0.61","1910","1","2","""event"",""trial"",""time""
""fullscreenenter"",""1"",""22606""
","
","
","""event"",""trial"",""time""
""fullscreenenter"",""1"",""22606""
","
","","","","","","null","<div style=""font-size:60px;"">+</div>","null","","fixation","","","","","","","","","","","","","",""
"learning-trial","209","1137484","0.0-9.0-2.0-1.61","1910","1","2","""event"",""trial"",""time""
""fullscreenenter"",""1"",""22606""
","
","
","""event"",""trial"",""time""
""fullscreenenter"",""1"",""22606""
","
","","","","","","1565.3999999761581","images/sofa5.png","","","learning","images/furniture_choice3.png","images/furniture_choice2.png","images/furniture_choice1.png","[2,1,0]","1","1","2","images/furniture_choice2.png","1","furniture","","sofa","1","0"
"html-keyboard-response","210","1138001","0.0-9.0-2.0-0.62","1910","1","2","""event"",""trial"",""time""
""fullscreenenter"",""1"",""22606""
","
","
","""event"",""trial"",""time""
""fullscreenenter"",""1"",""22606""
","
","","","","","","null","<div style=""font-size:60px;"">+</div>","null","","fixation","","","","","","","","","","","","","",""
"learning-trial","211","1142010","0.0-9.0-2.0-1.62","1910","1","2","""event"",""trial"",""time""
""fullscreenenter"",""1"",""22606""
","
","
","""event"",""trial"",""time""
""fullscreenenter"",""1"",""22606""
","
","","","","","","1086.6000000238419","images/sofa1.png","","","learning","images/furniture_choice3.png","images/furniture_choice2.png","images/furniture_choice1.png","[2,1,0]","1","1","1","images/furniture_choice3.png","-1","furniture","","sofa","1","0"
"html-keyboard-response","212","1142516","0.0-9.0-2.0-0.63","1910","1","2","""event"",""trial"",""time""
""fullscreenenter"",""1"",""22606""
","
","
","""event"",""trial"",""time""
""fullscreenenter"",""1"",""22606""
","
","","","","","","null","<div style=""font-size:60px;"">+</div>","null","","fixation","","","","","","","","","","","","","",""
"learning-trial","213","1146528","0.0-9.0-2.0-1.63","1910","1","2","""event"",""trial"",""time""
""fullscreenenter"",""1"",""22606""
","
","
","""event"",""trial"",""time""
""fullscreenenter"",""1"",""22606""
","
","","","","","","1670.7000000476837","images/sofa2.png","","","learning","images/furniture_choice1.png","images/furniture_choice3.png","images/furniture_choice2.png","[0,2,1]","1","2","1","images/furniture_choice1.png","-1","furniture","","sofa","1","0"
"html-keyboard-response","214","1147034","0.0-9.0-2.0-0.64","1910","1","2","""event"",""trial"",""time""
""fullscreenenter"",""1"",""22606""
","
","
","""event"",""trial"",""time""
""fullscreenenter"",""1"",""22606""
","
","","","","","","null","<div style=""font-size:60px;"">+</div>","null","","fixation","","","","","","","","","","","","","",""
"learning-trial","215","1151041","0.0-9.0-2.0-1.64","1910","1","2","""event"",""trial"",""time""
""fullscreenenter"",""1"",""22606""
","
","
","""event"",""trial"",""time""
""fullscreenenter"",""1"",""22606""
","
","","","","","","1256.1000000238419","images/sofa1.png","","","learning","images/furniture_choice1.png","images/furniture_choice2.png","images/furniture_choice3.png","[0,1,2]","1","1","2","images/furniture_choice2.png","-1","furniture","","sofa","1","0"
"html-keyboard-response","216","1151556","0.0-9.0-2.0-0.65","1910","1","2","""event"",""trial"",""time""
""fullscreenenter"",""1"",""22606""
","
","
","""event"",""trial"",""time""
""fullscreenenter"",""1"",""22606""
","
","","","","","","null","<div style=""font-size:60px;"">+</div>","null","","fixation","","","","","","","","","","","","","",""
"learning-trial","217","1155570","0.0-9.0-2.0-1.65","1910","1","2","""event"",""trial"",""time""
""fullscreenenter"",""1"",""22606""
","
","
","""event"",""trial"",""time""
""fullscreenenter"",""1"",""22606""
","
","","","","","","1623.7999999523163","images/bed3.png","","","learning","images/furniture_choice3.png","images/furniture_choice1.png","images/furniture_choice2.png","[2,0,1]","2","0","3","images/furniture_choice2.png","-1","furniture","","bed","1","0"
"html-keyboard-response","218","1156078","0.0-9.0-2.0-0.66","1910","1","2","""event"",""trial"",""time""
""fullscreenenter"",""1"",""22606""
","
","
","""event"",""trial"",""time""
""fullscreenenter"",""1"",""22606""
","
","","","","","","null","<div style=""font-size:60px;"">+</div>","null","","fixation","","","","","","","","","","","","","",""
"learning-trial","219","1160086","0.0-9.0-2.0-1.66","1910","1","2","""event"",""trial"",""time""
""fullscreenenter"",""1"",""22606""
","
","
","""event"",""trial"",""time""
""fullscreenenter"",""1"",""22606""
","
","","","","","","null","images/bed2.png","","","learning","images/furniture_choice3.png","images/furniture_choice1.png","images/furniture_choice2.png","[2,0,1]","2","0","null","null","-1","furniture","","bed","1","0"
"html-keyboard-response","220","1160592","0.0-9.0-2.0-0.67","1910","1","2","""event"",""trial"",""time""
""fullscreenenter"",""1"",""22606""
","
","
","""event"",""trial"",""time""
""fullscreenenter"",""1"",""22606""
","
","","","","","","null","<div style=""font-size:60px;"">+</div>","null","","fixation","","","","","","","","","","","","","",""
"learning-trial","221","1164607","0.0-9.0-2.0-1.67","1910","1","2","""event"",""trial"",""time""
""fullscreenenter"",""1"",""22606""
","
","
","""event"",""trial"",""time""
""fullscreenenter"",""1"",""22606""
","
","","","","","","832.6000000238419","images/sofa1.png","","","learning","images/furniture_choice3.png","images/furniture_choice1.png","images/furniture_choice2.png","[2,0,1]","1","2","2","images/furniture_choice1.png","-1","furniture","","sofa","1","0"
"html-keyboard-response","222","1165113","0.0-9.0-2.0-0.68","1910","1","2","""event"",""trial"",""time""
""fullscreenenter"",""1"",""22606""
","
","
","""event"",""trial"",""time""
""fullscreenenter"",""1"",""22606""
","
","","","","","","null","<div style=""font-size:60px;"">+</div>","null","","fixation","","","","","","","","","","","","","",""
"learning-trial","223","1169120","0.0-9.0-2.0-1.68","1910","1","2","""event"",""trial"",""time""
""fullscreenenter"",""1"",""22606""
","
","
","""event"",""trial"",""time""
""fullscreenenter"",""1"",""22606""
","
","","","","","","2588.7999999523163","images/bed1.png","","","learning","images/furniture_choice2.png","images/furniture_choice3.png","images/furniture_choice1.png","[1,2,0]","2","1","1","images/furniture_choice2.png","-1","furniture","","bed","1","0"
"html-keyboard-response","224","1169634","0.0-9.0-2.0-0.69","1910","1","2","""event"",""trial"",""time""
""fullscreenenter"",""1"",""22606""
","
","
","""event"",""trial"",""time""
""fullscreenenter"",""1"",""22606""
","
","","","","","","null","<div style=""font-size:60px;"">+</div>","null","","fixation","","","","","","","","","","","","","",""
"learning-trial","225","1173646","0.0-9.0-2.0-1.69","1910","1","2","""event"",""trial"",""time""
""fullscreenenter"",""1"",""22606""
","
","
","""event"",""trial"",""time""
""fullscreenenter"",""1"",""22606""
","
","","","","","","410.10000002384186","images/bed2.png","","","learning","images/furniture_choice1.png","images/furniture_choice3.png","images/furniture_choice2.png","[0,2,1]","2","1","3","images/furniture_choice2.png","1","furniture","","bed","1","0"
"html-keyboard-response","226","1174151","0.0-9.0-2.0-0.70","1910","1","2","""event"",""trial"",""time""
""fullscreenenter"",""1"",""22606""
","
","
","""event"",""trial"",""time""
""fullscreenenter"",""1"",""22606""
","
","","","","","","null","<div style=""font-size:60px;"">+</div>","null","","fixation","","","","","","","","","","","","","",""
"learning-trial","227","1178164","0.0-9.0-2.0-1.70","1910","1","2","""event"",""trial"",""time""
""fullscreenenter"",""1"",""22606""
","
","
","""event"",""trial"",""time""
""fullscreenenter"",""1"",""22606""
","
","","","","","","1350.7000000476837","images/sofa2.png","","","learning","images/furniture_choice2.png","images/furniture_choice1.png","images/furniture_choice3.png","[1,0,2]","1","0","2","images/furniture_choice1.png","-1","furniture","","sofa","1","0"
"html-keyboard-response","228","1178669","0.0-9.0-2.0-0.71","1910","1","2","""event"",""trial"",""time""
""fullscreenenter"",""1"",""22606""
","
","
","""event"",""trial"",""time""
""fullscreenenter"",""1"",""22606""
","
","","","","","","null","<div style=""font-size:60px;"">+</div>","null","","fixation","","","","","","","","","","","","","",""
"learning-trial","229","1182679","0.0-9.0-2.0-1.71","1910","1","2","""event"",""trial"",""time""
""fullscreenenter"",""1"",""22606""
","
","
","""event"",""trial"",""time""
""fullscreenenter"",""1"",""22606""
","
","","","","","","428.5","images/bed3.png","","","learning","images/furniture_choice2.png","images/furniture_choice3.png","images/furniture_choice1.png","[1,2,0]","2","1","3","images/furniture_choice1.png","-1","furniture","","bed","1","0"
"html-button-response","230","1196979","0.0-9.0-3.0","1910","1","2","""event"",""trial"",""time""
""fullscreenenter"",""1"",""22606""
","
","
","""event"",""trial"",""time""
""fullscreenenter"",""1"",""22606""
","
","","","","","","14297.200000047684","<p> You have completed the round! <p> In this round, you earned -4 points! </p>","0","","break","","","","","","","","","","","","","",""
"html-button-response","231","1198957","0.0-10.0","1910","1","2","""event"",""trial"",""time""
""fullscreenenter"",""1"",""22606""
","
","
","""event"",""trial"",""time""
""fullscreenenter"",""1"",""22606""
","
","","","","","","1975.2999999523163","<p> Now it's time to play another round. </p>","0","","transition_screen","","","","","","","","","","","","","",""
"preload","232","1215497","0.0-11.0-0.0","1910","1","2","""event"",""trial"",""time""
""fullscreenenter"",""1"",""22606""
","
","
","""event"",""trial"",""time""
""fullscreenenter"",""1"",""22606""
","
","true","false","[]","[]","[]","","","","","","","","","","","","","","","","","","",""
"learning-instructions","233","1225451","0.0-11.0-1.0-0.0","1910","1","2","""event"",""trial"",""time""
""fullscreenenter"",""1"",""22606""
","
","
","""event"",""trial"",""time""
""fullscreenenter"",""1"",""22606""
","
","","","","","","1090","<p> Your goal in this round is to travel the world by putting fuel into different vehicles. </p><p> To travel, you will need to put fuel into many different vehicles. </p></div>","","0","instructions","","","","","","","","","","","","","",""
"learning-instructions","234","1235250","0.0-11.0-1.0-0.1","1910","1","2","""event"",""trial"",""time""
