"trial_type","trial_index","time_elapsed","internal_node_id","subject_id","condition","task_version","interactions","blur_events","focus_events","fullscreenenter_events","fullscreenexit_events","success","timeout","failed_images","failed_audio","failed_video","rt","stimulus","response","button_pressed","task_part","left_choice","middle_choice","right_choice","choice_positions","correct_response","correct_position","key_press","option_selected","points","task_block","correct","stim_cat","block_condition","block_number"
"pavlovia","0","8","0.0-0.0","1726","1","2","""event"",""trial"",""time""
""fullscreenenter"",""1"",""10581""
","
","
","""event"",""trial"",""time""
""fullscreenenter"",""1"",""10581""
","
","","","","","","","","","","","","","","","","","","","","","","","",""
"fullscreen","1","11494","0.0-1.0","1726","1","2","""event"",""trial"",""time""
""fullscreenenter"",""1"",""10581""
","
","
","""event"",""trial"",""time""
""fullscreenenter"",""1"",""10581""
","
","true","","","","","","","","","","","","","","","","","","","","","","",""
"preload","2","25719","0.0-2.0","1726","1","2","""event"",""trial"",""time""
""fullscreenenter"",""1"",""10581""
","
","
","""event"",""trial"",""time""
""fullscreenenter"",""1"",""10581""
","
","true","false","[]","[]","[]","","","","","","","","","","","","","","","","","","",""
"audio-keyboard-response","3","27171","0.0-3.0","1726","1","2","""event"",""trial"",""time""
""fullscreenenter"",""1"",""10581""
","
","
","""event"",""trial"",""time""
""fullscreenenter"",""1"",""10581""
","
","","","","","","1451.2471655328802","audio/beep_loop.wav"," ","","","","","","","","","","","","","","","",""
"audio-button-response","4","29612","0.0-4.0","1726","1","2","""event"",""trial"",""time""
""fullscreenenter"",""1"",""10581""
","
","
","""event"",""trial"",""time""
""fullscreenenter"",""1"",""10581""
","
","","","","","","2438","audio/shark.wav","4","","","","","","","","","","","","","","","",""
"audio-button-response","5","33572","0.0-5.0","1726","1","2","""event"",""trial"",""time""
""fullscreenenter"",""1"",""10581""
","
","
","""event"",""trial"",""time""
""fullscreenenter"",""1"",""10581""
","
","","","","","","2955","audio/turtle.wav","1","","","","","","","","","","","","","","","",""
"preload","6","45638","0.0-6.0","1726","1","2","""event"",""trial"",""time""
""fullscreenenter"",""1"",""10581""
","
","
","""event"",""trial"",""time""
""fullscreenenter"",""1"",""10581""
","
","true","false","[]","[]","[]","","","","","","","","","","","","","","","","","","",""
"html-keyboard-response","7","53724","0.0-7.0","1726","1","2","""event"",""trial"",""time""
""fullscreenenter"",""1"",""10581""
","
","
","""event"",""trial"",""time""
""fullscreenenter"",""1"",""10581""
","
","","","","","","8083.0999999940395","Welcome to the experiment. Press any key to begin and to advance the instructions.","y","","","","","","","","","","","","","","","",""
"learning-instructions","8","62729","0.0-8.0-0.0-0.0","1726","1","2","""event"",""trial"",""time""
""fullscreenenter"",""1"",""10581""
","
","
","""event"",""trial"",""time""
""fullscreenenter"",""1"",""10581""
","
","","","","","","1251.800000011921","<p> Welcome! Today you are going to play 6 different rounds of a decision-making game. </p><p> Use the mouse to click next to continue. </p>","","0","instructions","","","","","","","","","","","","","",""
"learning-instructions","9","67865","0.0-8.0-0.0-0.1","1726","1","2","""event"",""trial"",""time""
""fullscreenenter"",""1"",""10581""
","
","
","""event"",""trial"",""time""
""fullscreenenter"",""1"",""10581""
","
","","","","","","2132.0999999940395","<p> You will start with a practice round to learn the rules. </p>","","0","instructions","","","","","","","","","","","","","",""
"learning-instructions","10","76457","0.0-8.0-0.0-0.2","1726","1","2","""event"",""trial"",""time""
""fullscreenenter"",""1"",""10581""
","
","
","""event"",""trial"",""time""
""fullscreenenter"",""1"",""10581""
","
","","","","","","849.3000000119209","<p> Your goal in this round is to deliver sports equipment to three different parks. </p><p> You will need to deliver many types of equipment. </p></div>","","0","instructions","","","","","","","","","","","","","",""
"learning-instructions","11","86644","0.0-8.0-0.0-0.3","1726","1","2","""event"",""trial"",""time""
""fullscreenenter"",""1"",""10581""
","
","
","""event"",""trial"",""time""
""fullscreenenter"",""1"",""10581""
","
","","","","","","1700.9000000059605","<p> On each turn, you will see one piece of sports equipment and three different parks.  </p><p> You need to select which park to deliver the equipment to.  </p>","","0","instructions","","","","","","","","","","","","","",""
"learning-instructions","12","100433","0.0-8.0-0.0-0.4","1726","1","2","""event"",""trial"",""time""
""fullscreenenter"",""1"",""10581""
","
","
","""event"",""trial"",""time""
""fullscreenenter"",""1"",""10581""
","
","","","","","","515","<p> You can select the park on the left by pressing the '1' key on your keyboard. <br>You can select the park in the middle by pressing the '2' key on your keyboard. <br>You can select the park on the right by pressing the '3' key on your keyboard.  </p><br><div class=""choice-instructions-grid""> <div class=""choice-option""><img src=""images/park1.png"" class=""choice-option-img"" stage=""instructions"" position=""0"" ><div class=""choice-option-text""> Press ""1."" </div></div><div class=""choice-option""><img src=""images/park2.png"" class=""choice-option-img"" stage=""instructions"" position=""1"" ><div class=""choice-option-text""> Press ""2."" </div></div><div class=""choice-option""><img src=""images/park3.png"" class=""choice-option-img"" stage=""instructions"" position=""2"" ><div class=""choice-option-text""> Press ""3."" </div></div></div>","","0","instructions","","","","","","","","","","","","","",""
"learning-instructions","13","107830","0.0-8.0-0.0-0.5","1726","1","2","""event"",""trial"",""time""
""fullscreenenter"",""1"",""10581""
","
","
","""event"",""trial"",""time""
""fullscreenenter"",""1"",""10581""
","
","","","","","","2009.9000000059605","<p> If the kids in the park you chose like the equipment, they will be very happy! </p><div style='float: center;'><img src='images/check.png' width = '200' height = '200'></img>","","0","instructions","","","","","","","","","","","","","",""
"learning-instructions","14","114931","0.0-8.0-0.0-0.6","1726","1","2","""event"",""trial"",""time""
""fullscreenenter"",""1"",""10581""
","
","
","""event"",""trial"",""time""
""fullscreenenter"",""1"",""10581""
","
","","","","","","1513.300000011921","<p> But, if the kids in the park you chose do not like the equipment, they will be sad. </p><div style='float: center;'><img src='images/x.png' width = '200' height = '200'></img>","","0","instructions","","","","","","","","","","","","","",""
"learning-instructions","15","122675","0.0-8.0-0.0-0.7","1726","1","2","""event"",""trial"",""time""
""fullscreenenter"",""1"",""10581""
","
","
","""event"",""trial"",""time""
""fullscreenenter"",""1"",""10581""
","
","","","","","","1312.7000000178814","<p> Importantly, the kids in each park like some pieces of sports equipment more than others. </p>","","0","instructions","","","","","","","","","","","","","",""
"learning-instructions","16","130692","0.0-8.0-0.0-0.8","1726","1","2","""event"",""trial"",""time""
""fullscreenenter"",""1"",""10581""
","
","
","""event"",""trial"",""time""
""fullscreenenter"",""1"",""10581""
","
","","","","","","1964.300000011921","<p> If you choose the best park for each piece of equipment, the kids there will usually be happy. </p>","","0","instructions","","","","","","","","","","","","","",""
"learning-instructions","17","138025","0.0-8.0-0.0-0.9","1726","1","2","""event"",""trial"",""time""
""fullscreenenter"",""1"",""10581""
","
","
","""event"",""trial"",""time""
""fullscreenenter"",""1"",""10581""
","
","","","","","","693.2999999821186","<p> However, even if you choose the best park for the equipment, the kids may sometimes be sad. </p>","","0","instructions","","","","","","","","","","","","","",""
"learning-instructions","18","145475","0.0-8.0-0.0-0.10","1726","1","2","""event"",""trial"",""time""
""fullscreenenter"",""1"",""10581""
","
","
","""event"",""trial"",""time""
""fullscreenenter"",""1"",""10581""
","
","","","","","","229.80000001192093","<p> Similarly, even if you choose the <i>wrong</i> park for the equipment, the kids may still be happy sometimes.","","0","instructions","","","","","","","","","","","","","",""
"learning-instructions","19","151193","0.0-8.0-0.0-0.11","1726","1","2","""event"",""trial"",""time""
""fullscreenenter"",""1"",""10581""
","
","
","""event"",""trial"",""time""
""fullscreenenter"",""1"",""10581""
","
","","","","","","665.9000000059605","<p> For example, the best park for this soccer ball is this one.<div style='float: center;'><img src='images/i1.png' width = '500' height = '268'></img>","","0","instructions","","","","","","","","","","","","","",""
"learning-instructions","20","157052","0.0-8.0-0.0-0.12","1726","1","2","""event"",""trial"",""time""
""fullscreenenter"",""1"",""10581""
","
","
","""event"",""trial"",""time""
""fullscreenenter"",""1"",""10581""
","
","","","","","","571.5999999940395","<p> Let's see what happens if you choose this park for the soccer ball five times.","","0","instructions","","","","","","","","","","","","","",""
"learning-instructions","21","161763","0.0-8.0-0.0-0.13","1726","1","2","""event"",""trial"",""time""
""fullscreenenter"",""1"",""10581""
","
","
","""event"",""trial"",""time""
""fullscreenenter"",""1"",""10581""
","
","","","","","","2549.5","<p> The kids are happy.<div style='float: left;'><img src='images/i2.png' width = '640' height = '360'></img>","","0","instructions","","","","","","","","","","","","","",""
"learning-instructions","22","164203","0.0-8.0-0.0-0.14","1726","1","2","""event"",""trial"",""time""
""fullscreenenter"",""1"",""10581""
","
","
","""event"",""trial"",""time""
""fullscreenenter"",""1"",""10581""
","
","","","","","","276.40000000596046","<p> The kids are happy.<div style='float: left;'><img src='images/i3.png' width = '640' height = '360'></img>","","0","instructions","","","","","","","","","","","","","",""
"learning-instructions","23","166628","0.0-8.0-0.0-0.15","1726","1","2","""event"",""trial"",""time""
""fullscreenenter"",""1"",""10581""
","
","
","""event"",""trial"",""time""
""fullscreenenter"",""1"",""10581""
","
","","","","","","263","<p> The kids are happy.<div style='float: left;'><img src='images/i4.png' width = '640' height = '360'></img>","","0","instructions","","","","","","","","","","","","","",""
"learning-instructions","24","169380","0.0-8.0-0.0-0.16","1726","1","2","""event"",""trial"",""time""
""fullscreenenter"",""1"",""10581""
","
","
","""event"",""trial"",""time""
""fullscreenenter"",""1"",""10581""
","
","","","","","","546.6999999880791","<p> The kids are sad.<div style='float: left;'><img src='images/i5.png' width = '640' height = '360'></img>","","0","instructions","","","","","","","","","","","","","",""
"learning-instructions","25","172205","0.0-8.0-0.0-0.17","1726","1","2","""event"",""trial"",""time""
""fullscreenenter"",""1"",""10581""
","
","
","""event"",""trial"",""time""
""fullscreenenter"",""1"",""10581""
","
","","","","","","659.3999999761581","<p> The kids are happy.<div style='float: left;'><img src='images/i6.png' width = '640' height = '360'></img>","","0","instructions","","","","","","","","","","","","","",""
"learning-instructions","26","184535","0.0-8.0-0.0-0.18","1726","1","2","""event"",""trial"",""time""
""fullscreenenter"",""1"",""10581""
","
","
","""event"",""trial"",""time""
""fullscreenenter"",""1"",""10581""
","
","","","","","","5054.5","<p> As you can see, selecting that park for the soccer ball made the kids happy most of the time, but not all the time.","","0","instructions","","","","","","","","","","","","","",""
"learning-instructions","27","191313","0.0-8.0-0.0-0.19","1726","1","2","""event"",""trial"",""time""
""fullscreenenter"",""1"",""10581""
","
","
","""event"",""trial"",""time""
""fullscreenenter"",""1"",""10581""
","
","","","","","","779","<p> Now let's see what happens if you choose a DIFFERENT park for the soccer ball 5 times.","","0","instructions","","","","","","","","","","","","","",""
"learning-instructions","28","194352","0.0-8.0-0.0-0.20","1726","1","2","""event"",""trial"",""time""
""fullscreenenter"",""1"",""10581""
","
","
","""event"",""trial"",""time""
""fullscreenenter"",""1"",""10581""
","
","","","","","","841.3000000119209","<p> The kids are sad.<div style='float: left;'><img src='images/i7.png' width = '640' height = '360'></img>","","0","instructions","","","","","","","","","","","","","",""
"learning-instructions","29","197018","0.0-8.0-0.0-0.21","1726","1","2","""event"",""trial"",""time""
""fullscreenenter"",""1"",""10581""
","
","
","""event"",""trial"",""time""
""fullscreenenter"",""1"",""10581""
","
","","","","","","459.59999999403954","<p> The kids are sad.<div style='float: left;'><img src='images/i8.png' width = '640' height = '360'></img>","","0","instructions","","","","","","","","","","","","","",""
"learning-instructions","30","199432","0.0-8.0-0.0-0.22","1726","1","2","""event"",""trial"",""time""
""fullscreenenter"",""1"",""10581""
","
","
","""event"",""trial"",""time""
""fullscreenenter"",""1"",""10581""
","
","","","","","","253.5","<p> The kids are happy.<div style='float: left;'><img src='images/i9.png' width = '640' height = '360'></img>","","0","instructions","","","","","","","","","","","","","",""
"learning-instructions","31","202073","0.0-8.0-0.0-0.23","1726","1","2","""event"",""trial"",""time""
""fullscreenenter"",""1"",""10581""
","
","
","""event"",""trial"",""time""
""fullscreenenter"",""1"",""10581""
","
","","","","","","436.19999998807907","<p> The kids are sad.<div style='float: left;'><img src='images/i10.png' width = '640' height = '360'></img>","","0","instructions","","","","","","","","","","","","","",""
"learning-instructions","32","204625","0.0-8.0-0.0-0.24","1726","1","2","""event"",""trial"",""time""
""fullscreenenter"",""1"",""10581""
","
","
","""event"",""trial"",""time""
""fullscreenenter"",""1"",""10581""
","
","","","","","","346.80000001192093","<p> The kids are sad.<div style='float: left;'><img src='images/i11.png' width = '640' height = '360'></img>","","0","instructions","","","","","","","","","","","","","",""
"learning-instructions","33","213451","0.0-8.0-0.0-0.25","1726","1","2","""event"",""trial"",""time""
""fullscreenenter"",""1"",""10581""
","
","
","""event"",""trial"",""time""
""fullscreenenter"",""1"",""10581""
","
","","","","","","709.5","<p> As you can see, selecting the wrong park for the soccer ball made the kids sad most of the time, but not all the time.","","0","instructions","","","","","","","","","","","","","",""
"learning-instructions","34","223045","0.0-8.0-0.0-0.26","1726","1","2","""event"",""trial"",""time""
""fullscreenenter"",""1"",""10581""
","
","
","""event"",""trial"",""time""
""fullscreenenter"",""1"",""10581""
","
","","","","","","479.7000000178814","<p> The different pieces of equipment belong in different parks. You need to try to learn which is the best park for each piece of equipment.","","0","instructions","","","","","","","","","","","","","",""
"learning-instructions","35","242069","0.0-8.0-0.0-0.27","1726","1","2","""event"",""trial"",""time""
""fullscreenenter"",""1"",""10581""
","
","
","""event"",""trial"",""time""
""fullscreenenter"",""1"",""10581""
","
","","","","","","2642.0999999940395","<p> Try to choose the best park for each piece of equipment, because you will <b> WIN </b> 1 point for each time you make the kids happy and <b>LOSE</b> 1 point for each time you make them sad. </p><p> Remember, if you make the best choice, you will win 1 point most of the time, but not all the time. </p>","","0","instructions","","","","","","","","","","","","","",""
"learning-instructions","36","249998","0.0-8.0-0.0-0.28","1726","1","2","""event"",""trial"",""time""
""fullscreenenter"",""1"",""10581""
","
","
","""event"",""trial"",""time""
""fullscreenenter"",""1"",""10581""
","
","","","","","","2454.0999999940395","<p> This is just a practice round, but in the real game, your bonus payment will depend on your total number of points.","","0","instructions","","","","","","","","","","","","","",""
"learning-instructions","37","261552","0.0-8.0-0.0-0.29","1726","1","2","""event"",""trial"",""time""
""fullscreenenter"",""1"",""10581""
","
","
","""event"",""trial"",""time""
""fullscreenenter"",""1"",""10581""
","
","","","","","","1239.0999999940395","<p> The position where each park appears will change throughout the game. </p><p> The position where the park appears <i> does not </i> influence how likely the kids are to be happy or sad. </p>","","0","instructions","","","","","","","","","","","","","",""
"learning-instructions","38","273439","0.0-8.0-0.0-0.30","1726","1","2","""event"",""trial"",""time""
""fullscreenenter"",""1"",""10581""
","
","
","""event"",""trial"",""time""
""fullscreenenter"",""1"",""10581""
","
","","","","","","702.6999999880791","<p> You will have 4 seconds to make each choice. Try to respond before time runs out! </p><p> You will lose 1 point each time you do not make a response. </p>","","0","instructions","","","","","","","","","","","","","",""
"learning-instructions","39","280854","0.0-8.0-0.0-0.31","1726","1","2","""event"",""trial"",""time""
""fullscreenenter"",""1"",""10581""
","
","
","""event"",""trial"",""time""
""fullscreenenter"",""1"",""10581""
","
","","","","","","628.8999999761581","<p> Remember, you should use the 1, 2, and 3 keys to select the park for each piece of equipment. </p><br><div class=""choice-instructions-grid""> <div class=""choice-option""><img src=""images/park1.png"" class=""choice-option-img"" stage=""instructions"" position=""0"" ><div class=""choice-option-text""> Press ""1."" </div></div><div class=""choice-option""><img src=""images/park2.png"" class=""choice-option-img"" stage=""instructions"" position=""1"" ><div class=""choice-option-text""> Press ""2."" </div></div><div class=""choice-option""><img src=""images/park3.png"" class=""choice-option-img"" stage=""instructions"" position=""2"" ><div class=""choice-option-text""> Press ""3."" </div></div></div>","","0","instructions","","","","","","","","","","","","","",""
"html-button-response","40","283627","0.0-8.0-1.0","1726","1","2","""event"",""trial"",""time""
""fullscreenenter"",""1"",""10581""
","
","
","""event"",""trial"",""time""
""fullscreenenter"",""1"",""10581""
","
","","","","","","2669.5","<p> Ready to practice? </p>","0","","","","","","","","","","","","","","","",""
"html-keyboard-response","41","284230","0.0-8.0-2.0-0.0","1726","1","2","""event"",""trial"",""time""
""fullscreenenter"",""1"",""10581""
","
","
","""event"",""trial"",""time""
""fullscreenenter"",""1"",""10581""
","
","","","","","","null","<div style=""font-size:60px;"">+</div>","null","","fixation","","","","","","","","","","","","","",""
"learning-trial","42","288245","0.0-8.0-2.0-1.0","1726","1","2","""event"",""trial"",""time""
""fullscreenenter"",""1"",""10581""
","
","
","""event"",""trial"",""time""
""fullscreenenter"",""1"",""10581""
","
","","","","","","3993.7999999821186","images/ball3.png","","","practice","images/park2.png","images/park1.png","images/park3.png","[1,0,2]","2","2","3","images/park3.png","1","practice","","","",""
"html-keyboard-response","43","288747","0.0-8.0-2.0-0.1","1726","1","2","""event"",""trial"",""time""
""fullscreenenter"",""1"",""10581""
","
","
","""event"",""trial"",""time""
""fullscreenenter"",""1"",""10581""
","
","","","","","","null","<div style=""font-size:60px;"">+</div>","null","","fixation","","","","","","","","","","","","","",""
"learning-trial","44","292753","0.0-8.0-2.0-1.1","1726","1","2","""event"",""trial"",""time""
""fullscreenenter"",""1"",""10581""
","
","
","""event"",""trial"",""time""
""fullscreenenter"",""1"",""10581""
","
","","","","","","3118.0999999940395","images/ball4.png","","","practice","images/park3.png","images/park2.png","images/park1.png","[2,1,0]","1","1","3","images/park1.png","-1","practice","","","",""
"html-keyboard-response","45","293255","0.0-8.0-2.0-0.2","1726","1","2","""event"",""trial"",""time""
""fullscreenenter"",""1"",""10581""
","
","
","""event"",""trial"",""time""
""fullscreenenter"",""1"",""10581""
","
","","","","","","null","<div style=""font-size:60px;"">+</div>","null","","fixation","","","","","","","","","","","","","",""
"learning-trial","46","297262","0.0-8.0-2.0-1.2","1726","1","2","""event"",""trial"",""time""
""fullscreenenter"",""1"",""10581""
","
","
","""event"",""trial"",""time""
""fullscreenenter"",""1"",""10581""
","
","","","","","","3973.0999999940395","images/racket3.png","","","practice","images/park2.png","images/park3.png","images/park1.png","[1,2,0]","0","2","1","images/park2.png","-1","practice","","","",""
"html-keyboard-response","47","297765","0.0-8.0-2.0-0.3","1726","1","2","""event"",""trial"",""time""
""fullscreenenter"",""1"",""10581""
","
","
","""event"",""trial"",""time""
""fullscreenenter"",""1"",""10581""
","
","","","","","","null","<div style=""font-size:60px;"">+</div>","null","","fixation","","","","","","","","","","","","","",""
"learning-trial","48","301771","0.0-8.0-2.0-1.3","1726","1","2","""event"",""trial"",""time""
""fullscreenenter"",""1"",""10581""
","
","
","""event"",""trial"",""time""
""fullscreenenter"",""1"",""10581""
","
","","","","","","2387.199999988079","images/racket2.png","","","practice","images/park3.png","images/park2.png","images/park1.png","[2,1,0]","2","0","3","images/park1.png","-1","practice","","","",""
"html-keyboard-response","49","302274","0.0-8.0-2.0-0.4","1726","1","2","""event"",""trial"",""time""
""fullscreenenter"",""1"",""10581""
","
","
","""event"",""trial"",""time""
""fullscreenenter"",""1"",""10581""
","
","","","","","","null","<div style=""font-size:60px;"">+</div>","null","","fixation","","","","","","","","","","","","","",""
"learning-trial","50","306280","0.0-8.0-2.0-1.4","1726","1","2","""event"",""trial"",""time""
""fullscreenenter"",""1"",""10581""
","
","
","""event"",""trial"",""time""
""fullscreenenter"",""1"",""10581""
","
","","","","","","1547.5","images/ball1.png","","","practice","images/park2.png","images/park1.png","images/park3.png","[1,0,2]","1","0","3","images/park3.png","-1","practice","","","",""
"html-keyboard-response","51","306783","0.0-8.0-2.0-0.5","1726","1","2","""event"",""trial"",""time""
""fullscreenenter"",""1"",""10581""
","
","
","""event"",""trial"",""time""
""fullscreenenter"",""1"",""10581""
","
","","","","","","null","<div style=""font-size:60px;"">+</div>","null","","fixation","","","","","","","","","","","","","",""
"learning-trial","52","310790","0.0-8.0-2.0-1.5","1726","1","2","""event"",""trial"",""time""
""fullscreenenter"",""1"",""10581""
","
","
","""event"",""trial"",""time""
""fullscreenenter"",""1"",""10581""
","
","","","","","","3255.0999999940395","images/racket2.png","","","practice","images/park2.png","images/park3.png","images/park1.png","[1,2,0]","2","1","1","images/park2.png","-1","practice","","","",""
"html-keyboard-response","53","311292","0.0-8.0-2.0-0.6","1726","1","2","""event"",""trial"",""time""
""fullscreenenter"",""1"",""10581""
","
","
","""event"",""trial"",""time""
""fullscreenenter"",""1"",""10581""
","
","","","","","","null","<div style=""font-size:60px;"">+</div>","null","","fixation","","","","","","","","","","","","","",""
"learning-trial","54","315297","0.0-8.0-2.0-1.6","1726","1","2","""event"",""trial"",""time""
""fullscreenenter"",""1"",""10581""
","
","
","""event"",""trial"",""time""
""fullscreenenter"",""1"",""10581""
","
","","","","","","1681.0999999940395","images/ball4.png","","","practice","images/park2.png","images/park3.png","images/park1.png","[1,2,0]","1","0","3","images/park1.png","-1","practice","","","",""
"html-keyboard-response","55","315800","0.0-8.0-2.0-0.7","1726","1","2","""event"",""trial"",""time""
""fullscreenenter"",""1"",""10581""
","
","
","""event"",""trial"",""time""
""fullscreenenter"",""1"",""10581""
","
","","","","","","null","<div style=""font-size:60px;"">+</div>","null","","fixation","","","","","","","","","","","","","",""
"learning-trial","56","319805","0.0-8.0-2.0-1.7","1726","1","2","""event"",""trial"",""time""
""fullscreenenter"",""1"",""10581""
","
","
","""event"",""trial"",""time""
""fullscreenenter"",""1"",""10581""
","
","","","","","","null","images/racket3.png","","","practice","images/park3.png","images/park2.png","images/park1.png","[2,1,0]","0","2","null","null","-1","practice","","","",""
"html-keyboard-response","57","320307","0.0-8.0-2.0-0.8","1726","1","2","""event"",""trial"",""time""
""fullscreenenter"",""1"",""10581""
","
","
","""event"",""trial"",""time""
""fullscreenenter"",""1"",""10581""
","
","","","","","","null","<div style=""font-size:60px;"">+</div>","null","","fixation","","","","","","","","","","","","","",""
"learning-trial","58","324314","0.0-8.0-2.0-1.8","1726","1","2","""event"",""trial"",""time""
""fullscreenenter"",""1"",""10581""
","
","
","""event"",""trial"",""time""
""fullscreenenter"",""1"",""10581""
","
","","","","","","699.9000000059605","images/racket4.png","","","practice","images/park2.png","images/park1.png","images/park3.png","[1,0,2]","0","1","2","images/park1.png","1","practice","","","",""
"html-keyboard-response","59","324815","0.0-8.0-2.0-0.9","1726","1","2","""event"",""trial"",""time""
""fullscreenenter"",""1"",""10581""
","
","
","""event"",""trial"",""time""
""fullscreenenter"",""1"",""10581""
","
","","","","","","null","<div style=""font-size:60px;"">+</div>","null","","fixation","","","","","","","","","","","","","",""
"learning-trial","60","328821","0.0-8.0-2.0-1.9","1726","1","2","""event"",""trial"",""time""
""fullscreenenter"",""1"",""10581""
","
","
","""event"",""trial"",""time""
""fullscreenenter"",""1"",""10581""
","
","","","","","","1438.5","images/ball3.png","","","practice","images/park3.png","images/park2.png","images/park1.png","[2,1,0]","2","0","1","images/park3.png","1","practice","","","",""
"html-keyboard-response","61","329322","0.0-8.0-2.0-0.10","1726","1","2","""event"",""trial"",""time""
""fullscreenenter"",""1"",""10581""
","
","
","""event"",""trial"",""time""
""fullscreenenter"",""1"",""10581""
","
","","","","","","null","<div style=""font-size:60px;"">+</div>","null","","fixation","","","","","","","","","","","","","",""
"learning-trial","62","333328","0.0-8.0-2.0-1.10","1726","1","2","""event"",""trial"",""time""
""fullscreenenter"",""1"",""10581""
","
","
","""event"",""trial"",""time""
""fullscreenenter"",""1"",""10581""
","
","","","","","","1018.7999999821186","images/ball1.png","","","practice","images/park2.png","images/park3.png","images/park1.png","[1,2,0]","1","0","1","images/park2.png","-1","practice","","","",""
"html-keyboard-response","63","333830","0.0-8.0-2.0-0.11","1726","1","2","""event"",""trial"",""time""
""fullscreenenter"",""1"",""10581""
","
","
","""event"",""trial"",""time""
""fullscreenenter"",""1"",""10581""
","
","","","","","","null","<div style=""font-size:60px;"">+</div>","null","","fixation","","","","","","","","","","","","","",""
"learning-trial","64","337835","0.0-8.0-2.0-1.11","1726","1","2","""event"",""trial"",""time""
""fullscreenenter"",""1"",""10581""
","
","
","""event"",""trial"",""time""
""fullscreenenter"",""1"",""10581""
","
","","","","","","1820.5","images/racket4.png","","","practice","images/park1.png","images/park3.png","images/park2.png","[0,2,1]","0","0","1","images/park1.png","1","practice","","","",""
"html-button-response","65","341273","0.0-8.0-3.0","1726","1","2","""event"",""trial"",""time""
""fullscreenenter"",""1"",""10581""
","
","
","""event"",""trial"",""time""
""fullscreenenter"",""1"",""10581""
","
","","","","","","3433.699999988079","<p> You earned -4 points in the practice round! </p>","0","","break","","","","","","","","","","","","","",""
"learning-instructions","66","350937","0.0-8.0-4.0-0.0","1726","1","2","""event"",""trial"",""time""
""fullscreenenter"",""1"",""10581""
","
","
","""event"",""trial"",""time""
""fullscreenenter"",""1"",""10581""
","
","","","","","","1933.7999999821186","<p> It's almost time to start the real game. </p><p> Before you start, we're going to ask you a few questions about how the game works. </p>","","0","instructions","","","","","","","","","","","","","",""
"preload","67","354626","0.0-8.0-5.0","1726","1","2","""event"",""trial"",""time""
""fullscreenenter"",""1"",""10581""
","
","
","""event"",""trial"",""time""
""fullscreenenter"",""1"",""10581""
","
","true","false","[]","[]","[]","","","","","","","","","","","","","","","","","","",""
"comp-q","68","361723","0.0-8.0-6.0-0.0","1726","1","2","""event"",""trial"",""time""
""fullscreenenter"",""1"",""10581""
","
","
","""event"",""trial"",""time""
""fullscreenenter"",""1"",""10581""
","
","","","","","","1645.9000000059605","<p> <b> True or False? </b> </p><p> If you choose the best option, you will always earn 1 point. </p>","","1","comp_question","","","","","","","","","","","true","","",""
"comp-q","69","370800","0.0-8.0-6.0-1.0","1726","1","2","""event"",""trial"",""time""
""fullscreenenter"",""1"",""10581""
","
","
","""event"",""trial"",""time""
""fullscreenenter"",""1"",""10581""
","
","","","","","","3418","<p><b> That's right! </b> Sometimes you will lose 1 point, even if you choose the best option. </p>","","0","comp_answer","","","","","","","","","","","","","",""
"comp-q","70","376085","0.0-8.0-6.0-0.1","1726","1","2","""event"",""trial"",""time""
""fullscreenenter"",""1"",""10581""
","
","
","""event"",""trial"",""time""
""fullscreenenter"",""1"",""10581""
","
","","","","","","658.0999999940395","<p> <b> True or False? </b> </p><p> You will have as much time as you want to make each choice. </p>","","1","comp_question","","","","","","","","","","","true","","",""
"comp-q","71","382918","0.0-8.0-6.0-1.1","1726","1","2","""event"",""trial"",""time""
""fullscreenenter"",""1"",""10581""
","
","
","""event"",""trial"",""time""
""fullscreenenter"",""1"",""10581""
","
","","","","","","2025.5999999940395","<p> <b> That's right! </b> You will only have 4 seconds to make each choice. </p>","","0","comp_answer","","","","","","","","","","","","","",""
"comp-q","72","390736","0.0-8.0-6.0-0.2","1726","1","2","""event"",""trial"",""time""
""fullscreenenter"",""1"",""10581""
","
","
","""event"",""trial"",""time""
""fullscreenenter"",""1"",""10581""
","
","","","","","","1665.2999999821186","<p> <b> True or False? </b> </p><p> You should use the '1', '2', and '3' keys to make your choices. </p>","","0","comp_question","","","","","","","","","","","true","","",""
"comp-q","73","397896","0.0-8.0-6.0-1.2","1726","1","2","""event"",""trial"",""time""
""fullscreenenter"",""1"",""10581""
","
","
","""event"",""trial"",""time""
""fullscreenenter"",""1"",""10581""
","
","","","","","","2313.9000000059605","<p> <b> That's right! </b> You should use the '1', '2', and '3' keys to make each choice. </p>","","0","comp_answer","","","","","","","","","","","","","",""
"learning-instructions","74","408049","0.0-8.0-7.0-0.0","1726","1","2","""event"",""trial"",""time""
""fullscreenenter"",""1"",""10581""
","
","
","""event"",""trial"",""time""
""fullscreenenter"",""1"",""10581""
","
","","","","","","1667.5999999940395","<p> It's now time to start the real game. </p>Do your best, because the points you earn in the next rounds will influence your bonus payment. </p>","","0","instructions","","","","","","","","","","","","","",""
"preload","75","413193","0.0-9.0-0.0","1726","1","2","""event"",""trial"",""time""
""fullscreenenter"",""1"",""10581""
","
","
","""event"",""trial"",""time""
""fullscreenenter"",""1"",""10581""
","
","true","false","[]","[]","[]","","","","","","","","","","","","","","","","","","",""
"learning-instructions","76","423530","0.0-9.0-1.0-0.0","1726","1","2","""event"",""trial"",""time""
""fullscreenenter"",""1"",""10581""
","
","
","""event"",""trial"",""time""
""fullscreenenter"",""1"",""10581""
","
","","","","","","2552.199999988079","<p> Your goal in this round is to deliver furniture to three different buildings. </p><p> You will need to deliver many pieces of furniture. </p></div>","","0","instructions","","","","","","","","","","","","","",""
"learning-instructions","77","432235","0.0-9.0-1.0-0.1","1726","1","2","""event"",""trial"",""time""
""fullscreenenter"",""1"",""10581""
","
","
","""event"",""trial"",""time""
""fullscreenenter"",""1"",""10581""
","
","","","","","","1269.7000000178814","<p> On each turn, you will see a picture of a furniture item and three different buildings.  </p><p> You need to select the building that you want to deliver the furniture to.  </p>","","0","instructions","","","","","","","","","","","","","",""
"learning-instructions","78","442509","0.0-9.0-1.0-0.2","1726","1","2","""event"",""trial"",""time""
""fullscreenenter"",""1"",""10581""
","
","
","""event"",""trial"",""time""
""fullscreenenter"",""1"",""10581""
","
","","","","","","1982.699999988079","<p> You can select the building on the left by pressing 1, the building in the middle by pressing 2, and the building on the right by pressing 3.  </p><br><div class=""choice-instructions-grid""> <div class=""choice-option""><img src=""images/furniture_choice1.png"" class=""choice-option-img"" stage=""instructions"" position=""0"" ><div class=""choice-option-text""> Press ""1."" </div></div><div class=""choice-option""><img src=""images/furniture_choice2.png"" class=""choice-option-img"" stage=""instructions"" position=""1"" ><div class=""choice-option-text""> Press ""2."" </div></div><div class=""choice-option""><img src=""images/furniture_choice3.png"" class=""choice-option-img"" stage=""instructions"" position=""2"" ><div class=""choice-option-text""> Press ""3."" </div></div></div>","","0","instructions","","","","","","","","","","","","","",""
"learning-instructions","79","450862","0.0-9.0-1.0-0.3","1726","1","2","""event"",""trial"",""time""
""fullscreenenter"",""1"",""10581""
","
","
","""event"",""trial"",""time""
""fullscreenenter"",""1"",""10581""
","
","","","","","","2332.7999999821186","<p> If the furniture belongs in the building you chose, the building owner will likely be very happy! </p><div style='float: center;'><img src='images/check.png' width = '200' height = '200'></img>","","0","instructions","","","","","","","","","","","","","",""
"learning-instructions","80","459615","0.0-9.0-1.0-0.4","1726","1","2","""event"",""trial"",""time""
""fullscreenenter"",""1"",""10581""
","
","
","""event"",""trial"",""time""
""fullscreenenter"",""1"",""10581""
","
","","","","","","2764.7999999821186","<p> But, if the furniture does not belong in the building you chose, the owner will likely be mad. </p><div style='float: center;'><img src='images/x.png' width = '200' height = '200'></img>","","0","instructions","","","","","","","","","","","","","",""
"learning-instructions","81","471560","0.0-9.0-1.0-0.5","1726","1","2","""event"",""trial"",""time""
""fullscreenenter"",""1"",""10581""
","
","
","""event"",""trial"",""time""
""fullscreenenter"",""1"",""10581""
","
","","","","","","733.4000000059605","<p> Importantly, each piece of furniture belongs in one of the three buildings. </p><p> If you choose the correct building for the piece of furniture, you will be more likely to make the building owner happy! </p>","","0","instructions","","","","","","","","","","","","","",""
"learning-instructions","82","484065","0.0-9.0-1.0-0.6","1726","1","2","""event"",""trial"",""time""
""fullscreenenter"",""1"",""10581""
","
","
","""event"",""trial"",""time""
""fullscreenenter"",""1"",""10581""
","
","","","","","","997.2999999821186","<p> However, even if you choose the best building for the furniture, the owner may still be mad sometimes. </p><p> Similarly, even if you choose the <i>wrong</i> building, the owner may still be happy.","","0","instructions","","","","","","","","","","","","","",""
"learning-instructions","83","498027","0.0-9.0-1.0-0.7","1726","1","2","""event"",""trial"",""time""
""fullscreenenter"",""1"",""10581""
","
","
","""event"",""trial"",""time""
""fullscreenenter"",""1"",""10581""
","
","","","","","","726","<p> Try to choose the best building for each piece of furniture, because you will <b> WIN </b> 1 point each time a building owner is happy and <b>LOSE</b>  1 point each time a building owner is mad. </p><p> Your bonus payment will depend on your total number of points.","","0","instructions","","","","","","","","","","","","","",""
"learning-instructions","84","507549","0.0-9.0-1.0-0.8","1726","1","2","""event"",""trial"",""time""
""fullscreenenter"",""1"",""10581""
","
","
","""event"",""trial"",""time""
""fullscreenenter"",""1"",""10581""
","
","","","","","","556.2999999821186","<p> The position of each building will change throughout the round. </p><p> The building's position <i> does not </i> influence how likely the owner is to be happy or mad. </p>","","0","instructions","","","","","","","","","","","","","",""
"learning-instructions","85","517351","0.0-9.0-1.0-0.9","1726","1","2","""event"",""trial"",""time""
""fullscreenenter"",""1"",""10581""
","
","
","""event"",""trial"",""time""
""fullscreenenter"",""1"",""10581""
","
","","","","","","503","<p> You will have 4 seconds to make each choice. Try to respond before time runs out! </p><p> You will lose 1 point each time you do not make a response. </p>","","0","instructions","","","","","","","","","","","","","",""
"html-keyboard-response","86","517955","0.0-9.0-2.0-0.0","1726","1","2","""event"",""trial"",""time""
""fullscreenenter"",""1"",""10581""
","
","
","""event"",""trial"",""time""
""fullscreenenter"",""1"",""10581""
","
","","","","","","null","<div style=""font-size:60px;"">+</div>","null","","fixation","","","","","","","","","","","","","",""
"learning-trial","87","521960","0.0-9.0-2.0-1.0","1726","1","2","""event"",""trial"",""time""
""fullscreenenter"",""1"",""10581""
","
","
","""event"",""trial"",""time""
""fullscreenenter"",""1"",""10581""
","
","","","","","","2482.300000011921","images/sofa5.png","","","learning","images/furniture_choice1.png","images/furniture_choice3.png","images/furniture_choice2.png","[0,2,1]","1","2","1","images/furniture_choice1.png","-1","furniture","","sofa","1","0"
"html-keyboard-response","88","522463","0.0-9.0-2.0-0.1","1726","1","2","""event"",""trial"",""time""
""fullscreenenter"",""1"",""10581""
","
","
","""event"",""trial"",""time""
""fullscreenenter"",""1"",""10581""
","
","","","","","","null","<div style=""font-size:60px;"">+</div>","null","","fixation","","","","","","","","","","","","","",""
"learning-trial","89","526469","0.0-9.0-2.0-1.1","1726","1","2","""event"",""trial"",""time""
""fullscreenenter"",""1"",""10581""
","
","
","""event"",""trial"",""time""
""fullscreenenter"",""1"",""10581""
","
","","","","","","1156.5999999940395","images/table1.png","","","learning","images/furniture_choice2.png","images/furniture_choice3.png","images/furniture_choice1.png","[1,2,0]","2","1","2","images/furniture_choice3.png","1","furniture","","table","1","0"
"html-keyboard-response","90","526971","0.0-9.0-2.0-0.2","1726","1","2","""event"",""trial"",""time""
""fullscreenenter"",""1"",""10581""
","
","
","""event"",""trial"",""time""
""fullscreenenter"",""1"",""10581""
","
","","","","","","null","<div style=""font-size:60px;"">+</div>","null","","fixation","","","","","","","","","","","","","",""
"learning-trial","91","530977","0.0-9.0-2.0-1.2","1726","1","2","""event"",""trial"",""time""
""fullscreenenter"",""1"",""10581""
","
","
","""event"",""trial"",""time""
""fullscreenenter"",""1"",""10581""
","
","","","","","","2035.4000000059605","images/table4.png","","","learning","images/furniture_choice2.png","images/furniture_choice1.png","images/furniture_choice3.png","[1,0,2]","2","2","3","images/furniture_choice3.png","1","furniture","","table","1","0"
"html-keyboard-response","92","531479","0.0-9.0-2.0-0.3","1726","1","2","""event"",""trial"",""time""
""fullscreenenter"",""1"",""10581""
","
","
","""event"",""trial"",""time""
""fullscreenenter"",""1"",""10581""
","
","","","","","","null","<div style=""font-size:60px;"">+</div>","null","","fixation","","","","","","","","","","","","","",""
"learning-trial","93","535485","0.0-9.0-2.0-1.3","1726","1","2","""event"",""trial"",""time""
""fullscreenenter"",""1"",""10581""
","
","
","""event"",""trial"",""time""
""fullscreenenter"",""1"",""10581""
","
","","","","","","1105.199999988079","images/chair2.png","","","learning","images/furniture_choice2.png","images/furniture_choice1.png","images/furniture_choice3.png","[1,0,2]","0","1","2","images/furniture_choice1.png","1","furniture","","chair","1","0"
"html-keyboard-response","94","535987","0.0-9.0-2.0-0.4","1726","1","2","""event"",""trial"",""time""
""fullscreenenter"",""1"",""10581""
","
","
","""event"",""trial"",""time""
""fullscreenenter"",""1"",""10581""
","
","","","","","","null","<div style=""font-size:60px;"">+</div>","null","","fixation","","","","","","","","","","","","","",""
"learning-trial","95","539993","0.0-9.0-2.0-1.4","1726","1","2","""event"",""trial"",""time""
""fullscreenenter"",""1"",""10581""
","
","
","""event"",""trial"",""time""
""fullscreenenter"",""1"",""10581""
","
","","","","","","1296.0999999940395","images/chair3.png","","","learning","images/furniture_choice2.png","images/furniture_choice3.png","images/furniture_choice1.png","[1,2,0]","0","2","2","images/furniture_choice3.png","-1","furniture","","chair","1","0"
"html-keyboard-response","96","540496","0.0-9.0-2.0-0.5","1726","1","2","""event"",""trial"",""time""
""fullscreenenter"",""1"",""10581""
","
","
","""event"",""trial"",""time""
""fullscreenenter"",""1"",""10581""
","
","","","","","","null","<div style=""font-size:60px;"">+</div>","null","","fixation","","","","","","","","","","","","","",""
"learning-trial","97","544501","0.0-9.0-2.0-1.5","1726","1","2","""event"",""trial"",""time""
""fullscreenenter"",""1"",""10581""
","
","
","""event"",""trial"",""time""
""fullscreenenter"",""1"",""10581""
","
","","","","","","1490.7000000178814","images/sofa3.png","","","learning","images/furniture_choice3.png","images/furniture_choice1.png","images/furniture_choice2.png","[2,0,1]","1","2","1","images/furniture_choice3.png","-1","furniture","","sofa","1","0"
"html-keyboard-response","98","545004","0.0-9.0-2.0-0.6","1726","1","2","""event"",""trial"",""time""
""fullscreenenter"",""1"",""10581""
","
","
","""event"",""trial"",""time""
""fullscreenenter"",""1"",""10581""
","
","","","","","","null","<div style=""font-size:60px;"">+</div>","null","","fixation","","","","","","","","","","","","","",""
"learning-trial","99","549009","0.0-9.0-2.0-1.6","1726","1","2","""event"",""trial"",""time""
""fullscreenenter"",""1"",""10581""
","
","
","""event"",""trial"",""time""
""fullscreenenter"",""1"",""10581""
","
","","","","","","1602.800000011921","images/chair4.png","","","learning","images/furniture_choice3.png","images/furniture_choice1.png","images/furniture_choice2.png","[2,0,1]","0","1","2","images/furniture_choice1.png","1","furniture","","chair","1","0"
"html-keyboard-response","100","549513","0.0-9.0-2.0-0.7","1726","1","2","""event"",""trial"",""time""
""fullscreenenter"",""1"",""10581""
","
","
","""event"",""trial"",""time""
""fullscreenenter"",""1"",""10581""
","
","","","","","","null","<div style=""font-size:60px;"">+</div>","null","","fixation","","","","","","","","","","","","","",""
"learning-trial","101","553521","0.0-9.0-2.0-1.7","1726","1","2","""event"",""trial"",""time""
""fullscreenenter"",""1"",""10581""
","
","
","""event"",""trial"",""time""
""fullscreenenter"",""1"",""10581""
","
","","","","","","1670.2999999821186","images/sofa4.png","","","learning","images/furniture_choice1.png","images/furniture_choice2.png","images/furniture_choice3.png","[0,1,2]","1","1","3","images/furniture_choice3.png","-1","furniture","","sofa","1","0"
"html-keyboard-response","102","554024","0.0-9.0-2.0-0.8","1726","1","2","""event"",""trial"",""time""
""fullscreenenter"",""1"",""10581""
","
","
","""event"",""trial"",""time""
""fullscreenenter"",""1"",""10581""
","
","","","","","","null","<div style=""font-size:60px;"">+</div>","null","","fixation","","","","","","","","","","","","","",""
"learning-trial","103","558030","0.0-9.0-2.0-1.8","1726","1","2","""event"",""trial"",""time""
""fullscreenenter"",""1"",""10581""
","
","
","""event"",""trial"",""time""
""fullscreenenter"",""1"",""10581""
","
","","","","","","1054.2999999821186","images/sofa5.png","","","learning","images/furniture_choice1.png","images/furniture_choice2.png","images/furniture_choice3.png","[0,1,2]","1","1","1","images/furniture_choice1.png","-1","furniture","","sofa","1","0"
"html-keyboard-response","104","558533","0.0-9.0-2.0-0.9","1726","1","2","""event"",""trial"",""time""
""fullscreenenter"",""1"",""10581""
","
","
","""event"",""trial"",""time""
""fullscreenenter"",""1"",""10581""
","
","","","","","","null","<div style=""font-size:60px;"">+</div>","null","","fixation","","","","","","","","","","","","","",""
"learning-trial","105","562539","0.0-9.0-2.0-1.9","1726","1","2","""event"",""trial"",""time""
""fullscreenenter"",""1"",""10581""
","
","
","""event"",""trial"",""time""
""fullscreenenter"",""1"",""10581""
","
","","","","","","1472","images/sofa4.png","","","learning","images/furniture_choice2.png","images/furniture_choice1.png","images/furniture_choice3.png","[1,0,2]","1","0","3","images/furniture_choice3.png","-1","furniture","","sofa","1","0"
"html-keyboard-response","106","563041","0.0-9.0-2.0-0.10","1726","1","2","""event"",""trial"",""time""
""fullscreenenter"",""1"",""10581""
","
","
","""event"",""trial"",""time""
""fullscreenenter"",""1"",""10581""
","
","","","","","","null","<div style=""font-size:60px;"">+</div>","null","","fixation","","","","","","","","","","","","","",""
"learning-trial","107","567047","0.0-9.0-2.0-1.10","1726","1","2","""event"",""trial"",""time""
""fullscreenenter"",""1"",""10581""
","
","
","""event"",""trial"",""time""
""fullscreenenter"",""1"",""10581""
","
","","","","","","1325","images/chair4.png","","","learning","images/furniture_choice2.png","images/furniture_choice1.png","images/furniture_choice3.png","[1,0,2]","0","1","3","images/furniture_choice3.png","-1","furniture","","chair","1","0"
"html-keyboard-response","108","567549","0.0-9.0-2.0-0.11","1726","1","2","""event"",""trial"",""time""
""fullscreenenter"",""1"",""10581""
","
","
","""event"",""trial"",""time""
""fullscreenenter"",""1"",""10581""
","
","","","","","","null","<div style=""font-size:60px;"">+</div>","null","","fixation","","","","","","","","","","","","","",""
"learning-trial","109","571555","0.0-9.0-2.0-1.11","1726","1","2","""event"",""trial"",""time""
""fullscreenenter"",""1"",""10581""
","
","
","""event"",""trial"",""time""
""fullscreenenter"",""1"",""10581""
","
","","","","","","2118.7999999821186","images/table5.png","","","learning","images/furniture_choice2.png","images/furniture_choice3.png","images/furniture_choice1.png","[1,2,0]","2","1","2","images/furniture_choice3.png","1","furniture","","table","1","0"
"html-keyboard-response","110","572059","0.0-9.0-2.0-0.12","1726","1","2","""event"",""trial"",""time""
""fullscreenenter"",""1"",""10581""
","
","
","""event"",""trial"",""time""
""fullscreenenter"",""1"",""10581""
","
","","","","","","null","<div style=""font-size:60px;"">+</div>","null","","fixation","","","","","","","","","","","","","",""
"learning-trial","111","576064","0.0-9.0-2.0-1.12","1726","1","2","""event"",""trial"",""time""
""fullscreenenter"",""1"",""10581""
","
","
","""event"",""trial"",""time""
""fullscreenenter"",""1"",""10581""
","
","","","","","","1208.9000000059605","images/table4.png","","","learning","images/furniture_choice3.png","images/furniture_choice2.png","images/furniture_choice1.png","[2,1,0]","2","0","1","images/furniture_choice3.png","1","furniture","","table","1","0"
"html-keyboard-response","112","576566","0.0-9.0-2.0-0.13","1726","1","2","""event"",""trial"",""time""
""fullscreenenter"",""1"",""10581""
","
","
","""event"",""trial"",""time""
""fullscreenenter"",""1"",""10581""
","
","","","","","","null","<div style=""font-size:60px;"">+</div>","null","","fixation","","","","","","","","","","","","","",""
"learning-trial","113","580571","0.0-9.0-2.0-1.13","1726","1","2","""event"",""trial"",""time""
""fullscreenenter"",""1"",""10581""
","
","
","""event"",""trial"",""time""
""fullscreenenter"",""1"",""10581""
","
","","","","","","1081.800000011921","images/chair2.png","","","learning","images/furniture_choice1.png","images/furniture_choice3.png","images/furniture_choice2.png","[0,2,1]","0","0","1","images/furniture_choice1.png","1","furniture","","chair","1","0"
"html-keyboard-response","114","581073","0.0-9.0-2.0-0.14","1726","1","2","""event"",""trial"",""time""
""fullscreenenter"",""1"",""10581""
","
","
","""event"",""trial"",""time""
""fullscreenenter"",""1"",""10581""
","
","","","","","","null","<div style=""font-size:60px;"">+</div>","null","","fixation","","","","","","","","","","","","","",""
"learning-trial","115","585079","0.0-9.0-2.0-1.14","1726","1","2","""event"",""trial"",""time""
""fullscreenenter"",""1"",""10581""
","
","
","""event"",""trial"",""time""
""fullscreenenter"",""1"",""10581""
","
","","","","","","940.4000000059605","images/chair3.png","","","learning","images/furniture_choice2.png","images/furniture_choice3.png","images/furniture_choice1.png","[1,2,0]","0","2","3","images/furniture_choice1.png","1","furniture","","chair","1","0"
"html-keyboard-response","116","585581","0.0-9.0-2.0-0.15","1726","1","2","""event"",""trial"",""time""
""fullscreenenter"",""1"",""10581""
","
","
","""event"",""trial"",""time""
""fullscreenenter"",""1"",""10581""
","
","","","","","","null","<div style=""font-size:60px;"">+</div>","null","","fixation","","","","","","","","","","","","","",""
"learning-trial","117","589585","0.0-9.0-2.0-1.15","1726","1","2","""event"",""trial"",""time""
""fullscreenenter"",""1"",""10581""
","
","
","""event"",""trial"",""time""
""fullscreenenter"",""1"",""10581""
","
","","","","","","1015","images/table4.png","","","learning","images/furniture_choice1.png","images/furniture_choice3.png","images/furniture_choice2.png","[0,2,1]","2","1","2","images/furniture_choice3.png","-1","furniture","","table","1","0"
"html-keyboard-response","118","590087","0.0-9.0-2.0-0.16","1726","1","2","""event"",""trial"",""time""
""fullscreenenter"",""1"",""10581""
","
","
","""event"",""trial"",""time""
""fullscreenenter"",""1"",""10581""
","
","","","","","","null","<div style=""font-size:60px;"">+</div>","null","","fixation","","","","","","","","","","","","","",""
"learning-trial","119","594093","0.0-9.0-2.0-1.16","1726","1","2","""event"",""trial"",""time""
""fullscreenenter"",""1"",""10581""
","
","
","""event"",""trial"",""time""
""fullscreenenter"",""1"",""10581""
","
","","","","","","1467.199999988079","images/chair4.png","","","learning","images/furniture_choice3.png","images/furniture_choice1.png","images/furniture_choice2.png","[2,0,1]","0","1","1","images/furniture_choice3.png","-1","furniture","","chair","1","0"
"html-keyboard-response","120","594594","0.0-9.0-2.0-0.17","1726","1","2","""event"",""trial"",""time""
""fullscreenenter"",""1"",""10581""
","
","
","""event"",""trial"",""time""
""fullscreenenter"",""1"",""10581""
","
","","","","","","null","<div style=""font-size:60px;"">+</div>","null","","fixation","","","","","","","","","","","","","",""
"learning-trial","121","598599","0.0-9.0-2.0-1.17","1726","1","2","""event"",""trial"",""time""
""fullscreenenter"",""1"",""10581""
","
","
","""event"",""trial"",""time""
""fullscreenenter"",""1"",""10581""
","
","","","","","","1461.7000000178814","images/chair2.png","","","learning","images/furniture_choice3.png","images/furniture_choice1.png","images/furniture_choice2.png","[2,0,1]","0","1","3","images/furniture_choice2.png","-1","furniture","","chair","1","0"
"html-keyboard-response","122","599100","0.0-9.0-2.0-0.18","1726","1","2","""event"",""trial"",""time""
""fullscreenenter"",""1"",""10581""
","
","
","""event"",""trial"",""time""
""fullscreenenter"",""1"",""10581""
","
","","","","","","null","<div style=""font-size:60px;"">+</div>","null","","fixation","","","","","","","","","","","","","",""
"learning-trial","123","603106","0.0-9.0-2.0-1.18","1726","1","2","""event"",""trial"",""time""
""fullscreenenter"",""1"",""10581""
","
","
","""event"",""trial"",""time""
""fullscreenenter"",""1"",""10581""
","
","","","","","","1890.3999999761581","images/table5.png","","","learning","images/furniture_choice1.png","images/furniture_choice3.png","images/furniture_choice2.png","[0,2,1]","2","1","1","images/furniture_choice1.png","-1","furniture","","table","1","0"
"html-keyboard-response","124","603608","0.0-9.0-2.0-0.19","1726","1","2","""event"",""trial"",""time""
""fullscreenenter"",""1"",""10581""
","
","
","""event"",""trial"",""time""
""fullscreenenter"",""1"",""10581""
","
","","","","","","null","<div style=""font-size:60px;"">+</div>","null","","fixation","","","","","","","","","","","","","",""
"learning-trial","125","607612","0.0-9.0-2.0-1.19","1726","1","2","""event"",""trial"",""time""
""fullscreenenter"",""1"",""10581""
","
","
","""event"",""trial"",""time""
""fullscreenenter"",""1"",""10581""
","
","","","","","","960","images/sofa3.png","","","learning","images/furniture_choice3.png","images/furniture_choice2.png","images/furniture_choice1.png","[2,1,0]","1","1","2","images/furniture_choice2.png","1","furniture","","sofa","1","0"
"html-keyboard-response","126","608114","0.0-9.0-2.0-0.20","1726","1","2","""event"",""trial"",""time""
""fullscreenenter"",""1"",""10581""
","
","
","""event"",""trial"",""time""
""fullscreenenter"",""1"",""10581""
","
","","","","","","null","<div style=""font-size:60px;"">+</div>","null","","fixation","","","","","","","","","","","","","",""
"learning-trial","127","612119","0.0-9.0-2.0-1.20","1726","1","2","""event"",""trial"",""time""
""fullscreenenter"",""1"",""10581""
","
","
","""event"",""trial"",""time""
""fullscreenenter"",""1"",""10581""
","
","","","","","","1294.7999999821186","images/sofa5.png","","","learning","images/furniture_choice2.png","images/furniture_choice1.png","images/furniture_choice3.png","[1,0,2]","1","0","3","images/furniture_choice3.png","-1","furniture","","sofa","1","0"
"html-keyboard-response","128","612621","0.0-9.0-2.0-0.21","1726","1","2","""event"",""trial"",""time""
""fullscreenenter"",""1"",""10581""
","
","
","""event"",""trial"",""time""
""fullscreenenter"",""1"",""10581""
","
","","","","","","null","<div style=""font-size:60px;"">+</div>","null","","fixation","","","","","","","","","","","","","",""
"learning-trial","129","616627","0.0-9.0-2.0-1.21","1726","1","2","""event"",""trial"",""time""
""fullscreenenter"",""1"",""10581""
","
","
","""event"",""trial"",""time""
""fullscreenenter"",""1"",""10581""
","
","","","","","","2667.9000000059605","images/sofa4.png","","","learning","images/furniture_choice3.png","images/furniture_choice1.png","images/furniture_choice2.png","[2,0,1]","1","2","2","images/furniture_choice1.png","-1","furniture","","sofa","1","0"
"html-keyboard-response","130","617128","0.0-9.0-2.0-0.22","1726","1","2","""event"",""trial"",""time""
""fullscreenenter"",""1"",""10581""
","
","
","""event"",""trial"",""time""
""fullscreenenter"",""1"",""10581""
","
","","","","","","null","<div style=""font-size:60px;"">+</div>","null","","fixation","","","","","","","","","","","","","",""
"learning-trial","131","621133","0.0-9.0-2.0-1.22","1726","1","2","""event"",""trial"",""time""
""fullscreenenter"",""1"",""10581""
","
","
","""event"",""trial"",""time""
""fullscreenenter"",""1"",""10581""
","
","","","","","","1735.2000000178814","images/sofa5.png","","","learning","images/furniture_choice2.png","images/furniture_choice1.png","images/furniture_choice3.png","[1,0,2]","1","0","1","images/furniture_choice2.png","1","furniture","","sofa","1","0"
"html-keyboard-response","132","621635","0.0-9.0-2.0-0.23","1726","1","2","""event"",""trial"",""time""
""fullscreenenter"",""1"",""10581""
","
","
","""event"",""trial"",""time""
""fullscreenenter"",""1"",""10581""
","
","","","","","","null","<div style=""font-size:60px;"">+</div>","null","","fixation","","","","","","","","","","","","","",""
"learning-trial","133","625640","0.0-9.0-2.0-1.23","1726","1","2","""event"",""trial"",""time""
""fullscreenenter"",""1"",""10581""
","
","
","""event"",""trial"",""time""
""fullscreenenter"",""1"",""10581""
","
","","","","","","1412.5999999940395","images/chair4.png","","","learning","images/furniture_choice1.png","images/furniture_choice2.png","images/furniture_choice3.png","[0,1,2]","0","0","2","images/furniture_choice2.png","-1","furniture","","chair","1","0"
"html-keyboard-response","134","626142","0.0-9.0-2.0-0.24","1726","1","2","""event"",""trial"",""time""
""fullscreenenter"",""1"",""10581""
","
","
","""event"",""trial"",""time""
""fullscreenenter"",""1"",""10581""
","
","","","","","","null","<div style=""font-size:60px;"">+</div>","null","","fixation","","","","","","","","","","","","","",""
"learning-trial","135","630146","0.0-9.0-2.0-1.24","1726","1","2","""event"",""trial"",""time""
""fullscreenenter"",""1"",""10581""
","
","
","""event"",""trial"",""time""
""fullscreenenter"",""1"",""10581""
","
","","","","","","1873","images/chair2.png","","","learning","images/furniture_choice2.png","images/furniture_choice3.png","images/furniture_choice1.png","[1,2,0]","0","2","1","images/furniture_choice2.png","-1","furniture","","chair","1","0"
"html-keyboard-response","136","630648","0.0-9.0-2.0-0.25","1726","1","2","""event"",""trial"",""time""
""fullscreenenter"",""1"",""10581""
","
","
","""event"",""trial"",""time""
""fullscreenenter"",""1"",""10581""
","
","","","","","","null","<div style=""font-size:60px;"">+</div>","null","","fixation","","","","","","","","","","","","","",""
"learning-trial","137","634652","0.0-9.0-2.0-1.25","1726","1","2","""event"",""trial"",""time""
""fullscreenenter"",""1"",""10581""
","
","
","""event"",""trial"",""time""
""fullscreenenter"",""1"",""10581""
","
","","","","","","290.10000002384186","images/table1.png","","","learning","images/furniture_choice3.png","images/furniture_choice2.png","images/furniture_choice1.png","[2,1,0]","2","0","1","images/furniture_choice3.png","1","furniture","","table","1","0"
"html-keyboard-response","138","635154","0.0-9.0-2.0-0.26","1726","1","2","""event"",""trial"",""time""
""fullscreenenter"",""1"",""10581""
","
","
","""event"",""trial"",""time""
""fullscreenenter"",""1"",""10581""
","
","","","","","","null","<div style=""font-size:60px;"">+</div>","null","","fixation","","","","","","","","","","","","","",""
"learning-trial","139","639159","0.0-9.0-2.0-1.26","1726","1","2","""event"",""trial"",""time""
""fullscreenenter"",""1"",""10581""
","
","
","""event"",""trial"",""time""
""fullscreenenter"",""1"",""10581""
","
","","","","","","1244.8999999761581","images/table5.png","","","learning","images/furniture_choice1.png","images/furniture_choice2.png","images/furniture_choice3.png","[0,1,2]","2","2","3","images/furniture_choice3.png","1","furniture","","table","1","0"
"html-keyboard-response","140","639661","0.0-9.0-2.0-0.27","1726","1","2","""event"",""trial"",""time""
""fullscreenenter"",""1"",""10581""
","
","
","""event"",""trial"",""time""
""fullscreenenter"",""1"",""10581""
","
","","","","","","null","<div style=""font-size:60px;"">+</div>","null","","fixation","","","","","","","","","","","","","",""
"learning-trial","141","643667","0.0-9.0-2.0-1.27","1726","1","2","""event"",""trial"",""time""
""fullscreenenter"",""1"",""10581""
","
","
","""event"",""trial"",""time""
""fullscreenenter"",""1"",""10581""
","
","","","","","","936.9000000059605","images/chair3.png","","","learning","images/furniture_choice3.png","images/furniture_choice2.png","images/furniture_choice1.png","[2,1,0]","0","2","1","images/furniture_choice3.png","-1","furniture","","chair","1","0"
"html-keyboard-response","142","644169","0.0-9.0-2.0-0.28","1726","1","2","""event"",""trial"",""time""
""fullscreenenter"",""1"",""10581""
","
","
","""event"",""trial"",""time""
""fullscreenenter"",""1"",""10581""
","
","","","","","","null","<div style=""font-size:60px;"">+</div>","null","","fixation","","","","","","","","","","","","","",""
"learning-trial","143","648173","0.0-9.0-2.0-1.28","1726","1","2","""event"",""trial"",""time""
""fullscreenenter"",""1"",""10581""
","
","
","""event"",""trial"",""time""
""fullscreenenter"",""1"",""10581""
","
","","","","","","820.3000000119209","images/chair2.png","","","learning","images/furniture_choice3.png","images/furniture_choice2.png","images/furniture_choice1.png","[2,1,0]","0","2","2","images/furniture_choice2.png","-1","furniture","","chair","1","0"
"html-keyboard-response","144","648675","0.0-9.0-2.0-0.29","1726","1","2","""event"",""trial"",""time""
""fullscreenenter"",""1"",""10581""
","
","
","""event"",""trial"",""time""
""fullscreenenter"",""1"",""10581""
","
","","","","","","null","<div style=""font-size:60px;"">+</div>","null","","fixation","","","","","","","","","","","","","",""
"learning-trial","145","652679","0.0-9.0-2.0-1.29","1726","1","2","""event"",""trial"",""time""
""fullscreenenter"",""1"",""10581""
","
","
","""event"",""trial"",""time""
""fullscreenenter"",""1"",""10581""
","
","","","","","","1032.5999999940395","images/chair3.png","","","learning","images/furniture_choice3.png","images/furniture_choice2.png","images/furniture_choice1.png","[2,1,0]","0","2","3","images/furniture_choice1.png","1","furniture","","chair","1","0"
"html-keyboard-response","146","653181","0.0-9.0-2.0-0.30","1726","1","2","""event"",""trial"",""time""
""fullscreenenter"",""1"",""10581""
","
","
","""event"",""trial"",""time""
""fullscreenenter"",""1"",""10581""
","
","","","","","","null","<div style=""font-size:60px;"">+</div>","null","","fixation","","","","","","","","","","","","","",""
"learning-trial","147","657185","0.0-9.0-2.0-1.30","1726","1","2","""event"",""trial"",""time""
""fullscreenenter"",""1"",""10581""
","
","
","""event"",""trial"",""time""
""fullscreenenter"",""1"",""10581""
","
","","","","","","874.7000000178814","images/table4.png","","","learning","images/furniture_choice1.png","images/furniture_choice2.png","images/furniture_choice3.png","[0,1,2]","2","2","2","images/furniture_choice2.png","-1","furniture","","table","1","0"
"html-keyboard-response","148","657687","0.0-9.0-2.0-0.31","1726","1","2","""event"",""trial"",""time""
""fullscreenenter"",""1"",""10581""
","
","
","""event"",""trial"",""time""
""fullscreenenter"",""1"",""10581""
","
","","","","","","null","<div style=""font-size:60px;"">+</div>","null","","fixation","","","","","","","","","","","","","",""
"learning-trial","149","661691","0.0-9.0-2.0-1.31","1726","1","2","""event"",""trial"",""time""
""fullscreenenter"",""1"",""10581""
","
","
","""event"",""trial"",""time""
""fullscreenenter"",""1"",""10581""
","
","","","","","","1346.300000011921","images/sofa3.png","","","learning","images/furniture_choice3.png","images/furniture_choice1.png","images/furniture_choice2.png","[2,0,1]","1","2","2","images/furniture_choice1.png","-1","furniture","","sofa","1","0"
"html-keyboard-response","150","662193","0.0-9.0-2.0-0.32","1726","1","2","""event"",""trial"",""time""
""fullscreenenter"",""1"",""10581""
","
","
","""event"",""trial"",""time""
""fullscreenenter"",""1"",""10581""
","
","","","","","","null","<div style=""font-size:60px;"">+</div>","null","","fixation","","","","","","","","","","","","","",""
"learning-trial","151","666198","0.0-9.0-2.0-1.32","1726","1","2","""event"",""trial"",""time""
""fullscreenenter"",""1"",""10581""
","
","
","""event"",""trial"",""time""
""fullscreenenter"",""1"",""10581""
","
","","","","","","2656.5999999940395","images/table1.png","","","learning","images/furniture_choice2.png","images/furniture_choice1.png","images/furniture_choice3.png","[1,0,2]","2","2","1","images/furniture_choice2.png","-1","furniture","","table","1","0"
"html-keyboard-response","152","666699","0.0-9.0-2.0-0.33","1726","1","2","""event"",""trial"",""time""
""fullscreenenter"",""1"",""10581""
","
","
","""event"",""trial"",""time""
""fullscreenenter"",""1"",""10581""
","
","","","","","","null","<div style=""font-size:60px;"">+</div>","null","","fixation","","","","","","","","","","","","","",""
"learning-trial","153","670707","0.0-9.0-2.0-1.33","1726","1","2","""event"",""trial"",""time""
""fullscreenenter"",""1"",""10581""
","
","
","""event"",""trial"",""time""
""fullscreenenter"",""1"",""10581""
","
","","","","","","1604.3999999761581","images/table5.png","","","learning","images/furniture_choice1.png","images/furniture_choice3.png","images/furniture_choice2.png","[0,2,1]","2","1","1","images/furniture_choice1.png","-1","furniture","","table","1","0"
"html-keyboard-response","154","671209","0.0-9.0-2.0-0.34","1726","1","2","""event"",""trial"",""time""
""fullscreenenter"",""1"",""10581""
","
","
","""event"",""trial"",""time""
""fullscreenenter"",""1"",""10581""
","
","","","","","","null","<div style=""font-size:60px;"">+</div>","null","","fixation","","","","","","","","","","","","","",""
"learning-trial","155","675215","0.0-9.0-2.0-1.34","1726","1","2","""event"",""trial"",""time""
""fullscreenenter"",""1"",""10581""
","
","
","""event"",""trial"",""time""
""fullscreenenter"",""1"",""10581""
","
","","","","","","962.0999999940395","images/chair4.png","","","learning","images/furniture_choice3.png","images/furniture_choice1.png","images/furniture_choice2.png","[2,0,1]","0","1","2","images/furniture_choice1.png","1","furniture","","chair","1","0"
"html-keyboard-response","156","675717","0.0-9.0-2.0-0.35","1726","1","2","""event"",""trial"",""time""
""fullscreenenter"",""1"",""10581""
","
","
","""event"",""trial"",""time""
""fullscreenenter"",""1"",""10581""
","
","","","","","","null","<div style=""font-size:60px;"">+</div>","null","","fixation","","","","","","","","","","","","","",""
"learning-trial","157","679723","0.0-9.0-2.0-1.35","1726","1","2","""event"",""trial"",""time""
""fullscreenenter"",""1"",""10581""
","
","
","""event"",""trial"",""time""
""fullscreenenter"",""1"",""10581""
","
","","","","","","1112.9000000059605","images/sofa4.png","","","learning","images/furniture_choice3.png","images/furniture_choice2.png","images/furniture_choice1.png","[2,1,0]","1","1","1","images/furniture_choice3.png","-1","furniture","","sofa","1","0"
"html-keyboard-response","158","680225","0.0-9.0-2.0-0.36","1726","1","2","""event"",""trial"",""time""
""fullscreenenter"",""1"",""10581""
","
","
","""event"",""trial"",""time""
""fullscreenenter"",""1"",""10581""
","
","","","","","","null","<div style=""font-size:60px;"">+</div>","null","","fixation","","","","","","","","","","","","","",""
"learning-trial","159","684230","0.0-9.0-2.0-1.36","1726","1","2","""event"",""trial"",""time""
""fullscreenenter"",""1"",""10581""
","
","
","""event"",""trial"",""time""
""fullscreenenter"",""1"",""10581""
","
","","","","","","1786.199999988079","images/sofa3.png","","","learning","images/furniture_choice1.png","images/furniture_choice3.png","images/furniture_choice2.png","[0,2,1]","1","2","3","images/furniture_choice2.png","1","furniture","","sofa","1","0"
"html-keyboard-response","160","684732","0.0-9.0-2.0-0.37","1726","1","2","""event"",""trial"",""time""
""fullscreenenter"",""1"",""10581""
","
","
","""event"",""trial"",""time""
""fullscreenenter"",""1"",""10581""
","
","","","","","","null","<div style=""font-size:60px;"">+</div>","null","","fixation","","","","","","","","","","","","","",""
"learning-trial","161","688737","0.0-9.0-2.0-1.37","1726","1","2","""event"",""trial"",""time""
""fullscreenenter"",""1"",""10581""
","
","
","""event"",""trial"",""time""
""fullscreenenter"",""1"",""10581""
","
","","","","","","1360.2999999821186","images/sofa4.png","","","learning","images/furniture_choice3.png","images/furniture_choice1.png","images/furniture_choice2.png","[2,0,1]","1","2","1","images/furniture_choice3.png","1","furniture","","sofa","1","0"
"html-keyboard-response","162","689239","0.0-9.0-2.0-0.38","1726","1","2","""event"",""trial"",""time""
""fullscreenenter"",""1"",""10581""
","
","
","""event"",""trial"",""time""
""fullscreenenter"",""1"",""10581""
","
","","","","","","null","<div style=""font-size:60px;"">+</div>","null","","fixation","","","","","","","","","","","","","",""
"learning-trial","163","693244","0.0-9.0-2.0-1.38","1726","1","2","""event"",""trial"",""time""
""fullscreenenter"",""1"",""10581""
","
","
","""event"",""trial"",""time""
""fullscreenenter"",""1"",""10581""
","
","","","","","","1840.199999988079","images/chair2.png","","","learning","images/furniture_choice3.png","images/furniture_choice2.png","images/furniture_choice1.png","[2,1,0]","0","2","3","images/furniture_choice1.png","1","furniture","","chair","1","0"
"html-keyboard-response","164","693746","0.0-9.0-2.0-0.39","1726","1","2","""event"",""trial"",""time""
""fullscreenenter"",""1"",""10581""
","
","
","""event"",""trial"",""time""
""fullscreenenter"",""1"",""10581""
","
","","","","","","null","<div style=""font-size:60px;"">+</div>","null","","fixation","","","","","","","","","","","","","",""
"learning-trial","165","697752","0.0-9.0-2.0-1.39","1726","1","2","""event"",""trial"",""time""
""fullscreenenter"",""1"",""10581""
","
","
","""event"",""trial"",""time""
""fullscreenenter"",""1"",""10581""
","
","","","","","","953.5999999940395","images/table5.png","","","learning","images/furniture_choice2.png","images/furniture_choice3.png","images/furniture_choice1.png","[1,2,0]","2","1","2","images/furniture_choice3.png","1","furniture","","table","1","0"
"html-keyboard-response","166","698253","0.0-9.0-2.0-0.40","1726","1","2","""event"",""trial"",""time""
""fullscreenenter"",""1"",""10581""
","
","
","""event"",""trial"",""time""
""fullscreenenter"",""1"",""10581""
","
","","","","","","null","<div style=""font-size:60px;"">+</div>","null","","fixation","","","","","","","","","","","","","",""
"learning-trial","167","702258","0.0-9.0-2.0-1.40","1726","1","2","""event"",""trial"",""time""
""fullscreenenter"",""1"",""10581""
","
","
","""event"",""trial"",""time""
""fullscreenenter"",""1"",""10581""
","
","","","","","","1311.2000000178814","images/chair3.png","","","learning","images/furniture_choice1.png","images/furniture_choice3.png","images/furniture_choice2.png","[0,2,1]","0","0","1","images/furniture_choice1.png","1","furniture","","chair","1","0"
"html-keyboard-response","168","702759","0.0-9.0-2.0-0.41","1726","1","2","""event"",""trial"",""time""
""fullscreenenter"",""1"",""10581""
","
","
","""event"",""trial"",""time""
""fullscreenenter"",""1"",""10581""
","
","","","","","","null","<div style=""font-size:60px;"">+</div>","null","","fixation","","","","","","","","","","","","","",""
"learning-trial","169","706764","0.0-9.0-2.0-1.41","1726","1","2","""event"",""trial"",""time""
""fullscreenenter"",""1"",""10581""
","
","
","""event"",""trial"",""time""
""fullscreenenter"",""1"",""10581""
","
","","","","","","962.7000000178814","images/table1.png","","","learning","images/furniture_choice1.png","images/furniture_choice2.png","images/furniture_choice3.png","[0,1,2]","2","2","2","images/furniture_choice2.png","-1","furniture","","table","1","0"
"html-keyboard-response","170","707266","0.0-9.0-2.0-0.42","1726","1","2","""event"",""trial"",""time""
""fullscreenenter"",""1"",""10581""
","
","
","""event"",""trial"",""time""
""fullscreenenter"",""1"",""10581""
","
","","","","","","null","<div style=""font-size:60px;"">+</div>","null","","fixation","","","","","","","","","","","","","",""
"learning-trial","171","711270","0.0-9.0-2.0-1.42","1726","1","2","""event"",""trial"",""time""
""fullscreenenter"",""1"",""10581""
","
","
","""event"",""trial"",""time""
""fullscreenenter"",""1"",""10581""
","
","","","","","","1300.5","images/chair4.png","","","learning","images/furniture_choice3.png","images/furniture_choice1.png","images/furniture_choice2.png","[2,0,1]","0","1","1","images/furniture_choice3.png","-1","furniture","","chair","1","0"
"html-keyboard-response","172","711772","0.0-9.0-2.0-0.43","1726","1","2","""event"",""trial"",""time""
""fullscreenenter"",""1"",""10581""
","
","
","""event"",""trial"",""time""
""fullscreenenter"",""1"",""10581""
","
","","","","","","null","<div style=""font-size:60px;"">+</div>","null","","fixation","","","","","","","","","","","","","",""
"learning-trial","173","715776","0.0-9.0-2.0-1.43","1726","1","2","""event"",""trial"",""time""
""fullscreenenter"",""1"",""10581""
","
","
","""event"",""trial"",""time""
""fullscreenenter"",""1"",""10581""
","
","","","","","","1431.300000011921","images/sofa3.png","","","learning","images/furniture_choice3.png","images/furniture_choice2.png","images/furniture_choice1.png","[2,1,0]","1","1","3","images/furniture_choice1.png","-1","furniture","","sofa","1","0"
"html-keyboard-response","174","716278","0.0-9.0-2.0-0.44","1726","1","2","""event"",""trial"",""time""
""fullscreenenter"",""1"",""10581""
","
","
","""event"",""trial"",""time""
""fullscreenenter"",""1"",""10581""
","
","","","","","","null","<div style=""font-size:60px;"">+</div>","null","","fixation","","","","","","","","","","","","","",""
"learning-trial","175","720282","0.0-9.0-2.0-1.44","1726","1","2","""event"",""trial"",""time""
""fullscreenenter"",""1"",""10581""
","
","
","""event"",""trial"",""time""
""fullscreenenter"",""1"",""10581""
","
","","","","","","1674.5999999940395","images/sofa5.png","","","learning","images/furniture_choice3.png","images/furniture_choice2.png","images/furniture_choice1.png","[2,1,0]","1","1","1","images/furniture_choice3.png","-1","furniture","","sofa","1","0"
"html-keyboard-response","176","720784","0.0-9.0-2.0-0.45","1726","1","2","""event"",""trial"",""time""
""fullscreenenter"",""1"",""10581""
","
","
","""event"",""trial"",""time""
""fullscreenenter"",""1"",""10581""
","
","","","","","","null","<div style=""font-size:60px;"">+</div>","null","","fixation","","","","","","","","","","","","","",""
"learning-trial","177","724790","0.0-9.0-2.0-1.45","1726","1","2","""event"",""trial"",""time""
""fullscreenenter"",""1"",""10581""
","
","
","""event"",""trial"",""time""
""fullscreenenter"",""1"",""10581""
","
","","","","","","2257.7999999821186","images/table1.png","","","learning","images/furniture_choice1.png","images/furniture_choice2.png","images/furniture_choice3.png","[0,1,2]","2","2","1","images/furniture_choice1.png","-1","furniture","","table","1","0"
"html-keyboard-response","178","725291","0.0-9.0-2.0-0.46","1726","1","2","""event"",""trial"",""time""
""fullscreenenter"",""1"",""10581""
","
","
","""event"",""trial"",""time""
""fullscreenenter"",""1"",""10581""
","
","","","","","","null","<div style=""font-size:60px;"">+</div>","null","","fixation","","","","","","","","","","","","","",""
"learning-trial","179","729296","0.0-9.0-2.0-1.46","1726","1","2","""event"",""trial"",""time""
""fullscreenenter"",""1"",""10581""
","
","
","""event"",""trial"",""time""
""fullscreenenter"",""1"",""10581""
","
","","","","","","2264.7000000178814","images/sofa3.png","","","learning","images/furniture_choice1.png","images/furniture_choice2.png","images/furniture_choice3.png","[0,1,2]","1","1","2","images/furniture_choice2.png","1","furniture","","sofa","1","0"
"html-keyboard-response","180","729798","0.0-9.0-2.0-0.47","1726","1","2","""event"",""trial"",""time""
""fullscreenenter"",""1"",""10581""
","
","
","""event"",""trial"",""time""
""fullscreenenter"",""1"",""10581""
","
","","","","","","null","<div style=""font-size:60px;"">+</div>","null","","fixation","","","","","","","","","","","","","",""
"learning-trial","181","733802","0.0-9.0-2.0-1.47","1726","1","2","""event"",""trial"",""time""
""fullscreenenter"",""1"",""10581""
","
","
","""event"",""trial"",""time""
""fullscreenenter"",""1"",""10581""
","
","","","","","","3096.5999999940395","images/table4.png","","","learning","images/furniture_choice1.png","images/furniture_choice2.png","images/furniture_choice3.png","[0,1,2]","2","2","3","images/furniture_choice3.png","1","furniture","","table","1","0"
"html-keyboard-response","182","734304","0.0-9.0-2.0-0.48","1726","1","2","""event"",""trial"",""time""
""fullscreenenter"",""1"",""10581""
","
","
","""event"",""trial"",""time""
""fullscreenenter"",""1"",""10581""
","
","","","","","","null","<div style=""font-size:60px;"">+</div>","null","","fixation","","","","","","","","","","","","","",""
"learning-trial","183","738309","0.0-9.0-2.0-1.48","1726","1","2","""event"",""trial"",""time""
""fullscreenenter"",""1"",""10581""
","
","
","""event"",""trial"",""time""
""fullscreenenter"",""1"",""10581""
","
","","","","","","1417","images/sofa5.png","","","learning","images/furniture_choice1.png","images/furniture_choice2.png","images/furniture_choice3.png","[0,1,2]","1","1","1","images/furniture_choice1.png","-1","furniture","","sofa","1","0"
"html-keyboard-response","184","738811","0.0-9.0-2.0-0.49","1726","1","2","""event"",""trial"",""time""
""fullscreenenter"",""1"",""10581""
","
","
","""event"",""trial"",""time""
""fullscreenenter"",""1"",""10581""
","
","","","","","","null","<div style=""font-size:60px;"">+</div>","null","","fixation","","","","","","","","","","","","","",""
"learning-trial","185","742817","0.0-9.0-2.0-1.49","1726","1","2","""event"",""trial"",""time""
""fullscreenenter"",""1"",""10581""
","
","
","""event"",""trial"",""time""
""fullscreenenter"",""1"",""10581""
","
","","","","","","1229.9000000059605","images/table5.png","","","learning","images/furniture_choice3.png","images/furniture_choice2.png","images/furniture_choice1.png","[2,1,0]","2","0","2","images/furniture_choice2.png","-1","furniture","","table","1","0"
"html-keyboard-response","186","743319","0.0-9.0-2.0-0.50","1726","1","2","""event"",""trial"",""time""
""fullscreenenter"",""1"",""10581""
","
","
","""event"",""trial"",""time""
""fullscreenenter"",""1"",""10581""
","
","","","","","","null","<div style=""font-size:60px;"">+</div>","null","","fixation","","","","","","","","","","","","","",""
"learning-trial","187","747323","0.0-9.0-2.0-1.50","1726","1","2","""event"",""trial"",""time""
""fullscreenenter"",""1"",""10581""
","
","
","""event"",""trial"",""time""
""fullscreenenter"",""1"",""10581""
","
","","","","","","1193.699999988079","images/table5.png","","","learning","images/furniture_choice3.png","images/furniture_choice1.png","images/furniture_choice2.png","[2,0,1]","2","0","1","images/furniture_choice3.png","1","furniture","","table","1","0"
"html-keyboard-response","188","747825","0.0-9.0-2.0-0.51","1726","1","2","""event"",""trial"",""time""
""fullscreenenter"",""1"",""10581""
","
","
","""event"",""trial"",""time""
""fullscreenenter"",""1"",""10581""
","
","","","","","","null","<div style=""font-size:60px;"">+</div>","null","","fixation","","","","","","","","","","","","","",""
"learning-trial","189","751829","0.0-9.0-2.0-1.51","1726","1","2","""event"",""trial"",""time""
""fullscreenenter"",""1"",""10581""
","
","
","""event"",""trial"",""time""
""fullscreenenter"",""1"",""10581""
","
","","","","","","2033.5","images/chair3.png","","","learning","images/furniture_choice3.png","images/furniture_choice2.png","images/furniture_choice1.png","[2,1,0]","0","2","2","images/furniture_choice2.png","-1","furniture","","chair","1","0"
"html-keyboard-response","190","752331","0.0-9.0-2.0-0.52","1726","1","2","""event"",""trial"",""time""
""fullscreenenter"",""1"",""10581""
","
","
","""event"",""trial"",""time""
""fullscreenenter"",""1"",""10581""
","
","","","","","","null","<div style=""font-size:60px;"">+</div>","null","","fixation","","","","","","","","","","","","","",""
"learning-trial","191","756336","0.0-9.0-2.0-1.52","1726","1","2","""event"",""trial"",""time""
""fullscreenenter"",""1"",""10581""
","
","
","""event"",""trial"",""time""
""fullscreenenter"",""1"",""10581""
","
","","","","","","1333.4000000059605","images/chair2.png","","","learning","images/furniture_choice3.png","images/furniture_choice2.png","images/furniture_choice1.png","[2,1,0]","0","2","3","images/furniture_choice1.png","1","furniture","","chair","1","0"
"html-keyboard-response","192","756838","0.0-9.0-2.0-0.53","1726","1","2","""event"",""trial"",""time""
""fullscreenenter"",""1"",""10581""
","
","
","""event"",""trial"",""time""
""fullscreenenter"",""1"",""10581""
","
","","","","","","null","<div style=""font-size:60px;"">+</div>","null","","fixation","","","","","","","","","","","","","",""
"learning-trial","193","760843","0.0-9.0-2.0-1.53","1726","1","2","""event"",""trial"",""time""
""fullscreenenter"",""1"",""10581""
","
","
","""event"",""trial"",""time""
""fullscreenenter"",""1"",""10581""
","
","","","","","","1515","images/sofa5.png","","","learning","images/furniture_choice3.png","images/furniture_choice1.png","images/furniture_choice2.png","[2,0,1]","1","2","1","images/furniture_choice3.png","1","furniture","","sofa","1","0"
"html-keyboard-response","194","761346","0.0-9.0-2.0-0.54","1726","1","2","""event"",""trial"",""time""
""fullscreenenter"",""1"",""10581""
","
","
","""event"",""trial"",""time""
""fullscreenenter"",""1"",""10581""
","
","","","","","","null","<div style=""font-size:60px;"">+</div>","null","","fixation","","","","","","","","","","","","","",""
"learning-trial","195","765351","0.0-9.0-2.0-1.54","1726","1","2","""event"",""trial"",""time""
""fullscreenenter"",""1"",""10581""
","
","
","""event"",""trial"",""time""
""fullscreenenter"",""1"",""10581""
","
","","","","","","1404.300000011921","images/table1.png","","","learning","images/furniture_choice1.png","images/furniture_choice2.png","images/furniture_choice3.png","[0,1,2]","2","2","3","images/furniture_choice3.png","1","furniture","","table","1","0"
"html-keyboard-response","196","765852","0.0-9.0-2.0-0.55","1726","1","2","""event"",""trial"",""time""
""fullscreenenter"",""1"",""10581""
","
","
","""event"",""trial"",""time""
""fullscreenenter"",""1"",""10581""
","
","","","","","","null","<div style=""font-size:60px;"">+</div>","null","","fixation","","","","","","","","","","","","","",""
"learning-trial","197","769859","0.0-9.0-2.0-1.55","1726","1","2","""event"",""trial"",""time""
""fullscreenenter"",""1"",""10581""
","
","
","""event"",""trial"",""time""
""fullscreenenter"",""1"",""10581""
","
","","","","","","1912.9000000059605","images/table1.png","","","learning","images/furniture_choice3.png","images/furniture_choice2.png","images/furniture_choice1.png","[2,1,0]","2","0","1","images/furniture_choice3.png","1","furniture","","table","1","0"
"html-keyboard-response","198","770361","0.0-9.0-2.0-0.56","1726","1","2","""event"",""trial"",""time""
""fullscreenenter"",""1"",""10581""
","
","
","""event"",""trial"",""time""
""fullscreenenter"",""1"",""10581""
","
","","","","","","null","<div style=""font-size:60px;"">+</div>","null","","fixation","","","","","","","","","","","","","",""
"learning-trial","199","774366","0.0-9.0-2.0-1.56","1726","1","2","""event"",""trial"",""time""
""fullscreenenter"",""1"",""10581""
","
","
","""event"",""trial"",""time""
""fullscreenenter"",""1"",""10581""
","
","","","","","","1828.300000011921","images/chair4.png","","","learning","images/furniture_choice1.png","images/furniture_choice3.png","images/furniture_choice2.png","[0,2,1]","0","0","3","images/furniture_choice2.png","-1","furniture","","chair","1","0"
"html-keyboard-response","200","774868","0.0-9.0-2.0-0.57","1726","1","2","""event"",""trial"",""time""
""fullscreenenter"",""1"",""10581""
","
","
","""event"",""trial"",""time""
""fullscreenenter"",""1"",""10581""
","
","","","","","","null","<div style=""font-size:60px;"">+</div>","null","","fixation","","","","","","","","","","","","","",""
"learning-trial","201","778872","0.0-9.0-2.0-1.57","1726","1","2","""event"",""trial"",""time""
""fullscreenenter"",""1"",""10581""
","
","
","""event"",""trial"",""time""
""fullscreenenter"",""1"",""10581""
","
","","","","","","1197.800000011921","images/sofa4.png","","","learning","images/furniture_choice1.png","images/furniture_choice2.png","images/furniture_choice3.png","[0,1,2]","1","1","1","images/furniture_choice1.png","-1","furniture","","sofa","1","0"
"html-keyboard-response","202","779374","0.0-9.0-2.0-0.58","1726","1","2","""event"",""trial"",""time""
""fullscreenenter"",""1"",""10581""
","
","
","""event"",""trial"",""time""
""fullscreenenter"",""1"",""10581""
","
","","","","","","null","<div style=""font-size:60px;"">+</div>","null","","fixation","","","","","","","","","","","","","",""
"learning-trial","203","783378","0.0-9.0-2.0-1.58","1726","1","2","""event"",""trial"",""time""
""fullscreenenter"",""1"",""10581""
","
","
","""event"",""trial"",""time""
""fullscreenenter"",""1"",""10581""
","
","","","","","","3073.0999999940395","images/table4.png","","","learning","images/furniture_choice3.png","images/furniture_choice2.png","images/furniture_choice1.png","[2,1,0]","2","0","1","images/furniture_choice3.png","1","furniture","","table","1","0"
"html-keyboard-response","204","783880","0.0-9.0-2.0-0.59","1726","1","2","""event"",""trial"",""time""
""fullscreenenter"",""1"",""10581""
","
","
","""event"",""trial"",""time""
""fullscreenenter"",""1"",""10581""
","
","","","","","","null","<div style=""font-size:60px;"">+</div>","null","","fixation","","","","","","","","","","","","","",""
"learning-trial","205","787885","0.0-9.0-2.0-1.59","1726","1","2","""event"",""trial"",""time""
""fullscreenenter"",""1"",""10581""
","
","
","""event"",""trial"",""time""
""fullscreenenter"",""1"",""10581""
","
","","","","","","null","images/table4.png","","","learning","images/furniture_choice2.png","images/furniture_choice3.png","images/furniture_choice1.png","[1,2,0]","2","1","null","null","-1","furniture","","table","1","0"
"html-keyboard-response","206","788386","0.0-9.0-2.0-0.60","1726","1","2","""event"",""trial"",""time""
""fullscreenenter"",""1"",""10581""
","
","
","""event"",""trial"",""time""
""fullscreenenter"",""1"",""10581""
","
","","","","","","null","<div style=""font-size:60px;"">+</div>","null","","fixation","","","","","","","","","","","","","",""
"learning-trial","207","792391","0.0-9.0-2.0-1.60","1726","1","2","""event"",""trial"",""time""
""fullscreenenter"",""1"",""10581""
","
","
","""event"",""trial"",""time""
""fullscreenenter"",""1"",""10581""
","
","","","","","","1100","images/sofa4.png","","","learning","images/furniture_choice3.png","images/furniture_choice1.png","images/furniture_choice2.png","[2,0,1]","1","2","2","images/furniture_choice1.png","1","furniture","","sofa","1","0"
"html-keyboard-response","208","792893","0.0-9.0-2.0-0.61","1726","1","2","""event"",""trial"",""time""
""fullscreenenter"",""1"",""10581""
","
","
","""event"",""trial"",""time""
""fullscreenenter"",""1"",""10581""
","
","","","","","","null","<div style=""font-size:60px;"">+</div>","null","","fixation","","","","","","","","","","","","","",""
"learning-trial","209","796898","0.0-9.0-2.0-1.61","1726","1","2","""event"",""trial"",""time""
""fullscreenenter"",""1"",""10581""
","
","
","""event"",""trial"",""time""
""fullscreenenter"",""1"",""10581""
","
","","","","","","1999.5","images/chair3.png","","","learning","images/furniture_choice3.png","images/furniture_choice1.png","images/furniture_choice2.png","[2,0,1]","0","1","1","images/furniture_choice3.png","1","furniture","","chair","1","0"
"html-keyboard-response","210","797399","0.0-9.0-2.0-0.62","1726","1","2","""event"",""trial"",""time""
""fullscreenenter"",""1"",""10581""
","
","
","""event"",""trial"",""time""
""fullscreenenter"",""1"",""10581""
","
","","","","","","null","<div style=""font-size:60px;"">+</div>","null","","fixation","","","","","","","","","","","","","",""
"learning-trial","211","801405","0.0-9.0-2.0-1.62","1726","1","2","""event"",""trial"",""time""
""fullscreenenter"",""1"",""10581""
","
","
","""event"",""trial"",""time""
""fullscreenenter"",""1"",""10581""
","
","","","","","","1115.4000000059605","images/chair3.png","","","learning","images/furniture_choice1.png","images/furniture_choice2.png","images/furniture_choice3.png","[0,1,2]","0","0","1","images/furniture_choice1.png","1","furniture","","chair","1","0"
"html-keyboard-response","212","801907","0.0-9.0-2.0-0.63","1726","1","2","""event"",""trial"",""time""
""fullscreenenter"",""1"",""10581""
","
","
","""event"",""trial"",""time""
""fullscreenenter"",""1"",""10581""
","
","","","","","","null","<div style=""font-size:60px;"">+</div>","null","","fixation","","","","","","","","","","","","","",""
"learning-trial","213","805911","0.0-9.0-2.0-1.63","1726","1","2","""event"",""trial"",""time""
""fullscreenenter"",""1"",""10581""
","
","
","""event"",""trial"",""time""
""fullscreenenter"",""1"",""10581""
","
","","","","","","3451.2000000178814","images/chair2.png","","","learning","images/furniture_choice3.png","images/furniture_choice1.png","images/furniture_choice2.png","[2,0,1]","0","1","2","images/furniture_choice1.png","1","furniture","","chair","1","0"
"html-keyboard-response","214","806413","0.0-9.0-2.0-0.64","1726","1","2","""event"",""trial"",""time""
""fullscreenenter"",""1"",""10581""
","
","
","""event"",""trial"",""time""
""fullscreenenter"",""1"",""10581""
","
","","","","","","null","<div style=""font-size:60px;"">+</div>","null","","fixation","","","","","","","","","","","","","",""
"learning-trial","215","810417","0.0-9.0-2.0-1.64","1726","1","2","""event"",""trial"",""time""
""fullscreenenter"",""1"",""10581""
","
","
","""event"",""trial"",""time""
""fullscreenenter"",""1"",""10581""
","
","","","","","","2300.9000000059605","images/chair4.png","","","learning","images/furniture_choice3.png","images/furniture_choice1.png","images/furniture_choice2.png","[2,0,1]","0","1","2","images/furniture_choice1.png","1","furniture","","chair","1","0"
"html-keyboard-response","216","810919","0.0-9.0-2.0-0.65","1726","1","2","""event"",""trial"",""time""
""fullscreenenter"",""1"",""10581""
","
","
","""event"",""trial"",""time""
""fullscreenenter"",""1"",""10581""
","
","","","","","","null","<div style=""font-size:60px;"">+</div>","null","","fixation","","","","","","","","","","","","","",""
"learning-trial","217","814924","0.0-9.0-2.0-1.65","1726","1","2","""event"",""trial"",""time""
""fullscreenenter"",""1"",""10581""
","
","
","""event"",""trial"",""time""
""fullscreenenter"",""1"",""10581""
","
","","","","","","2404.699999988079","images/sofa3.png","","","learning","images/furniture_choice1.png","images/furniture_choice2.png","images/furniture_choice3.png","[0,1,2]","1","1","1","images/furniture_choice1.png","-1","furniture","","sofa","1","0"
"html-keyboard-response","218","815426","0.0-9.0-2.0-0.66","1726","1","2","""event"",""trial"",""time""
""fullscreenenter"",""1"",""10581""
","
","
","""event"",""trial"",""time""
""fullscreenenter"",""1"",""10581""
","
","","","","","","null","<div style=""font-size:60px;"">+</div>","null","","fixation","","","","","","","","","","","","","",""
"learning-trial","219","819431","0.0-9.0-2.0-1.66","1726","1","2","""event"",""trial"",""time""
""fullscreenenter"",""1"",""10581""
","
","
","""event"",""trial"",""time""
""fullscreenenter"",""1"",""10581""
","
","","","","","","1973.300000011921","images/sofa3.png","","","learning","images/furniture_choice2.png","images/furniture_choice3.png","images/furniture_choice1.png","[1,2,0]","1","0","2","images/furniture_choice3.png","-1","furniture","","sofa","1","0"
"html-keyboard-response","220","819933","0.0-9.0-2.0-0.67","1726","1","2","""event"",""trial"",""time""
""fullscreenenter"",""1"",""10581""
","
","
","""event"",""trial"",""time""
""fullscreenenter"",""1"",""10581""
","
","","","","","","null","<div style=""font-size:60px;"">+</div>","null","","fixation","","","","","","","","","","","","","",""
"learning-trial","221","823939","0.0-9.0-2.0-1.67","1726","1","2","""event"",""trial"",""time""
""fullscreenenter"",""1"",""10581""
","
","
","""event"",""trial"",""time""
""fullscreenenter"",""1"",""10581""
","
","","","","","","1336.4000000059605","images/table1.png","","","learning","images/furniture_choice2.png","images/furniture_choice3.png","images/furniture_choice1.png","[1,2,0]","2","1","1","images/furniture_choice2.png","-1","furniture","","table","1","0"
"html-keyboard-response","222","824440","0.0-9.0-2.0-0.68","1726","1","2","""event"",""trial"",""time""
""fullscreenenter"",""1"",""10581""
","
","
","""event"",""trial"",""time""
""fullscreenenter"",""1"",""10581""
","
","","","","","","null","<div style=""font-size:60px;"">+</div>","null","","fixation","","","","","","","","","","","","","",""
"learning-trial","223","828446","0.0-9.0-2.0-1.68","1726","1","2","""event"",""trial"",""time""
""fullscreenenter"",""1"",""10581""
","
","
","""event"",""trial"",""time""
""fullscreenenter"",""1"",""10581""
","
","","","","","","2005","images/table5.png","","","learning","images/furniture_choice1.png","images/furniture_choice2.png","images/furniture_choice3.png","[0,1,2]","2","2","3","images/furniture_choice3.png","1","furniture","","table","1","0"
"html-keyboard-response","224","828948","0.0-9.0-2.0-0.69","1726","1","2","""event"",""trial"",""time""
""fullscreenenter"",""1"",""10581""
","
","
","""event"",""trial"",""time""
""fullscreenenter"",""1"",""10581""
","
","","","","","","null","<div style=""font-size:60px;"">+</div>","null","","fixation","","","","","","","","","","","","","",""
"learning-trial","225","832954","0.0-9.0-2.0-1.69","1726","1","2","""event"",""trial"",""time""
""fullscreenenter"",""1"",""10581""
","
","
","""event"",""trial"",""time""
""fullscreenenter"",""1"",""10581""
","
","","","","","","1658.5","images/sofa5.png","","","learning","images/furniture_choice1.png","images/furniture_choice3.png","images/furniture_choice2.png","[0,2,1]","1","2","3","images/furniture_choice2.png","1","furniture","","sofa","1","0"
"html-keyboard-response","226","833456","0.0-9.0-2.0-0.70","1726","1","2","""event"",""trial"",""time""
""fullscreenenter"",""1"",""10581""
","
","
","""event"",""trial"",""time""
""fullscreenenter"",""1"",""10581""
","
","","","","","","null","<div style=""font-size:60px;"">+</div>","null","","fixation","","","","","","","","","","","","","",""
"learning-trial","227","837461","0.0-9.0-2.0-1.70","1726","1","2","""event"",""trial"",""time""
""fullscreenenter"",""1"",""10581""
","
","
","""event"",""trial"",""time""
""fullscreenenter"",""1"",""10581""
","
","","","","","","1620","images/sofa4.png","","","learning","images/furniture_choice1.png","images/furniture_choice3.png","images/furniture_choice2.png","[0,2,1]","1","2","1","images/furniture_choice1.png","-1","furniture","","sofa","1","0"
"html-keyboard-response","228","837963","0.0-9.0-2.0-0.71","1726","1","2","""event"",""trial"",""time""
""fullscreenenter"",""1"",""10581""
","
","
","""event"",""trial"",""time""
""fullscreenenter"",""1"",""10581""
","
","","","","","","null","<div style=""font-size:60px;"">+</div>","null","","fixation","","","","","","","","","","","","","",""
"learning-trial","229","841967","0.0-9.0-2.0-1.71","1726","1","2","""event"",""trial"",""time""
""fullscreenenter"",""1"",""10581""
","
","
","""event"",""trial"",""time""
""fullscreenenter"",""1"",""10581""
","
","","","","","","2456","images/table4.png","","","learning","images/furniture_choice2.png","images/furniture_choice1.png","images/furniture_choice3.png","[1,0,2]","2","2","2","images/furniture_choice1.png","-1","furniture","","table","1","0"
"html-button-response","230","847380","0.0-9.0-3.0","1726","1","2","""event"",""trial"",""time""
""fullscreenenter"",""1"",""10581""
","
","
","""event"",""trial"",""time""
""fullscreenenter"",""1"",""10581""
","
","","","","","","5410.4000000059605","<p> You have completed the round! <p> In this round, you earned -4 points! </p>","0","","break","","","","","","","","","","","","","",""
"html-button-response","231","848804","0.0-10.0","1726","1","2","""event"",""trial"",""time""
""fullscreenenter"",""1"",""10581""
","
","
","""event"",""trial"",""time""
""fullscreenenter"",""1"",""10581""
","
","","","","","","1421.9000000059605","<p> Now it's time to play another round. </p>","0","","transition_screen","","","","","","","","","","","","","",""
"preload","232","855027","0.0-11.0-0.0","1726","1","2","""event"",""trial"",""time""
""fullscreenenter"",""1"",""10581""
","
","
","""event"",""trial"",""time""
""fullscreenenter"",""1"",""10581""
","
","true","false","[]","[]","[]","","","","","","","","","","","","","","","","","","",""
"learning-instructions","233","866328","0.0-11.0-1.0-0.0","1726","1","2","""event"",""trial"",""time""
""fullscreenenter"",""1"",""10581""
","
","
","""event"",""trial"",""time""
""fullscreenenter"",""1"",""10581""
","
","","","","","","4150.899999976158","<p> Your goal in this round is to grow a beautiful garden by watering plants. </p><p> You will need to water many different plants. </p></div>","","0","instructions","","","","","","","","","","","","","",""
"learning-instructions","234","881266","0.0-11.0-1.0-0.1","1726","1","2","""event"",""trial"",""time""
""fullscreenenter"",""1"",""10581""
","
","
","""event"",""trial"",""time""
""fullscreenenter"",""1"",""10581""
","
