"trial_type","trial_index","time_elapsed","internal_node_id","subject_id","condition","task_version","interactions","blur_events","focus_events","fullscreenenter_events","fullscreenexit_events","success","timeout","failed_images","failed_audio","failed_video","rt","stimulus","response","button_pressed","task_part","left_choice","middle_choice","right_choice","choice_positions","correct_response","correct_position","key_press","option_selected","points","task_block","correct","stim_cat","block_condition","block_number"
"pavlovia","0","3","0.0-0.0","1527","2","2","""event"",""trial"",""time""
""fullscreenenter"",""1"",""2741""
","
","
","""event"",""trial"",""time""
""fullscreenenter"",""1"",""2741""
","
","","","","","","","","","","","","","","","","","","","","","","","",""
"fullscreen","1","3738","0.0-1.0","1527","2","2","""event"",""trial"",""time""
""fullscreenenter"",""1"",""2741""
","
","
","""event"",""trial"",""time""
""fullscreenenter"",""1"",""2741""
","
","true","","","","","","","","","","","","","","","","","","","","","","",""
"preload","2","13288","0.0-2.0","1527","2","2","""event"",""trial"",""time""
""fullscreenenter"",""1"",""2741""
","
","
","""event"",""trial"",""time""
""fullscreenenter"",""1"",""2741""
","
","true","false","[]","[]","[]","","","","","","","","","","","","","","","","","","",""
"audio-keyboard-response","3","17152","0.0-3.0","1527","2","2","""event"",""trial"",""time""
""fullscreenenter"",""1"",""2741""
","
","
","""event"",""trial"",""time""
""fullscreenenter"",""1"",""2741""
","
","","","","","","3861.3333333333344","audio/beep_loop.wav"," ","","","","","","","","","","","","","","","",""
"audio-button-response","4","22909","0.0-4.0","1527","2","2","""event"",""trial"",""time""
""fullscreenenter"",""1"",""2741""
","
","
","""event"",""trial"",""time""
""fullscreenenter"",""1"",""2741""
","
","","","","","","5755","audio/shark.wav","0","","","","","","","","","","","","","","","",""
"audio-button-response","5","25337","0.0-5.0","1527","2","2","""event"",""trial"",""time""
""fullscreenenter"",""1"",""2741""
","
","
","""event"",""trial"",""time""
""fullscreenenter"",""1"",""2741""
","
","","","","","","1419","audio/turtle.wav","1","","","","","","","","","","","","","","","",""
"preload","6","39697","0.0-6.0","1527","2","2","""event"",""trial"",""time""
""fullscreenenter"",""1"",""2741""
","
","
","""event"",""trial"",""time""
""fullscreenenter"",""1"",""2741""
","
","true","false","[]","[]","[]","","","","","","","","","","","","","","","","","","",""
"html-keyboard-response","7","44274","0.0-7.0","1527","2","2","""event"",""trial"",""time""
""fullscreenenter"",""1"",""2741""
","
","
","""event"",""trial"",""time""
""fullscreenenter"",""1"",""2741""
","
","","","","","","4575.699999999953","Welcome to the experiment. Press any key to begin and to advance the instructions.","a","","","","","","","","","","","","","","","",""
"learning-instructions","8","55015","0.0-8.0-0.0-0.0","1527","2","2","""event"",""trial"",""time""
""fullscreenenter"",""1"",""2741""
","
","
","""event"",""trial"",""time""
""fullscreenenter"",""1"",""2741""
","
","","","","","","2992.600000000035","<p> Welcome! Today you are going to play 6 different rounds of a decision-making game. </p><p> Use the mouse to click next to continue. </p>","","0","instructions","","","","","","","","","","","","","",""
"learning-instructions","9","59764","0.0-8.0-0.0-0.1","1527","2","2","""event"",""trial"",""time""
""fullscreenenter"",""1"",""2741""
","
","
","""event"",""trial"",""time""
""fullscreenenter"",""1"",""2741""
","
","","","","","","1747.1999999999534","<p> You will start with a practice round to learn the rules. </p>","","0","instructions","","","","","","","","","","","","","",""
"learning-instructions","10","69000","0.0-8.0-0.0-0.2","1527","2","2","""event"",""trial"",""time""
""fullscreenenter"",""1"",""2741""
","
","
","""event"",""trial"",""time""
""fullscreenenter"",""1"",""2741""
","
","","","","","","1489.5999999999767","<p> Your goal in this round is to deliver sports equipment to three different parks. </p><p> You will need to deliver many types of equipment. </p></div>","","0","instructions","","","","","","","","","","","","","",""
"learning-instructions","11","77965","0.0-8.0-0.0-0.3","1527","2","2","""event"",""trial"",""time""
""fullscreenenter"",""1"",""2741""
","
","
","""event"",""trial"",""time""
""fullscreenenter"",""1"",""2741""
","
","","","","","","481.9000000000233","<p> On each turn, you will see one piece of sports equipment and three different parks.  </p><p> You need to select which park to deliver the equipment to.  </p>","","0","instructions","","","","","","","","","","","","","",""
"learning-instructions","12","93265","0.0-8.0-0.0-0.4","1527","2","2","""event"",""trial"",""time""
""fullscreenenter"",""1"",""2741""
","
","
","""event"",""trial"",""time""
""fullscreenenter"",""1"",""2741""
","
","","","","","","2015.5","<p> You can select the park on the left by pressing the '1' key on your keyboard. <br>You can select the park in the middle by pressing the '2' key on your keyboard. <br>You can select the park on the right by pressing the '3' key on your keyboard.  </p><br><div class=""choice-instructions-grid""> <div class=""choice-option""><img src=""images/park1.png"" class=""choice-option-img"" stage=""instructions"" position=""0"" ><div class=""choice-option-text""> Press ""1."" </div></div><div class=""choice-option""><img src=""images/park2.png"" class=""choice-option-img"" stage=""instructions"" position=""1"" ><div class=""choice-option-text""> Press ""2."" </div></div><div class=""choice-option""><img src=""images/park3.png"" class=""choice-option-img"" stage=""instructions"" position=""2"" ><div class=""choice-option-text""> Press ""3."" </div></div></div>","","0","instructions","","","","","","","","","","","","","",""
"learning-instructions","13","100690","0.0-8.0-0.0-0.5","1527","2","2","""event"",""trial"",""time""
""fullscreenenter"",""1"",""2741""
","
","
","""event"",""trial"",""time""
""fullscreenenter"",""1"",""2741""
","
","","","","","","2043.5","<p> If the kids in the park you chose like the equipment, they will be very happy! </p><div style='float: center;'><img src='images/check.png' width = '200' height = '200'></img>","","0","instructions","","","","","","","","","","","","","",""
"learning-instructions","14","108374","0.0-8.0-0.0-0.6","1527","2","2","""event"",""trial"",""time""
""fullscreenenter"",""1"",""2741""
","
","
","""event"",""trial"",""time""
""fullscreenenter"",""1"",""2741""
","
","","","","","","2095.600000000035","<p> But, if the kids in the park you chose do not like the equipment, they will be sad. </p><div style='float: center;'><img src='images/x.png' width = '200' height = '200'></img>","","0","instructions","","","","","","","","","","","","","",""
"learning-instructions","15","118832","0.0-8.0-0.0-0.7","1527","2","2","""event"",""trial"",""time""
""fullscreenenter"",""1"",""2741""
","
","
","""event"",""trial"",""time""
""fullscreenenter"",""1"",""2741""
","
","","","","","","4030.7999999999884","<p> Importantly, the kids in each park like some pieces of sports equipment more than others. </p>","","0","instructions","","","","","","","","","","","","","",""
"learning-instructions","16","126165","0.0-8.0-0.0-0.8","1527","2","2","""event"",""trial"",""time""
""fullscreenenter"",""1"",""2741""
","
","
","""event"",""trial"",""time""
""fullscreenenter"",""1"",""2741""
","
","","","","","","1283.2999999999884","<p> If you choose the best park for each piece of equipment, the kids there will usually be happy. </p>","","0","instructions","","","","","","","","","","","","","",""
"learning-instructions","17","140409","0.0-8.0-0.0-0.9","1527","2","2","""event"",""trial"",""time""
""fullscreenenter"",""1"",""2741""
","
","
","""event"",""trial"",""time""
""fullscreenenter"",""1"",""2741""
","
","","","","","","7603.199999999953","<p> However, even if you choose the best park for the equipment, the kids may sometimes be sad. </p>","","0","instructions","","","","","","","","","","","","","",""
"learning-instructions","18","149682","0.0-8.0-0.0-0.10","1527","2","2","""event"",""trial"",""time""
""fullscreenenter"",""1"",""2741""
","
","
","""event"",""trial"",""time""
""fullscreenenter"",""1"",""2741""
","
","","","","","","2043.2999999999884","<p> Similarly, even if you choose the <i>wrong</i> park for the equipment, the kids may still be happy sometimes.","","0","instructions","","","","","","","","","","","","","",""
"learning-instructions","19","156064","0.0-8.0-0.0-0.11","1527","2","2","""event"",""trial"",""time""
""fullscreenenter"",""1"",""2741""
","
","
","""event"",""trial"",""time""
""fullscreenenter"",""1"",""2741""
","
","","","","","","1326.899999999965","<p> For example, the best park for this soccer ball is this one.<div style='float: center;'><img src='images/i1.png' width = '500' height = '268'></img>","","0","instructions","","","","","","","","","","","","","",""
"learning-instructions","20","162648","0.0-8.0-0.0-0.12","1527","2","2","""event"",""trial"",""time""
""fullscreenenter"",""1"",""2741""
","
","
","""event"",""trial"",""time""
""fullscreenenter"",""1"",""2741""
","
","","","","","","1297.9000000000233","<p> Let's see what happens if you choose this park for the soccer ball five times.","","0","instructions","","","","","","","","","","","","","",""
"learning-instructions","21","166115","0.0-8.0-0.0-0.13","1527","2","2","""event"",""trial"",""time""
""fullscreenenter"",""1"",""2741""
","
","
","""event"",""trial"",""time""
""fullscreenenter"",""1"",""2741""
","
","","","","","","1297.5","<p> The kids are happy.<div style='float: left;'><img src='images/i2.png' width = '640' height = '360'></img>","","0","instructions","","","","","","","","","","","","","",""
"learning-instructions","22","169648","0.0-8.0-0.0-0.14","1527","2","2","""event"",""trial"",""time""
""fullscreenenter"",""1"",""2741""
","
","
","""event"",""trial"",""time""
""fullscreenenter"",""1"",""2741""
","
","","","","","","1364.9000000000233","<p> The kids are happy.<div style='float: left;'><img src='images/i3.png' width = '640' height = '360'></img>","","0","instructions","","","","","","","","","","","","","",""
"learning-instructions","23","172948","0.0-8.0-0.0-0.15","1527","2","2","""event"",""trial"",""time""
""fullscreenenter"",""1"",""2741""
","
","
","""event"",""trial"",""time""
""fullscreenenter"",""1"",""2741""
","
","","","","","","1128.2999999999884","<p> The kids are happy.<div style='float: left;'><img src='images/i4.png' width = '640' height = '360'></img>","","0","instructions","","","","","","","","","","","","","",""
"learning-instructions","24","176198","0.0-8.0-0.0-0.16","1527","2","2","""event"",""trial"",""time""
""fullscreenenter"",""1"",""2741""
","
","
","""event"",""trial"",""time""
""fullscreenenter"",""1"",""2741""
","
","","","","","","1044.5999999999767","<p> The kids are sad.<div style='float: left;'><img src='images/i5.png' width = '640' height = '360'></img>","","0","instructions","","","","","","","","","","","","","",""
"learning-instructions","25","181765","0.0-8.0-0.0-0.17","1527","2","2","""event"",""trial"",""time""
""fullscreenenter"",""1"",""2741""
","
","
","""event"",""trial"",""time""
""fullscreenenter"",""1"",""2741""
","
","","","","","","3395.9000000000233","<p> The kids are happy.<div style='float: left;'><img src='images/i6.png' width = '640' height = '360'></img>","","0","instructions","","","","","","","","","","","","","",""
"learning-instructions","26","193559","0.0-8.0-0.0-0.18","1527","2","2","""event"",""trial"",""time""
""fullscreenenter"",""1"",""2741""
","
","
","""event"",""trial"",""time""
""fullscreenenter"",""1"",""2741""
","
","","","","","","4522.899999999965","<p> As you can see, selecting that park for the soccer ball made the kids happy most of the time, but not all the time.","","0","instructions","","","","","","","","","","","","","",""
"learning-instructions","27","202882","0.0-8.0-0.0-0.19","1527","2","2","""event"",""trial"",""time""
""fullscreenenter"",""1"",""2741""
","
","
","""event"",""trial"",""time""
""fullscreenenter"",""1"",""2741""
","
","","","","","","3323.4000000000233","<p> Now let's see what happens if you choose a DIFFERENT park for the soccer ball 5 times.","","0","instructions","","","","","","","","","","","","","",""
"learning-instructions","28","207340","0.0-8.0-0.0-0.20","1527","2","2","""event"",""trial"",""time""
""fullscreenenter"",""1"",""2741""
","
","
","""event"",""trial"",""time""
""fullscreenenter"",""1"",""2741""
","
","","","","","","2250.5999999999767","<p> The kids are sad.<div style='float: left;'><img src='images/i7.png' width = '640' height = '360'></img>","","0","instructions","","","","","","","","","","","","","",""
"learning-instructions","29","210017","0.0-8.0-0.0-0.21","1527","2","2","""event"",""trial"",""time""
""fullscreenenter"",""1"",""2741""
","
","
","""event"",""trial"",""time""
""fullscreenenter"",""1"",""2741""
","
","","","","","","469.20000000001164","<p> The kids are sad.<div style='float: left;'><img src='images/i8.png' width = '640' height = '360'></img>","","0","instructions","","","","","","","","","","","","","",""
"learning-instructions","30","217444","0.0-8.0-0.0-0.22","1527","2","2","""event"",""trial"",""time""
""fullscreenenter"",""1"",""2741""
","
","
","""event"",""trial"",""time""
""fullscreenenter"",""1"",""2741""
","
","","","","","","5260.799999999988","<p> The kids are happy.<div style='float: left;'><img src='images/i9.png' width = '640' height = '360'></img>","","0","instructions","","","","","","","","","","","","","",""
"learning-instructions","31","220347","0.0-8.0-0.0-0.23","1527","2","2","""event"",""trial"",""time""
""fullscreenenter"",""1"",""2741""
","
","
","""event"",""trial"",""time""
""fullscreenenter"",""1"",""2741""
","
","","","","","","697.7000000000116","<p> The kids are sad.<div style='float: left;'><img src='images/i10.png' width = '640' height = '360'></img>","","0","instructions","","","","","","","","","","","","","",""
"learning-instructions","32","227117","0.0-8.0-0.0-0.24","1527","2","2","""event"",""trial"",""time""
""fullscreenenter"",""1"",""2741""
","
","
","""event"",""trial"",""time""
""fullscreenenter"",""1"",""2741""
","
","","","","","","4566.200000000012","<p> The kids are sad.<div style='float: left;'><img src='images/i11.png' width = '640' height = '360'></img>","","0","instructions","","","","","","","","","","","","","",""
"learning-instructions","33","237635","0.0-8.0-0.0-0.25","1527","2","2","""event"",""trial"",""time""
""fullscreenenter"",""1"",""2741""
","
","
","""event"",""trial"",""time""
""fullscreenenter"",""1"",""2741""
","
","","","","","","2397","<p> As you can see, selecting the wrong park for the soccer ball made the kids sad most of the time, but not all the time.","","0","instructions","","","","","","","","","","","","","",""
"learning-instructions","34","247233","0.0-8.0-0.0-0.26","1527","2","2","""event"",""trial"",""time""
""fullscreenenter"",""1"",""2741""
","
","
","""event"",""trial"",""time""
""fullscreenenter"",""1"",""2741""
","
","","","","","","484.89999999990687","<p> The different pieces of equipment belong in different parks. You need to try to learn which is the best park for each piece of equipment.","","0","instructions","","","","","","","","","","","","","",""
"learning-instructions","35","264148","0.0-8.0-0.0-0.27","1527","2","2","""event"",""trial"",""time""
""fullscreenenter"",""1"",""2741""
","
","
","""event"",""trial"",""time""
""fullscreenenter"",""1"",""2741""
","
","","","","","","526","<p> Try to choose the best park for each piece of equipment, because you will <b> WIN </b> 1 point for each time you make the kids happy and <b>LOSE</b> 1 point for each time you make them sad. </p><p> Remember, if you make the best choice, you will win 1 point most of the time, but not all the time. </p>","","0","instructions","","","","","","","","","","","","","",""
"learning-instructions","36","276443","0.0-8.0-0.0-0.28","1527","2","2","""event"",""trial"",""time""
""fullscreenenter"",""1"",""2741""
","
","
","""event"",""trial"",""time""
""fullscreenenter"",""1"",""2741""
","
","","","","","","6814.900000000023","<p> This is just a practice round, but in the real game, your bonus payment will depend on your total number of points.","","0","instructions","","","","","","","","","","","","","",""
"learning-instructions","37","288699","0.0-8.0-0.0-0.29","1527","2","2","""event"",""trial"",""time""
""fullscreenenter"",""1"",""2741""
","
","
","""event"",""trial"",""time""
""fullscreenenter"",""1"",""2741""
","
","","","","","","1930.2999999999302","<p> The position where each park appears will change throughout the game. </p><p> The position where the park appears <i> does not </i> influence how likely the kids are to be happy or sad. </p>","","0","instructions","","","","","","","","","","","","","",""
"learning-instructions","38","301865","0.0-8.0-0.0-0.30","1527","2","2","""event"",""trial"",""time""
""fullscreenenter"",""1"",""2741""
","
","
","""event"",""trial"",""time""
""fullscreenenter"",""1"",""2741""
","
","","","","","","1170.1999999999534","<p> You will have 4 seconds to make each choice. Try to respond before time runs out! </p><p> You will lose 1 point each time you do not make a response. </p>","","0","instructions","","","","","","","","","","","","","",""
"learning-instructions","39","311291","0.0-8.0-0.0-0.31","1527","2","2","""event"",""trial"",""time""
""fullscreenenter"",""1"",""2741""
","
","
","""event"",""trial"",""time""
""fullscreenenter"",""1"",""2741""
","
","","","","","","2638.100000000093","<p> Remember, you should use the 1, 2, and 3 keys to select the park for each piece of equipment. </p><br><div class=""choice-instructions-grid""> <div class=""choice-option""><img src=""images/park1.png"" class=""choice-option-img"" stage=""instructions"" position=""0"" ><div class=""choice-option-text""> Press ""1."" </div></div><div class=""choice-option""><img src=""images/park2.png"" class=""choice-option-img"" stage=""instructions"" position=""1"" ><div class=""choice-option-text""> Press ""2."" </div></div><div class=""choice-option""><img src=""images/park3.png"" class=""choice-option-img"" stage=""instructions"" position=""2"" ><div class=""choice-option-text""> Press ""3."" </div></div></div>","","0","instructions","","","","","","","","","","","","","",""
"html-button-response","40","312808","0.0-8.0-1.0","1527","2","2","""event"",""trial"",""time""
""fullscreenenter"",""1"",""2741""
","
","
","""event"",""trial"",""time""
""fullscreenenter"",""1"",""2741""
","
","","","","","","1411","<p> Ready to practice? </p>","0","","","","","","","","","","","","","","","",""
"html-keyboard-response","41","313416","0.0-8.0-2.0-0.0","1527","2","2","""event"",""trial"",""time""
""fullscreenenter"",""1"",""2741""
","
","
","""event"",""trial"",""time""
""fullscreenenter"",""1"",""2741""
","
","","","","","","null","<div style=""font-size:60px;"">+</div>","null","","fixation","","","","","","","","","","","","","",""
"learning-trial","42","317424","0.0-8.0-2.0-1.0","1527","2","2","""event"",""trial"",""time""
""fullscreenenter"",""1"",""2741""
","
","
","""event"",""trial"",""time""
""fullscreenenter"",""1"",""2741""
","
","","","","","","3058.1999999999534","images/ball4.png","","","practice","images/park2.png","images/park3.png","images/park1.png","[1,2,0]","0","2","3","images/park1.png","1","practice","","","",""
"html-keyboard-response","43","317931","0.0-8.0-2.0-0.1","1527","2","2","""event"",""trial"",""time""
""fullscreenenter"",""1"",""2741""
","
","
","""event"",""trial"",""time""
""fullscreenenter"",""1"",""2741""
","
","","","","","","null","<div style=""font-size:60px;"">+</div>","null","","fixation","","","","","","","","","","","","","",""
"learning-trial","44","321940","0.0-8.0-2.0-1.1","1527","2","2","""event"",""trial"",""time""
""fullscreenenter"",""1"",""2741""
","
","
","""event"",""trial"",""time""
""fullscreenenter"",""1"",""2741""
","
","","","","","","2356.9000000000233","images/racket1.png","","","practice","images/park2.png","images/park3.png","images/park1.png","[1,2,0]","1","0","1","images/park2.png","1","practice","","","",""
"html-keyboard-response","45","322447","0.0-8.0-2.0-0.2","1527","2","2","""event"",""trial"",""time""
""fullscreenenter"",""1"",""2741""
","
","
","""event"",""trial"",""time""
""fullscreenenter"",""1"",""2741""
","
","","","","","","null","<div style=""font-size:60px;"">+</div>","null","","fixation","","","","","","","","","","","","","",""
"learning-trial","46","326453","0.0-8.0-2.0-1.2","1527","2","2","""event"",""trial"",""time""
""fullscreenenter"",""1"",""2741""
","
","
","""event"",""trial"",""time""
""fullscreenenter"",""1"",""2741""
","
","","","","","","1988.1000000000931","images/racket3.png","","","practice","images/park1.png","images/park2.png","images/park3.png","[0,1,2]","1","1","3","images/park3.png","-1","practice","","","",""
"html-keyboard-response","47","326960","0.0-8.0-2.0-0.3","1527","2","2","""event"",""trial"",""time""
""fullscreenenter"",""1"",""2741""
","
","
","""event"",""trial"",""time""
""fullscreenenter"",""1"",""2741""
","
","","","","","","null","<div style=""font-size:60px;"">+</div>","null","","fixation","","","","","","","","","","","","","",""
"learning-trial","48","330970","0.0-8.0-2.0-1.3","1527","2","2","""event"",""trial"",""time""
""fullscreenenter"",""1"",""2741""
","
","
","""event"",""trial"",""time""
""fullscreenenter"",""1"",""2741""
","
","","","","","","2105.899999999907","images/racket3.png","","","practice","images/park1.png","images/park3.png","images/park2.png","[0,2,1]","1","2","1","images/park1.png","-1","practice","","","",""
"html-keyboard-response","49","331477","0.0-8.0-2.0-0.4","1527","2","2","""event"",""trial"",""time""
""fullscreenenter"",""1"",""2741""
","
","
","""event"",""trial"",""time""
""fullscreenenter"",""1"",""2741""
","
","","","","","","null","<div style=""font-size:60px;"">+</div>","null","","fixation","","","","","","","","","","","","","",""
"learning-trial","50","335485","0.0-8.0-2.0-1.4","1527","2","2","""event"",""trial"",""time""
""fullscreenenter"",""1"",""2741""
","
","
","""event"",""trial"",""time""
""fullscreenenter"",""1"",""2741""
","
","","","","","","1380.3000000000466","images/racket2.png","","","practice","images/park2.png","images/park3.png","images/park1.png","[1,2,0]","2","1","3","images/park1.png","-1","practice","","","",""
"html-keyboard-response","51","335992","0.0-8.0-2.0-0.5","1527","2","2","""event"",""trial"",""time""
""fullscreenenter"",""1"",""2741""
","
","
","""event"",""trial"",""time""
""fullscreenenter"",""1"",""2741""
","
","","","","","","null","<div style=""font-size:60px;"">+</div>","null","","fixation","","","","","","","","","","","","","",""
"learning-trial","52","340001","0.0-8.0-2.0-1.5","1527","2","2","""event"",""trial"",""time""
""fullscreenenter"",""1"",""2741""
","
","
","""event"",""trial"",""time""
""fullscreenenter"",""1"",""2741""
","
","","","","","","788.6000000000931","images/racket1.png","","","practice","images/park1.png","images/park3.png","images/park2.png","[0,2,1]","1","2","2","images/park3.png","-1","practice","","","",""
"html-keyboard-response","53","340508","0.0-8.0-2.0-0.6","1527","2","2","""event"",""trial"",""time""
""fullscreenenter"",""1"",""2741""
","
","
","""event"",""trial"",""time""
""fullscreenenter"",""1"",""2741""
","
","","","","","","null","<div style=""font-size:60px;"">+</div>","null","","fixation","","","","","","","","","","","","","",""
"learning-trial","54","344513","0.0-8.0-2.0-1.6","1527","2","2","""event"",""trial"",""time""
""fullscreenenter"",""1"",""2741""
","
","
","""event"",""trial"",""time""
""fullscreenenter"",""1"",""2741""
","
","","","","","","1612.1000000000931","images/ball1.png","","","practice","images/park3.png","images/park1.png","images/park2.png","[2,0,1]","2","0","1","images/park3.png","1","practice","","","",""
"html-keyboard-response","55","345019","0.0-8.0-2.0-0.7","1527","2","2","""event"",""trial"",""time""
""fullscreenenter"",""1"",""2741""
","
","
","""event"",""trial"",""time""
""fullscreenenter"",""1"",""2741""
","
","","","","","","null","<div style=""font-size:60px;"">+</div>","null","","fixation","","","","","","","","","","","","","",""
"learning-trial","56","349025","0.0-8.0-2.0-1.7","1527","2","2","""event"",""trial"",""time""
""fullscreenenter"",""1"",""2741""
","
","
","""event"",""trial"",""time""
""fullscreenenter"",""1"",""2741""
","
","","","","","","1400","images/racket2.png","","","practice","images/park3.png","images/park2.png","images/park1.png","[2,1,0]","2","0","2","images/park2.png","-1","practice","","","",""
"html-keyboard-response","57","349531","0.0-8.0-2.0-0.8","1527","2","2","""event"",""trial"",""time""
""fullscreenenter"",""1"",""2741""
","
","
","""event"",""trial"",""time""
""fullscreenenter"",""1"",""2741""
","
","","","","","","null","<div style=""font-size:60px;"">+</div>","null","","fixation","","","","","","","","","","","","","",""
"learning-trial","58","353537","0.0-8.0-2.0-1.8","1527","2","2","""event"",""trial"",""time""
""fullscreenenter"",""1"",""2741""
","
","
","""event"",""trial"",""time""
""fullscreenenter"",""1"",""2741""
","
","","","","","","1043.0999999999767","images/ball1.png","","","practice","images/park1.png","images/park2.png","images/park3.png","[0,1,2]","2","2","3","images/park3.png","1","practice","","","",""
"html-keyboard-response","59","354043","0.0-8.0-2.0-0.9","1527","2","2","""event"",""trial"",""time""
""fullscreenenter"",""1"",""2741""
","
","
","""event"",""trial"",""time""
""fullscreenenter"",""1"",""2741""
","
","","","","","","null","<div style=""font-size:60px;"">+</div>","null","","fixation","","","","","","","","","","","","","",""
"learning-trial","60","358049","0.0-8.0-2.0-1.9","1527","2","2","""event"",""trial"",""time""
""fullscreenenter"",""1"",""2741""
","
","
","""event"",""trial"",""time""
""fullscreenenter"",""1"",""2741""
","
","","","","","","1176.4000000000233","images/ball4.png","","","practice","images/park1.png","images/park2.png","images/park3.png","[0,1,2]","0","0","1","images/park1.png","1","practice","","","",""
"html-keyboard-response","61","358555","0.0-8.0-2.0-0.10","1527","2","2","""event"",""trial"",""time""
""fullscreenenter"",""1"",""2741""
","
","
","""event"",""trial"",""time""
""fullscreenenter"",""1"",""2741""
","
","","","","","","null","<div style=""font-size:60px;"">+</div>","null","","fixation","","","","","","","","","","","","","",""
"learning-trial","62","362561","0.0-8.0-2.0-1.10","1527","2","2","""event"",""trial"",""time""
""fullscreenenter"",""1"",""2741""
","
","
","""event"",""trial"",""time""
""fullscreenenter"",""1"",""2741""
","
","","","","","","944.7999999999302","images/ball3.png","","","practice","images/park1.png","images/park3.png","images/park2.png","[0,2,1]","0","0","2","images/park3.png","-1","practice","","","",""
"html-keyboard-response","63","363068","0.0-8.0-2.0-0.11","1527","2","2","""event"",""trial"",""time""
""fullscreenenter"",""1"",""2741""
","
","
","""event"",""trial"",""time""
""fullscreenenter"",""1"",""2741""
","
","","","","","","null","<div style=""font-size:60px;"">+</div>","null","","fixation","","","","","","","","","","","","","",""
"learning-trial","64","367073","0.0-8.0-2.0-1.11","1527","2","2","""event"",""trial"",""time""
""fullscreenenter"",""1"",""2741""
","
","
","""event"",""trial"",""time""
""fullscreenenter"",""1"",""2741""
","
","","","","","","963.2000000000698","images/ball3.png","","","practice","images/park2.png","images/park1.png","images/park3.png","[1,0,2]","0","1","3","images/park3.png","-1","practice","","","",""
"html-button-response","65","376708","0.0-8.0-3.0","1527","2","2","""event"",""trial"",""time""
""fullscreenenter"",""1"",""2741""
","
","
","""event"",""trial"",""time""
""fullscreenenter"",""1"",""2741""
","
","","","","","","9631","<p> You earned -2 points in the practice round! </p>","0","","break","","","","","","","","","","","","","",""
"learning-instructions","66","388610","0.0-8.0-4.0-0.0","1527","2","2","""event"",""trial"",""time""
""fullscreenenter"",""1"",""2741""
","
","
","""event"",""trial"",""time""
""fullscreenenter"",""1"",""2741""
","
","","","","","","4196.699999999953","<p> It's almost time to start the real game. </p><p> Before you start, we're going to ask you a few questions about how the game works. </p>","","0","instructions","","","","","","","","","","","","","",""
"preload","67","397071","0.0-8.0-5.0","1527","2","2","""event"",""trial"",""time""
""fullscreenenter"",""1"",""2741""
","
","
","""event"",""trial"",""time""
""fullscreenenter"",""1"",""2741""
","
","true","false","[]","[]","[]","","","","","","","","","","","","","","","","","","",""
"comp-q","68","404181","0.0-8.0-6.0-0.0","1527","2","2","""event"",""trial"",""time""
""fullscreenenter"",""1"",""2741""
","
","
","""event"",""trial"",""time""
""fullscreenenter"",""1"",""2741""
","
","","","","","","1661.1999999999534","<p> <b> True or False? </b> </p><p> If you choose the best option, you will always earn 1 point. </p>","","1","comp_question","","","","","","","","","","","true","","",""
"comp-q","69","412415","0.0-8.0-6.0-1.0","1527","2","2","""event"",""trial"",""time""
""fullscreenenter"",""1"",""2741""
","
","
","""event"",""trial"",""time""
""fullscreenenter"",""1"",""2741""
","
","","","","","","2573.20000000007","<p><b> That's right! </b> Sometimes you will lose 1 point, even if you choose the best option. </p>","","0","comp_answer","","","","","","","","","","","","","",""
"comp-q","70","417738","0.0-8.0-6.0-0.1","1527","2","2","""event"",""trial"",""time""
""fullscreenenter"",""1"",""2741""
","
","
","""event"",""trial"",""time""
""fullscreenenter"",""1"",""2741""
","
","","","","","","690.6999999999534","<p> <b> True or False? </b> </p><p> You will have as much time as you want to make each choice. </p>","","1","comp_question","","","","","","","","","","","true","","",""
"comp-q","71","423901","0.0-8.0-6.0-1.1","1527","2","2","""event"",""trial"",""time""
""fullscreenenter"",""1"",""2741""
","
","
","""event"",""trial"",""time""
""fullscreenenter"",""1"",""2741""
","
","","","","","","1343.6999999999534","<p> <b> That's right! </b> You will only have 4 seconds to make each choice. </p>","","0","comp_answer","","","","","","","","","","","","","",""
"comp-q","72","430516","0.0-8.0-6.0-0.2","1527","2","2","""event"",""trial"",""time""
""fullscreenenter"",""1"",""2741""
","
","
","""event"",""trial"",""time""
""fullscreenenter"",""1"",""2741""
","
","","","","","","465.30000000004657","<p> <b> True or False? </b> </p><p> You should use the '1', '2', and '3' keys to make your choices. </p>","","0","comp_question","","","","","","","","","","","true","","",""
"comp-q","73","437109","0.0-8.0-6.0-1.2","1527","2","2","""event"",""trial"",""time""
""fullscreenenter"",""1"",""2741""
","
","
","""event"",""trial"",""time""
""fullscreenenter"",""1"",""2741""
","
","","","","","","1752.5999999999767","<p> <b> That's right! </b> You should use the '1', '2', and '3' keys to make each choice. </p>","","0","comp_answer","","","","","","","","","","","","","",""
"learning-instructions","74","449912","0.0-8.0-7.0-0.0","1527","2","2","""event"",""trial"",""time""
""fullscreenenter"",""1"",""2741""
","
","
","""event"",""trial"",""time""
""fullscreenenter"",""1"",""2741""
","
","","","","","","4315.29999999993","<p> It's now time to start the real game. </p>Do your best, because the points you earn in the next rounds will influence your bonus payment. </p>","","0","instructions","","","","","","","","","","","","","",""
"preload","75","464159","0.0-9.0-0.0","1527","2","2","""event"",""trial"",""time""
""fullscreenenter"",""1"",""2741""
","
","
","""event"",""trial"",""time""
""fullscreenenter"",""1"",""2741""
","
","true","false","[]","[]","[]","","","","","","","","","","","","","","","","","","",""
"learning-instructions","76","473288","0.0-9.0-1.0-0.0","1527","2","2","""event"",""trial"",""time""
""fullscreenenter"",""1"",""2741""
","
","
","""event"",""trial"",""time""
""fullscreenenter"",""1"",""2741""
","
","","","","","","2635.5","<p> Your goal in this round is to buy different types of fruits. </p><p> You will try to purchase many fruits from different stores. </p></div>","","0","instructions","","","","","","","","","","","","","",""
"learning-instructions","77","495532","0.0-9.0-1.0-0.1","1527","2","2","""event"",""trial"",""time""
""fullscreenenter"",""1"",""2741""
","
","
","""event"",""trial"",""time""
""fullscreenenter"",""1"",""2741""
","
","","","","","","13748.899999999907","<p> On each turn, you will see a picture of a fruit and three different stores.  </p><p> You need to select the store where you can buy that fruit.  </p>","","0","instructions","","","","","","","","","","","","","",""
"learning-instructions","78","510082","0.0-9.0-1.0-0.2","1527","2","2","""event"",""trial"",""time""
""fullscreenenter"",""1"",""2741""
","
","
","""event"",""trial"",""time""
""fullscreenenter"",""1"",""2741""
","
","","","","","","7167","<p> You can select the store on the left by pressing 1, the store in the middle by pressing 2, and the store on the right by pressing 3. </p><br><div class=""choice-instructions-grid""> <div class=""choice-option""><img src=""images/fruit_choice1.png"" class=""choice-option-img"" stage=""instructions"" position=""0"" ><div class=""choice-option-text""> Press ""1."" </div></div><div class=""choice-option""><img src=""images/fruit_choice2.png"" class=""choice-option-img"" stage=""instructions"" position=""1"" ><div class=""choice-option-text""> Press ""2."" </div></div><div class=""choice-option""><img src=""images/fruit_choice3.png"" class=""choice-option-img"" stage=""instructions"" position=""2"" ><div class=""choice-option-text""> Press ""3."" </div></div></div>","","0","instructions","","","","","","","","","","","","","",""
"learning-instructions","79","516065","0.0-9.0-1.0-0.3","1527","2","2","""event"",""trial"",""time""
""fullscreenenter"",""1"",""2741""
","
","
","""event"",""trial"",""time""
""fullscreenenter"",""1"",""2741""
","
","","","","","","1038.1999999999534","<p> If you find the fruit in the store you chose, you will get to buy and eat it! </p><div style='float: center;'><img src='images/check.png' width = '200' height = '200'></img>","","0","instructions","","","","","","","","","","","","","",""
"learning-instructions","80","529302","0.0-9.0-1.0-0.4","1527","2","2","""event"",""trial"",""time""
""fullscreenenter"",""1"",""2741""
","
","
","""event"",""trial"",""time""
""fullscreenenter"",""1"",""2741""
","
","","","","","","8771.5","<p> But, if the fruit is not in that store, you will be hungry. </p><div style='float: center;'><img src='images/x.png' width = '200' height = '200'></img>","","0","instructions","","","","","","","","","","","","","",""
"learning-instructions","81","543308","0.0-9.0-1.0-0.5","1527","2","2","""event"",""trial"",""time""
""fullscreenenter"",""1"",""2741""
","
","
","""event"",""trial"",""time""
""fullscreenenter"",""1"",""2741""
","
","","","","","","4233.900000000023","<p> Importantly, each fruit is more likely to be found in one of the stores. </p><p> If you choose the correct store, you will be more likely to be able to buy the fruit! </p>","","0","instructions","","","","","","","","","","","","","",""
"learning-instructions","82","554772","0.0-9.0-1.0-0.6","1527","2","2","""event"",""trial"",""time""
""fullscreenenter"",""1"",""2741""
","
","
","""event"",""trial"",""time""
""fullscreenenter"",""1"",""2741""
","
","","","","","","1015.1000000000931","<p> However, even if you choose the best store for the fruit, the store might not have it sometimes. </p><p> Similarly, even if you choose the <i>wrong</i> store, it might still have the fruit.","","0","instructions","","","","","","","","","","","","","",""
"learning-instructions","83","567597","0.0-9.0-1.0-0.7","1527","2","2","""event"",""trial"",""time""
""fullscreenenter"",""1"",""2741""
","
","
","""event"",""trial"",""time""
""fullscreenenter"",""1"",""2741""
","
","","","","","","640.1000000000931","<p> Try to choose the best store for each fruit, because you will <b> WIN </b> 1 point for each fruit you eat and <b>LOSE</b> 1 point each time you are hungry. </p><p> Your bonus payment will depend on your total number of points.","","0","instructions","","","","","","","","","","","","","",""
"learning-instructions","84","578161","0.0-9.0-1.0-0.8","1527","2","2","""event"",""trial"",""time""
""fullscreenenter"",""1"",""2741""
","
","
","""event"",""trial"",""time""
""fullscreenenter"",""1"",""2741""
","
","","","","","","2361.0999999999767","<p> The position of each store will change throughout the round. </p><p> The store's position <i> does not </i> influence how likely you are to find the fruit. </p>","","0","instructions","","","","","","","","","","","","","",""
"learning-instructions","85","590266","0.0-9.0-1.0-0.9","1527","2","2","""event"",""trial"",""time""
""fullscreenenter"",""1"",""2741""
","
","
","""event"",""trial"",""time""
""fullscreenenter"",""1"",""2741""
","
","","","","","","2812.399999999907","<p> You will have 4 seconds to make each choice. Try to respond before time runs out! </p><p> You will lose 1 point each time you do not make a response. </p>","","0","instructions","","","","","","","","","","","","","",""
"html-keyboard-response","86","590871","0.0-9.0-2.0-0.0","1527","2","2","""event"",""trial"",""time""
""fullscreenenter"",""1"",""2741""
","
","
","""event"",""trial"",""time""
""fullscreenenter"",""1"",""2741""
","
","","","","","","null","<div style=""font-size:60px;"">+</div>","null","","fixation","","","","","","","","","","","","","",""
"learning-trial","87","594876","0.0-9.0-2.0-1.0","1527","2","2","""event"",""trial"",""time""
""fullscreenenter"",""1"",""2741""
","
","
","""event"",""trial"",""time""
""fullscreenenter"",""1"",""2741""
","
","","","","","","1704.4000000000233","images/straw1.png","","","learning","images/fruit_choice3.png","images/fruit_choice1.png","images/fruit_choice2.png","[2,0,1]","1","2","2","images/fruit_choice1.png","1","fruit","","straw","2","0"
"html-keyboard-response","88","595381","0.0-9.0-2.0-0.1","1527","2","2","""event"",""trial"",""time""
""fullscreenenter"",""1"",""2741""
","
","
","""event"",""trial"",""time""
""fullscreenenter"",""1"",""2741""
","
","","","","","","null","<div style=""font-size:60px;"">+</div>","null","","fixation","","","","","","","","","","","","","",""
"learning-trial","89","599386","0.0-9.0-2.0-1.1","1527","2","2","""event"",""trial"",""time""
""fullscreenenter"",""1"",""2741""
","
","
","""event"",""trial"",""time""
""fullscreenenter"",""1"",""2741""
","
","","","","","","684.2999999999302","images/apple5.png","","","learning","images/fruit_choice3.png","images/fruit_choice1.png","images/fruit_choice2.png","[2,0,1]","1","2","1","images/fruit_choice3.png","-1","fruit","","apple","2","0"
"html-keyboard-response","90","599893","0.0-9.0-2.0-0.2","1527","2","2","""event"",""trial"",""time""
""fullscreenenter"",""1"",""2741""
","
","
","""event"",""trial"",""time""
""fullscreenenter"",""1"",""2741""
","
","","","","","","null","<div style=""font-size:60px;"">+</div>","null","","fixation","","","","","","","","","","","","","",""
"learning-trial","91","603901","0.0-9.0-2.0-1.2","1527","2","2","""event"",""trial"",""time""
""fullscreenenter"",""1"",""2741""
","
","
","""event"",""trial"",""time""
""fullscreenenter"",""1"",""2741""
","
","","","","","","487.5","images/straw3.png","","","learning","images/fruit_choice1.png","images/fruit_choice3.png","images/fruit_choice2.png","[0,2,1]","2","1","2","images/fruit_choice3.png","1","fruit","","straw","2","0"
"html-keyboard-response","92","604408","0.0-9.0-2.0-0.3","1527","2","2","""event"",""trial"",""time""
""fullscreenenter"",""1"",""2741""
","
","
","""event"",""trial"",""time""
""fullscreenenter"",""1"",""2741""
","
","","","","","","null","<div style=""font-size:60px;"">+</div>","null","","fixation","","","","","","","","","","","","","",""
"learning-trial","93","608418","0.0-9.0-2.0-1.3","1527","2","2","""event"",""trial"",""time""
""fullscreenenter"",""1"",""2741""
","
","
","""event"",""trial"",""time""
""fullscreenenter"",""1"",""2741""
","
","","","","","","896.5","images/banana5.png","","","learning","images/fruit_choice3.png","images/fruit_choice2.png","images/fruit_choice1.png","[2,1,0]","0","2","3","images/fruit_choice1.png","1","fruit","","banana","2","0"
"html-keyboard-response","94","608923","0.0-9.0-2.0-0.4","1527","2","2","""event"",""trial"",""time""
""fullscreenenter"",""1"",""2741""
","
","
","""event"",""trial"",""time""
""fullscreenenter"",""1"",""2741""
","
","","","","","","null","<div style=""font-size:60px;"">+</div>","null","","fixation","","","","","","","","","","","","","",""
"learning-trial","95","612933","0.0-9.0-2.0-1.4","1527","2","2","""event"",""trial"",""time""
""fullscreenenter"",""1"",""2741""
","
","
","""event"",""trial"",""time""
""fullscreenenter"",""1"",""2741""
","
","","","","","","2021.5","images/straw1.png","","","learning","images/fruit_choice2.png","images/fruit_choice3.png","images/fruit_choice1.png","[1,2,0]","1","0","2","images/fruit_choice3.png","-1","fruit","","straw","2","0"
"html-keyboard-response","96","613439","0.0-9.0-2.0-0.5","1527","2","2","""event"",""trial"",""time""
""fullscreenenter"",""1"",""2741""
","
","
","""event"",""trial"",""time""
""fullscreenenter"",""1"",""2741""
","
","","","","","","null","<div style=""font-size:60px;"">+</div>","null","","fixation","","","","","","","","","","","","","",""
"learning-trial","97","617448","0.0-9.0-2.0-1.5","1527","2","2","""event"",""trial"",""time""
""fullscreenenter"",""1"",""2741""
","
","
","""event"",""trial"",""time""
""fullscreenenter"",""1"",""2741""
","
","","","","","","1205.2000000000698","images/apple3.png","","","learning","images/fruit_choice2.png","images/fruit_choice3.png","images/fruit_choice1.png","[1,2,0]","0","2","1","images/fruit_choice2.png","-1","fruit","","apple","2","0"
"html-keyboard-response","98","617954","0.0-9.0-2.0-0.6","1527","2","2","""event"",""trial"",""time""
""fullscreenenter"",""1"",""2741""
","
","
","""event"",""trial"",""time""
""fullscreenenter"",""1"",""2741""
","
","","","","","","null","<div style=""font-size:60px;"">+</div>","null","","fixation","","","","","","","","","","","","","",""
"learning-trial","99","621960","0.0-9.0-2.0-1.6","1527","2","2","""event"",""trial"",""time""
""fullscreenenter"",""1"",""2741""
","
","
","""event"",""trial"",""time""
""fullscreenenter"",""1"",""2741""
","
","","","","","","483.20000000006985","images/banana5.png","","","learning","images/fruit_choice2.png","images/fruit_choice1.png","images/fruit_choice3.png","[1,0,2]","0","1","3","images/fruit_choice3.png","-1","fruit","","banana","2","0"
"html-keyboard-response","100","622466","0.0-9.0-2.0-0.7","1527","2","2","""event"",""trial"",""time""
""fullscreenenter"",""1"",""2741""
","
","
","""event"",""trial"",""time""
""fullscreenenter"",""1"",""2741""
","
","","","","","","null","<div style=""font-size:60px;"">+</div>","null","","fixation","","","","","","","","","","","","","",""
"learning-trial","101","626472","0.0-9.0-2.0-1.7","1527","2","2","""event"",""trial"",""time""
""fullscreenenter"",""1"",""2741""
","
","
","""event"",""trial"",""time""
""fullscreenenter"",""1"",""2741""
","
","","","","","","318.5","images/banana4.png","","","learning","images/fruit_choice2.png","images/fruit_choice1.png","images/fruit_choice3.png","[1,0,2]","2","2","2","images/fruit_choice1.png","-1","fruit","","banana","2","0"
"html-keyboard-response","102","626978","0.0-9.0-2.0-0.8","1527","2","2","""event"",""trial"",""time""
""fullscreenenter"",""1"",""2741""
","
","
","""event"",""trial"",""time""
""fullscreenenter"",""1"",""2741""
","
","","","","","","null","<div style=""font-size:60px;"">+</div>","null","","fixation","","","","","","","","","","","","","",""
"learning-trial","103","630985","0.0-9.0-2.0-1.8","1527","2","2","""event"",""trial"",""time""
""fullscreenenter"",""1"",""2741""
","
","
","""event"",""trial"",""time""
""fullscreenenter"",""1"",""2741""
","
","","","","","","307.9000000000233","images/apple5.png","","","learning","images/fruit_choice1.png","images/fruit_choice3.png","images/fruit_choice2.png","[0,2,1]","1","2","3","images/fruit_choice2.png","1","fruit","","apple","2","0"
"html-keyboard-response","104","631490","0.0-9.0-2.0-0.9","1527","2","2","""event"",""trial"",""time""
""fullscreenenter"",""1"",""2741""
","
","
","""event"",""trial"",""time""
""fullscreenenter"",""1"",""2741""
","
","","","","","","null","<div style=""font-size:60px;"">+</div>","null","","fixation","","","","","","","","","","","","","",""
"learning-trial","105","635496","0.0-9.0-2.0-1.9","1527","2","2","""event"",""trial"",""time""
""fullscreenenter"",""1"",""2741""
","
","
","""event"",""trial"",""time""
""fullscreenenter"",""1"",""2741""
","
","","","","","","418.69999999995343","images/banana4.png","","","learning","images/fruit_choice3.png","images/fruit_choice1.png","images/fruit_choice2.png","[2,0,1]","2","0","3","images/fruit_choice2.png","-1","fruit","","banana","2","0"
"html-keyboard-response","106","636002","0.0-9.0-2.0-0.10","1527","2","2","""event"",""trial"",""time""
""fullscreenenter"",""1"",""2741""
","
","
","""event"",""trial"",""time""
""fullscreenenter"",""1"",""2741""
","
","","","","","","null","<div style=""font-size:60px;"">+</div>","null","","fixation","","","","","","","","","","","","","",""
"learning-trial","107","640008","0.0-9.0-2.0-1.10","1527","2","2","""event"",""trial"",""time""
""fullscreenenter"",""1"",""2741""
","
","
","""event"",""trial"",""time""
""fullscreenenter"",""1"",""2741""
","
","","","","","","262.69999999995343","images/apple1.png","","","learning","images/fruit_choice1.png","images/fruit_choice3.png","images/fruit_choice2.png","[0,2,1]","2","1","2","images/fruit_choice3.png","1","fruit","","apple","2","0"
"html-keyboard-response","108","640514","0.0-9.0-2.0-0.11","1527","2","2","""event"",""trial"",""time""
""fullscreenenter"",""1"",""2741""
","
","
","""event"",""trial"",""time""
""fullscreenenter"",""1"",""2741""
","
","","","","","","null","<div style=""font-size:60px;"">+</div>","null","","fixation","","","","","","","","","","","","","",""
"learning-trial","109","644520","0.0-9.0-2.0-1.11","1527","2","2","""event"",""trial"",""time""
""fullscreenenter"",""1"",""2741""
","
","
","""event"",""trial"",""time""
""fullscreenenter"",""1"",""2741""
","
","","","","","","210.30000000004657","images/apple1.png","","","learning","images/fruit_choice3.png","images/fruit_choice1.png","images/fruit_choice2.png","[2,0,1]","2","0","1","images/fruit_choice3.png","-1","fruit","","apple","2","0"
"html-keyboard-response","110","645026","0.0-9.0-2.0-0.12","1527","2","2","""event"",""trial"",""time""
""fullscreenenter"",""1"",""2741""
","
","
","""event"",""trial"",""time""
""fullscreenenter"",""1"",""2741""
","
","","","","","","null","<div style=""font-size:60px;"">+</div>","null","","fixation","","","","","","","","","","","","","",""
"learning-trial","111","649035","0.0-9.0-2.0-1.12","1527","2","2","""event"",""trial"",""time""
""fullscreenenter"",""1"",""2741""
","
","
","""event"",""trial"",""time""
""fullscreenenter"",""1"",""2741""
","
","","","","","","321.69999999995343","images/apple1.png","","","learning","images/fruit_choice2.png","images/fruit_choice3.png","images/fruit_choice1.png","[1,2,0]","2","1","2","images/fruit_choice3.png","1","fruit","","apple","2","0"
"html-keyboard-response","112","649538","0.0-9.0-2.0-0.13","1527","2","2","""event"",""trial"",""time""
""fullscreenenter"",""1"",""2741""
","
","
","""event"",""trial"",""time""
""fullscreenenter"",""1"",""2741""
","
","","","","","","null","<div style=""font-size:60px;"">+</div>","null","","fixation","","","","","","","","","","","","","",""
"learning-trial","113","653544","0.0-9.0-2.0-1.13","1527","2","2","""event"",""trial"",""time""
""fullscreenenter"",""1"",""2741""
","
","
","""event"",""trial"",""time""
""fullscreenenter"",""1"",""2741""
","
","","","","","","434.19999999995343","images/straw3.png","","","learning","images/fruit_choice3.png","images/fruit_choice1.png","images/fruit_choice2.png","[2,0,1]","2","0","2","images/fruit_choice1.png","-1","fruit","","straw","2","0"
"html-keyboard-response","114","654050","0.0-9.0-2.0-0.14","1527","2","2","""event"",""trial"",""time""
""fullscreenenter"",""1"",""2741""
","
","
","""event"",""trial"",""time""
""fullscreenenter"",""1"",""2741""
","
","","","","","","null","<div style=""font-size:60px;"">+</div>","null","","fixation","","","","","","","","","","","","","",""
"learning-trial","115","658056","0.0-9.0-2.0-1.14","1527","2","2","""event"",""trial"",""time""
""fullscreenenter"",""1"",""2741""
","
","
","""event"",""trial"",""time""
""fullscreenenter"",""1"",""2741""
","
","","","","","","354.69999999995343","images/apple3.png","","","learning","images/fruit_choice2.png","images/fruit_choice1.png","images/fruit_choice3.png","[1,0,2]","0","1","3","images/fruit_choice3.png","-1","fruit","","apple","2","0"
"html-keyboard-response","116","658562","0.0-9.0-2.0-0.15","1527","2","2","""event"",""trial"",""time""
""fullscreenenter"",""1"",""2741""
","
","
","""event"",""trial"",""time""
""fullscreenenter"",""1"",""2741""
","
","","","","","","null","<div style=""font-size:60px;"">+</div>","null","","fixation","","","","","","","","","","","","","",""
"learning-trial","117","662568","0.0-9.0-2.0-1.15","1527","2","2","""event"",""trial"",""time""
""fullscreenenter"",""1"",""2741""
","
","
","""event"",""trial"",""time""
""fullscreenenter"",""1"",""2741""
","
","","","","","","223.09999999997672","images/straw3.png","","","learning","images/fruit_choice3.png","images/fruit_choice1.png","images/fruit_choice2.png","[2,0,1]","2","0","1","images/fruit_choice3.png","1","fruit","","straw","2","0"
"html-keyboard-response","118","663074","0.0-9.0-2.0-0.16","1527","2","2","""event"",""trial"",""time""
""fullscreenenter"",""1"",""2741""
","
","
","""event"",""trial"",""time""
""fullscreenenter"",""1"",""2741""
","
","","","","","","null","<div style=""font-size:60px;"">+</div>","null","","fixation","","","","","","","","","","","","","",""
"learning-trial","119","667079","0.0-9.0-2.0-1.16","1527","2","2","""event"",""trial"",""time""
""fullscreenenter"",""1"",""2741""
","
","
","""event"",""trial"",""time""
""fullscreenenter"",""1"",""2741""
","
","","","","","","523.6999999999534","images/banana3.png","","","learning","images/fruit_choice3.png","images/fruit_choice1.png","images/fruit_choice2.png","[2,0,1]","1","2","2","images/fruit_choice1.png","-1","fruit","","banana","2","0"
"html-keyboard-response","120","667586","0.0-9.0-2.0-0.17","1527","2","2","""event"",""trial"",""time""
""fullscreenenter"",""1"",""2741""
","
","
","""event"",""trial"",""time""
""fullscreenenter"",""1"",""2741""
","
","","","","","","null","<div style=""font-size:60px;"">+</div>","null","","fixation","","","","","","","","","","","","","",""
"learning-trial","121","671592","0.0-9.0-2.0-1.17","1527","2","2","""event"",""trial"",""time""
""fullscreenenter"",""1"",""2741""
","
","
","""event"",""trial"",""time""
""fullscreenenter"",""1"",""2741""
","
","","","","","","212.5","images/banana3.png","","","learning","images/fruit_choice3.png","images/fruit_choice1.png","images/fruit_choice2.png","[2,0,1]","1","2","3","images/fruit_choice2.png","1","fruit","","banana","2","0"
"html-keyboard-response","122","672098","0.0-9.0-2.0-0.18","1527","2","2","""event"",""trial"",""time""
""fullscreenenter"",""1"",""2741""
","
","
","""event"",""trial"",""time""
""fullscreenenter"",""1"",""2741""
","
","","","","","","null","<div style=""font-size:60px;"">+</div>","null","","fixation","","","","","","","","","","","","","",""
"learning-trial","123","676104","0.0-9.0-2.0-1.18","1527","2","2","""event"",""trial"",""time""
""fullscreenenter"",""1"",""2741""
","
","
","""event"",""trial"",""time""
""fullscreenenter"",""1"",""2741""
","
","","","","","","602.7000000000698","images/banana3.png","","","learning","images/fruit_choice2.png","images/fruit_choice1.png","images/fruit_choice3.png","[1,0,2]","1","0","1","images/fruit_choice2.png","1","fruit","","banana","2","0"
"html-keyboard-response","124","676610","0.0-9.0-2.0-0.19","1527","2","2","""event"",""trial"",""time""
""fullscreenenter"",""1"",""2741""
","
","
","""event"",""trial"",""time""
""fullscreenenter"",""1"",""2741""
","
","","","","","","null","<div style=""font-size:60px;"">+</div>","null","","fixation","","","","","","","","","","","","","",""
"learning-trial","125","680616","0.0-9.0-2.0-1.19","1527","2","2","""event"",""trial"",""time""
""fullscreenenter"",""1"",""2741""
","
","
","""event"",""trial"",""time""
""fullscreenenter"",""1"",""2741""
","
","","","","","","368.9000000000233","images/banana5.png","","","learning","images/fruit_choice3.png","images/fruit_choice2.png","images/fruit_choice1.png","[2,1,0]","0","2","2","images/fruit_choice2.png","-1","fruit","","banana","2","0"
"html-keyboard-response","126","681122","0.0-9.0-2.0-0.20","1527","2","2","""event"",""trial"",""time""
""fullscreenenter"",""1"",""2741""
","
","
","""event"",""trial"",""time""
""fullscreenenter"",""1"",""2741""
","
","","","","","","null","<div style=""font-size:60px;"">+</div>","null","","fixation","","","","","","","","","","","","","",""
"learning-trial","127","685128","0.0-9.0-2.0-1.20","1527","2","2","""event"",""trial"",""time""
""fullscreenenter"",""1"",""2741""
","
","
","""event"",""trial"",""time""
""fullscreenenter"",""1"",""2741""
","
","","","","","","456","images/banana3.png","","","learning","images/fruit_choice2.png","images/fruit_choice3.png","images/fruit_choice1.png","[1,2,0]","1","0","1","images/fruit_choice2.png","1","fruit","","banana","2","0"
"html-keyboard-response","128","685634","0.0-9.0-2.0-0.21","1527","2","2","""event"",""trial"",""time""
""fullscreenenter"",""1"",""2741""
","
","
","""event"",""trial"",""time""
""fullscreenenter"",""1"",""2741""
","
","","","","","","null","<div style=""font-size:60px;"">+</div>","null","","fixation","","","","","","","","","","","","","",""
"learning-trial","129","689640","0.0-9.0-2.0-1.21","1527","2","2","""event"",""trial"",""time""
""fullscreenenter"",""1"",""2741""
","
","
","""event"",""trial"",""time""
""fullscreenenter"",""1"",""2741""
","
","","","","","","493.69999999995343","images/apple3.png","","","learning","images/fruit_choice1.png","images/fruit_choice3.png","images/fruit_choice2.png","[0,2,1]","0","0","2","images/fruit_choice3.png","-1","fruit","","apple","2","0"
"html-keyboard-response","130","690146","0.0-9.0-2.0-0.22","1527","2","2","""event"",""trial"",""time""
""fullscreenenter"",""1"",""2741""
","
","
","""event"",""trial"",""time""
""fullscreenenter"",""1"",""2741""
","
","","","","","","null","<div style=""font-size:60px;"">+</div>","null","","fixation","","","","","","","","","","","","","",""
"learning-trial","131","694152","0.0-9.0-2.0-1.22","1527","2","2","""event"",""trial"",""time""
""fullscreenenter"",""1"",""2741""
","
","
","""event"",""trial"",""time""
""fullscreenenter"",""1"",""2741""
","
","","","","","","551.5","images/apple5.png","","","learning","images/fruit_choice3.png","images/fruit_choice1.png","images/fruit_choice2.png","[2,0,1]","1","2","3","images/fruit_choice2.png","1","fruit","","apple","2","0"
"html-keyboard-response","132","694658","0.0-9.0-2.0-0.23","1527","2","2","""event"",""trial"",""time""
""fullscreenenter"",""1"",""2741""
","
","
","""event"",""trial"",""time""
""fullscreenenter"",""1"",""2741""
","
","","","","","","null","<div style=""font-size:60px;"">+</div>","null","","fixation","","","","","","","","","","","","","",""
"learning-trial","133","698664","0.0-9.0-2.0-1.23","1527","2","2","""event"",""trial"",""time""
""fullscreenenter"",""1"",""2741""
","
","
","""event"",""trial"",""time""
""fullscreenenter"",""1"",""2741""
","
","","","","","","352.5","images/banana3.png","","","learning","images/fruit_choice1.png","images/fruit_choice2.png","images/fruit_choice3.png","[0,1,2]","1","1","2","images/fruit_choice2.png","1","fruit","","banana","2","0"
"html-keyboard-response","134","699170","0.0-9.0-2.0-0.24","1527","2","2","""event"",""trial"",""time""
""fullscreenenter"",""1"",""2741""
","
","
","""event"",""trial"",""time""
""fullscreenenter"",""1"",""2741""
","
","","","","","","null","<div style=""font-size:60px;"">+</div>","null","","fixation","","","","","","","","","","","","","",""
"learning-trial","135","703175","0.0-9.0-2.0-1.24","1527","2","2","""event"",""trial"",""time""
""fullscreenenter"",""1"",""2741""
","
","
","""event"",""trial"",""time""
""fullscreenenter"",""1"",""2741""
","
","","","","","","464.10000000009313","images/apple5.png","","","learning","images/fruit_choice1.png","images/fruit_choice3.png","images/fruit_choice2.png","[0,2,1]","1","2","2","images/fruit_choice3.png","1","fruit","","apple","2","0"
"html-keyboard-response","136","703682","0.0-9.0-2.0-0.25","1527","2","2","""event"",""trial"",""time""
""fullscreenenter"",""1"",""2741""
","
","
","""event"",""trial"",""time""
""fullscreenenter"",""1"",""2741""
","
","","","","","","null","<div style=""font-size:60px;"">+</div>","null","","fixation","","","","","","","","","","","","","",""
"learning-trial","137","707687","0.0-9.0-2.0-1.25","1527","2","2","""event"",""trial"",""time""
""fullscreenenter"",""1"",""2741""
","
","
","""event"",""trial"",""time""
""fullscreenenter"",""1"",""2741""
","
","","","","","","322.39999999990687","images/straw3.png","","","learning","images/fruit_choice1.png","images/fruit_choice3.png","images/fruit_choice2.png","[0,2,1]","2","1","1","images/fruit_choice1.png","-1","fruit","","straw","2","0"
"html-keyboard-response","138","708193","0.0-9.0-2.0-0.26","1527","2","2","""event"",""trial"",""time""
""fullscreenenter"",""1"",""2741""
","
","
","""event"",""trial"",""time""
""fullscreenenter"",""1"",""2741""
","
","","","","","","null","<div style=""font-size:60px;"">+</div>","null","","fixation","","","","","","","","","","","","","",""
"learning-trial","139","712199","0.0-9.0-2.0-1.26","1527","2","2","""event"",""trial"",""time""
""fullscreenenter"",""1"",""2741""
","
","
","""event"",""trial"",""time""
""fullscreenenter"",""1"",""2741""
","
","","","","","","323.5","images/banana4.png","","","learning","images/fruit_choice2.png","images/fruit_choice3.png","images/fruit_choice1.png","[1,2,0]","2","1","3","images/fruit_choice1.png","-1","fruit","","banana","2","0"
"html-keyboard-response","140","712701","0.0-9.0-2.0-0.27","1527","2","2","""event"",""trial"",""time""
""fullscreenenter"",""1"",""2741""
","
","
","""event"",""trial"",""time""
""fullscreenenter"",""1"",""2741""
","
","","","","","","null","<div style=""font-size:60px;"">+</div>","null","","fixation","","","","","","","","","","","","","",""
"learning-trial","141","716705","0.0-9.0-2.0-1.27","1527","2","2","""event"",""trial"",""time""
""fullscreenenter"",""1"",""2741""
","
","
","""event"",""trial"",""time""
""fullscreenenter"",""1"",""2741""
","
","","","","","","222.20000000006985","images/straw1.png","","","learning","images/fruit_choice2.png","images/fruit_choice1.png","images/fruit_choice3.png","[1,0,2]","1","0","2","images/fruit_choice1.png","-1","fruit","","straw","2","0"
"html-keyboard-response","142","717212","0.0-9.0-2.0-0.28","1527","2","2","""event"",""trial"",""time""
""fullscreenenter"",""1"",""2741""
","
","
","""event"",""trial"",""time""
""fullscreenenter"",""1"",""2741""
","
","","","","","","null","<div style=""font-size:60px;"">+</div>","null","","fixation","","","","","","","","","","","","","",""
"learning-trial","143","721217","0.0-9.0-2.0-1.28","1527","2","2","""event"",""trial"",""time""
""fullscreenenter"",""1"",""2741""
","
","
","""event"",""trial"",""time""
""fullscreenenter"",""1"",""2741""
","
","","","","","","486.70000000006985","images/straw1.png","","","learning","images/fruit_choice2.png","images/fruit_choice1.png","images/fruit_choice3.png","[1,0,2]","1","0","1","images/fruit_choice2.png","1","fruit","","straw","2","0"
"html-keyboard-response","144","721724","0.0-9.0-2.0-0.29","1527","2","2","""event"",""trial"",""time""
""fullscreenenter"",""1"",""2741""
","
","
","""event"",""trial"",""time""
""fullscreenenter"",""1"",""2741""
","
","","","","","","null","<div style=""font-size:60px;"">+</div>","null","","fixation","","","","","","","","","","","","","",""
"learning-trial","145","725729","0.0-9.0-2.0-1.29","1527","2","2","""event"",""trial"",""time""
""fullscreenenter"",""1"",""2741""
","
","
","""event"",""trial"",""time""
""fullscreenenter"",""1"",""2741""
","
","","","","","","1123.5","images/apple3.png","","","learning","images/fruit_choice3.png","images/fruit_choice1.png","images/fruit_choice2.png","[2,0,1]","0","1","1","images/fruit_choice3.png","-1","fruit","","apple","2","0"
"html-keyboard-response","146","726234","0.0-9.0-2.0-0.30","1527","2","2","""event"",""trial"",""time""
""fullscreenenter"",""1"",""2741""
","
","
","""event"",""trial"",""time""
""fullscreenenter"",""1"",""2741""
","
","","","","","","null","<div style=""font-size:60px;"">+</div>","null","","fixation","","","","","","","","","","","","","",""
"learning-trial","147","730243","0.0-9.0-2.0-1.30","1527","2","2","""event"",""trial"",""time""
""fullscreenenter"",""1"",""2741""
","
","
","""event"",""trial"",""time""
""fullscreenenter"",""1"",""2741""
","
","","","","","","1253.7000000000698","images/banana5.png","","","learning","images/fruit_choice2.png","images/fruit_choice3.png","images/fruit_choice1.png","[1,2,0]","0","2","2","images/fruit_choice3.png","-1","fruit","","banana","2","0"
"html-keyboard-response","148","730748","0.0-9.0-2.0-0.31","1527","2","2","""event"",""trial"",""time""
""fullscreenenter"",""1"",""2741""
","
","
","""event"",""trial"",""time""
""fullscreenenter"",""1"",""2741""
","
","","","","","","null","<div style=""font-size:60px;"">+</div>","null","","fixation","","","","","","","","","","","","","",""
"learning-trial","149","734753","0.0-9.0-2.0-1.31","1527","2","2","""event"",""trial"",""time""
""fullscreenenter"",""1"",""2741""
","
","
","""event"",""trial"",""time""
""fullscreenenter"",""1"",""2741""
","
","","","","","","1165.8000000000466","images/straw4.png","","","learning","images/fruit_choice1.png","images/fruit_choice3.png","images/fruit_choice2.png","[0,2,1]","0","0","1","images/fruit_choice1.png","1","fruit","","straw","2","0"
"html-keyboard-response","150","735260","0.0-9.0-2.0-0.32","1527","2","2","""event"",""trial"",""time""
""fullscreenenter"",""1"",""2741""
","
","
","""event"",""trial"",""time""
""fullscreenenter"",""1"",""2741""
","
","","","","","","null","<div style=""font-size:60px;"">+</div>","null","","fixation","","","","","","","","","","","","","",""
"learning-trial","151","739265","0.0-9.0-2.0-1.32","1527","2","2","""event"",""trial"",""time""
""fullscreenenter"",""1"",""2741""
","
","
","""event"",""trial"",""time""
""fullscreenenter"",""1"",""2741""
","
","","","","","","791.1000000000931","images/apple3.png","","","learning","images/fruit_choice2.png","images/fruit_choice3.png","images/fruit_choice1.png","[1,2,0]","0","2","2","images/fruit_choice3.png","-1","fruit","","apple","2","0"
"html-keyboard-response","152","739772","0.0-9.0-2.0-0.33","1527","2","2","""event"",""trial"",""time""
""fullscreenenter"",""1"",""2741""
","
","
","""event"",""trial"",""time""
""fullscreenenter"",""1"",""2741""
","
","","","","","","null","<div style=""font-size:60px;"">+</div>","null","","fixation","","","","","","","","","","","","","",""
"learning-trial","153","743778","0.0-9.0-2.0-1.33","1527","2","2","""event"",""trial"",""time""
""fullscreenenter"",""1"",""2741""
","
","
","""event"",""trial"",""time""
""fullscreenenter"",""1"",""2741""
","
","","","","","","2179.0999999999767","images/straw4.png","","","learning","images/fruit_choice1.png","images/fruit_choice3.png","images/fruit_choice2.png","[0,2,1]","0","0","3","images/fruit_choice2.png","-1","fruit","","straw","2","0"
"html-keyboard-response","154","744284","0.0-9.0-2.0-0.34","1527","2","2","""event"",""trial"",""time""
""fullscreenenter"",""1"",""2741""
","
","
","""event"",""trial"",""time""
""fullscreenenter"",""1"",""2741""
","
","","","","","","null","<div style=""font-size:60px;"">+</div>","null","","fixation","","","","","","","","","","","","","",""
"learning-trial","155","748289","0.0-9.0-2.0-1.34","1527","2","2","""event"",""trial"",""time""
""fullscreenenter"",""1"",""2741""
","
","
","""event"",""trial"",""time""
""fullscreenenter"",""1"",""2741""
","
","","","","","","816","images/apple1.png","","","learning","images/fruit_choice1.png","images/fruit_choice3.png","images/fruit_choice2.png","[0,2,1]","2","1","3","images/fruit_choice2.png","-1","fruit","","apple","2","0"
"html-keyboard-response","156","748796","0.0-9.0-2.0-0.35","1527","2","2","""event"",""trial"",""time""
""fullscreenenter"",""1"",""2741""
","
","
","""event"",""trial"",""time""
""fullscreenenter"",""1"",""2741""
","
","","","","","","null","<div style=""font-size:60px;"">+</div>","null","","fixation","","","","","","","","","","","","","",""
"learning-trial","157","752801","0.0-9.0-2.0-1.35","1527","2","2","""event"",""trial"",""time""
""fullscreenenter"",""1"",""2741""
","
","
","""event"",""trial"",""time""
""fullscreenenter"",""1"",""2741""
","
","","","","","","946.8000000000466","images/banana5.png","","","learning","images/fruit_choice1.png","images/fruit_choice2.png","images/fruit_choice3.png","[0,1,2]","0","0","2","images/fruit_choice2.png","-1","fruit","","banana","2","0"
"html-keyboard-response","158","753308","0.0-9.0-2.0-0.36","1527","2","2","""event"",""trial"",""time""
""fullscreenenter"",""1"",""2741""
","
","
","""event"",""trial"",""time""
""fullscreenenter"",""1"",""2741""
","
","","","","","","null","<div style=""font-size:60px;"">+</div>","null","","fixation","","","","","","","","","","","","","",""
"learning-trial","159","757313","0.0-9.0-2.0-1.36","1527","2","2","""event"",""trial"",""time""
""fullscreenenter"",""1"",""2741""
","
","
","""event"",""trial"",""time""
""fullscreenenter"",""1"",""2741""
","
","","","","","","930.3000000000466","images/banana5.png","","","learning","images/fruit_choice3.png","images/fruit_choice1.png","images/fruit_choice2.png","[2,0,1]","0","1","1","images/fruit_choice3.png","-1","fruit","","banana","2","0"
"html-keyboard-response","160","757816","0.0-9.0-2.0-0.37","1527","2","2","""event"",""trial"",""time""
""fullscreenenter"",""1"",""2741""
","
","
","""event"",""trial"",""time""
""fullscreenenter"",""1"",""2741""
","
","","","","","","null","<div style=""font-size:60px;"">+</div>","null","","fixation","","","","","","","","","","","","","",""
"learning-trial","161","761825","0.0-9.0-2.0-1.37","1527","2","2","""event"",""trial"",""time""
""fullscreenenter"",""1"",""2741""
","
","
","""event"",""trial"",""time""
""fullscreenenter"",""1"",""2741""
","
","","","","","","929.9000000000233","images/banana4.png","","","learning","images/fruit_choice1.png","images/fruit_choice3.png","images/fruit_choice2.png","[0,2,1]","2","1","2","images/fruit_choice3.png","1","fruit","","banana","2","0"
"html-keyboard-response","162","762332","0.0-9.0-2.0-0.38","1527","2","2","""event"",""trial"",""time""
""fullscreenenter"",""1"",""2741""
","
","
","""event"",""trial"",""time""
""fullscreenenter"",""1"",""2741""
","
","","","","","","null","<div style=""font-size:60px;"">+</div>","null","","fixation","","","","","","","","","","","","","",""
"learning-trial","163","766337","0.0-9.0-2.0-1.38","1527","2","2","""event"",""trial"",""time""
""fullscreenenter"",""1"",""2741""
","
","
","""event"",""trial"",""time""
""fullscreenenter"",""1"",""2741""
","
","","","","","","1145.5999999999767","images/banana5.png","","","learning","images/fruit_choice1.png","images/fruit_choice2.png","images/fruit_choice3.png","[0,1,2]","0","0","3","images/fruit_choice3.png","-1","fruit","","banana","2","0"
"html-keyboard-response","164","766844","0.0-9.0-2.0-0.39","1527","2","2","""event"",""trial"",""time""
""fullscreenenter"",""1"",""2741""
","
","
","""event"",""trial"",""time""
""fullscreenenter"",""1"",""2741""
","
","","","","","","null","<div style=""font-size:60px;"">+</div>","null","","fixation","","","","","","","","","","","","","",""
"learning-trial","165","770849","0.0-9.0-2.0-1.39","1527","2","2","""event"",""trial"",""time""
""fullscreenenter"",""1"",""2741""
","
","
","""event"",""trial"",""time""
""fullscreenenter"",""1"",""2741""
","
","","","","","","1057.5","images/banana4.png","","","learning","images/fruit_choice3.png","images/fruit_choice1.png","images/fruit_choice2.png","[2,0,1]","2","0","1","images/fruit_choice3.png","1","fruit","","banana","2","0"
"html-keyboard-response","166","771356","0.0-9.0-2.0-0.40","1527","2","2","""event"",""trial"",""time""
""fullscreenenter"",""1"",""2741""
","
","
","""event"",""trial"",""time""
""fullscreenenter"",""1"",""2741""
","
","","","","","","null","<div style=""font-size:60px;"">+</div>","null","","fixation","","","","","","","","","","","","","",""
"learning-trial","167","775361","0.0-9.0-2.0-1.40","1527","2","2","""event"",""trial"",""time""
""fullscreenenter"",""1"",""2741""
","
","
","""event"",""trial"",""time""
""fullscreenenter"",""1"",""2741""
","
","","","","","","588.1000000000931","images/banana4.png","","","learning","images/fruit_choice1.png","images/fruit_choice2.png","images/fruit_choice3.png","[0,1,2]","2","2","3","images/fruit_choice3.png","1","fruit","","banana","2","0"
"html-keyboard-response","168","775868","0.0-9.0-2.0-0.41","1527","2","2","""event"",""trial"",""time""
""fullscreenenter"",""1"",""2741""
","
","
","""event"",""trial"",""time""
""fullscreenenter"",""1"",""2741""
","
","","","","","","null","<div style=""font-size:60px;"">+</div>","null","","fixation","","","","","","","","","","","","","",""
"learning-trial","169","779873","0.0-9.0-2.0-1.41","1527","2","2","""event"",""trial"",""time""
""fullscreenenter"",""1"",""2741""
","
","
","""event"",""trial"",""time""
""fullscreenenter"",""1"",""2741""
","
","","","","","","1597.1000000000931","images/banana3.png","","","learning","images/fruit_choice3.png","images/fruit_choice2.png","images/fruit_choice1.png","[2,1,0]","1","1","1","images/fruit_choice3.png","-1","fruit","","banana","2","0"
"html-keyboard-response","170","780380","0.0-9.0-2.0-0.42","1527","2","2","""event"",""trial"",""time""
""fullscreenenter"",""1"",""2741""
","
","
","""event"",""trial"",""time""
""fullscreenenter"",""1"",""2741""
","
","","","","","","null","<div style=""font-size:60px;"">+</div>","null","","fixation","","","","","","","","","","","","","",""
"learning-trial","171","784385","0.0-9.0-2.0-1.42","1527","2","2","""event"",""trial"",""time""
""fullscreenenter"",""1"",""2741""
","
","
","""event"",""trial"",""time""
""fullscreenenter"",""1"",""2741""
","
","","","","","","949","images/banana5.png","","","learning","images/fruit_choice3.png","images/fruit_choice1.png","images/fruit_choice2.png","[2,0,1]","0","1","1","images/fruit_choice3.png","1","fruit","","banana","2","0"
"html-keyboard-response","172","784892","0.0-9.0-2.0-0.43","1527","2","2","""event"",""trial"",""time""
""fullscreenenter"",""1"",""2741""
","
","
","""event"",""trial"",""time""
""fullscreenenter"",""1"",""2741""
","
","","","","","","null","<div style=""font-size:60px;"">+</div>","null","","fixation","","","","","","","","","","","","","",""
"learning-trial","173","788897","0.0-9.0-2.0-1.43","1527","2","2","""event"",""trial"",""time""
""fullscreenenter"",""1"",""2741""
","
","
","""event"",""trial"",""time""
""fullscreenenter"",""1"",""2741""
","
","","","","","","1488.0999999998603","images/straw4.png","","","learning","images/fruit_choice2.png","images/fruit_choice1.png","images/fruit_choice3.png","[1,0,2]","0","1","2","images/fruit_choice1.png","1","fruit","","straw","2","0"
"html-keyboard-response","174","789404","0.0-9.0-2.0-0.44","1527","2","2","""event"",""trial"",""time""
""fullscreenenter"",""1"",""2741""
","
","
","""event"",""trial"",""time""
""fullscreenenter"",""1"",""2741""
","
","","","","","","null","<div style=""font-size:60px;"">+</div>","null","","fixation","","","","","","","","","","","","","",""
"learning-trial","175","793409","0.0-9.0-2.0-1.44","1527","2","2","""event"",""trial"",""time""
""fullscreenenter"",""1"",""2741""
","
","
","""event"",""trial"",""time""
""fullscreenenter"",""1"",""2741""
","
","","","","","","1094","images/straw4.png","","","learning","images/fruit_choice1.png","images/fruit_choice2.png","images/fruit_choice3.png","[0,1,2]","0","0","1","images/fruit_choice1.png","1","fruit","","straw","2","0"
"html-keyboard-response","176","793916","0.0-9.0-2.0-0.45","1527","2","2","""event"",""trial"",""time""
""fullscreenenter"",""1"",""2741""
","
","
","""event"",""trial"",""time""
""fullscreenenter"",""1"",""2741""
","
","","","","","","null","<div style=""font-size:60px;"">+</div>","null","","fixation","","","","","","","","","","","","","",""
"learning-trial","177","797921","0.0-9.0-2.0-1.45","1527","2","2","""event"",""trial"",""time""
""fullscreenenter"",""1"",""2741""
","
","
","""event"",""trial"",""time""
""fullscreenenter"",""1"",""2741""
","
","","","","","","986.4000000001397","images/apple5.png","","","learning","images/fruit_choice1.png","images/fruit_choice2.png","images/fruit_choice3.png","[0,1,2]","1","1","2","images/fruit_choice2.png","1","fruit","","apple","2","0"
"html-keyboard-response","178","798428","0.0-9.0-2.0-0.46","1527","2","2","""event"",""trial"",""time""
""fullscreenenter"",""1"",""2741""
","
","
","""event"",""trial"",""time""
""fullscreenenter"",""1"",""2741""
","
","","","","","","null","<div style=""font-size:60px;"">+</div>","null","","fixation","","","","","","","","","","","","","",""
"learning-trial","179","802433","0.0-9.0-2.0-1.46","1527","2","2","""event"",""trial"",""time""
""fullscreenenter"",""1"",""2741""
","
","
","""event"",""trial"",""time""
""fullscreenenter"",""1"",""2741""
","
","","","","","","1563.5","images/straw3.png","","","learning","images/fruit_choice1.png","images/fruit_choice3.png","images/fruit_choice2.png","[0,2,1]","2","1","1","images/fruit_choice1.png","-1","fruit","","straw","2","0"
"html-keyboard-response","180","802940","0.0-9.0-2.0-0.47","1527","2","2","""event"",""trial"",""time""
""fullscreenenter"",""1"",""2741""
","
","
","""event"",""trial"",""time""
""fullscreenenter"",""1"",""2741""
","
","","","","","","null","<div style=""font-size:60px;"">+</div>","null","","fixation","","","","","","","","","","","","","",""
"learning-trial","181","806945","0.0-9.0-2.0-1.47","1527","2","2","""event"",""trial"",""time""
""fullscreenenter"",""1"",""2741""
","
","
","""event"",""trial"",""time""
""fullscreenenter"",""1"",""2741""
","
","","","","","","3249.8000000000466","images/apple1.png","","","learning","images/fruit_choice3.png","images/fruit_choice1.png","images/fruit_choice2.png","[2,0,1]","2","0","3","images/fruit_choice2.png","-1","fruit","","apple","2","0"
"html-keyboard-response","182","807452","0.0-9.0-2.0-0.48","1527","2","2","""event"",""trial"",""time""
""fullscreenenter"",""1"",""2741""
","
","
","""event"",""trial"",""time""
""fullscreenenter"",""1"",""2741""
","
","","","","","","null","<div style=""font-size:60px;"">+</div>","null","","fixation","","","","","","","","","","","","","",""
"learning-trial","183","811457","0.0-9.0-2.0-1.48","1527","2","2","""event"",""trial"",""time""
""fullscreenenter"",""1"",""2741""
","
","
","""event"",""trial"",""time""
""fullscreenenter"",""1"",""2741""
","
","","","","","","1124.5","images/straw3.png","","","learning","images/fruit_choice1.png","images/fruit_choice3.png","images/fruit_choice2.png","[0,2,1]","2","1","1","images/fruit_choice1.png","-1","fruit","","straw","2","0"
"html-keyboard-response","184","811964","0.0-9.0-2.0-0.49","1527","2","2","""event"",""trial"",""time""
""fullscreenenter"",""1"",""2741""
","
","
","""event"",""trial"",""time""
""fullscreenenter"",""1"",""2741""
","
","","","","","","null","<div style=""font-size:60px;"">+</div>","null","","fixation","","","","","","","","","","","","","",""
"learning-trial","185","815969","0.0-9.0-2.0-1.49","1527","2","2","""event"",""trial"",""time""
""fullscreenenter"",""1"",""2741""
","
","
","""event"",""trial"",""time""
""fullscreenenter"",""1"",""2741""
","
","","","","","","1350.9000000001397","images/banana3.png","","","learning","images/fruit_choice2.png","images/fruit_choice3.png","images/fruit_choice1.png","[1,2,0]","1","0","1","images/fruit_choice2.png","1","fruit","","banana","2","0"
"html-keyboard-response","186","816476","0.0-9.0-2.0-0.50","1527","2","2","""event"",""trial"",""time""
""fullscreenenter"",""1"",""2741""
","
","
","""event"",""trial"",""time""
""fullscreenenter"",""1"",""2741""
","
","","","","","","null","<div style=""font-size:60px;"">+</div>","null","","fixation","","","","","","","","","","","","","",""
"learning-trial","187","820481","0.0-9.0-2.0-1.50","1527","2","2","""event"",""trial"",""time""
""fullscreenenter"",""1"",""2741""
","
","
","""event"",""trial"",""time""
""fullscreenenter"",""1"",""2741""
","
","","","","","","1453.8999999999069","images/straw1.png","","","learning","images/fruit_choice1.png","images/fruit_choice3.png","images/fruit_choice2.png","[0,2,1]","1","2","1","images/fruit_choice1.png","-1","fruit","","straw","2","0"
"html-keyboard-response","188","820988","0.0-9.0-2.0-0.51","1527","2","2","""event"",""trial"",""time""
""fullscreenenter"",""1"",""2741""
","
","
","""event"",""trial"",""time""
""fullscreenenter"",""1"",""2741""
","
","","","","","","null","<div style=""font-size:60px;"">+</div>","null","","fixation","","","","","","","","","","","","","",""
"learning-trial","189","824993","0.0-9.0-2.0-1.51","1527","2","2","""event"",""trial"",""time""
""fullscreenenter"",""1"",""2741""
","
","
","""event"",""trial"",""time""
""fullscreenenter"",""1"",""2741""
","
","","","","","","1722.0999999998603","images/apple3.png","","","learning","images/fruit_choice3.png","images/fruit_choice1.png","images/fruit_choice2.png","[2,0,1]","0","1","3","images/fruit_choice2.png","-1","fruit","","apple","2","0"
"html-keyboard-response","190","825500","0.0-9.0-2.0-0.52","1527","2","2","""event"",""trial"",""time""
""fullscreenenter"",""1"",""2741""
","
","
","""event"",""trial"",""time""
""fullscreenenter"",""1"",""2741""
","
","","","","","","null","<div style=""font-size:60px;"">+</div>","null","","fixation","","","","","","","","","","","","","",""
"learning-trial","191","829505","0.0-9.0-2.0-1.52","1527","2","2","""event"",""trial"",""time""
""fullscreenenter"",""1"",""2741""
","
","
","""event"",""trial"",""time""
""fullscreenenter"",""1"",""2741""
","
","","","","","","285.79999999981374","images/straw4.png","","","learning","images/fruit_choice3.png","images/fruit_choice2.png","images/fruit_choice1.png","[2,1,0]","0","2","1","images/fruit_choice3.png","-1","fruit","","straw","2","0"
"html-keyboard-response","192","830012","0.0-9.0-2.0-0.53","1527","2","2","""event"",""trial"",""time""
""fullscreenenter"",""1"",""2741""
","
","
","""event"",""trial"",""time""
""fullscreenenter"",""1"",""2741""
","
","","","","","","null","<div style=""font-size:60px;"">+</div>","null","","fixation","","","","","","","","","","","","","",""
"learning-trial","193","834017","0.0-9.0-2.0-1.53","1527","2","2","""event"",""trial"",""time""
""fullscreenenter"",""1"",""2741""
","
","
","""event"",""trial"",""time""
""fullscreenenter"",""1"",""2741""
","
","","","","","","296.10000000009313","images/apple5.png","","","learning","images/fruit_choice1.png","images/fruit_choice3.png","images/fruit_choice2.png","[0,2,1]","1","2","2","images/fruit_choice3.png","1","fruit","","apple","2","0"
"html-keyboard-response","194","834524","0.0-9.0-2.0-0.54","1527","2","2","""event"",""trial"",""time""
""fullscreenenter"",""1"",""2741""
","
","
","""event"",""trial"",""time""
""fullscreenenter"",""1"",""2741""
","
","","","","","","null","<div style=""font-size:60px;"">+</div>","null","","fixation","","","","","","","","","","","","","",""
"learning-trial","195","838531","0.0-9.0-2.0-1.54","1527","2","2","""event"",""trial"",""time""
""fullscreenenter"",""1"",""2741""
","
","
","""event"",""trial"",""time""
""fullscreenenter"",""1"",""2741""
","
","","","","","","82.30000000004657","images/banana4.png","","","learning","images/fruit_choice3.png","images/fruit_choice2.png","images/fruit_choice1.png","[2,1,0]","2","0","2","images/fruit_choice2.png","-1","fruit","","banana","2","0"
"html-keyboard-response","196","839035","0.0-9.0-2.0-0.55","1527","2","2","""event"",""trial"",""time""
""fullscreenenter"",""1"",""2741""
","
","
","""event"",""trial"",""time""
""fullscreenenter"",""1"",""2741""
","
","","","","","","null","<div style=""font-size:60px;"">+</div>","null","","fixation","","","","","","","","","","","","","",""
"learning-trial","197","843041","0.0-9.0-2.0-1.55","1527","2","2","""event"",""trial"",""time""
""fullscreenenter"",""1"",""2741""
","
","
","""event"",""trial"",""time""
""fullscreenenter"",""1"",""2741""
","
","","","","","","484.89999999990687","images/straw3.png","","","learning","images/fruit_choice2.png","images/fruit_choice3.png","images/fruit_choice1.png","[1,2,0]","2","1","3","images/fruit_choice1.png","-1","fruit","","straw","2","0"
"html-keyboard-response","198","843548","0.0-9.0-2.0-0.56","1527","2","2","""event"",""trial"",""time""
""fullscreenenter"",""1"",""2741""
","
","
","""event"",""trial"",""time""
""fullscreenenter"",""1"",""2741""
","
","","","","","","null","<div style=""font-size:60px;"">+</div>","null","","fixation","","","","","","","","","","","","","",""
"learning-trial","199","847553","0.0-9.0-2.0-1.56","1527","2","2","""event"",""trial"",""time""
""fullscreenenter"",""1"",""2741""
","
","
","""event"",""trial"",""time""
""fullscreenenter"",""1"",""2741""
","
","","","","","","184.10000000009313","images/straw4.png","","","learning","images/fruit_choice2.png","images/fruit_choice3.png","images/fruit_choice1.png","[1,2,0]","0","2","1","images/fruit_choice2.png","-1","fruit","","straw","2","0"
"html-keyboard-response","200","848060","0.0-9.0-2.0-0.57","1527","2","2","""event"",""trial"",""time""
""fullscreenenter"",""1"",""2741""
","
","
","""event"",""trial"",""time""
""fullscreenenter"",""1"",""2741""
","
","","","","","","null","<div style=""font-size:60px;"">+</div>","null","","fixation","","","","","","","","","","","","","",""
"learning-trial","201","852065","0.0-9.0-2.0-1.57","1527","2","2","""event"",""trial"",""time""
""fullscreenenter"",""1"",""2741""
","
","
","""event"",""trial"",""time""
""fullscreenenter"",""1"",""2741""
","
","","","","","","98.4000000001397","images/apple1.png","","","learning","images/fruit_choice3.png","images/fruit_choice1.png","images/fruit_choice2.png","[2,0,1]","2","0","2","images/fruit_choice1.png","1","fruit","","apple","2","0"
"html-keyboard-response","202","852572","0.0-9.0-2.0-0.58","1527","2","2","""event"",""trial"",""time""
""fullscreenenter"",""1"",""2741""
","
","
","""event"",""trial"",""time""
""fullscreenenter"",""1"",""2741""
","
","","","","","","null","<div style=""font-size:60px;"">+</div>","null","","fixation","","","","","","","","","","","","","",""
"learning-trial","203","856577","0.0-9.0-2.0-1.58","1527","2","2","""event"",""trial"",""time""
""fullscreenenter"",""1"",""2741""
","
","
","""event"",""trial"",""time""
""fullscreenenter"",""1"",""2741""
","
","","","","","","442.10000000009313","images/straw4.png","","","learning","images/fruit_choice2.png","images/fruit_choice1.png","images/fruit_choice3.png","[1,0,2]","0","1","2","images/fruit_choice1.png","-1","fruit","","straw","2","0"
"html-keyboard-response","204","857083","0.0-9.0-2.0-0.59","1527","2","2","""event"",""trial"",""time""
""fullscreenenter"",""1"",""2741""
","
","
","""event"",""trial"",""time""
""fullscreenenter"",""1"",""2741""
","
","","","","","","null","<div style=""font-size:60px;"">+</div>","null","","fixation","","","","","","","","","","","","","",""
"learning-trial","205","861089","0.0-9.0-2.0-1.59","1527","2","2","""event"",""trial"",""time""
""fullscreenenter"",""1"",""2741""
","
","
","""event"",""trial"",""time""
""fullscreenenter"",""1"",""2741""
","
","","","","","","542.6999999999534","images/banana4.png","","","learning","images/fruit_choice2.png","images/fruit_choice3.png","images/fruit_choice1.png","[1,2,0]","2","1","1","images/fruit_choice2.png","-1","fruit","","banana","2","0"
"html-keyboard-response","206","861596","0.0-9.0-2.0-0.60","1527","2","2","""event"",""trial"",""time""
""fullscreenenter"",""1"",""2741""
","
","
","""event"",""trial"",""time""
""fullscreenenter"",""1"",""2741""
","
","","","","","","null","<div style=""font-size:60px;"">+</div>","null","","fixation","","","","","","","","","","","","","",""
"learning-trial","207","865601","0.0-9.0-2.0-1.60","1527","2","2","""event"",""trial"",""time""
""fullscreenenter"",""1"",""2741""
","
","
","""event"",""trial"",""time""
""fullscreenenter"",""1"",""2741""
","
","","","","","","475.79999999981374","images/apple3.png","","","learning","images/fruit_choice2.png","images/fruit_choice1.png","images/fruit_choice3.png","[1,0,2]","0","1","2","images/fruit_choice1.png","1","fruit","","apple","2","0"
"html-keyboard-response","208","866107","0.0-9.0-2.0-0.61","1527","2","2","""event"",""trial"",""time""
""fullscreenenter"",""1"",""2741""
","
","
","""event"",""trial"",""time""
""fullscreenenter"",""1"",""2741""
","
","","","","","","null","<div style=""font-size:60px;"">+</div>","null","","fixation","","","","","","","","","","","","","",""
"learning-trial","209","870113","0.0-9.0-2.0-1.61","1527","2","2","""event"",""trial"",""time""
""fullscreenenter"",""1"",""2741""
","
","
","""event"",""trial"",""time""
""fullscreenenter"",""1"",""2741""
","
","","","","","","296.60000000009313","images/banana3.png","","","learning","images/fruit_choice2.png","images/fruit_choice3.png","images/fruit_choice1.png","[1,2,0]","1","0","2","images/fruit_choice3.png","-1","fruit","","banana","2","0"
"html-keyboard-response","210","870619","0.0-9.0-2.0-0.62","1527","2","2","""event"",""trial"",""time""
""fullscreenenter"",""1"",""2741""
","
","
","""event"",""trial"",""time""
""fullscreenenter"",""1"",""2741""
","
","","","","","","null","<div style=""font-size:60px;"">+</div>","null","","fixation","","","","","","","","","","","","","",""
"learning-trial","211","874627","0.0-9.0-2.0-1.62","1527","2","2","""event"",""trial"",""time""
""fullscreenenter"",""1"",""2741""
","
","
","""event"",""trial"",""time""
""fullscreenenter"",""1"",""2741""
","
","","","","","","3425.1999999999534","images/apple3.png","","","learning","images/fruit_choice2.png","images/fruit_choice3.png","images/fruit_choice1.png","[1,2,0]","0","2","3","images/fruit_choice1.png","1","fruit","","apple","2","0"
"html-keyboard-response","212","875131","0.0-9.0-2.0-0.63","1527","2","2","""event"",""trial"",""time""
""fullscreenenter"",""1"",""2741""
","
","
","""event"",""trial"",""time""
""fullscreenenter"",""1"",""2741""
","
","","","","","","null","<div style=""font-size:60px;"">+</div>","null","","fixation","","","","","","","","","","","","","",""
"learning-trial","213","879137","0.0-9.0-2.0-1.63","1527","2","2","""event"",""trial"",""time""
""fullscreenenter"",""1"",""2741""
","
","
","""event"",""trial"",""time""
""fullscreenenter"",""1"",""2741""
","
","","","","","","2004.6000000000931","images/straw4.png","","","learning","images/fruit_choice2.png","images/fruit_choice3.png","images/fruit_choice1.png","[1,2,0]","0","2","3","images/fruit_choice1.png","-1","fruit","","straw","2","0"
"html-keyboard-response","214","879643","0.0-9.0-2.0-0.64","1527","2","2","""event"",""trial"",""time""
""fullscreenenter"",""1"",""2741""
","
","
","""event"",""trial"",""time""
""fullscreenenter"",""1"",""2741""
","
","","","","","","null","<div style=""font-size:60px;"">+</div>","null","","fixation","","","","","","","","","","","","","",""
"learning-trial","215","883652","0.0-9.0-2.0-1.64","1527","2","2","""event"",""trial"",""time""
""fullscreenenter"",""1"",""2741""
","
","
","""event"",""trial"",""time""
""fullscreenenter"",""1"",""2741""
","
","","","","","","1232.1999999999534","images/straw3.png","","","learning","images/fruit_choice3.png","images/fruit_choice2.png","images/fruit_choice1.png","[2,1,0]","2","0","1","images/fruit_choice3.png","1","fruit","","straw","2","0"
"html-keyboard-response","216","884155","0.0-9.0-2.0-0.65","1527","2","2","""event"",""trial"",""time""
""fullscreenenter"",""1"",""2741""
","
","
","""event"",""trial"",""time""
""fullscreenenter"",""1"",""2741""
","
","","","","","","null","<div style=""font-size:60px;"">+</div>","null","","fixation","","","","","","","","","","","","","",""
"learning-trial","217","888160","0.0-9.0-2.0-1.65","1527","2","2","""event"",""trial"",""time""
""fullscreenenter"",""1"",""2741""
","
","
","""event"",""trial"",""time""
""fullscreenenter"",""1"",""2741""
","
","","","","","","null","images/apple1.png","","","learning","images/fruit_choice1.png","images/fruit_choice2.png","images/fruit_choice3.png","[0,1,2]","2","2","null","null","-1","fruit","","apple","2","0"
"html-keyboard-response","218","888667","0.0-9.0-2.0-0.66","1527","2","2","""event"",""trial"",""time""
""fullscreenenter"",""1"",""2741""
","
","
","""event"",""trial"",""time""
""fullscreenenter"",""1"",""2741""
","
","","","","","","null","<div style=""font-size:60px;"">+</div>","null","","fixation","","","","","","","","","","","","","",""
"learning-trial","219","892673","0.0-9.0-2.0-1.66","1527","2","2","""event"",""trial"",""time""
""fullscreenenter"",""1"",""2741""
","
","
","""event"",""trial"",""time""
""fullscreenenter"",""1"",""2741""
","
","","","","","","1205.6999999999534","images/straw1.png","","","learning","images/fruit_choice2.png","images/fruit_choice3.png","images/fruit_choice1.png","[1,2,0]","1","0","2","images/fruit_choice3.png","-1","fruit","","straw","2","0"
"html-keyboard-response","220","893179","0.0-9.0-2.0-0.67","1527","2","2","""event"",""trial"",""time""
""fullscreenenter"",""1"",""2741""
","
","
","""event"",""trial"",""time""
""fullscreenenter"",""1"",""2741""
","
","","","","","","null","<div style=""font-size:60px;"">+</div>","null","","fixation","","","","","","","","","","","","","",""
"learning-trial","221","897185","0.0-9.0-2.0-1.67","1527","2","2","""event"",""trial"",""time""
""fullscreenenter"",""1"",""2741""
","
","
","""event"",""trial"",""time""
""fullscreenenter"",""1"",""2741""
","
","","","","","","501","images/straw1.png","","","learning","images/fruit_choice3.png","images/fruit_choice2.png","images/fruit_choice1.png","[2,1,0]","1","1","1","images/fruit_choice3.png","-1","fruit","","straw","2","0"
"html-keyboard-response","222","897691","0.0-9.0-2.0-0.68","1527","2","2","""event"",""trial"",""time""
""fullscreenenter"",""1"",""2741""
","
","
","""event"",""trial"",""time""
""fullscreenenter"",""1"",""2741""
","
","","","","","","null","<div style=""font-size:60px;"">+</div>","null","","fixation","","","","","","","","","","","","","",""
"learning-trial","223","901697","0.0-9.0-2.0-1.68","1527","2","2","""event"",""trial"",""time""
""fullscreenenter"",""1"",""2741""
","
","
","""event"",""trial"",""time""
""fullscreenenter"",""1"",""2741""
","
","","","","","","200.89999999990687","images/apple1.png","","","learning","images/fruit_choice1.png","images/fruit_choice2.png","images/fruit_choice3.png","[0,1,2]","2","2","2","images/fruit_choice2.png","-1","fruit","","apple","2","0"
"html-keyboard-response","224","902203","0.0-9.0-2.0-0.69","1527","2","2","""event"",""trial"",""time""
""fullscreenenter"",""1"",""2741""
","
","
","""event"",""trial"",""time""
""fullscreenenter"",""1"",""2741""
","
","","","","","","null","<div style=""font-size:60px;"">+</div>","null","","fixation","","","","","","","","","","","","","",""
"learning-trial","225","906209","0.0-9.0-2.0-1.69","1527","2","2","""event"",""trial"",""time""
""fullscreenenter"",""1"",""2741""
","
","
","""event"",""trial"",""time""
""fullscreenenter"",""1"",""2741""
","
","","","","","","1532.0999999998603","images/apple5.png","","","learning","images/fruit_choice1.png","images/fruit_choice3.png","images/fruit_choice2.png","[0,2,1]","1","2","2","images/fruit_choice3.png","-1","fruit","","apple","2","0"
"html-keyboard-response","226","906715","0.0-9.0-2.0-0.70","1527","2","2","""event"",""trial"",""time""
""fullscreenenter"",""1"",""2741""
","
","
","""event"",""trial"",""time""
""fullscreenenter"",""1"",""2741""
","
","","","","","","null","<div style=""font-size:60px;"">+</div>","null","","fixation","","","","","","","","","","","","","",""
"learning-trial","227","910721","0.0-9.0-2.0-1.70","1527","2","2","""event"",""trial"",""time""
""fullscreenenter"",""1"",""2741""
","
","
","""event"",""trial"",""time""
""fullscreenenter"",""1"",""2741""
","
","","","","","","786.8000000000466","images/straw1.png","","","learning","images/fruit_choice3.png","images/fruit_choice2.png","images/fruit_choice1.png","[2,1,0]","1","1","2","images/fruit_choice2.png","1","fruit","","straw","2","0"
"html-keyboard-response","228","911227","0.0-9.0-2.0-0.71","1527","2","2","""event"",""trial"",""time""
""fullscreenenter"",""1"",""2741""
","
","
","""event"",""trial"",""time""
""fullscreenenter"",""1"",""2741""
","
","","","","","","null","<div style=""font-size:60px;"">+</div>","null","","fixation","","","","","","","","","","","","","",""
"learning-trial","229","915233","0.0-9.0-2.0-1.71","1527","2","2","""event"",""trial"",""time""
""fullscreenenter"",""1"",""2741""
","
","
","""event"",""trial"",""time""
""fullscreenenter"",""1"",""2741""
","
","","","","","","1031","images/apple5.png","","","learning","images/fruit_choice3.png","images/fruit_choice2.png","images/fruit_choice1.png","[2,1,0]","1","1","2","images/fruit_choice2.png","1","fruit","","apple","2","0"
"html-button-response","230","933933","0.0-9.0-3.0","1527","2","2","""event"",""trial"",""time""
""fullscreenenter"",""1"",""2741""
","
","
","""event"",""trial"",""time""
""fullscreenenter"",""1"",""2741""
","
","","","","","","18696.90000000014","<p> You have completed the round! <p> In this round, you earned -12 points! </p>","0","","break","","","","","","","","","","","","","",""
"html-button-response","231","957209","0.0-10.0","1527","2","2","""event"",""trial"",""time""
""fullscreenenter"",""1"",""2741""
","
","
","""event"",""trial"",""time""
""fullscreenenter"",""1"",""2741""
","
","","","","","","23274.199999999953","<p> Now it's time to play another round. </p>","0","","transition_screen","","","","","","","","","","","","","",""
"preload","232","974175","0.0-11.0-0.0","1527","2","2","""event"",""trial"",""time""
""fullscreenenter"",""1"",""2741""
","
","
","""event"",""trial"",""time""
""fullscreenenter"",""1"",""2741""
","
","true","false","[]","[]","[]","","","","","","","","","","","","","","","","","","",""
"learning-instructions","233","983668","0.0-11.0-1.0-0.0","1527","2","2","""event"",""trial"",""time""
""fullscreenenter"",""1"",""2741""
","
","
","""event"",""trial"",""time""
""fullscreenenter"",""1"",""2741""
","
","","","","","","1678.6999999999534","<p> Your goal in this round is to deliver furniture to three different buildings. </p><p> You will need to deliver many pieces of furniture. </p></div>","","0","instructions","","","","","","","","","","","","","",""
"learning-instructions","234","991633","0.0-11.0-1.0-0.1","1527","2","2","""event"",""trial"",""time""
""fullscreenenter"",""1"",""2741""
","
","
","""event"",""trial"",""time""
""fullscreenenter"",""1"",""2741""
","
","","","","","","535.1000000000931","<p> On each turn, you will see a picture of a furniture item and three different buildings.  </p><p> You need to select the building that you want to deliver the furniture to.  </p>","","0","instructions","","","","","","","","","","","","","",""
"learning-instructions","235","1002051","0.0-11.0-1.0-0.2","1527","2","2","""event"",""trial"",""time""
""fullscreenenter"",""1"",""2741""
","
","
","""event"",""trial"",""time""
""fullscreenenter"",""1"",""2741""
","
","","","","","","2130.4000000001397","<p> You can select the building on the left by pressing 1, the building in the middle by pressing 2, and the building on the right by pressing 3.  </p><br><div class=""choice-instructions-grid""> <div class=""choice-option""><img src=""images/furniture_choice1.png"" class=""choice-option-img"" stage=""instructions"" position=""0"" ><div class=""choice-option-text""> Press ""1."" </div></div><div class=""choice-option""><img src=""images/furniture_choice2.png"" class=""choice-option-img"" stage=""instructions"" position=""1"" ><div class=""choice-option-text""> Press ""2."" </div></div><div class=""choice-option""><img src=""images/furniture_choice3.png"" class=""choice-option-img"" stage=""instructions"" position=""2"" ><div class=""choice-option-text""> Press ""3."" </div></div></div>","","0","instructions","","","","","","","","","","","","","",""
"learning-instructions","236","1008720","0.0-11.0-1.0-0.3","1527","2","2","""event"",""trial"",""time""
""fullscreenenter"",""1"",""2741""
","
","
","""event"",""trial"",""time""
""fullscreenenter"",""1"",""2741""
","
","","","","","","644.9000000001397","<p> If the furniture belongs in the building you chose, the building owner will likely be very happy! </p><div style='float: center;'><img src='images/check.png' width = '200' height = '200'></img>","","0","instructions","","","","","","","","","","","","","",""
