"trial_type","trial_index","time_elapsed","internal_node_id","subject_id","condition","task_version","interactions","blur_events","focus_events","fullscreenenter_events","fullscreenexit_events","success","timeout","failed_images","failed_audio","failed_video","rt","stimulus","response","button_pressed","task_part","left_choice","middle_choice","right_choice","choice_positions","correct_response","correct_position","key_press","option_selected","points","task_block","correct","stim_cat","block_condition","block_number"
"pavlovia","0","4","0.0-0.0","1428","1","2","""event"",""trial"",""time""
""fullscreenenter"",""1"",""1726""
","
","
","""event"",""trial"",""time""
""fullscreenenter"",""1"",""1726""
","
","","","","","","","","","","","","","","","","","","","","","","","",""
"fullscreen","1","2727","0.0-1.0","1428","1","2","""event"",""trial"",""time""
""fullscreenenter"",""1"",""1726""
","
","
","""event"",""trial"",""time""
""fullscreenenter"",""1"",""1726""
","
","true","","","","","","","","","","","","","","","","","","","","","","",""
"preload","2","32871","0.0-2.0","1428","1","2","""event"",""trial"",""time""
""fullscreenenter"",""1"",""1726""
","
","
","""event"",""trial"",""time""
""fullscreenenter"",""1"",""1726""
","
","true","false","[]","[]","[]","","","","","","","","","","","","","","","","","","",""
"audio-keyboard-response","3","35015","0.0-3.0","1428","1","2","""event"",""trial"",""time""
""fullscreenenter"",""1"",""1726""
","
","
","""event"",""trial"",""time""
""fullscreenenter"",""1"",""1726""
","
","","","","","","2138.6666666666692","audio/beep_loop.wav"," ","","","","","","","","","","","","","","","",""
"audio-button-response","4","37750","0.0-4.0","1428","1","2","""event"",""trial"",""time""
""fullscreenenter"",""1"",""1726""
","
","
","""event"",""trial"",""time""
""fullscreenenter"",""1"",""1726""
","
","","","","","","2731","audio/shark.wav","4","","","","","","","","","","","","","","","",""
"audio-button-response","5","39902","0.0-5.0","1428","1","2","""event"",""trial"",""time""
""fullscreenenter"",""1"",""1726""
""blur"",""6"",""46042""
","""event"",""trial"",""time""
""blur"",""6"",""46042""
","
","""event"",""trial"",""time""
""fullscreenenter"",""1"",""1726""
","
","","","","","","1149","audio/turtle.wav","1","","","","","","","","","","","","","","","",""
"preload","6","55043","0.0-6.0","1428","1","2","""event"",""trial"",""time""
""fullscreenenter"",""1"",""1726""
""blur"",""6"",""46042""
""focus"",""7"",""58096""
","""event"",""trial"",""time""
""blur"",""6"",""46042""
","""event"",""trial"",""time""
""focus"",""7"",""58096""
","""event"",""trial"",""time""
""fullscreenenter"",""1"",""1726""
","
","true","false","[]","[]","[]","","","","","","","","","","","","","","","","","","",""
"html-keyboard-response","7","58911","0.0-7.0","1428","1","2","""event"",""trial"",""time""
""fullscreenenter"",""1"",""1726""
""blur"",""6"",""46042""
""focus"",""7"",""58096""
","""event"",""trial"",""time""
""blur"",""6"",""46042""
","""event"",""trial"",""time""
""focus"",""7"",""58096""
","""event"",""trial"",""time""
""fullscreenenter"",""1"",""1726""
","
","","","","","","3866.5","Welcome to the experiment. Press any key to begin and to advance the instructions."," ","","","","","","","","","","","","","","","",""
"learning-instructions","8","67609","0.0-8.0-0.0-0.0","1428","1","2","""event"",""trial"",""time""
""fullscreenenter"",""1"",""1726""
""blur"",""6"",""46042""
""focus"",""7"",""58096""
","""event"",""trial"",""time""
""blur"",""6"",""46042""
","""event"",""trial"",""time""
""focus"",""7"",""58096""
","""event"",""trial"",""time""
""fullscreenenter"",""1"",""1726""
","
","","","","","","950.7000000178814","<p> Welcome! Today you are going to play 6 different rounds of a decision-making game. </p><p> Use the mouse to click next to continue. </p>","","0","instructions","","","","","","","","","","","","","",""
"learning-instructions","9","71959","0.0-8.0-0.0-0.1","1428","1","2","""event"",""trial"",""time""
""fullscreenenter"",""1"",""1726""
""blur"",""6"",""46042""
""focus"",""7"",""58096""
","""event"",""trial"",""time""
""blur"",""6"",""46042""
","""event"",""trial"",""time""
""focus"",""7"",""58096""
","""event"",""trial"",""time""
""fullscreenenter"",""1"",""1726""
","
","","","","","","1350.7000000178814","<p> You will start with a practice round to learn the rules. </p>","","0","instructions","","","","","","","","","","","","","",""
"learning-instructions","10","81197","0.0-8.0-0.0-0.2","1428","1","2","""event"",""trial"",""time""
""fullscreenenter"",""1"",""1726""
""blur"",""6"",""46042""
""focus"",""7"",""58096""
","""event"",""trial"",""time""
""blur"",""6"",""46042""
","""event"",""trial"",""time""
""focus"",""7"",""58096""
","""event"",""trial"",""time""
""fullscreenenter"",""1"",""1726""
","
","","","","","","1488.5","<p> Your goal in this round is to deliver sports equipment to three different parks. </p><p> You will need to deliver many types of equipment. </p></div>","","0","instructions","","","","","","","","","","","","","",""
"learning-instructions","11","90873","0.0-8.0-0.0-0.3","1428","1","2","""event"",""trial"",""time""
""fullscreenenter"",""1"",""1726""
""blur"",""6"",""46042""
""focus"",""7"",""58096""
","""event"",""trial"",""time""
""blur"",""6"",""46042""
","""event"",""trial"",""time""
""focus"",""7"",""58096""
","""event"",""trial"",""time""
""fullscreenenter"",""1"",""1726""
","
","","","","","","1194.5","<p> On each turn, you will see one piece of sports equipment and three different parks.  </p><p> You need to select which park to deliver the equipment to.  </p>","","0","instructions","","","","","","","","","","","","","",""
"learning-instructions","12","105619","0.0-8.0-0.0-0.4","1428","1","2","""event"",""trial"",""time""
""fullscreenenter"",""1"",""1726""
""blur"",""6"",""46042""
""focus"",""7"",""58096""
","""event"",""trial"",""time""
""blur"",""6"",""46042""
","""event"",""trial"",""time""
""focus"",""7"",""58096""
","""event"",""trial"",""time""
""fullscreenenter"",""1"",""1726""
","
","","","","","","1468.9000000059605","<p> You can select the park on the left by pressing the '1' key on your keyboard. <br>You can select the park in the middle by pressing the '2' key on your keyboard. <br>You can select the park on the right by pressing the '3' key on your keyboard.  </p><br><div class=""choice-instructions-grid""> <div class=""choice-option""><img src=""images/park1.png"" class=""choice-option-img"" stage=""instructions"" position=""0"" ><div class=""choice-option-text""> Press ""1."" </div></div><div class=""choice-option""><img src=""images/park2.png"" class=""choice-option-img"" stage=""instructions"" position=""1"" ><div class=""choice-option-text""> Press ""2."" </div></div><div class=""choice-option""><img src=""images/park3.png"" class=""choice-option-img"" stage=""instructions"" position=""2"" ><div class=""choice-option-text""> Press ""3."" </div></div></div>","","0","instructions","","","","","","","","","","","","","",""
"learning-instructions","13","113138","0.0-8.0-0.0-0.5","1428","1","2","""event"",""trial"",""time""
""fullscreenenter"",""1"",""1726""
""blur"",""6"",""46042""
""focus"",""7"",""58096""
","""event"",""trial"",""time""
""blur"",""6"",""46042""
","""event"",""trial"",""time""
""focus"",""7"",""58096""
","""event"",""trial"",""time""
""fullscreenenter"",""1"",""1726""
","
","","","","","","2138.199999988079","<p> If the kids in the park you chose like the equipment, they will be very happy! </p><div style='float: center;'><img src='images/check.png' width = '200' height = '200'></img>","","0","instructions","","","","","","","","","","","","","",""
"learning-instructions","14","119867","0.0-8.0-0.0-0.6","1428","1","2","""event"",""trial"",""time""
""fullscreenenter"",""1"",""1726""
""blur"",""6"",""46042""
""focus"",""7"",""58096""
","""event"",""trial"",""time""
""blur"",""6"",""46042""
","""event"",""trial"",""time""
""focus"",""7"",""58096""
","""event"",""trial"",""time""
""fullscreenenter"",""1"",""1726""
","
","","","","","","1136.7999999821186","<p> But, if the kids in the park you chose do not like the equipment, they will be sad. </p><div style='float: center;'><img src='images/x.png' width = '200' height = '200'></img>","","0","instructions","","","","","","","","","","","","","",""
"learning-instructions","15","128332","0.0-8.0-0.0-0.7","1428","1","2","""event"",""trial"",""time""
""fullscreenenter"",""1"",""1726""
""blur"",""6"",""46042""
""focus"",""7"",""58096""
","""event"",""trial"",""time""
""blur"",""6"",""46042""
","""event"",""trial"",""time""
""focus"",""7"",""58096""
","""event"",""trial"",""time""
""fullscreenenter"",""1"",""1726""
","
","","","","","","2032.800000011921","<p> Importantly, the kids in each park like some pieces of sports equipment more than others. </p>","","0","instructions","","","","","","","","","","","","","",""
"learning-instructions","16","135157","0.0-8.0-0.0-0.8","1428","1","2","""event"",""trial"",""time""
""fullscreenenter"",""1"",""1726""
""blur"",""6"",""46042""
""focus"",""7"",""58096""
","""event"",""trial"",""time""
""blur"",""6"",""46042""
","""event"",""trial"",""time""
""focus"",""7"",""58096""
","""event"",""trial"",""time""
""fullscreenenter"",""1"",""1726""
","
","","","","","","767.5","<p> If you choose the best park for each piece of equipment, the kids there will usually be happy. </p>","","0","instructions","","","","","","","","","","","","","",""
"learning-instructions","17","143145","0.0-8.0-0.0-0.9","1428","1","2","""event"",""trial"",""time""
""fullscreenenter"",""1"",""1726""
""blur"",""6"",""46042""
""focus"",""7"",""58096""
","""event"",""trial"",""time""
""blur"",""6"",""46042""
","""event"",""trial"",""time""
""focus"",""7"",""58096""
","""event"",""trial"",""time""
""fullscreenenter"",""1"",""1726""
","
","","","","","","1335.2999999821186","<p> However, even if you choose the best park for the equipment, the kids may sometimes be sad. </p>","","0","instructions","","","","","","","","","","","","","",""
"learning-instructions","18","151681","0.0-8.0-0.0-0.10","1428","1","2","""event"",""trial"",""time""
""fullscreenenter"",""1"",""1726""
""blur"",""6"",""46042""
""focus"",""7"",""58096""
","""event"",""trial"",""time""
""blur"",""6"",""46042""
","""event"",""trial"",""time""
""focus"",""7"",""58096""
","""event"",""trial"",""time""
""fullscreenenter"",""1"",""1726""
","
","","","","","","1301.8999999761581","<p> Similarly, even if you choose the <i>wrong</i> park for the equipment, the kids may still be happy sometimes.","","0","instructions","","","","","","","","","","","","","",""
"learning-instructions","19","158154","0.0-8.0-0.0-0.11","1428","1","2","""event"",""trial"",""time""
""fullscreenenter"",""1"",""1726""
""blur"",""6"",""46042""
""focus"",""7"",""58096""
","""event"",""trial"",""time""
""blur"",""6"",""46042""
","""event"",""trial"",""time""
""focus"",""7"",""58096""
","""event"",""trial"",""time""
""fullscreenenter"",""1"",""1726""
","
","","","","","","1424.199999988079","<p> For example, the best park for this soccer ball is this one.<div style='float: center;'><img src='images/i1.png' width = '500' height = '268'></img>","","0","instructions","","","","","","","","","","","","","",""
"learning-instructions","20","163990","0.0-8.0-0.0-0.12","1428","1","2","""event"",""trial"",""time""
""fullscreenenter"",""1"",""1726""
""blur"",""6"",""46042""
""focus"",""7"",""58096""
","""event"",""trial"",""time""
""blur"",""6"",""46042""
","""event"",""trial"",""time""
""focus"",""7"",""58096""
","""event"",""trial"",""time""
""fullscreenenter"",""1"",""1726""
","
","","","","","","530.8999999761581","<p> Let's see what happens if you choose this park for the soccer ball five times.","","0","instructions","","","","","","","","","","","","","",""
"learning-instructions","21","166626","0.0-8.0-0.0-0.13","1428","1","2","""event"",""trial"",""time""
""fullscreenenter"",""1"",""1726""
""blur"",""6"",""46042""
""focus"",""7"",""58096""
","""event"",""trial"",""time""
""blur"",""6"",""46042""
","""event"",""trial"",""time""
""focus"",""7"",""58096""
","""event"",""trial"",""time""
""fullscreenenter"",""1"",""1726""
","
","","","","","","476.60000002384186","<p> The kids are happy.<div style='float: left;'><img src='images/i2.png' width = '640' height = '360'></img>","","0","instructions","","","","","","","","","","","","","",""
"learning-instructions","22","169189","0.0-8.0-0.0-0.14","1428","1","2","""event"",""trial"",""time""
""fullscreenenter"",""1"",""1726""
""blur"",""6"",""46042""
""focus"",""7"",""58096""
","""event"",""trial"",""time""
""blur"",""6"",""46042""
","""event"",""trial"",""time""
""focus"",""7"",""58096""
","""event"",""trial"",""time""
""fullscreenenter"",""1"",""1726""
","
","","","","","","398.69999998807907","<p> The kids are happy.<div style='float: left;'><img src='images/i3.png' width = '640' height = '360'></img>","","0","instructions","","","","","","","","","","","","","",""
"learning-instructions","23","171715","0.0-8.0-0.0-0.15","1428","1","2","""event"",""trial"",""time""
""fullscreenenter"",""1"",""1726""
""blur"",""6"",""46042""
""focus"",""7"",""58096""
","""event"",""trial"",""time""
""blur"",""6"",""46042""
","""event"",""trial"",""time""
""focus"",""7"",""58096""
","""event"",""trial"",""time""
""fullscreenenter"",""1"",""1726""
","
","","","","","","365.60000002384186","<p> The kids are happy.<div style='float: left;'><img src='images/i4.png' width = '640' height = '360'></img>","","0","instructions","","","","","","","","","","","","","",""
"learning-instructions","24","174323","0.0-8.0-0.0-0.16","1428","1","2","""event"",""trial"",""time""
""fullscreenenter"",""1"",""1726""
""blur"",""6"",""46042""
""focus"",""7"",""58096""
","""event"",""trial"",""time""
""blur"",""6"",""46042""
","""event"",""trial"",""time""
""focus"",""7"",""58096""
","""event"",""trial"",""time""
""fullscreenenter"",""1"",""1726""
","
","","","","","","393.90000000596046","<p> The kids are sad.<div style='float: left;'><img src='images/i5.png' width = '640' height = '360'></img>","","0","instructions","","","","","","","","","","","","","",""
"learning-instructions","25","176972","0.0-8.0-0.0-0.17","1428","1","2","""event"",""trial"",""time""
""fullscreenenter"",""1"",""1726""
""blur"",""6"",""46042""
""focus"",""7"",""58096""
","""event"",""trial"",""time""
""blur"",""6"",""46042""
","""event"",""trial"",""time""
""focus"",""7"",""58096""
","""event"",""trial"",""time""
""fullscreenenter"",""1"",""1726""
","
","","","","","","482.5","<p> The kids are happy.<div style='float: left;'><img src='images/i6.png' width = '640' height = '360'></img>","","0","instructions","","","","","","","","","","","","","",""
"learning-instructions","26","186898","0.0-8.0-0.0-0.18","1428","1","2","""event"",""trial"",""time""
""fullscreenenter"",""1"",""1726""
""blur"",""6"",""46042""
""focus"",""7"",""58096""
","""event"",""trial"",""time""
""blur"",""6"",""46042""
","""event"",""trial"",""time""
""focus"",""7"",""58096""
","""event"",""trial"",""time""
""fullscreenenter"",""1"",""1726""
","
","","","","","","2657.5","<p> As you can see, selecting that park for the soccer ball made the kids happy most of the time, but not all the time.","","0","instructions","","","","","","","","","","","","","",""
"learning-instructions","27","193286","0.0-8.0-0.0-0.19","1428","1","2","""event"",""trial"",""time""
""fullscreenenter"",""1"",""1726""
""blur"",""6"",""46042""
""focus"",""7"",""58096""
","""event"",""trial"",""time""
""blur"",""6"",""46042""
","""event"",""trial"",""time""
""focus"",""7"",""58096""
","""event"",""trial"",""time""
""fullscreenenter"",""1"",""1726""
","
","","","","","","375.80000001192093","<p> Now let's see what happens if you choose a DIFFERENT park for the soccer ball 5 times.","","0","instructions","","","","","","","","","","","","","",""
"learning-instructions","28","195710","0.0-8.0-0.0-0.20","1428","1","2","""event"",""trial"",""time""
""fullscreenenter"",""1"",""1726""
""blur"",""6"",""46042""
""focus"",""7"",""58096""
","""event"",""trial"",""time""
""blur"",""6"",""46042""
","""event"",""trial"",""time""
""focus"",""7"",""58096""
","""event"",""trial"",""time""
""fullscreenenter"",""1"",""1726""
","
","","","","","","210.5","<p> The kids are sad.<div style='float: left;'><img src='images/i7.png' width = '640' height = '360'></img>","","0","instructions","","","","","","","","","","","","","",""
"learning-instructions","29","198319","0.0-8.0-0.0-0.21","1428","1","2","""event"",""trial"",""time""
""fullscreenenter"",""1"",""1726""
""blur"",""6"",""46042""
""focus"",""7"",""58096""
","""event"",""trial"",""time""
""blur"",""6"",""46042""
","""event"",""trial"",""time""
""focus"",""7"",""58096""
","""event"",""trial"",""time""
""fullscreenenter"",""1"",""1726""
","
","","","","","","389.5","<p> The kids are sad.<div style='float: left;'><img src='images/i8.png' width = '640' height = '360'></img>","","0","instructions","","","","","","","","","","","","","",""
"learning-instructions","30","200849","0.0-8.0-0.0-0.22","1428","1","2","""event"",""trial"",""time""
""fullscreenenter"",""1"",""1726""
""blur"",""6"",""46042""
""focus"",""7"",""58096""
","""event"",""trial"",""time""
""blur"",""6"",""46042""
","""event"",""trial"",""time""
""focus"",""7"",""58096""
","""event"",""trial"",""time""
""fullscreenenter"",""1"",""1726""
","
","","","","","","348.39999997615814","<p> The kids are happy.<div style='float: left;'><img src='images/i9.png' width = '640' height = '360'></img>","","0","instructions","","","","","","","","","","","","","",""
"learning-instructions","31","203442","0.0-8.0-0.0-0.23","1428","1","2","""event"",""trial"",""time""
""fullscreenenter"",""1"",""1726""
""blur"",""6"",""46042""
""focus"",""7"",""58096""
","""event"",""trial"",""time""
""blur"",""6"",""46042""
","""event"",""trial"",""time""
""focus"",""7"",""58096""
","""event"",""trial"",""time""
""fullscreenenter"",""1"",""1726""
","
","","","","","","382.5","<p> The kids are sad.<div style='float: left;'><img src='images/i10.png' width = '640' height = '360'></img>","","0","instructions","","","","","","","","","","","","","",""
"learning-instructions","32","206033","0.0-8.0-0.0-0.24","1428","1","2","""event"",""trial"",""time""
""fullscreenenter"",""1"",""1726""
""blur"",""6"",""46042""
""focus"",""7"",""58096""
","""event"",""trial"",""time""
""blur"",""6"",""46042""
","""event"",""trial"",""time""
""focus"",""7"",""58096""
","""event"",""trial"",""time""
""fullscreenenter"",""1"",""1726""
","
","","","","","","372.39999997615814","<p> The kids are sad.<div style='float: left;'><img src='images/i11.png' width = '640' height = '360'></img>","","0","instructions","","","","","","","","","","","","","",""
"learning-instructions","33","214936","0.0-8.0-0.0-0.25","1428","1","2","""event"",""trial"",""time""
""fullscreenenter"",""1"",""1726""
""blur"",""6"",""46042""
""focus"",""7"",""58096""
","""event"",""trial"",""time""
""blur"",""6"",""46042""
","""event"",""trial"",""time""
""focus"",""7"",""58096""
","""event"",""trial"",""time""
""fullscreenenter"",""1"",""1726""
","
","","","","","","777.1000000238419","<p> As you can see, selecting the wrong park for the soccer ball made the kids sad most of the time, but not all the time.","","0","instructions","","","","","","","","","","","","","",""
"learning-instructions","34","224292","0.0-8.0-0.0-0.26","1428","1","2","""event"",""trial"",""time""
""fullscreenenter"",""1"",""1726""
""blur"",""6"",""46042""
""focus"",""7"",""58096""
","""event"",""trial"",""time""
""blur"",""6"",""46042""
","""event"",""trial"",""time""
""focus"",""7"",""58096""
","""event"",""trial"",""time""
""fullscreenenter"",""1"",""1726""
","
","","","","","","243","<p> The different pieces of equipment belong in different parks. You need to try to learn which is the best park for each piece of equipment.","","0","instructions","","","","","","","","","","","","","",""
"learning-instructions","35","243394","0.0-8.0-0.0-0.27","1428","1","2","""event"",""trial"",""time""
""fullscreenenter"",""1"",""1726""
""blur"",""6"",""46042""
""focus"",""7"",""58096""
","""event"",""trial"",""time""
""blur"",""6"",""46042""
","""event"",""trial"",""time""
""focus"",""7"",""58096""
","""event"",""trial"",""time""
""fullscreenenter"",""1"",""1726""
","
","","","","","","2723.600000023842","<p> Try to choose the best park for each piece of equipment, because you will <b> WIN </b> 1 point for each time you make the kids happy and <b>LOSE</b> 1 point for each time you make them sad. </p><p> Remember, if you make the best choice, you will win 1 point most of the time, but not all the time. </p>","","0","instructions","","","","","","","","","","","","","",""
"learning-instructions","36","249232","0.0-8.0-0.0-0.28","1428","1","2","""event"",""trial"",""time""
""fullscreenenter"",""1"",""1726""
""blur"",""6"",""46042""
""focus"",""7"",""58096""
","""event"",""trial"",""time""
""blur"",""6"",""46042""
","""event"",""trial"",""time""
""focus"",""7"",""58096""
","""event"",""trial"",""time""
""fullscreenenter"",""1"",""1726""
","
","","","","","","352.89999997615814","<p> This is just a practice round, but in the real game, your bonus payment will depend on your total number of points.","","0","instructions","","","","","","","","","","","","","",""
"learning-instructions","37","259924","0.0-8.0-0.0-0.29","1428","1","2","""event"",""trial"",""time""
""fullscreenenter"",""1"",""1726""
""blur"",""6"",""46042""
""focus"",""7"",""58096""
","""event"",""trial"",""time""
""blur"",""6"",""46042""
","""event"",""trial"",""time""
""focus"",""7"",""58096""
","""event"",""trial"",""time""
""fullscreenenter"",""1"",""1726""
","
","","","","","","374.69999998807907","<p> The position where each park appears will change throughout the game. </p><p> The position where the park appears <i> does not </i> influence how likely the kids are to be happy or sad. </p>","","0","instructions","","","","","","","","","","","","","",""
"learning-instructions","38","275679","0.0-8.0-0.0-0.30","1428","1","2","""event"",""trial"",""time""
""fullscreenenter"",""1"",""1726""
""blur"",""6"",""46042""
""focus"",""7"",""58096""
","""event"",""trial"",""time""
""blur"",""6"",""46042""
","""event"",""trial"",""time""
""focus"",""7"",""58096""
","""event"",""trial"",""time""
""fullscreenenter"",""1"",""1726""
","
","","","","","","1049.7999999821186","<p> You will have 4 seconds to make each choice. Try to respond before time runs out! </p><p> You will lose 1 point each time you do not make a response. </p>","","0","instructions","","","","","","","","","","","","","",""
"learning-instructions","39","282918","0.0-8.0-0.0-0.31","1428","1","2","""event"",""trial"",""time""
""fullscreenenter"",""1"",""1726""
""blur"",""6"",""46042""
""focus"",""7"",""58096""
","""event"",""trial"",""time""
""blur"",""6"",""46042""
","""event"",""trial"",""time""
""focus"",""7"",""58096""
","""event"",""trial"",""time""
""fullscreenenter"",""1"",""1726""
","
","","","","","","446.5","<p> Remember, you should use the 1, 2, and 3 keys to select the park for each piece of equipment. </p><br><div class=""choice-instructions-grid""> <div class=""choice-option""><img src=""images/park1.png"" class=""choice-option-img"" stage=""instructions"" position=""0"" ><div class=""choice-option-text""> Press ""1."" </div></div><div class=""choice-option""><img src=""images/park2.png"" class=""choice-option-img"" stage=""instructions"" position=""1"" ><div class=""choice-option-text""> Press ""2."" </div></div><div class=""choice-option""><img src=""images/park3.png"" class=""choice-option-img"" stage=""instructions"" position=""2"" ><div class=""choice-option-text""> Press ""3."" </div></div></div>","","0","instructions","","","","","","","","","","","","","",""
"html-button-response","40","285257","0.0-8.0-1.0","1428","1","2","""event"",""trial"",""time""
""fullscreenenter"",""1"",""1726""
""blur"",""6"",""46042""
""focus"",""7"",""58096""
","""event"",""trial"",""time""
""blur"",""6"",""46042""
","""event"",""trial"",""time""
""focus"",""7"",""58096""
","""event"",""trial"",""time""
""fullscreenenter"",""1"",""1726""
","
","","","","","","2225","<p> Ready to practice? </p>","0","","","","","","","","","","","","","","","",""
"html-keyboard-response","41","285860","0.0-8.0-2.0-0.0","1428","1","2","""event"",""trial"",""time""
""fullscreenenter"",""1"",""1726""
""blur"",""6"",""46042""
""focus"",""7"",""58096""
","""event"",""trial"",""time""
""blur"",""6"",""46042""
","""event"",""trial"",""time""
""focus"",""7"",""58096""
","""event"",""trial"",""time""
""fullscreenenter"",""1"",""1726""
","
","","","","","","null","<div style=""font-size:60px;"">+</div>","null","","fixation","","","","","","","","","","","","","",""
"learning-trial","42","289865","0.0-8.0-2.0-1.0","1428","1","2","""event"",""trial"",""time""
""fullscreenenter"",""1"",""1726""
""blur"",""6"",""46042""
""focus"",""7"",""58096""
","""event"",""trial"",""time""
""blur"",""6"",""46042""
","""event"",""trial"",""time""
""focus"",""7"",""58096""
","""event"",""trial"",""time""
""fullscreenenter"",""1"",""1726""
","
","","","","","","1624.5","images/ball1.png","","","practice","images/park2.png","images/park3.png","images/park1.png","[1,2,0]","1","0","3","images/park1.png","-1","practice","","","",""
"html-keyboard-response","43","290377","0.0-8.0-2.0-0.1","1428","1","2","""event"",""trial"",""time""
""fullscreenenter"",""1"",""1726""
""blur"",""6"",""46042""
""focus"",""7"",""58096""
","""event"",""trial"",""time""
""blur"",""6"",""46042""
","""event"",""trial"",""time""
""focus"",""7"",""58096""
","""event"",""trial"",""time""
""fullscreenenter"",""1"",""1726""
","
","","","","","","null","<div style=""font-size:60px;"">+</div>","null","","fixation","","","","","","","","","","","","","",""
"learning-trial","44","294386","0.0-8.0-2.0-1.1","1428","1","2","""event"",""trial"",""time""
""fullscreenenter"",""1"",""1726""
""blur"",""6"",""46042""
""focus"",""7"",""58096""
","""event"",""trial"",""time""
""blur"",""6"",""46042""
","""event"",""trial"",""time""
""focus"",""7"",""58096""
","""event"",""trial"",""time""
""fullscreenenter"",""1"",""1726""
","
","","","","","","1289.0999999940395","images/ball2.png","","","practice","images/park3.png","images/park2.png","images/park1.png","[2,1,0]","0","2","3","images/park1.png","-1","practice","","","",""
"html-keyboard-response","45","294900","0.0-8.0-2.0-0.2","1428","1","2","""event"",""trial"",""time""
""fullscreenenter"",""1"",""1726""
""blur"",""6"",""46042""
""focus"",""7"",""58096""
","""event"",""trial"",""time""
""blur"",""6"",""46042""
","""event"",""trial"",""time""
""focus"",""7"",""58096""
","""event"",""trial"",""time""
""fullscreenenter"",""1"",""1726""
","
","","","","","","null","<div style=""font-size:60px;"">+</div>","null","","fixation","","","","","","","","","","","","","",""
"learning-trial","46","298909","0.0-8.0-2.0-1.2","1428","1","2","""event"",""trial"",""time""
""fullscreenenter"",""1"",""1726""
""blur"",""6"",""46042""
""focus"",""7"",""58096""
","""event"",""trial"",""time""
""blur"",""6"",""46042""
","""event"",""trial"",""time""
""focus"",""7"",""58096""
","""event"",""trial"",""time""
""fullscreenenter"",""1"",""1726""
","
","","","","","","2269.5999999940395","images/racket1.png","","","practice","images/park3.png","images/park1.png","images/park2.png","[2,0,1]","2","0","2","images/park1.png","-1","practice","","","",""
"html-keyboard-response","47","299421","0.0-8.0-2.0-0.3","1428","1","2","""event"",""trial"",""time""
""fullscreenenter"",""1"",""1726""
""blur"",""6"",""46042""
""focus"",""7"",""58096""
","""event"",""trial"",""time""
""blur"",""6"",""46042""
","""event"",""trial"",""time""
""focus"",""7"",""58096""
","""event"",""trial"",""time""
""fullscreenenter"",""1"",""1726""
","
","","","","","","null","<div style=""font-size:60px;"">+</div>","null","","fixation","","","","","","","","","","","","","",""
"learning-trial","48","303436","0.0-8.0-2.0-1.3","1428","1","2","""event"",""trial"",""time""
""fullscreenenter"",""1"",""1726""
""blur"",""6"",""46042""
""focus"",""7"",""58096""
","""event"",""trial"",""time""
""blur"",""6"",""46042""
","""event"",""trial"",""time""
""focus"",""7"",""58096""
","""event"",""trial"",""time""
""fullscreenenter"",""1"",""1726""
","
","","","","","","1209.7000000178814","images/racket4.png","","","practice","images/park3.png","images/park1.png","images/park2.png","[2,0,1]","1","2","2","images/park1.png","-1","practice","","","",""
"html-keyboard-response","49","303942","0.0-8.0-2.0-0.4","1428","1","2","""event"",""trial"",""time""
""fullscreenenter"",""1"",""1726""
""blur"",""6"",""46042""
""focus"",""7"",""58096""
","""event"",""trial"",""time""
""blur"",""6"",""46042""
","""event"",""trial"",""time""
""focus"",""7"",""58096""
","""event"",""trial"",""time""
""fullscreenenter"",""1"",""1726""
","
","","","","","","null","<div style=""font-size:60px;"">+</div>","null","","fixation","","","","","","","","","","","","","",""
"learning-trial","50","307953","0.0-8.0-2.0-1.4","1428","1","2","""event"",""trial"",""time""
""fullscreenenter"",""1"",""1726""
""blur"",""6"",""46042""
""focus"",""7"",""58096""
","""event"",""trial"",""time""
""blur"",""6"",""46042""
","""event"",""trial"",""time""
""focus"",""7"",""58096""
","""event"",""trial"",""time""
""fullscreenenter"",""1"",""1726""
","
","","","","","","1815.7000000178814","images/racket2.png","","","practice","images/park3.png","images/park1.png","images/park2.png","[2,0,1]","2","0","3","images/park2.png","-1","practice","","","",""
"html-keyboard-response","51","308455","0.0-8.0-2.0-0.5","1428","1","2","""event"",""trial"",""time""
""fullscreenenter"",""1"",""1726""
""blur"",""6"",""46042""
""focus"",""7"",""58096""
","""event"",""trial"",""time""
""blur"",""6"",""46042""
","""event"",""trial"",""time""
""focus"",""7"",""58096""
","""event"",""trial"",""time""
""fullscreenenter"",""1"",""1726""
","
","","","","","","null","<div style=""font-size:60px;"">+</div>","null","","fixation","","","","","","","","","","","","","",""
"learning-trial","52","312460","0.0-8.0-2.0-1.5","1428","1","2","""event"",""trial"",""time""
""fullscreenenter"",""1"",""1726""
""blur"",""6"",""46042""
""focus"",""7"",""58096""
","""event"",""trial"",""time""
""blur"",""6"",""46042""
","""event"",""trial"",""time""
""focus"",""7"",""58096""
","""event"",""trial"",""time""
""fullscreenenter"",""1"",""1726""
","
","","","","","","1408.7000000178814","images/ball1.png","","","practice","images/park2.png","images/park1.png","images/park3.png","[1,0,2]","1","0","1","images/park2.png","1","practice","","","",""
"html-keyboard-response","53","312962","0.0-8.0-2.0-0.6","1428","1","2","""event"",""trial"",""time""
""fullscreenenter"",""1"",""1726""
""blur"",""6"",""46042""
""focus"",""7"",""58096""
","""event"",""trial"",""time""
""blur"",""6"",""46042""
","""event"",""trial"",""time""
""focus"",""7"",""58096""
","""event"",""trial"",""time""
""fullscreenenter"",""1"",""1726""
","
","","","","","","null","<div style=""font-size:60px;"">+</div>","null","","fixation","","","","","","","","","","","","","",""
"learning-trial","54","316968","0.0-8.0-2.0-1.6","1428","1","2","""event"",""trial"",""time""
""fullscreenenter"",""1"",""1726""
""blur"",""6"",""46042""
""focus"",""7"",""58096""
","""event"",""trial"",""time""
""blur"",""6"",""46042""
","""event"",""trial"",""time""
""focus"",""7"",""58096""
","""event"",""trial"",""time""
""fullscreenenter"",""1"",""1726""
","
","","","","","","2206.9000000059605","images/ball4.png","","","practice","images/park2.png","images/park1.png","images/park3.png","[1,0,2]","0","1","3","images/park3.png","-1","practice","","","",""
"html-keyboard-response","55","317470","0.0-8.0-2.0-0.7","1428","1","2","""event"",""trial"",""time""
""fullscreenenter"",""1"",""1726""
""blur"",""6"",""46042""
""focus"",""7"",""58096""
","""event"",""trial"",""time""
""blur"",""6"",""46042""
","""event"",""trial"",""time""
""focus"",""7"",""58096""
","""event"",""trial"",""time""
""fullscreenenter"",""1"",""1726""
","
","","","","","","null","<div style=""font-size:60px;"">+</div>","null","","fixation","","","","","","","","","","","","","",""
"learning-trial","56","321476","0.0-8.0-2.0-1.7","1428","1","2","""event"",""trial"",""time""
""fullscreenenter"",""1"",""1726""
""blur"",""6"",""46042""
""focus"",""7"",""58096""
","""event"",""trial"",""time""
""blur"",""6"",""46042""
","""event"",""trial"",""time""
""focus"",""7"",""58096""
","""event"",""trial"",""time""
""fullscreenenter"",""1"",""1726""
","
","","","","","","1193.9000000059605","images/ball4.png","","","practice","images/park3.png","images/park2.png","images/park1.png","[2,1,0]","0","2","1","images/park3.png","-1","practice","","","",""
"html-keyboard-response","57","321978","0.0-8.0-2.0-0.8","1428","1","2","""event"",""trial"",""time""
""fullscreenenter"",""1"",""1726""
""blur"",""6"",""46042""
""focus"",""7"",""58096""
","""event"",""trial"",""time""
""blur"",""6"",""46042""
","""event"",""trial"",""time""
""focus"",""7"",""58096""
","""event"",""trial"",""time""
""fullscreenenter"",""1"",""1726""
","
","","","","","","null","<div style=""font-size:60px;"">+</div>","null","","fixation","","","","","","","","","","","","","",""
"learning-trial","58","325984","0.0-8.0-2.0-1.8","1428","1","2","""event"",""trial"",""time""
""fullscreenenter"",""1"",""1726""
""blur"",""6"",""46042""
""focus"",""7"",""58096""
","""event"",""trial"",""time""
""blur"",""6"",""46042""
","""event"",""trial"",""time""
""focus"",""7"",""58096""
","""event"",""trial"",""time""
""fullscreenenter"",""1"",""1726""
","
","","","","","","2194.9000000059605","images/racket2.png","","","practice","images/park2.png","images/park1.png","images/park3.png","[1,0,2]","2","2","2","images/park1.png","-1","practice","","","",""
"html-keyboard-response","59","326486","0.0-8.0-2.0-0.9","1428","1","2","""event"",""trial"",""time""
""fullscreenenter"",""1"",""1726""
""blur"",""6"",""46042""
""focus"",""7"",""58096""
","""event"",""trial"",""time""
""blur"",""6"",""46042""
","""event"",""trial"",""time""
""focus"",""7"",""58096""
","""event"",""trial"",""time""
""fullscreenenter"",""1"",""1726""
","
","","","","","","null","<div style=""font-size:60px;"">+</div>","null","","fixation","","","","","","","","","","","","","",""
"learning-trial","60","330493","0.0-8.0-2.0-1.9","1428","1","2","""event"",""trial"",""time""
""fullscreenenter"",""1"",""1726""
""blur"",""6"",""46042""
""focus"",""7"",""58096""
","""event"",""trial"",""time""
""blur"",""6"",""46042""
","""event"",""trial"",""time""
""focus"",""7"",""58096""
","""event"",""trial"",""time""
""fullscreenenter"",""1"",""1726""
","
","","","","","","2303.0999999940395","images/ball2.png","","","practice","images/park3.png","images/park2.png","images/park1.png","[2,1,0]","0","2","3","images/park1.png","1","practice","","","",""
"html-keyboard-response","61","330994","0.0-8.0-2.0-0.10","1428","1","2","""event"",""trial"",""time""
""fullscreenenter"",""1"",""1726""
""blur"",""6"",""46042""
""focus"",""7"",""58096""
","""event"",""trial"",""time""
""blur"",""6"",""46042""
","""event"",""trial"",""time""
""focus"",""7"",""58096""
","""event"",""trial"",""time""
""fullscreenenter"",""1"",""1726""
","
","","","","","","null","<div style=""font-size:60px;"">+</div>","null","","fixation","","","","","","","","","","","","","",""
"learning-trial","62","334999","0.0-8.0-2.0-1.10","1428","1","2","""event"",""trial"",""time""
""fullscreenenter"",""1"",""1726""
""blur"",""6"",""46042""
""focus"",""7"",""58096""
","""event"",""trial"",""time""
""blur"",""6"",""46042""
","""event"",""trial"",""time""
""focus"",""7"",""58096""
","""event"",""trial"",""time""
""fullscreenenter"",""1"",""1726""
","
","","","","","","1647.0999999940395","images/racket1.png","","","practice","images/park3.png","images/park2.png","images/park1.png","[2,1,0]","2","0","1","images/park3.png","1","practice","","","",""
"html-keyboard-response","63","335502","0.0-8.0-2.0-0.11","1428","1","2","""event"",""trial"",""time""
""fullscreenenter"",""1"",""1726""
""blur"",""6"",""46042""
""focus"",""7"",""58096""
","""event"",""trial"",""time""
""blur"",""6"",""46042""
","""event"",""trial"",""time""
""focus"",""7"",""58096""
","""event"",""trial"",""time""
""fullscreenenter"",""1"",""1726""
","
","","","","","","null","<div style=""font-size:60px;"">+</div>","null","","fixation","","","","","","","","","","","","","",""
"learning-trial","64","339507","0.0-8.0-2.0-1.11","1428","1","2","""event"",""trial"",""time""
""fullscreenenter"",""1"",""1726""
""blur"",""6"",""46042""
""focus"",""7"",""58096""
","""event"",""trial"",""time""
""blur"",""6"",""46042""
","""event"",""trial"",""time""
""focus"",""7"",""58096""
","""event"",""trial"",""time""
""fullscreenenter"",""1"",""1726""
","
","","","","","","1486.6000000238419","images/racket4.png","","","practice","images/park3.png","images/park1.png","images/park2.png","[2,0,1]","1","2","3","images/park2.png","1","practice","","","",""
"html-button-response","65","341706","0.0-8.0-3.0","1428","1","2","""event"",""trial"",""time""
""fullscreenenter"",""1"",""1726""
""blur"",""6"",""46042""
""focus"",""7"",""58096""
","""event"",""trial"",""time""
""blur"",""6"",""46042""
","""event"",""trial"",""time""
""focus"",""7"",""58096""
","""event"",""trial"",""time""
""fullscreenenter"",""1"",""1726""
","
","","","","","","2194.699999988079","<p> You earned -4 points in the practice round! </p>","0","","break","","","","","","","","","","","","","",""
"learning-instructions","66","349989","0.0-8.0-4.0-0.0","1428","1","2","""event"",""trial"",""time""
""fullscreenenter"",""1"",""1726""
""blur"",""6"",""46042""
""focus"",""7"",""58096""
","""event"",""trial"",""time""
""blur"",""6"",""46042""
","""event"",""trial"",""time""
""focus"",""7"",""58096""
","""event"",""trial"",""time""
""fullscreenenter"",""1"",""1726""
","
","","","","","","609.7999999821186","<p> It's almost time to start the real game. </p><p> Before you start, we're going to ask you a few questions about how the game works. </p>","","0","instructions","","","","","","","","","","","","","",""
"preload","67","355097","0.0-8.0-5.0","1428","1","2","""event"",""trial"",""time""
""fullscreenenter"",""1"",""1726""
""blur"",""6"",""46042""
""focus"",""7"",""58096""
","""event"",""trial"",""time""
""blur"",""6"",""46042""
","""event"",""trial"",""time""
""focus"",""7"",""58096""
","""event"",""trial"",""time""
""fullscreenenter"",""1"",""1726""
","
","true","false","[]","[]","[]","","","","","","","","","","","","","","","","","","",""
"comp-q","68","361542","0.0-8.0-6.0-0.0","1428","1","2","""event"",""trial"",""time""
""fullscreenenter"",""1"",""1726""
""blur"",""6"",""46042""
""focus"",""7"",""58096""
","""event"",""trial"",""time""
""blur"",""6"",""46042""
","""event"",""trial"",""time""
""focus"",""7"",""58096""
","""event"",""trial"",""time""
""fullscreenenter"",""1"",""1726""
","
","","","","","","1002.2000000178814","<p> <b> True or False? </b> </p><p> If you choose the best option, you will always earn 1 point. </p>","","0","comp_question","","","","","","","","","","","false","","",""
"comp-q","69","368269","0.0-8.0-6.0-1.0","1428","1","2","""event"",""trial"",""time""
""fullscreenenter"",""1"",""1726""
""blur"",""6"",""46042""
""focus"",""7"",""58096""
","""event"",""trial"",""time""
""blur"",""6"",""46042""
","""event"",""trial"",""time""
""focus"",""7"",""58096""
","""event"",""trial"",""time""
""fullscreenenter"",""1"",""1726""
","
","","","","","","1169.9000000059605","<p><b> Incorrect. </b> Sometimes you will lose 1 point, even if you choose the best option. </p>","","0","comp_answer","","","","","","","","","","","","","",""
"comp-q","70","373719","0.0-8.0-6.0-0.1","1428","1","2","""event"",""trial"",""time""
""fullscreenenter"",""1"",""1726""
""blur"",""6"",""46042""
""focus"",""7"",""58096""
","""event"",""trial"",""time""
""blur"",""6"",""46042""
","""event"",""trial"",""time""
""focus"",""7"",""58096""
","""event"",""trial"",""time""
""fullscreenenter"",""1"",""1726""
","
","","","","","","809.5999999940395","<p> <b> True or False? </b> </p><p> You will have as much time as you want to make each choice. </p>","","1","comp_question","","","","","","","","","","","true","","",""
"comp-q","71","379206","0.0-8.0-6.0-1.1","1428","1","2","""event"",""trial"",""time""
""fullscreenenter"",""1"",""1726""
""blur"",""6"",""46042""
""focus"",""7"",""58096""
","""event"",""trial"",""time""
""blur"",""6"",""46042""
","""event"",""trial"",""time""
""focus"",""7"",""58096""
","""event"",""trial"",""time""
""fullscreenenter"",""1"",""1726""
","
","","","","","","656.8999999761581","<p> <b> That's right! </b> You will only have 4 seconds to make each choice. </p>","","0","comp_answer","","","","","","","","","","","","","",""
"comp-q","72","386115","0.0-8.0-6.0-0.2","1428","1","2","""event"",""trial"",""time""
""fullscreenenter"",""1"",""1726""
""blur"",""6"",""46042""
""focus"",""7"",""58096""
","""event"",""trial"",""time""
""blur"",""6"",""46042""
","""event"",""trial"",""time""
""focus"",""7"",""58096""
","""event"",""trial"",""time""
""fullscreenenter"",""1"",""1726""
","
","","","","","","755.7999999821186","<p> <b> True or False? </b> </p><p> You should use the '1', '2', and '3' keys to make your choices. </p>","","0","comp_question","","","","","","","","","","","true","","",""
"comp-q","73","392033","0.0-8.0-6.0-1.2","1428","1","2","""event"",""trial"",""time""
""fullscreenenter"",""1"",""1726""
""blur"",""6"",""46042""
""focus"",""7"",""58096""
","""event"",""trial"",""time""
""blur"",""6"",""46042""
","""event"",""trial"",""time""
""focus"",""7"",""58096""
","""event"",""trial"",""time""
""fullscreenenter"",""1"",""1726""
","
","","","","","","1074.0999999940395","<p> <b> That's right! </b> You should use the '1', '2', and '3' keys to make each choice. </p>","","0","comp_answer","","","","","","","","","","","","","",""
"learning-instructions","74","401718","0.0-8.0-7.0-0.0","1428","1","2","""event"",""trial"",""time""
""fullscreenenter"",""1"",""1726""
""blur"",""6"",""46042""
""focus"",""7"",""58096""
","""event"",""trial"",""time""
""blur"",""6"",""46042""
","""event"",""trial"",""time""
""focus"",""7"",""58096""
","""event"",""trial"",""time""
""fullscreenenter"",""1"",""1726""
","
","","","","","","1189.2000000178814","<p> It's now time to start the real game. </p>Do your best, because the points you earn in the next rounds will influence your bonus payment. </p>","","0","instructions","","","","","","","","","","","","","",""
"preload","75","407877","0.0-9.0-0.0","1428","1","2","""event"",""trial"",""time""
""fullscreenenter"",""1"",""1726""
""blur"",""6"",""46042""
""focus"",""7"",""58096""
","""event"",""trial"",""time""
""blur"",""6"",""46042""
","""event"",""trial"",""time""
""focus"",""7"",""58096""
","""event"",""trial"",""time""
""fullscreenenter"",""1"",""1726""
","
","true","false","[]","[]","[]","","","","","","","","","","","","","","","","","","",""
"learning-instructions","76","418291","0.0-9.0-1.0-0.0","1428","1","2","""event"",""trial"",""time""
""fullscreenenter"",""1"",""1726""
""blur"",""6"",""46042""
""focus"",""7"",""58096""
","""event"",""trial"",""time""
""blur"",""6"",""46042""
","""event"",""trial"",""time""
""focus"",""7"",""58096""
","""event"",""trial"",""time""
""fullscreenenter"",""1"",""1726""
","
","","","","","","2091.699999988079","<p> Your goal in this round is to travel the world by putting fuel into different vehicles. </p><p> To travel, you will need to put fuel into many different vehicles. </p></div>","","0","instructions","","","","","","","","","","","","","",""
"learning-instructions","77","427607","0.0-9.0-1.0-0.1","1428","1","2","""event"",""trial"",""time""
""fullscreenenter"",""1"",""1726""
""blur"",""6"",""46042""
""focus"",""7"",""58096""
""fullscreenexit"",""78"",""430405""
""blur"",""78"",""432293""
""focus"",""78"",""434210""
""blur"",""78"",""434396""
""focus"",""78"",""435820""
","""event"",""trial"",""time""
""blur"",""6"",""46042""
""blur"",""78"",""432293""
""blur"",""78"",""434396""
","""event"",""trial"",""time""
""focus"",""7"",""58096""
""focus"",""78"",""434210""
""focus"",""78"",""435820""
","""event"",""trial"",""time""
""fullscreenenter"",""1"",""1726""
","""event"",""trial"",""time""
""fullscreenexit"",""78"",""430405""
","","","","","","537.7999999821186","<p> On each turn, you will see a picture of one of your vehicles and three different types of fuel.  </p><p> You need to select which kind of fuel to use.  </p>","","0","instructions","","","","","","","","","","","","","",""
"learning-instructions","78","436716","0.0-9.0-1.0-0.2","1428","1","2","""event"",""trial"",""time""
""fullscreenenter"",""1"",""1726""
""blur"",""6"",""46042""
""focus"",""7"",""58096""
""fullscreenexit"",""78"",""430405""
""blur"",""78"",""432293""
""focus"",""78"",""434210""
""blur"",""78"",""434396""
""focus"",""78"",""435820""
","""event"",""trial"",""time""
""blur"",""6"",""46042""
""blur"",""78"",""432293""
""blur"",""78"",""434396""
","""event"",""trial"",""time""
""focus"",""7"",""58096""
""focus"",""78"",""434210""
""focus"",""78"",""435820""
","""event"",""trial"",""time""
""fullscreenenter"",""1"",""1726""
","""event"",""trial"",""time""
""fullscreenexit"",""78"",""430405""
","","","","","","2237.300000011921","<p> You can select the fuel on the left by pressing 1, the fuel in the middle by pressing 2, and the fuel on the right by pressing 3. </p><br><div class=""choice-instructions-grid""> <div class=""choice-option""><img src=""images/vehicles_choice1.png"" class=""choice-option-img"" stage=""instructions"" position=""0"" ><div class=""choice-option-text""> Press ""1."" </div></div><div class=""choice-option""><img src=""images/vehicles_choice2.png"" class=""choice-option-img"" stage=""instructions"" position=""1"" ><div class=""choice-option-text""> Press ""2."" </div></div><div class=""choice-option""><img src=""images/vehicles_choice3.png"" class=""choice-option-img"" stage=""instructions"" position=""2"" ><div class=""choice-option-text""> Press ""3."" </div></div></div>","","0","instructions","","","","","","","","","","","","","",""
"learning-instructions","79","443419","0.0-9.0-1.0-0.3","1428","1","2","""event"",""trial"",""time""
""fullscreenenter"",""1"",""1726""
""blur"",""6"",""46042""
""focus"",""7"",""58096""
""fullscreenexit"",""78"",""430405""
""blur"",""78"",""432293""
""focus"",""78"",""434210""
""blur"",""78"",""434396""
""focus"",""78"",""435820""
","""event"",""trial"",""time""
""blur"",""6"",""46042""
""blur"",""78"",""432293""
""blur"",""78"",""434396""
","""event"",""trial"",""time""
""focus"",""7"",""58096""
""focus"",""78"",""434210""
""focus"",""78"",""435820""
","""event"",""trial"",""time""
""fullscreenenter"",""1"",""1726""
","""event"",""trial"",""time""
""fullscreenexit"",""78"",""430405""
","","","","","","1469.5999999940395","<p> If the fuel you chose works for that vehicle, it will start, and </p><p> you will get to travel. </p><div style='float: center;'><img src='images/check.png' width = '200' height = '200'></img>","","0","instructions","","","","","","","","","","","","","",""
"learning-instructions","80","450115","0.0-9.0-1.0-0.4","1428","1","2","""event"",""trial"",""time""
""fullscreenenter"",""1"",""1726""
""blur"",""6"",""46042""
""focus"",""7"",""58096""
""fullscreenexit"",""78"",""430405""
""blur"",""78"",""432293""
""focus"",""78"",""434210""
""blur"",""78"",""434396""
""focus"",""78"",""435820""
","""event"",""trial"",""time""
""blur"",""6"",""46042""
""blur"",""78"",""432293""
""blur"",""78"",""434396""
","""event"",""trial"",""time""
""focus"",""7"",""58096""
""focus"",""78"",""434210""
""focus"",""78"",""435820""
","""event"",""trial"",""time""
""fullscreenenter"",""1"",""1726""
","""event"",""trial"",""time""
""fullscreenexit"",""78"",""430405""
","","","","","","2145.0999999940395","<p> But, if the fuel you chose does not work, your vehicle will not move. </p><div style='float: center;'><img src='images/x.png' width = '200' height = '200'></img>","","0","instructions","","","","","","","","","","","","","",""
"learning-instructions","81","511078","0.0-9.0-1.0-0.5","1428","1","2","""event"",""trial"",""time""
""fullscreenenter"",""1"",""1726""
""blur"",""6"",""46042""
""focus"",""7"",""58096""
""fullscreenexit"",""78"",""430405""
""blur"",""78"",""432293""
""focus"",""78"",""434210""
""blur"",""78"",""434396""
""focus"",""78"",""435820""
","""event"",""trial"",""time""
""blur"",""6"",""46042""
""blur"",""78"",""432293""
""blur"",""78"",""434396""
","""event"",""trial"",""time""
""focus"",""7"",""58096""
""focus"",""78"",""434210""
""focus"",""78"",""435820""
","""event"",""trial"",""time""
""fullscreenenter"",""1"",""1726""
","""event"",""trial"",""time""
""fullscreenexit"",""78"",""430405""
","","","","","","50279.19999998808","<p> Importantly, each vehicle has a fuel that works best for it. </p><p> If you choose the fuel that works best for the vehicle, it will be more likely to start. </p>","","0","instructions","","","","","","","","","","","","","",""
"learning-instructions","82","521881","0.0-9.0-1.0-0.6","1428","1","2","""event"",""trial"",""time""
""fullscreenenter"",""1"",""1726""
""blur"",""6"",""46042""
""focus"",""7"",""58096""
""fullscreenexit"",""78"",""430405""
""blur"",""78"",""432293""
""focus"",""78"",""434210""
""blur"",""78"",""434396""
""focus"",""78"",""435820""
","""event"",""trial"",""time""
""blur"",""6"",""46042""
""blur"",""78"",""432293""
""blur"",""78"",""434396""
","""event"",""trial"",""time""
""focus"",""7"",""58096""
""focus"",""78"",""434210""
""focus"",""78"",""435820""
","""event"",""trial"",""time""
""fullscreenenter"",""1"",""1726""
","""event"",""trial"",""time""
""fullscreenexit"",""78"",""430405""
","","","","","","561.6999999880791","<p> However, even if you choose the best fuel for the vehicle, it may still not move. </p><p> Similarly, even if you choose the <i>wrong</i> fuel, the vehicle may still start and let you travel.","","0","instructions","","","","","","","","","","","","","",""
"learning-instructions","83","534874","0.0-9.0-1.0-0.7","1428","1","2","""event"",""trial"",""time""
""fullscreenenter"",""1"",""1726""
""blur"",""6"",""46042""
""focus"",""7"",""58096""
""fullscreenexit"",""78"",""430405""
""blur"",""78"",""432293""
""focus"",""78"",""434210""
""blur"",""78"",""434396""
""focus"",""78"",""435820""
","""event"",""trial"",""time""
""blur"",""6"",""46042""
""blur"",""78"",""432293""
""blur"",""78"",""434396""
","""event"",""trial"",""time""
""focus"",""7"",""58096""
""focus"",""78"",""434210""
""focus"",""78"",""435820""
","""event"",""trial"",""time""
""fullscreenenter"",""1"",""1726""
","""event"",""trial"",""time""
""fullscreenexit"",""78"",""430405""
","","","","","","634.3999999761581","<p> Try to choose the best fuel for each vehicle, because you will <b> WIN </b> 1 point each time you get to travel and <b>LOSE</b> 1 point each time a vehicle does not start. </p><p> Your bonus payment will depend on your total number of points.","","0","instructions","","","","","","","","","","","","","",""
"learning-instructions","84","543521","0.0-9.0-1.0-0.8","1428","1","2","""event"",""trial"",""time""
""fullscreenenter"",""1"",""1726""
""blur"",""6"",""46042""
""focus"",""7"",""58096""
""fullscreenexit"",""78"",""430405""
""blur"",""78"",""432293""
""focus"",""78"",""434210""
""blur"",""78"",""434396""
""focus"",""78"",""435820""
","""event"",""trial"",""time""
""blur"",""6"",""46042""
""blur"",""78"",""432293""
""blur"",""78"",""434396""
","""event"",""trial"",""time""
""focus"",""7"",""58096""
""focus"",""78"",""434210""
""focus"",""78"",""435820""
","""event"",""trial"",""time""
""fullscreenenter"",""1"",""1726""
","""event"",""trial"",""time""
""fullscreenexit"",""78"",""430405""
","","","","","","381.40000000596046","<p> The position of each type of fuel will change throughout the round. </p><p> The fuel's position <i> does not </i> influence how likely it is to make each vehicle start. </p>","","0","instructions","","","","","","","","","","","","","",""
"learning-instructions","85","554021","0.0-9.0-1.0-0.9","1428","1","2","""event"",""trial"",""time""
""fullscreenenter"",""1"",""1726""
""blur"",""6"",""46042""
""focus"",""7"",""58096""
""fullscreenexit"",""78"",""430405""
""blur"",""78"",""432293""
""focus"",""78"",""434210""
""blur"",""78"",""434396""
""focus"",""78"",""435820""
","""event"",""trial"",""time""
""blur"",""6"",""46042""
""blur"",""78"",""432293""
""blur"",""78"",""434396""
","""event"",""trial"",""time""
""focus"",""7"",""58096""
""focus"",""78"",""434210""
""focus"",""78"",""435820""
","""event"",""trial"",""time""
""fullscreenenter"",""1"",""1726""
","""event"",""trial"",""time""
""fullscreenexit"",""78"",""430405""
","","","","","","1201.8999999761581","<p> You will have 4 seconds to make each choice. Try to respond before time runs out! </p><p> You will lose 1 point each time you do not make a response. </p>","","0","instructions","","","","","","","","","","","","","",""
"html-keyboard-response","86","554635","0.0-9.0-2.0-0.0","1428","1","2","""event"",""trial"",""time""
""fullscreenenter"",""1"",""1726""
""blur"",""6"",""46042""
""focus"",""7"",""58096""
""fullscreenexit"",""78"",""430405""
""blur"",""78"",""432293""
""focus"",""78"",""434210""
""blur"",""78"",""434396""
""focus"",""78"",""435820""
","""event"",""trial"",""time""
""blur"",""6"",""46042""
""blur"",""78"",""432293""
""blur"",""78"",""434396""
","""event"",""trial"",""time""
""focus"",""7"",""58096""
""focus"",""78"",""434210""
""focus"",""78"",""435820""
","""event"",""trial"",""time""
""fullscreenenter"",""1"",""1726""
","""event"",""trial"",""time""
""fullscreenexit"",""78"",""430405""
","","","","","","null","<div style=""font-size:60px;"">+</div>","null","","fixation","","","","","","","","","","","","","",""
"learning-trial","87","558639","0.0-9.0-2.0-1.0","1428","1","2","""event"",""trial"",""time""
""fullscreenenter"",""1"",""1726""
""blur"",""6"",""46042""
""focus"",""7"",""58096""
""fullscreenexit"",""78"",""430405""
""blur"",""78"",""432293""
""focus"",""78"",""434210""
""blur"",""78"",""434396""
""focus"",""78"",""435820""
","""event"",""trial"",""time""
""blur"",""6"",""46042""
""blur"",""78"",""432293""
""blur"",""78"",""434396""
","""event"",""trial"",""time""
""focus"",""7"",""58096""
""focus"",""78"",""434210""
""focus"",""78"",""435820""
","""event"",""trial"",""time""
""fullscreenenter"",""1"",""1726""
","""event"",""trial"",""time""
""fullscreenexit"",""78"",""430405""
","","","","","","1063.4000000059605","images/train5.png","","","learning","images/vehicles_choice2.png","images/vehicles_choice1.png","images/vehicles_choice3.png","[1,0,2]","0","1","1","images/vehicles_choice2.png","-1","vehicles","","train","1","0"
"html-keyboard-response","88","559142","0.0-9.0-2.0-0.1","1428","1","2","""event"",""trial"",""time""
""fullscreenenter"",""1"",""1726""
""blur"",""6"",""46042""
""focus"",""7"",""58096""
""fullscreenexit"",""78"",""430405""
""blur"",""78"",""432293""
""focus"",""78"",""434210""
""blur"",""78"",""434396""
""focus"",""78"",""435820""
","""event"",""trial"",""time""
""blur"",""6"",""46042""
""blur"",""78"",""432293""
""blur"",""78"",""434396""
","""event"",""trial"",""time""
""focus"",""7"",""58096""
""focus"",""78"",""434210""
""focus"",""78"",""435820""
","""event"",""trial"",""time""
""fullscreenenter"",""1"",""1726""
","""event"",""trial"",""time""
""fullscreenexit"",""78"",""430405""
","","","","","","null","<div style=""font-size:60px;"">+</div>","null","","fixation","","","","","","","","","","","","","",""
"learning-trial","89","563154","0.0-9.0-2.0-1.1","1428","1","2","""event"",""trial"",""time""
""fullscreenenter"",""1"",""1726""
""blur"",""6"",""46042""
""focus"",""7"",""58096""
""fullscreenexit"",""78"",""430405""
""blur"",""78"",""432293""
""focus"",""78"",""434210""
""blur"",""78"",""434396""
""focus"",""78"",""435820""
","""event"",""trial"",""time""
""blur"",""6"",""46042""
""blur"",""78"",""432293""
""blur"",""78"",""434396""
","""event"",""trial"",""time""
""focus"",""7"",""58096""
""focus"",""78"",""434210""
""focus"",""78"",""435820""
","""event"",""trial"",""time""
""fullscreenenter"",""1"",""1726""
","""event"",""trial"",""time""
""fullscreenexit"",""78"",""430405""
","","","","","","847","images/truck1.png","","","learning","images/vehicles_choice1.png","images/vehicles_choice2.png","images/vehicles_choice3.png","[0,1,2]","1","1","2","images/vehicles_choice2.png","1","vehicles","","truck","1","0"
"html-keyboard-response","90","563667","0.0-9.0-2.0-0.2","1428","1","2","""event"",""trial"",""time""
""fullscreenenter"",""1"",""1726""
""blur"",""6"",""46042""
""focus"",""7"",""58096""
""fullscreenexit"",""78"",""430405""
""blur"",""78"",""432293""
""focus"",""78"",""434210""
""blur"",""78"",""434396""
""focus"",""78"",""435820""
","""event"",""trial"",""time""
""blur"",""6"",""46042""
""blur"",""78"",""432293""
""blur"",""78"",""434396""
","""event"",""trial"",""time""
""focus"",""7"",""58096""
""focus"",""78"",""434210""
""focus"",""78"",""435820""
","""event"",""trial"",""time""
""fullscreenenter"",""1"",""1726""
","""event"",""trial"",""time""
""fullscreenexit"",""78"",""430405""
","","","","","","null","<div style=""font-size:60px;"">+</div>","null","","fixation","","","","","","","","","","","","","",""
"learning-trial","91","567682","0.0-9.0-2.0-1.2","1428","1","2","""event"",""trial"",""time""
""fullscreenenter"",""1"",""1726""
""blur"",""6"",""46042""
""focus"",""7"",""58096""
""fullscreenexit"",""78"",""430405""
""blur"",""78"",""432293""
""focus"",""78"",""434210""
""blur"",""78"",""434396""
""focus"",""78"",""435820""
","""event"",""trial"",""time""
""blur"",""6"",""46042""
""blur"",""78"",""432293""
""blur"",""78"",""434396""
","""event"",""trial"",""time""
""focus"",""7"",""58096""
""focus"",""78"",""434210""
""focus"",""78"",""435820""
","""event"",""trial"",""time""
""fullscreenenter"",""1"",""1726""
","""event"",""trial"",""time""
""fullscreenexit"",""78"",""430405""
","","","","","","1070","images/boat5.png","","","learning","images/vehicles_choice1.png","images/vehicles_choice2.png","images/vehicles_choice3.png","[0,1,2]","2","2","3","images/vehicles_choice3.png","1","vehicles","","boat","1","0"
"html-keyboard-response","92","568196","0.0-9.0-2.0-0.3","1428","1","2","""event"",""trial"",""time""
""fullscreenenter"",""1"",""1726""
""blur"",""6"",""46042""
""focus"",""7"",""58096""
""fullscreenexit"",""78"",""430405""
""blur"",""78"",""432293""
""focus"",""78"",""434210""
""blur"",""78"",""434396""
""focus"",""78"",""435820""
","""event"",""trial"",""time""
""blur"",""6"",""46042""
""blur"",""78"",""432293""
""blur"",""78"",""434396""
","""event"",""trial"",""time""
""focus"",""7"",""58096""
""focus"",""78"",""434210""
""focus"",""78"",""435820""
","""event"",""trial"",""time""
""fullscreenenter"",""1"",""1726""
","""event"",""trial"",""time""
""fullscreenexit"",""78"",""430405""
","","","","","","null","<div style=""font-size:60px;"">+</div>","null","","fixation","","","","","","","","","","","","","",""
"learning-trial","93","572207","0.0-9.0-2.0-1.3","1428","1","2","""event"",""trial"",""time""
""fullscreenenter"",""1"",""1726""
""blur"",""6"",""46042""
""focus"",""7"",""58096""
""fullscreenexit"",""78"",""430405""
""blur"",""78"",""432293""
""focus"",""78"",""434210""
""blur"",""78"",""434396""
""focus"",""78"",""435820""
","""event"",""trial"",""time""
""blur"",""6"",""46042""
""blur"",""78"",""432293""
""blur"",""78"",""434396""
","""event"",""trial"",""time""
""focus"",""7"",""58096""
""focus"",""78"",""434210""
""focus"",""78"",""435820""
","""event"",""trial"",""time""
""fullscreenenter"",""1"",""1726""
","""event"",""trial"",""time""
""fullscreenexit"",""78"",""430405""
","","","","","","1117.5","images/boat4.png","","","learning","images/vehicles_choice2.png","images/vehicles_choice3.png","images/vehicles_choice1.png","[1,2,0]","2","1","3","images/vehicles_choice1.png","-1","vehicles","","boat","1","0"
"html-keyboard-response","94","572717","0.0-9.0-2.0-0.4","1428","1","2","""event"",""trial"",""time""
""fullscreenenter"",""1"",""1726""
""blur"",""6"",""46042""
""focus"",""7"",""58096""
""fullscreenexit"",""78"",""430405""
""blur"",""78"",""432293""
""focus"",""78"",""434210""
""blur"",""78"",""434396""
""focus"",""78"",""435820""
","""event"",""trial"",""time""
""blur"",""6"",""46042""
""blur"",""78"",""432293""
""blur"",""78"",""434396""
","""event"",""trial"",""time""
""focus"",""7"",""58096""
""focus"",""78"",""434210""
""focus"",""78"",""435820""
","""event"",""trial"",""time""
""fullscreenenter"",""1"",""1726""
","""event"",""trial"",""time""
""fullscreenexit"",""78"",""430405""
","","","","","","null","<div style=""font-size:60px;"">+</div>","null","","fixation","","","","","","","","","","","","","",""
"learning-trial","95","576726","0.0-9.0-2.0-1.4","1428","1","2","""event"",""trial"",""time""
""fullscreenenter"",""1"",""1726""
""blur"",""6"",""46042""
""focus"",""7"",""58096""
""fullscreenexit"",""78"",""430405""
""blur"",""78"",""432293""
""focus"",""78"",""434210""
""blur"",""78"",""434396""
""focus"",""78"",""435820""
","""event"",""trial"",""time""
""blur"",""6"",""46042""
""blur"",""78"",""432293""
""blur"",""78"",""434396""
","""event"",""trial"",""time""
""focus"",""7"",""58096""
""focus"",""78"",""434210""
""focus"",""78"",""435820""
","""event"",""trial"",""time""
""fullscreenenter"",""1"",""1726""
","""event"",""trial"",""time""
""fullscreenexit"",""78"",""430405""
","","","","","","1368.7000000178814","images/boat5.png","","","learning","images/vehicles_choice2.png","images/vehicles_choice1.png","images/vehicles_choice3.png","[1,0,2]","2","2","2","images/vehicles_choice1.png","-1","vehicles","","boat","1","0"
"html-keyboard-response","96","577236","0.0-9.0-2.0-0.5","1428","1","2","""event"",""trial"",""time""
""fullscreenenter"",""1"",""1726""
""blur"",""6"",""46042""
""focus"",""7"",""58096""
""fullscreenexit"",""78"",""430405""
""blur"",""78"",""432293""
""focus"",""78"",""434210""
""blur"",""78"",""434396""
""focus"",""78"",""435820""
","""event"",""trial"",""time""
""blur"",""6"",""46042""
""blur"",""78"",""432293""
""blur"",""78"",""434396""
","""event"",""trial"",""time""
""focus"",""7"",""58096""
""focus"",""78"",""434210""
""focus"",""78"",""435820""
","""event"",""trial"",""time""
""fullscreenenter"",""1"",""1726""
","""event"",""trial"",""time""
""fullscreenexit"",""78"",""430405""
","","","","","","null","<div style=""font-size:60px;"">+</div>","null","","fixation","","","","","","","","","","","","","",""
"learning-trial","97","581256","0.0-9.0-2.0-1.5","1428","1","2","""event"",""trial"",""time""
""fullscreenenter"",""1"",""1726""
""blur"",""6"",""46042""
""focus"",""7"",""58096""
""fullscreenexit"",""78"",""430405""
""blur"",""78"",""432293""
""focus"",""78"",""434210""
""blur"",""78"",""434396""
""focus"",""78"",""435820""
","""event"",""trial"",""time""
""blur"",""6"",""46042""
""blur"",""78"",""432293""
""blur"",""78"",""434396""
","""event"",""trial"",""time""
""focus"",""7"",""58096""
""focus"",""78"",""434210""
""focus"",""78"",""435820""
","""event"",""trial"",""time""
""fullscreenenter"",""1"",""1726""
","""event"",""trial"",""time""
""fullscreenexit"",""78"",""430405""
","","","","","","1142","images/truck1.png","","","learning","images/vehicles_choice3.png","images/vehicles_choice2.png","images/vehicles_choice1.png","[2,1,0]","1","1","2","images/vehicles_choice2.png","1","vehicles","","truck","1","0"
"html-keyboard-response","98","581769","0.0-9.0-2.0-0.6","1428","1","2","""event"",""trial"",""time""
""fullscreenenter"",""1"",""1726""
""blur"",""6"",""46042""
""focus"",""7"",""58096""
""fullscreenexit"",""78"",""430405""
""blur"",""78"",""432293""
""focus"",""78"",""434210""
""blur"",""78"",""434396""
""focus"",""78"",""435820""
","""event"",""trial"",""time""
""blur"",""6"",""46042""
""blur"",""78"",""432293""
""blur"",""78"",""434396""
","""event"",""trial"",""time""
""focus"",""7"",""58096""
""focus"",""78"",""434210""
""focus"",""78"",""435820""
","""event"",""trial"",""time""
""fullscreenenter"",""1"",""1726""
","""event"",""trial"",""time""
""fullscreenexit"",""78"",""430405""
","","","","","","null","<div style=""font-size:60px;"">+</div>","null","","fixation","","","","","","","","","","","","","",""
"learning-trial","99","585775","0.0-9.0-2.0-1.6","1428","1","2","""event"",""trial"",""time""
""fullscreenenter"",""1"",""1726""
""blur"",""6"",""46042""
""focus"",""7"",""58096""
""fullscreenexit"",""78"",""430405""
""blur"",""78"",""432293""
""focus"",""78"",""434210""
""blur"",""78"",""434396""
""focus"",""78"",""435820""
","""event"",""trial"",""time""
""blur"",""6"",""46042""
""blur"",""78"",""432293""
""blur"",""78"",""434396""
","""event"",""trial"",""time""
""focus"",""7"",""58096""
""focus"",""78"",""434210""
""focus"",""78"",""435820""
","""event"",""trial"",""time""
""fullscreenenter"",""1"",""1726""
","""event"",""trial"",""time""
""fullscreenexit"",""78"",""430405""
","","","","","","1836.699999988079","images/boat4.png","","","learning","images/vehicles_choice1.png","images/vehicles_choice3.png","images/vehicles_choice2.png","[0,2,1]","2","1","2","images/vehicles_choice3.png","1","vehicles","","boat","1","0"
"html-keyboard-response","100","586278","0.0-9.0-2.0-0.7","1428","1","2","""event"",""trial"",""time""
""fullscreenenter"",""1"",""1726""
""blur"",""6"",""46042""
""focus"",""7"",""58096""
""fullscreenexit"",""78"",""430405""
""blur"",""78"",""432293""
""focus"",""78"",""434210""
""blur"",""78"",""434396""
""focus"",""78"",""435820""
","""event"",""trial"",""time""
""blur"",""6"",""46042""
""blur"",""78"",""432293""
""blur"",""78"",""434396""
","""event"",""trial"",""time""
""focus"",""7"",""58096""
""focus"",""78"",""434210""
""focus"",""78"",""435820""
","""event"",""trial"",""time""
""fullscreenenter"",""1"",""1726""
","""event"",""trial"",""time""
""fullscreenexit"",""78"",""430405""
","","","","","","null","<div style=""font-size:60px;"">+</div>","null","","fixation","","","","","","","","","","","","","",""
"learning-trial","101","590284","0.0-9.0-2.0-1.7","1428","1","2","""event"",""trial"",""time""
""fullscreenenter"",""1"",""1726""
""blur"",""6"",""46042""
""focus"",""7"",""58096""
""fullscreenexit"",""78"",""430405""
""blur"",""78"",""432293""
""focus"",""78"",""434210""
""blur"",""78"",""434396""
""focus"",""78"",""435820""
","""event"",""trial"",""time""
""blur"",""6"",""46042""
""blur"",""78"",""432293""
""blur"",""78"",""434396""
","""event"",""trial"",""time""
""focus"",""7"",""58096""
""focus"",""78"",""434210""
""focus"",""78"",""435820""
","""event"",""trial"",""time""
""fullscreenenter"",""1"",""1726""
","""event"",""trial"",""time""
""fullscreenexit"",""78"",""430405""
","","","","","","2804.5999999940395","images/train1.png","","","learning","images/vehicles_choice2.png","images/vehicles_choice1.png","images/vehicles_choice3.png","[1,0,2]","0","1","2","images/vehicles_choice1.png","1","vehicles","","train","1","0"
"html-keyboard-response","102","590785","0.0-9.0-2.0-0.8","1428","1","2","""event"",""trial"",""time""
""fullscreenenter"",""1"",""1726""
""blur"",""6"",""46042""
""focus"",""7"",""58096""
""fullscreenexit"",""78"",""430405""
""blur"",""78"",""432293""
""focus"",""78"",""434210""
""blur"",""78"",""434396""
""focus"",""78"",""435820""
","""event"",""trial"",""time""
""blur"",""6"",""46042""
""blur"",""78"",""432293""
""blur"",""78"",""434396""
","""event"",""trial"",""time""
""focus"",""7"",""58096""
""focus"",""78"",""434210""
""focus"",""78"",""435820""
","""event"",""trial"",""time""
""fullscreenenter"",""1"",""1726""
","""event"",""trial"",""time""
""fullscreenexit"",""78"",""430405""
","","","","","","null","<div style=""font-size:60px;"">+</div>","null","","fixation","","","","","","","","","","","","","",""
"learning-trial","103","594791","0.0-9.0-2.0-1.8","1428","1","2","""event"",""trial"",""time""
""fullscreenenter"",""1"",""1726""
""blur"",""6"",""46042""
""focus"",""7"",""58096""
""fullscreenexit"",""78"",""430405""
""blur"",""78"",""432293""
""focus"",""78"",""434210""
""blur"",""78"",""434396""
""focus"",""78"",""435820""
","""event"",""trial"",""time""
""blur"",""6"",""46042""
""blur"",""78"",""432293""
""blur"",""78"",""434396""
","""event"",""trial"",""time""
""focus"",""7"",""58096""
""focus"",""78"",""434210""
""focus"",""78"",""435820""
","""event"",""trial"",""time""
""fullscreenenter"",""1"",""1726""
","""event"",""trial"",""time""
""fullscreenexit"",""78"",""430405""
","","","","","","1127.5","images/truck5.png","","","learning","images/vehicles_choice2.png","images/vehicles_choice1.png","images/vehicles_choice3.png","[1,0,2]","1","0","1","images/vehicles_choice2.png","1","vehicles","","truck","1","0"
"html-keyboard-response","104","595293","0.0-9.0-2.0-0.9","1428","1","2","""event"",""trial"",""time""
""fullscreenenter"",""1"",""1726""
""blur"",""6"",""46042""
""focus"",""7"",""58096""
""fullscreenexit"",""78"",""430405""
""blur"",""78"",""432293""
""focus"",""78"",""434210""
""blur"",""78"",""434396""
""focus"",""78"",""435820""
","""event"",""trial"",""time""
""blur"",""6"",""46042""
""blur"",""78"",""432293""
""blur"",""78"",""434396""
","""event"",""trial"",""time""
""focus"",""7"",""58096""
""focus"",""78"",""434210""
""focus"",""78"",""435820""
","""event"",""trial"",""time""
""fullscreenenter"",""1"",""1726""
","""event"",""trial"",""time""
""fullscreenexit"",""78"",""430405""
","","","","","","null","<div style=""font-size:60px;"">+</div>","null","","fixation","","","","","","","","","","","","","",""
"learning-trial","105","599299","0.0-9.0-2.0-1.9","1428","1","2","""event"",""trial"",""time""
""fullscreenenter"",""1"",""1726""
""blur"",""6"",""46042""
""focus"",""7"",""58096""
""fullscreenexit"",""78"",""430405""
""blur"",""78"",""432293""
""focus"",""78"",""434210""
""blur"",""78"",""434396""
""focus"",""78"",""435820""
","""event"",""trial"",""time""
""blur"",""6"",""46042""
""blur"",""78"",""432293""
""blur"",""78"",""434396""
","""event"",""trial"",""time""
""focus"",""7"",""58096""
""focus"",""78"",""434210""
""focus"",""78"",""435820""
","""event"",""trial"",""time""
""fullscreenenter"",""1"",""1726""
","""event"",""trial"",""time""
""fullscreenexit"",""78"",""430405""
","","","","","","1592.2999999821186","images/boat5.png","","","learning","images/vehicles_choice2.png","images/vehicles_choice1.png","images/vehicles_choice3.png","[1,0,2]","2","2","2","images/vehicles_choice1.png","-1","vehicles","","boat","1","0"
"html-keyboard-response","106","599802","0.0-9.0-2.0-0.10","1428","1","2","""event"",""trial"",""time""
""fullscreenenter"",""1"",""1726""
""blur"",""6"",""46042""
""focus"",""7"",""58096""
""fullscreenexit"",""78"",""430405""
""blur"",""78"",""432293""
""focus"",""78"",""434210""
""blur"",""78"",""434396""
""focus"",""78"",""435820""
","""event"",""trial"",""time""
""blur"",""6"",""46042""
""blur"",""78"",""432293""
""blur"",""78"",""434396""
","""event"",""trial"",""time""
""focus"",""7"",""58096""
""focus"",""78"",""434210""
""focus"",""78"",""435820""
","""event"",""trial"",""time""
""fullscreenenter"",""1"",""1726""
","""event"",""trial"",""time""
""fullscreenexit"",""78"",""430405""
","","","","","","null","<div style=""font-size:60px;"">+</div>","null","","fixation","","","","","","","","","","","","","",""
"learning-trial","107","603809","0.0-9.0-2.0-1.10","1428","1","2","""event"",""trial"",""time""
""fullscreenenter"",""1"",""1726""
""blur"",""6"",""46042""
""focus"",""7"",""58096""
""fullscreenexit"",""78"",""430405""
""blur"",""78"",""432293""
""focus"",""78"",""434210""
""blur"",""78"",""434396""
""focus"",""78"",""435820""
","""event"",""trial"",""time""
""blur"",""6"",""46042""
""blur"",""78"",""432293""
""blur"",""78"",""434396""
","""event"",""trial"",""time""
""focus"",""7"",""58096""
""focus"",""78"",""434210""
""focus"",""78"",""435820""
","""event"",""trial"",""time""
""fullscreenenter"",""1"",""1726""
","""event"",""trial"",""time""
""fullscreenexit"",""78"",""430405""
","","","","","","2066.5999999940395","images/train2.png","","","learning","images/vehicles_choice2.png","images/vehicles_choice1.png","images/vehicles_choice3.png","[1,0,2]","0","1","2","images/vehicles_choice1.png","1","vehicles","","train","1","0"
"html-keyboard-response","108","604313","0.0-9.0-2.0-0.11","1428","1","2","""event"",""trial"",""time""
""fullscreenenter"",""1"",""1726""
""blur"",""6"",""46042""
""focus"",""7"",""58096""
""fullscreenexit"",""78"",""430405""
""blur"",""78"",""432293""
""focus"",""78"",""434210""
""blur"",""78"",""434396""
""focus"",""78"",""435820""
","""event"",""trial"",""time""
""blur"",""6"",""46042""
""blur"",""78"",""432293""
""blur"",""78"",""434396""
","""event"",""trial"",""time""
""focus"",""7"",""58096""
""focus"",""78"",""434210""
""focus"",""78"",""435820""
","""event"",""trial"",""time""
""fullscreenenter"",""1"",""1726""
","""event"",""trial"",""time""
""fullscreenexit"",""78"",""430405""
","","","","","","null","<div style=""font-size:60px;"">+</div>","null","","fixation","","","","","","","","","","","","","",""
"learning-trial","109","608320","0.0-9.0-2.0-1.11","1428","1","2","""event"",""trial"",""time""
""fullscreenenter"",""1"",""1726""
""blur"",""6"",""46042""
""focus"",""7"",""58096""
""fullscreenexit"",""78"",""430405""
""blur"",""78"",""432293""
""focus"",""78"",""434210""
""blur"",""78"",""434396""
""focus"",""78"",""435820""
","""event"",""trial"",""time""
""blur"",""6"",""46042""
""blur"",""78"",""432293""
""blur"",""78"",""434396""
","""event"",""trial"",""time""
""focus"",""7"",""58096""
""focus"",""78"",""434210""
""focus"",""78"",""435820""
","""event"",""trial"",""time""
""fullscreenenter"",""1"",""1726""
","""event"",""trial"",""time""
""fullscreenexit"",""78"",""430405""
","","","","","","820.8999999761581","images/train1.png","","","learning","images/vehicles_choice2.png","images/vehicles_choice1.png","images/vehicles_choice3.png","[1,0,2]","0","1","2","images/vehicles_choice1.png","1","vehicles","","train","1","0"
"html-keyboard-response","110","608822","0.0-9.0-2.0-0.12","1428","1","2","""event"",""trial"",""time""
""fullscreenenter"",""1"",""1726""
""blur"",""6"",""46042""
""focus"",""7"",""58096""
""fullscreenexit"",""78"",""430405""
""blur"",""78"",""432293""
""focus"",""78"",""434210""
""blur"",""78"",""434396""
""focus"",""78"",""435820""
","""event"",""trial"",""time""
""blur"",""6"",""46042""
""blur"",""78"",""432293""
""blur"",""78"",""434396""
","""event"",""trial"",""time""
""focus"",""7"",""58096""
""focus"",""78"",""434210""
""focus"",""78"",""435820""
","""event"",""trial"",""time""
""fullscreenenter"",""1"",""1726""
","""event"",""trial"",""time""
""fullscreenexit"",""78"",""430405""
","","","","","","null","<div style=""font-size:60px;"">+</div>","null","","fixation","","","","","","","","","","","","","",""
"learning-trial","111","612827","0.0-9.0-2.0-1.12","1428","1","2","""event"",""trial"",""time""
""fullscreenenter"",""1"",""1726""
""blur"",""6"",""46042""
""focus"",""7"",""58096""
""fullscreenexit"",""78"",""430405""
""blur"",""78"",""432293""
""focus"",""78"",""434210""
""blur"",""78"",""434396""
""focus"",""78"",""435820""
","""event"",""trial"",""time""
""blur"",""6"",""46042""
""blur"",""78"",""432293""
""blur"",""78"",""434396""
","""event"",""trial"",""time""
""focus"",""7"",""58096""
""focus"",""78"",""434210""
""focus"",""78"",""435820""
","""event"",""trial"",""time""
""fullscreenenter"",""1"",""1726""
","""event"",""trial"",""time""
""fullscreenexit"",""78"",""430405""
","","","","","","2218.5","images/boat5.png","","","learning","images/vehicles_choice3.png","images/vehicles_choice2.png","images/vehicles_choice1.png","[2,1,0]","2","0","1","images/vehicles_choice3.png","1","vehicles","","boat","1","0"
"html-keyboard-response","112","613332","0.0-9.0-2.0-0.13","1428","1","2","""event"",""trial"",""time""
""fullscreenenter"",""1"",""1726""
""blur"",""6"",""46042""
""focus"",""7"",""58096""
""fullscreenexit"",""78"",""430405""
""blur"",""78"",""432293""
""focus"",""78"",""434210""
""blur"",""78"",""434396""
""focus"",""78"",""435820""
","""event"",""trial"",""time""
""blur"",""6"",""46042""
""blur"",""78"",""432293""
""blur"",""78"",""434396""
","""event"",""trial"",""time""
""focus"",""7"",""58096""
""focus"",""78"",""434210""
""focus"",""78"",""435820""
","""event"",""trial"",""time""
""fullscreenenter"",""1"",""1726""
","""event"",""trial"",""time""
""fullscreenexit"",""78"",""430405""
","","","","","","null","<div style=""font-size:60px;"">+</div>","null","","fixation","","","","","","","","","","","","","",""
"learning-trial","113","617338","0.0-9.0-2.0-1.13","1428","1","2","""event"",""trial"",""time""
""fullscreenenter"",""1"",""1726""
""blur"",""6"",""46042""
""focus"",""7"",""58096""
""fullscreenexit"",""78"",""430405""
""blur"",""78"",""432293""
""focus"",""78"",""434210""
""blur"",""78"",""434396""
""focus"",""78"",""435820""
","""event"",""trial"",""time""
""blur"",""6"",""46042""
""blur"",""78"",""432293""
""blur"",""78"",""434396""
","""event"",""trial"",""time""
""focus"",""7"",""58096""
""focus"",""78"",""434210""
""focus"",""78"",""435820""
","""event"",""trial"",""time""
""fullscreenenter"",""1"",""1726""
","""event"",""trial"",""time""
""fullscreenexit"",""78"",""430405""
","","","","","","1353.199999988079","images/truck5.png","","","learning","images/vehicles_choice2.png","images/vehicles_choice1.png","images/vehicles_choice3.png","[1,0,2]","1","0","1","images/vehicles_choice2.png","1","vehicles","","truck","1","0"
"html-keyboard-response","114","617847","0.0-9.0-2.0-0.14","1428","1","2","""event"",""trial"",""time""
""fullscreenenter"",""1"",""1726""
""blur"",""6"",""46042""
""focus"",""7"",""58096""
""fullscreenexit"",""78"",""430405""
""blur"",""78"",""432293""
""focus"",""78"",""434210""
""blur"",""78"",""434396""
""focus"",""78"",""435820""
","""event"",""trial"",""time""
""blur"",""6"",""46042""
""blur"",""78"",""432293""
""blur"",""78"",""434396""
","""event"",""trial"",""time""
""focus"",""7"",""58096""
""focus"",""78"",""434210""
""focus"",""78"",""435820""
","""event"",""trial"",""time""
""fullscreenenter"",""1"",""1726""
","""event"",""trial"",""time""
""fullscreenexit"",""78"",""430405""
","","","","","","null","<div style=""font-size:60px;"">+</div>","null","","fixation","","","","","","","","","","","","","",""
"learning-trial","115","621853","0.0-9.0-2.0-1.14","1428","1","2","""event"",""trial"",""time""
""fullscreenenter"",""1"",""1726""
""blur"",""6"",""46042""
""focus"",""7"",""58096""
""fullscreenexit"",""78"",""430405""
""blur"",""78"",""432293""
""focus"",""78"",""434210""
""blur"",""78"",""434396""
""focus"",""78"",""435820""
","""event"",""trial"",""time""
""blur"",""6"",""46042""
""blur"",""78"",""432293""
""blur"",""78"",""434396""
","""event"",""trial"",""time""
""focus"",""7"",""58096""
""focus"",""78"",""434210""
""focus"",""78"",""435820""
","""event"",""trial"",""time""
""fullscreenenter"",""1"",""1726""
","""event"",""trial"",""time""
""fullscreenexit"",""78"",""430405""
","","","","","","1005.7999999821186","images/boat5.png","","","learning","images/vehicles_choice1.png","images/vehicles_choice2.png","images/vehicles_choice3.png","[0,1,2]","2","2","3","images/vehicles_choice3.png","1","vehicles","","boat","1","0"
"html-keyboard-response","116","622355","0.0-9.0-2.0-0.15","1428","1","2","""event"",""trial"",""time""
""fullscreenenter"",""1"",""1726""
""blur"",""6"",""46042""
""focus"",""7"",""58096""
""fullscreenexit"",""78"",""430405""
""blur"",""78"",""432293""
""focus"",""78"",""434210""
""blur"",""78"",""434396""
""focus"",""78"",""435820""
","""event"",""trial"",""time""
""blur"",""6"",""46042""
""blur"",""78"",""432293""
""blur"",""78"",""434396""
","""event"",""trial"",""time""
""focus"",""7"",""58096""
""focus"",""78"",""434210""
""focus"",""78"",""435820""
","""event"",""trial"",""time""
""fullscreenenter"",""1"",""1726""
","""event"",""trial"",""time""
""fullscreenexit"",""78"",""430405""
","","","","","","null","<div style=""font-size:60px;"">+</div>","null","","fixation","","","","","","","","","","","","","",""
"learning-trial","117","626361","0.0-9.0-2.0-1.15","1428","1","2","""event"",""trial"",""time""
""fullscreenenter"",""1"",""1726""
""blur"",""6"",""46042""
""focus"",""7"",""58096""
""fullscreenexit"",""78"",""430405""
""blur"",""78"",""432293""
""focus"",""78"",""434210""
""blur"",""78"",""434396""
""focus"",""78"",""435820""
","""event"",""trial"",""time""
""blur"",""6"",""46042""
""blur"",""78"",""432293""
""blur"",""78"",""434396""
","""event"",""trial"",""time""
""focus"",""7"",""58096""
""focus"",""78"",""434210""
""focus"",""78"",""435820""
","""event"",""trial"",""time""
""fullscreenenter"",""1"",""1726""
","""event"",""trial"",""time""
""fullscreenexit"",""78"",""430405""
","","","","","","1354.4000000059605","images/truck5.png","","","learning","images/vehicles_choice3.png","images/vehicles_choice2.png","images/vehicles_choice1.png","[2,1,0]","1","1","2","images/vehicles_choice2.png","-1","vehicles","","truck","1","0"
"html-keyboard-response","118","626863","0.0-9.0-2.0-0.16","1428","1","2","""event"",""trial"",""time""
""fullscreenenter"",""1"",""1726""
""blur"",""6"",""46042""
""focus"",""7"",""58096""
""fullscreenexit"",""78"",""430405""
""blur"",""78"",""432293""
""focus"",""78"",""434210""
""blur"",""78"",""434396""
""focus"",""78"",""435820""
","""event"",""trial"",""time""
""blur"",""6"",""46042""
""blur"",""78"",""432293""
""blur"",""78"",""434396""
","""event"",""trial"",""time""
""focus"",""7"",""58096""
""focus"",""78"",""434210""
""focus"",""78"",""435820""
","""event"",""trial"",""time""
""fullscreenenter"",""1"",""1726""
","""event"",""trial"",""time""
""fullscreenexit"",""78"",""430405""
","","","","","","null","<div style=""font-size:60px;"">+</div>","null","","fixation","","","","","","","","","","","","","",""
"learning-trial","119","630867","0.0-9.0-2.0-1.16","1428","1","2","""event"",""trial"",""time""
""fullscreenenter"",""1"",""1726""
""blur"",""6"",""46042""
""focus"",""7"",""58096""
""fullscreenexit"",""78"",""430405""
""blur"",""78"",""432293""
""focus"",""78"",""434210""
""blur"",""78"",""434396""
""focus"",""78"",""435820""
","""event"",""trial"",""time""
""blur"",""6"",""46042""
""blur"",""78"",""432293""
""blur"",""78"",""434396""
","""event"",""trial"",""time""
""focus"",""7"",""58096""
""focus"",""78"",""434210""
""focus"",""78"",""435820""
","""event"",""trial"",""time""
""fullscreenenter"",""1"",""1726""
","""event"",""trial"",""time""
""fullscreenexit"",""78"",""430405""
","","","","","","1657.199999988079","images/train2.png","","","learning","images/vehicles_choice1.png","images/vehicles_choice3.png","images/vehicles_choice2.png","[0,2,1]","0","0","1","images/vehicles_choice1.png","1","vehicles","","train","1","0"
"html-keyboard-response","120","631370","0.0-9.0-2.0-0.17","1428","1","2","""event"",""trial"",""time""
""fullscreenenter"",""1"",""1726""
""blur"",""6"",""46042""
""focus"",""7"",""58096""
""fullscreenexit"",""78"",""430405""
""blur"",""78"",""432293""
""focus"",""78"",""434210""
""blur"",""78"",""434396""
""focus"",""78"",""435820""
","""event"",""trial"",""time""
""blur"",""6"",""46042""
""blur"",""78"",""432293""
""blur"",""78"",""434396""
","""event"",""trial"",""time""
""focus"",""7"",""58096""
""focus"",""78"",""434210""
""focus"",""78"",""435820""
","""event"",""trial"",""time""
""fullscreenenter"",""1"",""1726""
","""event"",""trial"",""time""
""fullscreenexit"",""78"",""430405""
","","","","","","null","<div style=""font-size:60px;"">+</div>","null","","fixation","","","","","","","","","","","","","",""
"learning-trial","121","635376","0.0-9.0-2.0-1.17","1428","1","2","""event"",""trial"",""time""
""fullscreenenter"",""1"",""1726""
""blur"",""6"",""46042""
""focus"",""7"",""58096""
""fullscreenexit"",""78"",""430405""
""blur"",""78"",""432293""
""focus"",""78"",""434210""
""blur"",""78"",""434396""
""focus"",""78"",""435820""
","""event"",""trial"",""time""
""blur"",""6"",""46042""
""blur"",""78"",""432293""
""blur"",""78"",""434396""
","""event"",""trial"",""time""
""focus"",""7"",""58096""
""focus"",""78"",""434210""
""focus"",""78"",""435820""
","""event"",""trial"",""time""
""fullscreenenter"",""1"",""1726""
","""event"",""trial"",""time""
""fullscreenexit"",""78"",""430405""
","","","","","","2164.7999999821186","images/boat5.png","","","learning","images/vehicles_choice1.png","images/vehicles_choice3.png","images/vehicles_choice2.png","[0,2,1]","2","1","2","images/vehicles_choice3.png","-1","vehicles","","boat","1","0"
"html-keyboard-response","122","635878","0.0-9.0-2.0-0.18","1428","1","2","""event"",""trial"",""time""
""fullscreenenter"",""1"",""1726""
""blur"",""6"",""46042""
""focus"",""7"",""58096""
""fullscreenexit"",""78"",""430405""
""blur"",""78"",""432293""
""focus"",""78"",""434210""
""blur"",""78"",""434396""
""focus"",""78"",""435820""
","""event"",""trial"",""time""
""blur"",""6"",""46042""
""blur"",""78"",""432293""
""blur"",""78"",""434396""
","""event"",""trial"",""time""
""focus"",""7"",""58096""
""focus"",""78"",""434210""
""focus"",""78"",""435820""
","""event"",""trial"",""time""
""fullscreenenter"",""1"",""1726""
","""event"",""trial"",""time""
""fullscreenexit"",""78"",""430405""
","","","","","","null","<div style=""font-size:60px;"">+</div>","null","","fixation","","","","","","","","","","","","","",""
"learning-trial","123","639884","0.0-9.0-2.0-1.18","1428","1","2","""event"",""trial"",""time""
""fullscreenenter"",""1"",""1726""
""blur"",""6"",""46042""
""focus"",""7"",""58096""
""fullscreenexit"",""78"",""430405""
""blur"",""78"",""432293""
""focus"",""78"",""434210""
""blur"",""78"",""434396""
""focus"",""78"",""435820""
","""event"",""trial"",""time""
""blur"",""6"",""46042""
""blur"",""78"",""432293""
""blur"",""78"",""434396""
","""event"",""trial"",""time""
""focus"",""7"",""58096""
""focus"",""78"",""434210""
""focus"",""78"",""435820""
","""event"",""trial"",""time""
""fullscreenenter"",""1"",""1726""
","""event"",""trial"",""time""
""fullscreenexit"",""78"",""430405""
","","","","","","2617.9000000059605","images/train2.png","","","learning","images/vehicles_choice2.png","images/vehicles_choice3.png","images/vehicles_choice1.png","[1,2,0]","0","2","3","images/vehicles_choice1.png","1","vehicles","","train","1","0"
"html-keyboard-response","124","640386","0.0-9.0-2.0-0.19","1428","1","2","""event"",""trial"",""time""
""fullscreenenter"",""1"",""1726""
""blur"",""6"",""46042""
""focus"",""7"",""58096""
""fullscreenexit"",""78"",""430405""
""blur"",""78"",""432293""
""focus"",""78"",""434210""
""blur"",""78"",""434396""
""focus"",""78"",""435820""
","""event"",""trial"",""time""
""blur"",""6"",""46042""
""blur"",""78"",""432293""
""blur"",""78"",""434396""
","""event"",""trial"",""time""
""focus"",""7"",""58096""
""focus"",""78"",""434210""
""focus"",""78"",""435820""
","""event"",""trial"",""time""
""fullscreenenter"",""1"",""1726""
","""event"",""trial"",""time""
""fullscreenexit"",""78"",""430405""
","","","","","","null","<div style=""font-size:60px;"">+</div>","null","","fixation","","","","","","","","","","","","","",""
"learning-trial","125","644392","0.0-9.0-2.0-1.19","1428","1","2","""event"",""trial"",""time""
""fullscreenenter"",""1"",""1726""
""blur"",""6"",""46042""
""focus"",""7"",""58096""
""fullscreenexit"",""78"",""430405""
""blur"",""78"",""432293""
""focus"",""78"",""434210""
""blur"",""78"",""434396""
""focus"",""78"",""435820""
","""event"",""trial"",""time""
""blur"",""6"",""46042""
""blur"",""78"",""432293""
""blur"",""78"",""434396""
","""event"",""trial"",""time""
""focus"",""7"",""58096""
""focus"",""78"",""434210""
""focus"",""78"",""435820""
","""event"",""trial"",""time""
""fullscreenenter"",""1"",""1726""
","""event"",""trial"",""time""
""fullscreenexit"",""78"",""430405""
","","","","","","900.0999999940395","images/truck5.png","","","learning","images/vehicles_choice3.png","images/vehicles_choice2.png","images/vehicles_choice1.png","[2,1,0]","1","1","2","images/vehicles_choice2.png","1","vehicles","","truck","1","0"
"html-keyboard-response","126","644894","0.0-9.0-2.0-0.20","1428","1","2","""event"",""trial"",""time""
""fullscreenenter"",""1"",""1726""
""blur"",""6"",""46042""
""focus"",""7"",""58096""
""fullscreenexit"",""78"",""430405""
""blur"",""78"",""432293""
""focus"",""78"",""434210""
""blur"",""78"",""434396""
""focus"",""78"",""435820""
","""event"",""trial"",""time""
""blur"",""6"",""46042""
""blur"",""78"",""432293""
""blur"",""78"",""434396""
","""event"",""trial"",""time""
""focus"",""7"",""58096""
""focus"",""78"",""434210""
""focus"",""78"",""435820""
","""event"",""trial"",""time""
""fullscreenenter"",""1"",""1726""
","""event"",""trial"",""time""
""fullscreenexit"",""78"",""430405""
","","","","","","null","<div style=""font-size:60px;"">+</div>","null","","fixation","","","","","","","","","","","","","",""
"learning-trial","127","648900","0.0-9.0-2.0-1.20","1428","1","2","""event"",""trial"",""time""
""fullscreenenter"",""1"",""1726""
""blur"",""6"",""46042""
""focus"",""7"",""58096""
""fullscreenexit"",""78"",""430405""
""blur"",""78"",""432293""
""focus"",""78"",""434210""
""blur"",""78"",""434396""
""focus"",""78"",""435820""
","""event"",""trial"",""time""
""blur"",""6"",""46042""
""blur"",""78"",""432293""
""blur"",""78"",""434396""
","""event"",""trial"",""time""
""focus"",""7"",""58096""
""focus"",""78"",""434210""
""focus"",""78"",""435820""
","""event"",""trial"",""time""
""fullscreenenter"",""1"",""1726""
","""event"",""trial"",""time""
""fullscreenexit"",""78"",""430405""
","","","","","","601.5","images/truck5.png","","","learning","images/vehicles_choice2.png","images/vehicles_choice1.png","images/vehicles_choice3.png","[1,0,2]","1","0","2","images/vehicles_choice1.png","-1","vehicles","","truck","1","0"
"html-keyboard-response","128","649402","0.0-9.0-2.0-0.21","1428","1","2","""event"",""trial"",""time""
""fullscreenenter"",""1"",""1726""
""blur"",""6"",""46042""
""focus"",""7"",""58096""
""fullscreenexit"",""78"",""430405""
""blur"",""78"",""432293""
""focus"",""78"",""434210""
""blur"",""78"",""434396""
""focus"",""78"",""435820""
","""event"",""trial"",""time""
""blur"",""6"",""46042""
""blur"",""78"",""432293""
""blur"",""78"",""434396""
","""event"",""trial"",""time""
""focus"",""7"",""58096""
""focus"",""78"",""434210""
""focus"",""78"",""435820""
","""event"",""trial"",""time""
""fullscreenenter"",""1"",""1726""
","""event"",""trial"",""time""
""fullscreenexit"",""78"",""430405""
","","","","","","null","<div style=""font-size:60px;"">+</div>","null","","fixation","","","","","","","","","","","","","",""
"learning-trial","129","653408","0.0-9.0-2.0-1.21","1428","1","2","""event"",""trial"",""time""
""fullscreenenter"",""1"",""1726""
""blur"",""6"",""46042""
""focus"",""7"",""58096""
""fullscreenexit"",""78"",""430405""
""blur"",""78"",""432293""
""focus"",""78"",""434210""
""blur"",""78"",""434396""
""focus"",""78"",""435820""
","""event"",""trial"",""time""
""blur"",""6"",""46042""
""blur"",""78"",""432293""
""blur"",""78"",""434396""
","""event"",""trial"",""time""
""focus"",""7"",""58096""
""focus"",""78"",""434210""
""focus"",""78"",""435820""
","""event"",""trial"",""time""
""fullscreenenter"",""1"",""1726""
","""event"",""trial"",""time""
""fullscreenexit"",""78"",""430405""
","","","","","","1910","images/boat5.png","","","learning","images/vehicles_choice1.png","images/vehicles_choice3.png","images/vehicles_choice2.png","[0,2,1]","2","1","2","images/vehicles_choice3.png","1","vehicles","","boat","1","0"
"html-keyboard-response","130","653911","0.0-9.0-2.0-0.22","1428","1","2","""event"",""trial"",""time""
""fullscreenenter"",""1"",""1726""
""blur"",""6"",""46042""
""focus"",""7"",""58096""
""fullscreenexit"",""78"",""430405""
""blur"",""78"",""432293""
""focus"",""78"",""434210""
""blur"",""78"",""434396""
""focus"",""78"",""435820""
","""event"",""trial"",""time""
""blur"",""6"",""46042""
""blur"",""78"",""432293""
""blur"",""78"",""434396""
","""event"",""trial"",""time""
""focus"",""7"",""58096""
""focus"",""78"",""434210""
""focus"",""78"",""435820""
","""event"",""trial"",""time""
""fullscreenenter"",""1"",""1726""
","""event"",""trial"",""time""
""fullscreenexit"",""78"",""430405""
","","","","","","null","<div style=""font-size:60px;"">+</div>","null","","fixation","","","","","","","","","","","","","",""
"learning-trial","131","657917","0.0-9.0-2.0-1.22","1428","1","2","""event"",""trial"",""time""
""fullscreenenter"",""1"",""1726""
""blur"",""6"",""46042""
""focus"",""7"",""58096""
""fullscreenexit"",""78"",""430405""
""blur"",""78"",""432293""
""focus"",""78"",""434210""
""blur"",""78"",""434396""
""focus"",""78"",""435820""
","""event"",""trial"",""time""
""blur"",""6"",""46042""
""blur"",""78"",""432293""
""blur"",""78"",""434396""
","""event"",""trial"",""time""
""focus"",""7"",""58096""
""focus"",""78"",""434210""
""focus"",""78"",""435820""
","""event"",""trial"",""time""
""fullscreenenter"",""1"",""1726""
","""event"",""trial"",""time""
""fullscreenexit"",""78"",""430405""
","","","","","","786.7999999821186","images/boat1.png","","","learning","images/vehicles_choice1.png","images/vehicles_choice3.png","images/vehicles_choice2.png","[0,2,1]","2","1","2","images/vehicles_choice3.png","1","vehicles","","boat","1","0"
"html-keyboard-response","132","658420","0.0-9.0-2.0-0.23","1428","1","2","""event"",""trial"",""time""
""fullscreenenter"",""1"",""1726""
""blur"",""6"",""46042""
""focus"",""7"",""58096""
""fullscreenexit"",""78"",""430405""
""blur"",""78"",""432293""
""focus"",""78"",""434210""
""blur"",""78"",""434396""
""focus"",""78"",""435820""
","""event"",""trial"",""time""
""blur"",""6"",""46042""
""blur"",""78"",""432293""
""blur"",""78"",""434396""
","""event"",""trial"",""time""
""focus"",""7"",""58096""
""focus"",""78"",""434210""
""focus"",""78"",""435820""
","""event"",""trial"",""time""
""fullscreenenter"",""1"",""1726""
","""event"",""trial"",""time""
""fullscreenexit"",""78"",""430405""
","","","","","","null","<div style=""font-size:60px;"">+</div>","null","","fixation","","","","","","","","","","","","","",""
"learning-trial","133","662425","0.0-9.0-2.0-1.23","1428","1","2","""event"",""trial"",""time""
""fullscreenenter"",""1"",""1726""
""blur"",""6"",""46042""
""focus"",""7"",""58096""
""fullscreenexit"",""78"",""430405""
""blur"",""78"",""432293""
""focus"",""78"",""434210""
""blur"",""78"",""434396""
""focus"",""78"",""435820""
","""event"",""trial"",""time""
""blur"",""6"",""46042""
""blur"",""78"",""432293""
""blur"",""78"",""434396""
","""event"",""trial"",""time""
""focus"",""7"",""58096""
""focus"",""78"",""434210""
""focus"",""78"",""435820""
","""event"",""trial"",""time""
""fullscreenenter"",""1"",""1726""
","""event"",""trial"",""time""
""fullscreenexit"",""78"",""430405""
","","","","","","999.1999999880791","images/truck1.png","","","learning","images/vehicles_choice1.png","images/vehicles_choice2.png","images/vehicles_choice3.png","[0,1,2]","1","1","2","images/vehicles_choice2.png","1","vehicles","","truck","1","0"
"html-keyboard-response","134","662928","0.0-9.0-2.0-0.24","1428","1","2","""event"",""trial"",""time""
""fullscreenenter"",""1"",""1726""
""blur"",""6"",""46042""
""focus"",""7"",""58096""
""fullscreenexit"",""78"",""430405""
""blur"",""78"",""432293""
""focus"",""78"",""434210""
""blur"",""78"",""434396""
""focus"",""78"",""435820""
","""event"",""trial"",""time""
""blur"",""6"",""46042""
""blur"",""78"",""432293""
""blur"",""78"",""434396""
","""event"",""trial"",""time""
""focus"",""7"",""58096""
""focus"",""78"",""434210""
""focus"",""78"",""435820""
","""event"",""trial"",""time""
""fullscreenenter"",""1"",""1726""
","""event"",""trial"",""time""
""fullscreenexit"",""78"",""430405""
","","","","","","null","<div style=""font-size:60px;"">+</div>","null","","fixation","","","","","","","","","","","","","",""
"learning-trial","135","666935","0.0-9.0-2.0-1.24","1428","1","2","""event"",""trial"",""time""
""fullscreenenter"",""1"",""1726""
""blur"",""6"",""46042""
""focus"",""7"",""58096""
""fullscreenexit"",""78"",""430405""
""blur"",""78"",""432293""
""focus"",""78"",""434210""
""blur"",""78"",""434396""
""focus"",""78"",""435820""
","""event"",""trial"",""time""
""blur"",""6"",""46042""
""blur"",""78"",""432293""
""blur"",""78"",""434396""
","""event"",""trial"",""time""
""focus"",""7"",""58096""
""focus"",""78"",""434210""
""focus"",""78"",""435820""
","""event"",""trial"",""time""
""fullscreenenter"",""1"",""1726""
","""event"",""trial"",""time""
""fullscreenexit"",""78"",""430405""
","","","","","","1430.2999999821186","images/boat1.png","","","learning","images/vehicles_choice2.png","images/vehicles_choice3.png","images/vehicles_choice1.png","[1,2,0]","2","1","2","images/vehicles_choice3.png","1","vehicles","","boat","1","0"
"html-keyboard-response","136","667438","0.0-9.0-2.0-0.25","1428","1","2","""event"",""trial"",""time""
""fullscreenenter"",""1"",""1726""
""blur"",""6"",""46042""
""focus"",""7"",""58096""
""fullscreenexit"",""78"",""430405""
""blur"",""78"",""432293""
""focus"",""78"",""434210""
""blur"",""78"",""434396""
""focus"",""78"",""435820""
","""event"",""trial"",""time""
""blur"",""6"",""46042""
""blur"",""78"",""432293""
""blur"",""78"",""434396""
