"trial_type","trial_index","time_elapsed","internal_node_id","subject_id","condition","task_version","interactions","blur_events","focus_events","fullscreenenter_events","fullscreenexit_events","success","timeout","failed_images","failed_audio","failed_video","rt","stimulus","response","button_pressed","task_part","left_choice","middle_choice","right_choice","choice_positions","correct_response","correct_position","key_press","option_selected","points","task_block","correct","stim_cat","block_condition","block_number"
"pavlovia","0","7","0.0-0.0","1988","1","2","""event"",""trial"",""time""
""fullscreenenter"",""1"",""3870""
","
","
","""event"",""trial"",""time""
""fullscreenenter"",""1"",""3870""
","
","","","","","","","","","","","","","","","","","","","","","","","",""
"fullscreen","1","4839","0.0-1.0","1988","1","2","""event"",""trial"",""time""
""fullscreenenter"",""1"",""3870""
","
","
","""event"",""trial"",""time""
""fullscreenenter"",""1"",""3870""
","
","true","","","","","","","","","","","","","","","","","","","","","","",""
"preload","2","18592","0.0-2.0","1988","1","2","""event"",""trial"",""time""
""fullscreenenter"",""1"",""3870""
","
","
","""event"",""trial"",""time""
""fullscreenenter"",""1"",""3870""
","
","true","false","[]","[]","[]","","","","","","","","","","","","","","","","","","",""
"audio-keyboard-response","3","21770","0.0-3.0","1988","1","2","""event"",""trial"",""time""
""fullscreenenter"",""1"",""3870""
","
","
","""event"",""trial"",""time""
""fullscreenenter"",""1"",""3870""
","
","","","","","","3167.999999999999","audio/beep_loop.wav"," ","","","","","","","","","","","","","","","",""
"audio-button-response","4","25044","0.0-4.0","1988","1","2","""event"",""trial"",""time""
""fullscreenenter"",""1"",""3870""
","
","
","""event"",""trial"",""time""
""fullscreenenter"",""1"",""3870""
","
","","","","","","3269","audio/shark.wav","4","","","","","","","","","","","","","","","",""
"audio-button-response","5","29261","0.0-5.0","1988","1","2","""event"",""trial"",""time""
""fullscreenenter"",""1"",""3870""
","
","
","""event"",""trial"",""time""
""fullscreenenter"",""1"",""3870""
","
","","","","","","3200","audio/turtle.wav","1","","","","","","","","","","","","","","","",""
"preload","6","61574","0.0-6.0","1988","1","2","""event"",""trial"",""time""
""fullscreenenter"",""1"",""3870""
","
","
","""event"",""trial"",""time""
""fullscreenenter"",""1"",""3870""
","
","true","false","[]","[]","[]","","","","","","","","","","","","","","","","","","",""
"html-keyboard-response","7","66379","0.0-7.0","1988","1","2","""event"",""trial"",""time""
""fullscreenenter"",""1"",""3870""
","
","
","""event"",""trial"",""time""
""fullscreenenter"",""1"",""3870""
","
","","","","","","4803.899999976158","Welcome to the experiment. Press any key to begin and to advance the instructions."," ","","","","","","","","","","","","","","","",""
"learning-instructions","8","81122","0.0-8.0-0.0-0.0","1988","1","2","""event"",""trial"",""time""
""fullscreenenter"",""1"",""3870""
","
","
","""event"",""trial"",""time""
""fullscreenenter"",""1"",""3870""
","
","","","","","","6530.400000095367","<p> Welcome! Today you are going to play 6 different rounds of a decision-making game. </p><p> Use the mouse to click next to continue. </p>","","0","instructions","","","","","","","","","","","","","",""
"learning-instructions","9","88194","0.0-8.0-0.0-0.1","1988","1","2","""event"",""trial"",""time""
""fullscreenenter"",""1"",""3870""
","
","
","""event"",""trial"",""time""
""fullscreenenter"",""1"",""3870""
","
","","","","","","4062.100000023842","<p> You will start with a practice round to learn the rules. </p>","","0","instructions","","","","","","","","","","","","","",""
"learning-instructions","10","96873","0.0-8.0-0.0-0.2","1988","1","2","""event"",""trial"",""time""
""fullscreenenter"",""1"",""3870""
","
","
","""event"",""trial"",""time""
""fullscreenenter"",""1"",""3870""
","
","","","","","","930.9000000953674","<p> Your goal in this round is to deliver sports equipment to three different parks. </p><p> You will need to deliver many types of equipment. </p></div>","","0","instructions","","","","","","","","","","","","","",""
"learning-instructions","11","106129","0.0-8.0-0.0-0.3","1988","1","2","""event"",""trial"",""time""
""fullscreenenter"",""1"",""3870""
","
","
","""event"",""trial"",""time""
""fullscreenenter"",""1"",""3870""
","
","","","","","","776.8999999761581","<p> On each turn, you will see one piece of sports equipment and three different parks.  </p><p> You need to select which park to deliver the equipment to.  </p>","","0","instructions","","","","","","","","","","","","","",""
"learning-instructions","12","130493","0.0-8.0-0.0-0.4","1988","1","2","""event"",""trial"",""time""
""fullscreenenter"",""1"",""3870""
","
","
","""event"",""trial"",""time""
""fullscreenenter"",""1"",""3870""
","
","","","","","","11081.599999904633","<p> You can select the park on the left by pressing the '1' key on your keyboard. <br>You can select the park in the middle by pressing the '2' key on your keyboard. <br>You can select the park on the right by pressing the '3' key on your keyboard.  </p><br><div class=""choice-instructions-grid""> <div class=""choice-option""><img src=""images/park1.png"" class=""choice-option-img"" stage=""instructions"" position=""0"" ><div class=""choice-option-text""> Press ""1."" </div></div><div class=""choice-option""><img src=""images/park2.png"" class=""choice-option-img"" stage=""instructions"" position=""1"" ><div class=""choice-option-text""> Press ""2."" </div></div><div class=""choice-option""><img src=""images/park3.png"" class=""choice-option-img"" stage=""instructions"" position=""2"" ><div class=""choice-option-text""> Press ""3."" </div></div></div>","","0","instructions","","","","","","","","","","","","","",""
"learning-instructions","13","139721","0.0-8.0-0.0-0.5","1988","1","2","""event"",""trial"",""time""
""fullscreenenter"",""1"",""3870""
","
","
","""event"",""trial"",""time""
""fullscreenenter"",""1"",""3870""
","
","","","","","","3840.100000023842","<p> If the kids in the park you chose like the equipment, they will be very happy! </p><div style='float: center;'><img src='images/check.png' width = '200' height = '200'></img>","","0","instructions","","","","","","","","","","","","","",""
"learning-instructions","14","146740","0.0-8.0-0.0-0.6","1988","1","2","""event"",""trial"",""time""
""fullscreenenter"",""1"",""3870""
","
","
","""event"",""trial"",""time""
""fullscreenenter"",""1"",""3870""
","
","","","","","","1419","<p> But, if the kids in the park you chose do not like the equipment, they will be sad. </p><div style='float: center;'><img src='images/x.png' width = '200' height = '200'></img>","","0","instructions","","","","","","","","","","","","","",""
"learning-instructions","15","154334","0.0-8.0-0.0-0.7","1988","1","2","""event"",""trial"",""time""
""fullscreenenter"",""1"",""3870""
","
","
","""event"",""trial"",""time""
""fullscreenenter"",""1"",""3870""
","
","","","","","","1163.3000000715256","<p> Importantly, the kids in each park like some pieces of sports equipment more than others. </p>","","0","instructions","","","","","","","","","","","","","",""
"learning-instructions","16","161881","0.0-8.0-0.0-0.8","1988","1","2","""event"",""trial"",""time""
""fullscreenenter"",""1"",""3870""
","
","
","""event"",""trial"",""time""
""fullscreenenter"",""1"",""3870""
","
","","","","","","1480.1000000238419","<p> If you choose the best park for each piece of equipment, the kids there will usually be happy. </p>","","0","instructions","","","","","","","","","","","","","",""
"learning-instructions","17","170575","0.0-8.0-0.0-0.9","1988","1","2","""event"",""trial"",""time""
""fullscreenenter"",""1"",""3870""
","
","
","""event"",""trial"",""time""
""fullscreenenter"",""1"",""3870""
","
","","","","","","2053.5","<p> However, even if you choose the best park for the equipment, the kids may sometimes be sad. </p>","","0","instructions","","","","","","","","","","","","","",""
"learning-instructions","18","183006","0.0-8.0-0.0-0.10","1988","1","2","""event"",""trial"",""time""
""fullscreenenter"",""1"",""3870""
","
","
","""event"",""trial"",""time""
""fullscreenenter"",""1"",""3870""
","
","","","","","","5194.200000047684","<p> Similarly, even if you choose the <i>wrong</i> park for the equipment, the kids may still be happy sometimes.","","0","instructions","","","","","","","","","","","","","",""
"learning-instructions","19","190910","0.0-8.0-0.0-0.11","1988","1","2","""event"",""trial"",""time""
""fullscreenenter"",""1"",""3870""
","
","
","""event"",""trial"",""time""
""fullscreenenter"",""1"",""3870""
","
","","","","","","2848.100000023842","<p> For example, the best park for this soccer ball is this one.<div style='float: center;'><img src='images/i1.png' width = '500' height = '268'></img>","","0","instructions","","","","","","","","","","","","","",""
"learning-instructions","20","199429","0.0-8.0-0.0-0.12","1988","1","2","""event"",""trial"",""time""
""fullscreenenter"",""1"",""3870""
","
","
","""event"",""trial"",""time""
""fullscreenenter"",""1"",""3870""
","
","","","","","","3227.899999976158","<p> Let's see what happens if you choose this park for the soccer ball five times.","","0","instructions","","","","","","","","","","","","","",""
"learning-instructions","21","202394","0.0-8.0-0.0-0.13","1988","1","2","""event"",""trial"",""time""
""fullscreenenter"",""1"",""3870""
","
","
","""event"",""trial"",""time""
""fullscreenenter"",""1"",""3870""
","
","","","","","","801.7000000476837","<p> The kids are happy.<div style='float: left;'><img src='images/i2.png' width = '640' height = '360'></img>","","0","instructions","","","","","","","","","","","","","",""
"learning-instructions","22","206393","0.0-8.0-0.0-0.14","1988","1","2","""event"",""trial"",""time""
""fullscreenenter"",""1"",""3870""
","
","
","""event"",""trial"",""time""
""fullscreenenter"",""1"",""3870""
","
","","","","","","1810.6000000238419","<p> The kids are happy.<div style='float: left;'><img src='images/i3.png' width = '640' height = '360'></img>","","0","instructions","","","","","","","","","","","","","",""
"learning-instructions","23","209102","0.0-8.0-0.0-0.15","1988","1","2","""event"",""trial"",""time""
""fullscreenenter"",""1"",""3870""
","
","
","""event"",""trial"",""time""
""fullscreenenter"",""1"",""3870""
","
","","","","","","540.1000000238419","<p> The kids are happy.<div style='float: left;'><img src='images/i4.png' width = '640' height = '360'></img>","","0","instructions","","","","","","","","","","","","","",""
"learning-instructions","24","211777","0.0-8.0-0.0-0.16","1988","1","2","""event"",""trial"",""time""
""fullscreenenter"",""1"",""3870""
","
","
","""event"",""trial"",""time""
""fullscreenenter"",""1"",""3870""
","
","","","","","","455.39999997615814","<p> The kids are sad.<div style='float: left;'><img src='images/i5.png' width = '640' height = '360'></img>","","0","instructions","","","","","","","","","","","","","",""
"learning-instructions","25","214809","0.0-8.0-0.0-0.17","1988","1","2","""event"",""trial"",""time""
""fullscreenenter"",""1"",""3870""
","
","
","""event"",""trial"",""time""
""fullscreenenter"",""1"",""3870""
","
","","","","","","857.5","<p> The kids are happy.<div style='float: left;'><img src='images/i6.png' width = '640' height = '360'></img>","","0","instructions","","","","","","","","","","","","","",""
"learning-instructions","26","224439","0.0-8.0-0.0-0.18","1988","1","2","""event"",""trial"",""time""
""fullscreenenter"",""1"",""3870""
","
","
","""event"",""trial"",""time""
""fullscreenenter"",""1"",""3870""
","
","","","","","","2347.0999999046326","<p> As you can see, selecting that park for the soccer ball made the kids happy most of the time, but not all the time.","","0","instructions","","","","","","","","","","","","","",""
"learning-instructions","27","230853","0.0-8.0-0.0-0.19","1988","1","2","""event"",""trial"",""time""
""fullscreenenter"",""1"",""3870""
","
","
","""event"",""trial"",""time""
""fullscreenenter"",""1"",""3870""
","
","","","","","","411.2000000476837","<p> Now let's see what happens if you choose a DIFFERENT park for the soccer ball 5 times.","","0","instructions","","","","","","","","","","","","","",""
"learning-instructions","28","233512","0.0-8.0-0.0-0.20","1988","1","2","""event"",""trial"",""time""
""fullscreenenter"",""1"",""3870""
","
","
","""event"",""trial"",""time""
""fullscreenenter"",""1"",""3870""
","
","","","","","","439.5","<p> The kids are sad.<div style='float: left;'><img src='images/i7.png' width = '640' height = '360'></img>","","0","instructions","","","","","","","","","","","","","",""
"learning-instructions","29","236271","0.0-8.0-0.0-0.21","1988","1","2","""event"",""trial"",""time""
""fullscreenenter"",""1"",""3870""
","
","
","""event"",""trial"",""time""
""fullscreenenter"",""1"",""3870""
","
","","","","","","529.1000000238419","<p> The kids are sad.<div style='float: left;'><img src='images/i8.png' width = '640' height = '360'></img>","","0","instructions","","","","","","","","","","","","","",""
"learning-instructions","30","239161","0.0-8.0-0.0-0.22","1988","1","2","""event"",""trial"",""time""
""fullscreenenter"",""1"",""3870""
","
","
","""event"",""trial"",""time""
""fullscreenenter"",""1"",""3870""
","
","","","","","","699.2000000476837","<p> The kids are happy.<div style='float: left;'><img src='images/i9.png' width = '640' height = '360'></img>","","0","instructions","","","","","","","","","","","","","",""
"learning-instructions","31","242061","0.0-8.0-0.0-0.23","1988","1","2","""event"",""trial"",""time""
""fullscreenenter"",""1"",""3870""
","
","
","""event"",""trial"",""time""
""fullscreenenter"",""1"",""3870""
","
","","","","","","669.6000000238419","<p> The kids are sad.<div style='float: left;'><img src='images/i10.png' width = '640' height = '360'></img>","","0","instructions","","","","","","","","","","","","","",""
"learning-instructions","32","245074","0.0-8.0-0.0-0.24","1988","1","2","""event"",""trial"",""time""
""fullscreenenter"",""1"",""3870""
","
","
","""event"",""trial"",""time""
""fullscreenenter"",""1"",""3870""
","
","","","","","","803.2999999523163","<p> The kids are sad.<div style='float: left;'><img src='images/i11.png' width = '640' height = '360'></img>","","0","instructions","","","","","","","","","","","","","",""
"learning-instructions","33","253799","0.0-8.0-0.0-0.25","1988","1","2","""event"",""trial"",""time""
""fullscreenenter"",""1"",""3870""
","
","
","""event"",""trial"",""time""
""fullscreenenter"",""1"",""3870""
","
","","","","","","597.4000000953674","<p> As you can see, selecting the wrong park for the soccer ball made the kids sad most of the time, but not all the time.","","0","instructions","","","","","","","","","","","","","",""
"learning-instructions","34","264321","0.0-8.0-0.0-0.26","1988","1","2","""event"",""trial"",""time""
""fullscreenenter"",""1"",""3870""
","
","
","""event"",""trial"",""time""
""fullscreenenter"",""1"",""3870""
","
","","","","","","1389.8999999761581","<p> The different pieces of equipment belong in different parks. You need to try to learn which is the best park for each piece of equipment.","","0","instructions","","","","","","","","","","","","","",""
"learning-instructions","35","284070","0.0-8.0-0.0-0.27","1988","1","2","""event"",""trial"",""time""
""fullscreenenter"",""1"",""3870""
","
","
","""event"",""trial"",""time""
""fullscreenenter"",""1"",""3870""
","
","","","","","","3359.5","<p> Try to choose the best park for each piece of equipment, because you will <b> WIN </b> 1 point for each time you make the kids happy and <b>LOSE</b> 1 point for each time you make them sad. </p><p> Remember, if you make the best choice, you will win 1 point most of the time, but not all the time. </p>","","0","instructions","","","","","","","","","","","","","",""
"learning-instructions","36","291601","0.0-8.0-0.0-0.28","1988","1","2","""event"",""trial"",""time""
""fullscreenenter"",""1"",""3870""
","
","
","""event"",""trial"",""time""
""fullscreenenter"",""1"",""3870""
","
","","","","","","2049.7999999523163","<p> This is just a practice round, but in the real game, your bonus payment will depend on your total number of points.","","0","instructions","","","","","","","","","","","","","",""
"learning-instructions","37","308187","0.0-8.0-0.0-0.29","1988","1","2","""event"",""trial"",""time""
""fullscreenenter"",""1"",""3870""
","
","
","""event"",""trial"",""time""
""fullscreenenter"",""1"",""3870""
","
","","","","","","6256.399999976158","<p> The position where each park appears will change throughout the game. </p><p> The position where the park appears <i> does not </i> influence how likely the kids are to be happy or sad. </p>","","0","instructions","","","","","","","","","","","","","",""
"learning-instructions","38","321600","0.0-8.0-0.0-0.30","1988","1","2","""event"",""trial"",""time""
""fullscreenenter"",""1"",""3870""
","
","
","""event"",""trial"",""time""
""fullscreenenter"",""1"",""3870""
","
","","","","","","1628.6000000238419","<p> You will have 4 seconds to make each choice. Try to respond before time runs out! </p><p> You will lose 1 point each time you do not make a response. </p>","","0","instructions","","","","","","","","","","","","","",""
"learning-instructions","39","332417","0.0-8.0-0.0-0.31","1988","1","2","""event"",""trial"",""time""
""fullscreenenter"",""1"",""3870""
","
","
","""event"",""trial"",""time""
""fullscreenenter"",""1"",""3870""
","
","","","","","","4014.8000000715256","<p> Remember, you should use the 1, 2, and 3 keys to select the park for each piece of equipment. </p><br><div class=""choice-instructions-grid""> <div class=""choice-option""><img src=""images/park1.png"" class=""choice-option-img"" stage=""instructions"" position=""0"" ><div class=""choice-option-text""> Press ""1."" </div></div><div class=""choice-option""><img src=""images/park2.png"" class=""choice-option-img"" stage=""instructions"" position=""1"" ><div class=""choice-option-text""> Press ""2."" </div></div><div class=""choice-option""><img src=""images/park3.png"" class=""choice-option-img"" stage=""instructions"" position=""2"" ><div class=""choice-option-text""> Press ""3."" </div></div></div>","","0","instructions","","","","","","","","","","","","","",""
"html-button-response","40","334461","0.0-8.0-1.0","1988","1","2","""event"",""trial"",""time""
""fullscreenenter"",""1"",""3870""
","
","
","""event"",""trial"",""time""
""fullscreenenter"",""1"",""3870""
","
","","","","","","1919.6000000238419","<p> Ready to practice? </p>","0","","","","","","","","","","","","","","","",""
"html-keyboard-response","41","335074","0.0-8.0-2.0-0.0","1988","1","2","""event"",""trial"",""time""
""fullscreenenter"",""1"",""3870""
","
","
","""event"",""trial"",""time""
""fullscreenenter"",""1"",""3870""
","
","","","","","","null","<div style=""font-size:60px;"">+</div>","null","","fixation","","","","","","","","","","","","","",""
"learning-trial","42","339080","0.0-8.0-2.0-1.0","1988","1","2","""event"",""trial"",""time""
""fullscreenenter"",""1"",""3870""
","
","
","""event"",""trial"",""time""
""fullscreenenter"",""1"",""3870""
","
","","","","","","14.300000071525574","images/racket1.png","","","practice","images/park3.png","images/park2.png","images/park1.png","[2,1,0]","0","2","3","images/park1.png","1","practice","","","",""
"html-keyboard-response","43","339589","0.0-8.0-2.0-0.1","1988","1","2","""event"",""trial"",""time""
""fullscreenenter"",""1"",""3870""
","
","
","""event"",""trial"",""time""
""fullscreenenter"",""1"",""3870""
","
","","","","","","null","<div style=""font-size:60px;"">+</div>","null","","fixation","","","","","","","","","","","","","",""
"learning-trial","44","343597","0.0-8.0-2.0-1.1","1988","1","2","""event"",""trial"",""time""
""fullscreenenter"",""1"",""3870""
","
","
","""event"",""trial"",""time""
""fullscreenenter"",""1"",""3870""
","
","","","","","","854.8999999761581","images/racket3.png","","","practice","images/park3.png","images/park2.png","images/park1.png","[2,1,0]","2","0","1","images/park3.png","1","practice","","","",""
"html-keyboard-response","45","344104","0.0-8.0-2.0-0.2","1988","1","2","""event"",""trial"",""time""
""fullscreenenter"",""1"",""3870""
","
","
","""event"",""trial"",""time""
""fullscreenenter"",""1"",""3870""
","
","","","","","","null","<div style=""font-size:60px;"">+</div>","null","","fixation","","","","","","","","","","","","","",""
"learning-trial","46","348120","0.0-8.0-2.0-1.2","1988","1","2","""event"",""trial"",""time""
""fullscreenenter"",""1"",""3870""
","
","
","""event"",""trial"",""time""
""fullscreenenter"",""1"",""3870""
","
","","","","","","469.7999999523163","images/ball2.png","","","practice","images/park1.png","images/park2.png","images/park3.png","[0,1,2]","0","0","1","images/park1.png","1","practice","","","",""
"html-keyboard-response","47","348627","0.0-8.0-2.0-0.3","1988","1","2","""event"",""trial"",""time""
""fullscreenenter"",""1"",""3870""
","
","
","""event"",""trial"",""time""
""fullscreenenter"",""1"",""3870""
","
","","","","","","null","<div style=""font-size:60px;"">+</div>","null","","fixation","","","","","","","","","","","","","",""
"learning-trial","48","352634","0.0-8.0-2.0-1.3","1988","1","2","""event"",""trial"",""time""
""fullscreenenter"",""1"",""3870""
","
","
","""event"",""trial"",""time""
""fullscreenenter"",""1"",""3870""
","
","","","","","","981.7000000476837","images/racket2.png","","","practice","images/park2.png","images/park3.png","images/park1.png","[1,2,0]","2","1","3","images/park1.png","-1","practice","","","",""
"html-keyboard-response","49","353139","0.0-8.0-2.0-0.4","1988","1","2","""event"",""trial"",""time""
""fullscreenenter"",""1"",""3870""
","
","
","""event"",""trial"",""time""
""fullscreenenter"",""1"",""3870""
","
","","","","","","null","<div style=""font-size:60px;"">+</div>","null","","fixation","","","","","","","","","","","","","",""
"learning-trial","50","357159","0.0-8.0-2.0-1.4","1988","1","2","""event"",""trial"",""time""
""fullscreenenter"",""1"",""3870""
","
","
","""event"",""trial"",""time""
""fullscreenenter"",""1"",""3870""
","
","","","","","","866.6999999284744","images/racket4.png","","","practice","images/park3.png","images/park2.png","images/park1.png","[2,1,0]","1","1","3","images/park1.png","-1","practice","","","",""
"html-keyboard-response","51","357679","0.0-8.0-2.0-0.5","1988","1","2","""event"",""trial"",""time""
""fullscreenenter"",""1"",""3870""
","
","
","""event"",""trial"",""time""
""fullscreenenter"",""1"",""3870""
","
","","","","","","null","<div style=""font-size:60px;"">+</div>","null","","fixation","","","","","","","","","","","","","",""
"learning-trial","52","361683","0.0-8.0-2.0-1.5","1988","1","2","""event"",""trial"",""time""
""fullscreenenter"",""1"",""3870""
","
","
","""event"",""trial"",""time""
""fullscreenenter"",""1"",""3870""
","
","","","","","","562.5","images/ball2.png","","","practice","images/park1.png","images/park3.png","images/park2.png","[0,2,1]","0","0","1","images/park1.png","1","practice","","","",""
"html-keyboard-response","53","362194","0.0-8.0-2.0-0.6","1988","1","2","""event"",""trial"",""time""
""fullscreenenter"",""1"",""3870""
","
","
","""event"",""trial"",""time""
""fullscreenenter"",""1"",""3870""
","
","","","","","","null","<div style=""font-size:60px;"">+</div>","null","","fixation","","","","","","","","","","","","","",""
"learning-trial","54","366203","0.0-8.0-2.0-1.6","1988","1","2","""event"",""trial"",""time""
""fullscreenenter"",""1"",""3870""
","
","
","""event"",""trial"",""time""
""fullscreenenter"",""1"",""3870""
","
","","","","","","501.89999997615814","images/racket1.png","","","practice","images/park2.png","images/park3.png","images/park1.png","[1,2,0]","0","2","3","images/park1.png","1","practice","","","",""
"html-keyboard-response","55","366705","0.0-8.0-2.0-0.7","1988","1","2","""event"",""trial"",""time""
""fullscreenenter"",""1"",""3870""
","
","
","""event"",""trial"",""time""
""fullscreenenter"",""1"",""3870""
","
","","","","","","null","<div style=""font-size:60px;"">+</div>","null","","fixation","","","","","","","","","","","","","",""
"learning-trial","56","370713","0.0-8.0-2.0-1.7","1988","1","2","""event"",""trial"",""time""
""fullscreenenter"",""1"",""3870""
","
","
","""event"",""trial"",""time""
""fullscreenenter"",""1"",""3870""
","
","","","","","","1029.4000000953674","images/racket4.png","","","practice","images/park3.png","images/park2.png","images/park1.png","[2,1,0]","1","1","3","images/park1.png","-1","practice","","","",""
"html-keyboard-response","57","371219","0.0-8.0-2.0-0.8","1988","1","2","""event"",""trial"",""time""
""fullscreenenter"",""1"",""3870""
","
","
","""event"",""trial"",""time""
""fullscreenenter"",""1"",""3870""
","
","","","","","","null","<div style=""font-size:60px;"">+</div>","null","","fixation","","","","","","","","","","","","","",""
"learning-trial","58","375223","0.0-8.0-2.0-1.8","1988","1","2","""event"",""trial"",""time""
""fullscreenenter"",""1"",""3870""
","
","
","""event"",""trial"",""time""
""fullscreenenter"",""1"",""3870""
","
","","","","","","910.6000000238419","images/ball3.png","","","practice","images/park1.png","images/park3.png","images/park2.png","[0,2,1]","1","2","2","images/park3.png","-1","practice","","","",""
"html-keyboard-response","59","375739","0.0-8.0-2.0-0.9","1988","1","2","""event"",""trial"",""time""
""fullscreenenter"",""1"",""3870""
","
","
","""event"",""trial"",""time""
""fullscreenenter"",""1"",""3870""
","
","","","","","","null","<div style=""font-size:60px;"">+</div>","null","","fixation","","","","","","","","","","","","","",""
"learning-trial","60","379749","0.0-8.0-2.0-1.9","1988","1","2","""event"",""trial"",""time""
""fullscreenenter"",""1"",""3870""
","
","
","""event"",""trial"",""time""
""fullscreenenter"",""1"",""3870""
","
","","","","","","421.3000000715256","images/racket2.png","","","practice","images/park2.png","images/park3.png","images/park1.png","[1,2,0]","2","1","3","images/park1.png","-1","practice","","","",""
"html-keyboard-response","61","380260","0.0-8.0-2.0-0.10","1988","1","2","""event"",""trial"",""time""
""fullscreenenter"",""1"",""3870""
","
","
","""event"",""trial"",""time""
""fullscreenenter"",""1"",""3870""
","
","","","","","","null","<div style=""font-size:60px;"">+</div>","null","","fixation","","","","","","","","","","","","","",""
"learning-trial","62","384266","0.0-8.0-2.0-1.10","1988","1","2","""event"",""trial"",""time""
""fullscreenenter"",""1"",""3870""
","
","
","""event"",""trial"",""time""
""fullscreenenter"",""1"",""3870""
","
","","","","","","311.3000000715256","images/ball3.png","","","practice","images/park1.png","images/park3.png","images/park2.png","[0,2,1]","1","2","1","images/park1.png","1","practice","","","",""
"html-keyboard-response","63","384773","0.0-8.0-2.0-0.11","1988","1","2","""event"",""trial"",""time""
""fullscreenenter"",""1"",""3870""
","
","
","""event"",""trial"",""time""
""fullscreenenter"",""1"",""3870""
","
","","","","","","null","<div style=""font-size:60px;"">+</div>","null","","fixation","","","","","","","","","","","","","",""
"learning-trial","64","388785","0.0-8.0-2.0-1.11","1988","1","2","""event"",""trial"",""time""
""fullscreenenter"",""1"",""3870""
","
","
","""event"",""trial"",""time""
""fullscreenenter"",""1"",""3870""
","
","","","","","","417.10000002384186","images/racket3.png","","","practice","images/park1.png","images/park2.png","images/park3.png","[0,1,2]","2","2","2","images/park2.png","-1","practice","","","",""
"html-button-response","65","423180","0.0-8.0-3.0","1988","1","2","""event"",""trial"",""time""
""fullscreenenter"",""1"",""3870""
","
","
","""event"",""trial"",""time""
""fullscreenenter"",""1"",""3870""
","
","","","","","","34392.90000009537","<p> You earned 0 points in the practice round! </p>","0","","break","","","","","","","","","","","","","",""
"learning-instructions","66","433253","0.0-8.0-4.0-0.0","1988","1","2","""event"",""trial"",""time""
""fullscreenenter"",""1"",""3870""
","
","
","""event"",""trial"",""time""
""fullscreenenter"",""1"",""3870""
","
","","","","","","1738","<p> It's almost time to start the real game. </p><p> Before you start, we're going to ask you a few questions about how the game works. </p>","","0","instructions","","","","","","","","","","","","","",""
"preload","67","436528","0.0-8.0-5.0","1988","1","2","""event"",""trial"",""time""
""fullscreenenter"",""1"",""3870""
","
","
","""event"",""trial"",""time""
""fullscreenenter"",""1"",""3870""
","
","true","false","[]","[]","[]","","","","","","","","","","","","","","","","","","",""
"comp-q","68","447131","0.0-8.0-6.0-0.0","1988","1","2","""event"",""trial"",""time""
""fullscreenenter"",""1"",""3870""
","
","
","""event"",""trial"",""time""
""fullscreenenter"",""1"",""3870""
","
","","","","","","5155.100000023842","<p> <b> True or False? </b> </p><p> If you choose the best option, you will always earn 1 point. </p>","","1","comp_question","","","","","","","","","","","true","","",""
"comp-q","69","456656","0.0-8.0-6.0-1.0","1988","1","2","""event"",""trial"",""time""
""fullscreenenter"",""1"",""3870""
","
","
","""event"",""trial"",""time""
""fullscreenenter"",""1"",""3870""
","
","","","","","","3861.399999976158","<p><b> That's right! </b> Sometimes you will lose 1 point, even if you choose the best option. </p>","","0","comp_answer","","","","","","","","","","","","","",""
"comp-q","70","462106","0.0-8.0-6.0-0.1","1988","1","2","""event"",""trial"",""time""
""fullscreenenter"",""1"",""3870""
","
","
","""event"",""trial"",""time""
""fullscreenenter"",""1"",""3870""
","
","","","","","","800.2999999523163","<p> <b> True or False? </b> </p><p> You will have as much time as you want to make each choice. </p>","","1","comp_question","","","","","","","","","","","true","","",""
"comp-q","71","475222","0.0-8.0-6.0-1.1","1988","1","2","""event"",""trial"",""time""
""fullscreenenter"",""1"",""3870""
","
","
","""event"",""trial"",""time""
""fullscreenenter"",""1"",""3870""
","
","","","","","","8286.700000047684","<p> <b> That's right! </b> You will only have 4 seconds to make each choice. </p>","","0","comp_answer","","","","","","","","","","","","","",""
"comp-q","72","481955","0.0-8.0-6.0-0.2","1988","1","2","""event"",""trial"",""time""
""fullscreenenter"",""1"",""3870""
","
","
","""event"",""trial"",""time""
""fullscreenenter"",""1"",""3870""
","
","","","","","","570.1999999284744","<p> <b> True or False? </b> </p><p> You should use the '1', '2', and '3' keys to make your choices. </p>","","0","comp_question","","","","","","","","","","","true","","",""
"comp-q","73","491751","0.0-8.0-6.0-1.2","1988","1","2","""event"",""trial"",""time""
""fullscreenenter"",""1"",""3870""
","
","
","""event"",""trial"",""time""
""fullscreenenter"",""1"",""3870""
","
","","","","","","4946.5","<p> <b> That's right! </b> You should use the '1', '2', and '3' keys to make each choice. </p>","","0","comp_answer","","","","","","","","","","","","","",""
"learning-instructions","74","504154","0.0-8.0-7.0-0.0","1988","1","2","""event"",""trial"",""time""
""fullscreenenter"",""1"",""3870""
","
","
","""event"",""trial"",""time""
""fullscreenenter"",""1"",""3870""
","
","","","","","","3899.899999976158","<p> It's now time to start the real game. </p>Do your best, because the points you earn in the next rounds will influence your bonus payment. </p>","","0","instructions","","","","","","","","","","","","","",""
"preload","75","511498","0.0-9.0-0.0","1988","1","2","""event"",""trial"",""time""
""fullscreenenter"",""1"",""3870""
","
","
","""event"",""trial"",""time""
""fullscreenenter"",""1"",""3870""
","
","true","false","[]","[]","[]","","","","","","","","","","","","","","","","","","",""
"learning-instructions","76","521363","0.0-9.0-1.0-0.0","1988","1","2","""event"",""trial"",""time""
""fullscreenenter"",""1"",""3870""
","
","
","""event"",""trial"",""time""
""fullscreenenter"",""1"",""3870""
","
","","","","","","1539.2000000476837","<p> Your goal in this round is to travel the world by putting fuel into different vehicles. </p><p> To travel, you will need to put fuel into many different vehicles. </p></div>","","0","instructions","","","","","","","","","","","","","",""
"learning-instructions","77","531454","0.0-9.0-1.0-0.1","1988","1","2","""event"",""trial"",""time""
""fullscreenenter"",""1"",""3870""
","
","
","""event"",""trial"",""time""
""fullscreenenter"",""1"",""3870""
","
","","","","","","1289.5","<p> On each turn, you will see a picture of one of your vehicles and three different types of fuel.  </p><p> You need to select which kind of fuel to use.  </p>","","0","instructions","","","","","","","","","","","","","",""
"learning-instructions","78","539434","0.0-9.0-1.0-0.2","1988","1","2","""event"",""trial"",""time""
""fullscreenenter"",""1"",""3870""
","
","
","""event"",""trial"",""time""
""fullscreenenter"",""1"",""3870""
","
","","","","","","1098.6000000238419","<p> You can select the fuel on the left by pressing 1, the fuel in the middle by pressing 2, and the fuel on the right by pressing 3. </p><br><div class=""choice-instructions-grid""> <div class=""choice-option""><img src=""images/vehicles_choice1.png"" class=""choice-option-img"" stage=""instructions"" position=""0"" ><div class=""choice-option-text""> Press ""1."" </div></div><div class=""choice-option""><img src=""images/vehicles_choice2.png"" class=""choice-option-img"" stage=""instructions"" position=""1"" ><div class=""choice-option-text""> Press ""2."" </div></div><div class=""choice-option""><img src=""images/vehicles_choice3.png"" class=""choice-option-img"" stage=""instructions"" position=""2"" ><div class=""choice-option-text""> Press ""3."" </div></div></div>","","0","instructions","","","","","","","","","","","","","",""
"learning-instructions","79","545947","0.0-9.0-1.0-0.3","1988","1","2","""event"",""trial"",""time""
""fullscreenenter"",""1"",""3870""
","
","
","""event"",""trial"",""time""
""fullscreenenter"",""1"",""3870""
","
","","","","","","1272.1999999284744","<p> If the fuel you chose works for that vehicle, it will start, and </p><p> you will get to travel. </p><div style='float: center;'><img src='images/check.png' width = '200' height = '200'></img>","","0","instructions","","","","","","","","","","","","","",""
"learning-instructions","80","552594","0.0-9.0-1.0-0.4","1988","1","2","""event"",""trial"",""time""
""fullscreenenter"",""1"",""3870""
","
","
","""event"",""trial"",""time""
""fullscreenenter"",""1"",""3870""
","
","","","","","","2099.5","<p> But, if the fuel you chose does not work, your vehicle will not move. </p><div style='float: center;'><img src='images/x.png' width = '200' height = '200'></img>","","0","instructions","","","","","","","","","","","","","",""
"learning-instructions","81","563810","0.0-9.0-1.0-0.5","1988","1","2","""event"",""trial"",""time""
""fullscreenenter"",""1"",""3870""
","
","
","""event"",""trial"",""time""
""fullscreenenter"",""1"",""3870""
","
","","","","","","535.1999999284744","<p> Importantly, each vehicle has a fuel that works best for it. </p><p> If you choose the fuel that works best for the vehicle, it will be more likely to start. </p>","","0","instructions","","","","","","","","","","","","","",""
"learning-instructions","82","575350","0.0-9.0-1.0-0.6","1988","1","2","""event"",""trial"",""time""
""fullscreenenter"",""1"",""3870""
","
","
","""event"",""trial"",""time""
""fullscreenenter"",""1"",""3870""
","
","","","","","","1325.3999999761581","<p> However, even if you choose the best fuel for the vehicle, it may still not move. </p><p> Similarly, even if you choose the <i>wrong</i> fuel, the vehicle may still start and let you travel.","","0","instructions","","","","","","","","","","","","","",""
"learning-instructions","83","589245","0.0-9.0-1.0-0.7","1988","1","2","""event"",""trial"",""time""
""fullscreenenter"",""1"",""3870""
","
","
","""event"",""trial"",""time""
""fullscreenenter"",""1"",""3870""
","
","","","","","","1540.2999999523163","<p> Try to choose the best fuel for each vehicle, because you will <b> WIN </b> 1 point each time you get to travel and <b>LOSE</b> 1 point each time a vehicle does not start. </p><p> Your bonus payment will depend on your total number of points.","","0","instructions","","","","","","","","","","","","","",""
"learning-instructions","84","598463","0.0-9.0-1.0-0.8","1988","1","2","""event"",""trial"",""time""
""fullscreenenter"",""1"",""3870""
","
","
","""event"",""trial"",""time""
""fullscreenenter"",""1"",""3870""
","
","","","","","","958.2999999523163","<p> The position of each type of fuel will change throughout the round. </p><p> The fuel's position <i> does not </i> influence how likely it is to make each vehicle start. </p>","","0","instructions","","","","","","","","","","","","","",""
"learning-instructions","85","609243","0.0-9.0-1.0-0.9","1988","1","2","""event"",""trial"",""time""
""fullscreenenter"",""1"",""3870""
","
","
","""event"",""trial"",""time""
""fullscreenenter"",""1"",""3870""
","
","","","","","","1469.7999999523163","<p> You will have 4 seconds to make each choice. Try to respond before time runs out! </p><p> You will lose 1 point each time you do not make a response. </p>","","0","instructions","","","","","","","","","","","","","",""
"html-keyboard-response","86","609881","0.0-9.0-2.0-0.0","1988","1","2","""event"",""trial"",""time""
""fullscreenenter"",""1"",""3870""
","
","
","""event"",""trial"",""time""
""fullscreenenter"",""1"",""3870""
","
","","","","","","null","<div style=""font-size:60px;"">+</div>","null","","fixation","","","","","","","","","","","","","",""
"learning-trial","87","613902","0.0-9.0-2.0-1.0","1988","1","2","""event"",""trial"",""time""
""fullscreenenter"",""1"",""3870""
","
","
","""event"",""trial"",""time""
""fullscreenenter"",""1"",""3870""
","
","","","","","","1027.2999999523163","images/train3.png","","","learning","images/vehicles_choice1.png","images/vehicles_choice2.png","images/vehicles_choice3.png","[0,1,2]","0","0","3","images/vehicles_choice3.png","-1","vehicles","","train","1","0"
"html-keyboard-response","88","614421","0.0-9.0-2.0-0.1","1988","1","2","""event"",""trial"",""time""
""fullscreenenter"",""1"",""3870""
","
","
","""event"",""trial"",""time""
""fullscreenenter"",""1"",""3870""
","
","","","","","","null","<div style=""font-size:60px;"">+</div>","null","","fixation","","","","","","","","","","","","","",""
"learning-trial","89","618431","0.0-9.0-2.0-1.1","1988","1","2","""event"",""trial"",""time""
""fullscreenenter"",""1"",""3870""
","
","
","""event"",""trial"",""time""
""fullscreenenter"",""1"",""3870""
","
","","","","","","408.3000000715256","images/plane4.png","","","learning","images/vehicles_choice2.png","images/vehicles_choice1.png","images/vehicles_choice3.png","[1,0,2]","1","0","1","images/vehicles_choice2.png","1","vehicles","","plane","1","0"
"html-keyboard-response","90","618942","0.0-9.0-2.0-0.2","1988","1","2","""event"",""trial"",""time""
""fullscreenenter"",""1"",""3870""
","
","
","""event"",""trial"",""time""
""fullscreenenter"",""1"",""3870""
","
","","","","","","null","<div style=""font-size:60px;"">+</div>","null","","fixation","","","","","","","","","","","","","",""
"learning-trial","91","622961","0.0-9.0-2.0-1.2","1988","1","2","""event"",""trial"",""time""
""fullscreenenter"",""1"",""3870""
","
","
","""event"",""trial"",""time""
""fullscreenenter"",""1"",""3870""
","
","","","","","","1021.6000000238419","images/plane4.png","","","learning","images/vehicles_choice3.png","images/vehicles_choice1.png","images/vehicles_choice2.png","[2,0,1]","1","2","1","images/vehicles_choice3.png","1","vehicles","","plane","1","0"
"html-keyboard-response","92","623481","0.0-9.0-2.0-0.3","1988","1","2","""event"",""trial"",""time""
""fullscreenenter"",""1"",""3870""
","
","
","""event"",""trial"",""time""
""fullscreenenter"",""1"",""3870""
","
","","","","","","null","<div style=""font-size:60px;"">+</div>","null","","fixation","","","","","","","","","","","","","",""
"learning-trial","93","627501","0.0-9.0-2.0-1.3","1988","1","2","""event"",""trial"",""time""
""fullscreenenter"",""1"",""3870""
","
","
","""event"",""trial"",""time""
""fullscreenenter"",""1"",""3870""
","
","","","","","","1496.8999999761581","images/boat5.png","","","learning","images/vehicles_choice2.png","images/vehicles_choice1.png","images/vehicles_choice3.png","[1,0,2]","2","2","2","images/vehicles_choice1.png","-1","vehicles","","boat","1","0"
"html-keyboard-response","94","628011","0.0-9.0-2.0-0.4","1988","1","2","""event"",""trial"",""time""
""fullscreenenter"",""1"",""3870""
","
","
","""event"",""trial"",""time""
""fullscreenenter"",""1"",""3870""
","
","","","","","","null","<div style=""font-size:60px;"">+</div>","null","","fixation","","","","","","","","","","","","","",""
"learning-trial","95","632022","0.0-9.0-2.0-1.4","1988","1","2","""event"",""trial"",""time""
""fullscreenenter"",""1"",""3870""
","
","
","""event"",""trial"",""time""
""fullscreenenter"",""1"",""3870""
","
","","","","","","359.89999997615814","images/boat5.png","","","learning","images/vehicles_choice2.png","images/vehicles_choice3.png","images/vehicles_choice1.png","[1,2,0]","2","1","1","images/vehicles_choice2.png","1","vehicles","","boat","1","0"
"html-keyboard-response","96","632531","0.0-9.0-2.0-0.5","1988","1","2","""event"",""trial"",""time""
""fullscreenenter"",""1"",""3870""
","
","
","""event"",""trial"",""time""
""fullscreenenter"",""1"",""3870""
","
","","","","","","null","<div style=""font-size:60px;"">+</div>","null","","fixation","","","","","","","","","","","","","",""
"learning-trial","97","636541","0.0-9.0-2.0-1.5","1988","1","2","""event"",""trial"",""time""
""fullscreenenter"",""1"",""3870""
","
","
","""event"",""trial"",""time""
""fullscreenenter"",""1"",""3870""
","
","","","","","","456.7999999523163","images/plane4.png","","","learning","images/vehicles_choice1.png","images/vehicles_choice2.png","images/vehicles_choice3.png","[0,1,2]","1","1","2","images/vehicles_choice2.png","-1","vehicles","","plane","1","0"
"html-keyboard-response","98","637051","0.0-9.0-2.0-0.6","1988","1","2","""event"",""trial"",""time""
""fullscreenenter"",""1"",""3870""
","
","
","""event"",""trial"",""time""
""fullscreenenter"",""1"",""3870""
","
","","","","","","null","<div style=""font-size:60px;"">+</div>","null","","fixation","","","","","","","","","","","","","",""
"learning-trial","99","641062","0.0-9.0-2.0-1.6","1988","1","2","""event"",""trial"",""time""
""fullscreenenter"",""1"",""3870""
","
","
","""event"",""trial"",""time""
""fullscreenenter"",""1"",""3870""
","
","","","","","","711.1000000238419","images/plane4.png","","","learning","images/vehicles_choice3.png","images/vehicles_choice2.png","images/vehicles_choice1.png","[2,1,0]","1","1","3","images/vehicles_choice1.png","-1","vehicles","","plane","1","0"
"html-keyboard-response","100","641570","0.0-9.0-2.0-0.7","1988","1","2","""event"",""trial"",""time""
""fullscreenenter"",""1"",""3870""
","
","
","""event"",""trial"",""time""
""fullscreenenter"",""1"",""3870""
","
","","","","","","null","<div style=""font-size:60px;"">+</div>","null","","fixation","","","","","","","","","","","","","",""
"learning-trial","101","645578","0.0-9.0-2.0-1.7","1988","1","2","""event"",""trial"",""time""
""fullscreenenter"",""1"",""3870""
","
","
","""event"",""trial"",""time""
""fullscreenenter"",""1"",""3870""
","
","","","","","","831.6000000238419","images/plane1.png","","","learning","images/vehicles_choice3.png","images/vehicles_choice2.png","images/vehicles_choice1.png","[2,1,0]","1","1","2","images/vehicles_choice2.png","1","vehicles","","plane","1","0"
"html-keyboard-response","102","646081","0.0-9.0-2.0-0.8","1988","1","2","""event"",""trial"",""time""
""fullscreenenter"",""1"",""3870""
","
","
","""event"",""trial"",""time""
""fullscreenenter"",""1"",""3870""
","
","","","","","","null","<div style=""font-size:60px;"">+</div>","null","","fixation","","","","","","","","","","","","","",""
"learning-trial","103","650099","0.0-9.0-2.0-1.8","1988","1","2","""event"",""trial"",""time""
""fullscreenenter"",""1"",""3870""
","
","
","""event"",""trial"",""time""
""fullscreenenter"",""1"",""3870""
","
","","","","","","1315.8999999761581","images/boat5.png","","","learning","images/vehicles_choice2.png","images/vehicles_choice3.png","images/vehicles_choice1.png","[1,2,0]","2","1","1","images/vehicles_choice2.png","-1","vehicles","","boat","1","0"
"html-keyboard-response","104","650612","0.0-9.0-2.0-0.9","1988","1","2","""event"",""trial"",""time""
""fullscreenenter"",""1"",""3870""
","
","
","""event"",""trial"",""time""
""fullscreenenter"",""1"",""3870""
","
","","","","","","null","<div style=""font-size:60px;"">+</div>","null","","fixation","","","","","","","","","","","","","",""
"learning-trial","105","654615","0.0-9.0-2.0-1.9","1988","1","2","""event"",""trial"",""time""
""fullscreenenter"",""1"",""3870""
","
","
","""event"",""trial"",""time""
""fullscreenenter"",""1"",""3870""
","
","","","","","","1565.6000000238419","images/train1.png","","","learning","images/vehicles_choice2.png","images/vehicles_choice3.png","images/vehicles_choice1.png","[1,2,0]","0","2","3","images/vehicles_choice1.png","1","vehicles","","train","1","0"
"html-keyboard-response","106","655128","0.0-9.0-2.0-0.10","1988","1","2","""event"",""trial"",""time""
""fullscreenenter"",""1"",""3870""
","
","
","""event"",""trial"",""time""
""fullscreenenter"",""1"",""3870""
","
","","","","","","null","<div style=""font-size:60px;"">+</div>","null","","fixation","","","","","","","","","","","","","",""
"learning-trial","107","659145","0.0-9.0-2.0-1.10","1988","1","2","""event"",""trial"",""time""
""fullscreenenter"",""1"",""3870""
","
","
","""event"",""trial"",""time""
""fullscreenenter"",""1"",""3870""
","
","","","","","","988","images/train2.png","","","learning","images/vehicles_choice2.png","images/vehicles_choice3.png","images/vehicles_choice1.png","[1,2,0]","0","2","2","images/vehicles_choice3.png","-1","vehicles","","train","1","0"
"html-keyboard-response","108","659655","0.0-9.0-2.0-0.11","1988","1","2","""event"",""trial"",""time""
""fullscreenenter"",""1"",""3870""
","
","
","""event"",""trial"",""time""
""fullscreenenter"",""1"",""3870""
","
","","","","","","null","<div style=""font-size:60px;"">+</div>","null","","fixation","","","","","","","","","","","","","",""
"learning-trial","109","663662","0.0-9.0-2.0-1.11","1988","1","2","""event"",""trial"",""time""
""fullscreenenter"",""1"",""3870""
","
","
","""event"",""trial"",""time""
""fullscreenenter"",""1"",""3870""
","
","","","","","","1016.2999999523163","images/plane4.png","","","learning","images/vehicles_choice1.png","images/vehicles_choice3.png","images/vehicles_choice2.png","[0,2,1]","1","2","2","images/vehicles_choice3.png","-1","vehicles","","plane","1","0"
"html-keyboard-response","110","664169","0.0-9.0-2.0-0.12","1988","1","2","""event"",""trial"",""time""
""fullscreenenter"",""1"",""3870""
","
","
","""event"",""trial"",""time""
""fullscreenenter"",""1"",""3870""
","
","","","","","","null","<div style=""font-size:60px;"">+</div>","null","","fixation","","","","","","","","","","","","","",""
"learning-trial","111","668178","0.0-9.0-2.0-1.12","1988","1","2","""event"",""trial"",""time""
""fullscreenenter"",""1"",""3870""
","
","
","""event"",""trial"",""time""
""fullscreenenter"",""1"",""3870""
","
","","","","","","810.2000000476837","images/boat5.png","","","learning","images/vehicles_choice1.png","images/vehicles_choice2.png","images/vehicles_choice3.png","[0,1,2]","2","2","1","images/vehicles_choice1.png","-1","vehicles","","boat","1","0"
"html-keyboard-response","112","668685","0.0-9.0-2.0-0.13","1988","1","2","""event"",""trial"",""time""
""fullscreenenter"",""1"",""3870""
","
","
","""event"",""trial"",""time""
""fullscreenenter"",""1"",""3870""
","
","","","","","","null","<div style=""font-size:60px;"">+</div>","null","","fixation","","","","","","","","","","","","","",""
"learning-trial","113","672693","0.0-9.0-2.0-1.13","1988","1","2","""event"",""trial"",""time""
""fullscreenenter"",""1"",""3870""
","
","
","""event"",""trial"",""time""
""fullscreenenter"",""1"",""3870""
","
","","","","","","584.1000000238419","images/boat3.png","","","learning","images/vehicles_choice2.png","images/vehicles_choice3.png","images/vehicles_choice1.png","[1,2,0]","2","1","3","images/vehicles_choice1.png","-1","vehicles","","boat","1","0"
"html-keyboard-response","114","673197","0.0-9.0-2.0-0.14","1988","1","2","""event"",""trial"",""time""
""fullscreenenter"",""1"",""3870""
","
","
","""event"",""trial"",""time""
""fullscreenenter"",""1"",""3870""
","
","","","","","","null","<div style=""font-size:60px;"">+</div>","null","","fixation","","","","","","","","","","","","","",""
"learning-trial","115","677204","0.0-9.0-2.0-1.14","1988","1","2","""event"",""trial"",""time""
""fullscreenenter"",""1"",""3870""
","
","
","""event"",""trial"",""time""
""fullscreenenter"",""1"",""3870""
","
","","","","","","325.5","images/train1.png","","","learning","images/vehicles_choice3.png","images/vehicles_choice2.png","images/vehicles_choice1.png","[2,1,0]","0","2","2","images/vehicles_choice2.png","-1","vehicles","","train","1","0"
"html-keyboard-response","116","677710","0.0-9.0-2.0-0.15","1988","1","2","""event"",""trial"",""time""
""fullscreenenter"",""1"",""3870""
","
","
","""event"",""trial"",""time""
""fullscreenenter"",""1"",""3870""
","
","","","","","","null","<div style=""font-size:60px;"">+</div>","null","","fixation","","","","","","","","","","","","","",""
"learning-trial","117","681716","0.0-9.0-2.0-1.15","1988","1","2","""event"",""trial"",""time""
""fullscreenenter"",""1"",""3870""
","
","
","""event"",""trial"",""time""
""fullscreenenter"",""1"",""3870""
","
","","","","","","447.89999997615814","images/train3.png","","","learning","images/vehicles_choice3.png","images/vehicles_choice2.png","images/vehicles_choice1.png","[2,1,0]","0","2","1","images/vehicles_choice3.png","-1","vehicles","","train","1","0"
"html-keyboard-response","118","682224","0.0-9.0-2.0-0.16","1988","1","2","""event"",""trial"",""time""
""fullscreenenter"",""1"",""3870""
","
","
","""event"",""trial"",""time""
""fullscreenenter"",""1"",""3870""
","
","","","","","","null","<div style=""font-size:60px;"">+</div>","null","","fixation","","","","","","","","","","","","","",""
"learning-trial","119","686233","0.0-9.0-2.0-1.16","1988","1","2","""event"",""trial"",""time""
""fullscreenenter"",""1"",""3870""
","
","
","""event"",""trial"",""time""
""fullscreenenter"",""1"",""3870""
","
","","","","","","951.3999999761581","images/plane1.png","","","learning","images/vehicles_choice2.png","images/vehicles_choice3.png","images/vehicles_choice1.png","[1,2,0]","1","0","2","images/vehicles_choice3.png","-1","vehicles","","plane","1","0"
"html-keyboard-response","120","686738","0.0-9.0-2.0-0.17","1988","1","2","""event"",""trial"",""time""
""fullscreenenter"",""1"",""3870""
","
","
","""event"",""trial"",""time""
""fullscreenenter"",""1"",""3870""
","
","","","","","","null","<div style=""font-size:60px;"">+</div>","null","","fixation","","","","","","","","","","","","","",""
"learning-trial","121","690743","0.0-9.0-2.0-1.17","1988","1","2","""event"",""trial"",""time""
""fullscreenenter"",""1"",""3870""
","
","
","""event"",""trial"",""time""
""fullscreenenter"",""1"",""3870""
","
","","","","","","333.2000000476837","images/train1.png","","","learning","images/vehicles_choice2.png","images/vehicles_choice1.png","images/vehicles_choice3.png","[1,0,2]","0","1","3","images/vehicles_choice3.png","-1","vehicles","","train","1","0"
"html-keyboard-response","122","691250","0.0-9.0-2.0-0.18","1988","1","2","""event"",""trial"",""time""
""fullscreenenter"",""1"",""3870""
","
","
","""event"",""trial"",""time""
""fullscreenenter"",""1"",""3870""
","
","","","","","","null","<div style=""font-size:60px;"">+</div>","null","","fixation","","","","","","","","","","","","","",""
"learning-trial","123","695260","0.0-9.0-2.0-1.18","1988","1","2","""event"",""trial"",""time""
""fullscreenenter"",""1"",""3870""
","
","
","""event"",""trial"",""time""
""fullscreenenter"",""1"",""3870""
","
","","","","","","46","images/train3.png","","","learning","images/vehicles_choice1.png","images/vehicles_choice3.png","images/vehicles_choice2.png","[0,2,1]","0","0","2","images/vehicles_choice3.png","-1","vehicles","","train","1","0"
"html-keyboard-response","124","695764","0.0-9.0-2.0-0.19","1988","1","2","""event"",""trial"",""time""
""fullscreenenter"",""1"",""3870""
","
","
","""event"",""trial"",""time""
""fullscreenenter"",""1"",""3870""
","
","","","","","","null","<div style=""font-size:60px;"">+</div>","null","","fixation","","","","","","","","","","","","","",""
"learning-trial","125","699770","0.0-9.0-2.0-1.19","1988","1","2","""event"",""trial"",""time""
""fullscreenenter"",""1"",""3870""
","
","
","""event"",""trial"",""time""
""fullscreenenter"",""1"",""3870""
","
","","","","","","582.7000000476837","images/train3.png","","","learning","images/vehicles_choice2.png","images/vehicles_choice3.png","images/vehicles_choice1.png","[1,2,0]","0","2","2","images/vehicles_choice3.png","-1","vehicles","","train","1","0"
"html-keyboard-response","126","700272","0.0-9.0-2.0-0.20","1988","1","2","""event"",""trial"",""time""
""fullscreenenter"",""1"",""3870""
","
","
","""event"",""trial"",""time""
""fullscreenenter"",""1"",""3870""
","
","","","","","","null","<div style=""font-size:60px;"">+</div>","null","","fixation","","","","","","","","","","","","","",""
"learning-trial","127","704284","0.0-9.0-2.0-1.20","1988","1","2","""event"",""trial"",""time""
""fullscreenenter"",""1"",""3870""
","
","
","""event"",""trial"",""time""
""fullscreenenter"",""1"",""3870""
","
","","","","","","1284.3999999761581","images/boat5.png","","","learning","images/vehicles_choice3.png","images/vehicles_choice2.png","images/vehicles_choice1.png","[2,1,0]","2","0","2","images/vehicles_choice2.png","-1","vehicles","","boat","1","0"
"html-keyboard-response","128","704793","0.0-9.0-2.0-0.21","1988","1","2","""event"",""trial"",""time""
""fullscreenenter"",""1"",""3870""
","
","
","""event"",""trial"",""time""
""fullscreenenter"",""1"",""3870""
","
","","","","","","null","<div style=""font-size:60px;"">+</div>","null","","fixation","","","","","","","","","","","","","",""
"learning-trial","129","708804","0.0-9.0-2.0-1.21","1988","1","2","""event"",""trial"",""time""
""fullscreenenter"",""1"",""3870""
","
","
","""event"",""trial"",""time""
""fullscreenenter"",""1"",""3870""
","
","","","","","","350.5","images/boat3.png","","","learning","images/vehicles_choice2.png","images/vehicles_choice3.png","images/vehicles_choice1.png","[1,2,0]","2","1","3","images/vehicles_choice1.png","-1","vehicles","","boat","1","0"
"html-keyboard-response","130","709316","0.0-9.0-2.0-0.22","1988","1","2","""event"",""trial"",""time""
""fullscreenenter"",""1"",""3870""
","
","
","""event"",""trial"",""time""
""fullscreenenter"",""1"",""3870""
","
","","","","","","null","<div style=""font-size:60px;"">+</div>","null","","fixation","","","","","","","","","","","","","",""
"learning-trial","131","713327","0.0-9.0-2.0-1.22","1988","1","2","""event"",""trial"",""time""
""fullscreenenter"",""1"",""3870""
","
","
","""event"",""trial"",""time""
""fullscreenenter"",""1"",""3870""
","
","","","","","","614.3999999761581","images/train3.png","","","learning","images/vehicles_choice1.png","images/vehicles_choice2.png","images/vehicles_choice3.png","[0,1,2]","0","0","1","images/vehicles_choice1.png","1","vehicles","","train","1","0"
"html-keyboard-response","132","713830","0.0-9.0-2.0-0.23","1988","1","2","""event"",""trial"",""time""
""fullscreenenter"",""1"",""3870""
","
","
","""event"",""trial"",""time""
""fullscreenenter"",""1"",""3870""
","
","","","","","","null","<div style=""font-size:60px;"">+</div>","null","","fixation","","","","","","","","","","","","","",""
"learning-trial","133","717835","0.0-9.0-2.0-1.23","1988","1","2","""event"",""trial"",""time""
""fullscreenenter"",""1"",""3870""
","
","
","""event"",""trial"",""time""
""fullscreenenter"",""1"",""3870""
","
","","","","","","1415","images/boat3.png","","","learning","images/vehicles_choice2.png","images/vehicles_choice1.png","images/vehicles_choice3.png","[1,0,2]","2","2","3","images/vehicles_choice3.png","1","vehicles","","boat","1","0"
"html-keyboard-response","134","718337","0.0-9.0-2.0-0.24","1988","1","2","""event"",""trial"",""time""
""fullscreenenter"",""1"",""3870""
","
","
","""event"",""trial"",""time""
""fullscreenenter"",""1"",""3870""
","
","","","","","","null","<div style=""font-size:60px;"">+</div>","null","","fixation","","","","","","","","","","","","","",""
"learning-trial","135","722349","0.0-9.0-2.0-1.24","1988","1","2","""event"",""trial"",""time""
""fullscreenenter"",""1"",""3870""
","
","
","""event"",""trial"",""time""
""fullscreenenter"",""1"",""3870""
","
","","","","","","1015","images/boat1.png","","","learning","images/vehicles_choice2.png","images/vehicles_choice3.png","images/vehicles_choice1.png","[1,2,0]","2","1","1","images/vehicles_choice2.png","-1","vehicles","","boat","1","0"
"html-keyboard-response","136","722855","0.0-9.0-2.0-0.25","1988","1","2","""event"",""trial"",""time""
""fullscreenenter"",""1"",""3870""
","
","
","""event"",""trial"",""time""
""fullscreenenter"",""1"",""3870""
","
","","","","","","null","<div style=""font-size:60px;"">+</div>","null","","fixation","","","","","","","","","","","","","",""
"learning-trial","137","726860","0.0-9.0-2.0-1.25","1988","1","2","""event"",""trial"",""time""
""fullscreenenter"",""1"",""3870""
","
","
","""event"",""trial"",""time""
""fullscreenenter"",""1"",""3870""
","
","","","","","","511.5","images/plane1.png","","","learning","images/vehicles_choice1.png","images/vehicles_choice3.png","images/vehicles_choice2.png","[0,2,1]","1","2","2","images/vehicles_choice3.png","-1","vehicles","","plane","1","0"
"html-keyboard-response","138","727368","0.0-9.0-2.0-0.26","1988","1","2","""event"",""trial"",""time""
""fullscreenenter"",""1"",""3870""
","
","
","""event"",""trial"",""time""
""fullscreenenter"",""1"",""3870""
","
","","","","","","null","<div style=""font-size:60px;"">+</div>","null","","fixation","","","","","","","","","","","","","",""
"learning-trial","139","731374","0.0-9.0-2.0-1.26","1988","1","2","""event"",""trial"",""time""
""fullscreenenter"",""1"",""3870""
","
","
","""event"",""trial"",""time""
""fullscreenenter"",""1"",""3870""
","
","","","","","","522.8000000715256","images/train1.png","","","learning","images/vehicles_choice2.png","images/vehicles_choice3.png","images/vehicles_choice1.png","[1,2,0]","0","2","3","images/vehicles_choice1.png","-1","vehicles","","train","1","0"
"html-keyboard-response","140","731884","0.0-9.0-2.0-0.27","1988","1","2","""event"",""trial"",""time""
""fullscreenenter"",""1"",""3870""
","
","
","""event"",""trial"",""time""
""fullscreenenter"",""1"",""3870""
","
","","","","","","null","<div style=""font-size:60px;"">+</div>","null","","fixation","","","","","","","","","","","","","",""
"learning-trial","141","735891","0.0-9.0-2.0-1.27","1988","1","2","""event"",""trial"",""time""
""fullscreenenter"",""1"",""3870""
","
","
","""event"",""trial"",""time""
""fullscreenenter"",""1"",""3870""
","
","","","","","","1069.5999999046326","images/train3.png","","","learning","images/vehicles_choice1.png","images/vehicles_choice3.png","images/vehicles_choice2.png","[0,2,1]","0","0","2","images/vehicles_choice3.png","-1","vehicles","","train","1","0"
"html-keyboard-response","142","736397","0.0-9.0-2.0-0.28","1988","1","2","""event"",""trial"",""time""
""fullscreenenter"",""1"",""3870""
","
","
","""event"",""trial"",""time""
""fullscreenenter"",""1"",""3870""
","
","","","","","","null","<div style=""font-size:60px;"">+</div>","null","","fixation","","","","","","","","","","","","","",""
"learning-trial","143","740403","0.0-9.0-2.0-1.28","1988","1","2","""event"",""trial"",""time""
""fullscreenenter"",""1"",""3870""
","
","
","""event"",""trial"",""time""
""fullscreenenter"",""1"",""3870""
","
","","","","","","1900.7000000476837","images/plane1.png","","","learning","images/vehicles_choice3.png","images/vehicles_choice1.png","images/vehicles_choice2.png","[2,0,1]","1","2","1","images/vehicles_choice3.png","1","vehicles","","plane","1","0"
"html-keyboard-response","144","740919","0.0-9.0-2.0-0.29","1988","1","2","""event"",""trial"",""time""
""fullscreenenter"",""1"",""3870""
","
","
","""event"",""trial"",""time""
""fullscreenenter"",""1"",""3870""
","
","","","","","","null","<div style=""font-size:60px;"">+</div>","null","","fixation","","","","","","","","","","","","","",""
"learning-trial","145","744930","0.0-9.0-2.0-1.29","1988","1","2","""event"",""trial"",""time""
""fullscreenenter"",""1"",""3870""
","
","
","""event"",""trial"",""time""
""fullscreenenter"",""1"",""3870""
","
","","","","","","647.1000000238419","images/plane4.png","","","learning","images/vehicles_choice3.png","images/vehicles_choice1.png","images/vehicles_choice2.png","[2,0,1]","1","2","2","images/vehicles_choice1.png","-1","vehicles","","plane","1","0"
"html-keyboard-response","146","745437","0.0-9.0-2.0-0.30","1988","1","2","""event"",""trial"",""time""
""fullscreenenter"",""1"",""3870""
","
","
","""event"",""trial"",""time""
""fullscreenenter"",""1"",""3870""
","
","","","","","","null","<div style=""font-size:60px;"">+</div>","null","","fixation","","","","","","","","","","","","","",""
"learning-trial","147","749446","0.0-9.0-2.0-1.30","1988","1","2","""event"",""trial"",""time""
""fullscreenenter"",""1"",""3870""
","
","
","""event"",""trial"",""time""
""fullscreenenter"",""1"",""3870""
","
","","","","","","413.60000002384186","images/boat1.png","","","learning","images/vehicles_choice2.png","images/vehicles_choice3.png","images/vehicles_choice1.png","[1,2,0]","2","1","3","images/vehicles_choice1.png","-1","vehicles","","boat","1","0"
"html-keyboard-response","148","749951","0.0-9.0-2.0-0.31","1988","1","2","""event"",""trial"",""time""
""fullscreenenter"",""1"",""3870""
","
","
","""event"",""trial"",""time""
""fullscreenenter"",""1"",""3870""
","
","","","","","","null","<div style=""font-size:60px;"">+</div>","null","","fixation","","","","","","","","","","","","","",""
"learning-trial","149","753962","0.0-9.0-2.0-1.31","1988","1","2","""event"",""trial"",""time""
""fullscreenenter"",""1"",""3870""
","
","
","""event"",""trial"",""time""
""fullscreenenter"",""1"",""3870""
","
","","","","","","247.20000004768372","images/boat1.png","","","learning","images/vehicles_choice2.png","images/vehicles_choice1.png","images/vehicles_choice3.png","[1,0,2]","2","2","2","images/vehicles_choice1.png","-1","vehicles","","boat","1","0"
"html-keyboard-response","150","754468","0.0-9.0-2.0-0.32","1988","1","2","""event"",""trial"",""time""
""fullscreenenter"",""1"",""3870""
","
","
","""event"",""trial"",""time""
""fullscreenenter"",""1"",""3870""
","
","","","","","","null","<div style=""font-size:60px;"">+</div>","null","","fixation","","","","","","","","","","","","","",""
"learning-trial","151","758472","0.0-9.0-2.0-1.32","1988","1","2","""event"",""trial"",""time""
""fullscreenenter"",""1"",""3870""
","
","
","""event"",""trial"",""time""
""fullscreenenter"",""1"",""3870""
","
","","","","","","984.5999999046326","images/boat1.png","","","learning","images/vehicles_choice1.png","images/vehicles_choice2.png","images/vehicles_choice3.png","[0,1,2]","2","2","2","images/vehicles_choice2.png","-1","vehicles","","boat","1","0"
"html-keyboard-response","152","758973","0.0-9.0-2.0-0.33","1988","1","2","""event"",""trial"",""time""
""fullscreenenter"",""1"",""3870""
","
","
","""event"",""trial"",""time""
""fullscreenenter"",""1"",""3870""
","
","","","","","","null","<div style=""font-size:60px;"">+</div>","null","","fixation","","","","","","","","","","","","","",""
"learning-trial","153","762985","0.0-9.0-2.0-1.33","1988","1","2","""event"",""trial"",""time""
""fullscreenenter"",""1"",""3870""
","
","
","""event"",""trial"",""time""
""fullscreenenter"",""1"",""3870""
","
","","","","","","1007.3999999761581","images/plane3.png","","","learning","images/vehicles_choice3.png","images/vehicles_choice1.png","images/vehicles_choice2.png","[2,0,1]","1","2","3","images/vehicles_choice2.png","1","vehicles","","plane","1","0"
"html-keyboard-response","154","763489","0.0-9.0-2.0-0.34","1988","1","2","""event"",""trial"",""time""
""fullscreenenter"",""1"",""3870""
","
","
","""event"",""trial"",""time""
""fullscreenenter"",""1"",""3870""
","
","","","","","","null","<div style=""font-size:60px;"">+</div>","null","","fixation","","","","","","","","","","","","","",""
"learning-trial","155","767494","0.0-9.0-2.0-1.34","1988","1","2","""event"",""trial"",""time""
""fullscreenenter"",""1"",""3870""
","
","
","""event"",""trial"",""time""
""fullscreenenter"",""1"",""3870""
","
","","","","","","600.2000000476837","images/plane3.png","","","learning","images/vehicles_choice1.png","images/vehicles_choice2.png","images/vehicles_choice3.png","[0,1,2]","1","1","3","images/vehicles_choice3.png","-1","vehicles","","plane","1","0"
"html-keyboard-response","156","768001","0.0-9.0-2.0-0.35","1988","1","2","""event"",""trial"",""time""
""fullscreenenter"",""1"",""3870""
","
","
","""event"",""trial"",""time""
""fullscreenenter"",""1"",""3870""
","
","","","","","","null","<div style=""font-size:60px;"">+</div>","null","","fixation","","","","","","","","","","","","","",""
"learning-trial","157","772006","0.0-9.0-2.0-1.35","1988","1","2","""event"",""trial"",""time""
""fullscreenenter"",""1"",""3870""
","
","
","""event"",""trial"",""time""
""fullscreenenter"",""1"",""3870""
","
","","","","","","913.3999999761581","images/boat5.png","","","learning","images/vehicles_choice1.png","images/vehicles_choice3.png","images/vehicles_choice2.png","[0,2,1]","2","1","2","images/vehicles_choice3.png","1","vehicles","","boat","1","0"
"html-keyboard-response","158","772518","0.0-9.0-2.0-0.36","1988","1","2","""event"",""trial"",""time""
""fullscreenenter"",""1"",""3870""
","
","
","""event"",""trial"",""time""
""fullscreenenter"",""1"",""3870""
","
","","","","","","null","<div style=""font-size:60px;"">+</div>","null","","fixation","","","","","","","","","","","","","",""
"learning-trial","159","776526","0.0-9.0-2.0-1.36","1988","1","2","""event"",""trial"",""time""
""fullscreenenter"",""1"",""3870""
","
","
","""event"",""trial"",""time""
""fullscreenenter"",""1"",""3870""
","
","","","","","","929.0999999046326","images/train3.png","","","learning","images/vehicles_choice1.png","images/vehicles_choice2.png","images/vehicles_choice3.png","[0,1,2]","0","0","1","images/vehicles_choice1.png","1","vehicles","","train","1","0"
"html-keyboard-response","160","777035","0.0-9.0-2.0-0.37","1988","1","2","""event"",""trial"",""time""
""fullscreenenter"",""1"",""3870""
","
","
","""event"",""trial"",""time""
""fullscreenenter"",""1"",""3870""
","
","","","","","","null","<div style=""font-size:60px;"">+</div>","null","","fixation","","","","","","","","","","","","","",""
"learning-trial","161","781040","0.0-9.0-2.0-1.37","1988","1","2","""event"",""trial"",""time""
""fullscreenenter"",""1"",""3870""
","
","
","""event"",""trial"",""time""
""fullscreenenter"",""1"",""3870""
","
","","","","","","689.1999999284744","images/plane1.png","","","learning","images/vehicles_choice1.png","images/vehicles_choice3.png","images/vehicles_choice2.png","[0,2,1]","1","2","2","images/vehicles_choice3.png","-1","vehicles","","plane","1","0"
"html-keyboard-response","162","781554","0.0-9.0-2.0-0.38","1988","1","2","""event"",""trial"",""time""
""fullscreenenter"",""1"",""3870""
","
","
","""event"",""trial"",""time""
""fullscreenenter"",""1"",""3870""
","
","","","","","","null","<div style=""font-size:60px;"">+</div>","null","","fixation","","","","","","","","","","","","","",""
"learning-trial","163","785567","0.0-9.0-2.0-1.38","1988","1","2","""event"",""trial"",""time""
""fullscreenenter"",""1"",""3870""
","
","
","""event"",""trial"",""time""
""fullscreenenter"",""1"",""3870""
","
","","","","","","837.2000000476837","images/plane1.png","","","learning","images/vehicles_choice3.png","images/vehicles_choice2.png","images/vehicles_choice1.png","[2,1,0]","1","1","2","images/vehicles_choice2.png","1","vehicles","","plane","1","0"
"html-keyboard-response","164","786073","0.0-9.0-2.0-0.39","1988","1","2","""event"",""trial"",""time""
""fullscreenenter"",""1"",""3870""
","
","
","""event"",""trial"",""time""
""fullscreenenter"",""1"",""3870""
","
","","","","","","null","<div style=""font-size:60px;"">+</div>","null","","fixation","","","","","","","","","","","","","",""
"learning-trial","165","790083","0.0-9.0-2.0-1.39","1988","1","2","""event"",""trial"",""time""
""fullscreenenter"",""1"",""3870""
","
","
","""event"",""trial"",""time""
""fullscreenenter"",""1"",""3870""
","
","","","","","","1067.6000000238419","images/plane3.png","","","learning","images/vehicles_choice3.png","images/vehicles_choice1.png","images/vehicles_choice2.png","[2,0,1]","1","2","1","images/vehicles_choice3.png","-1","vehicles","","plane","1","0"
"html-keyboard-response","166","790590","0.0-9.0-2.0-0.40","1988","1","2","""event"",""trial"",""time""
""fullscreenenter"",""1"",""3870""
","
","
","""event"",""trial"",""time""
""fullscreenenter"",""1"",""3870""
","
","","","","","","null","<div style=""font-size:60px;"">+</div>","null","","fixation","","","","","","","","","","","","","",""
"learning-trial","167","794596","0.0-9.0-2.0-1.40","1988","1","2","""event"",""trial"",""time""
""fullscreenenter"",""1"",""3870""
","
","
","""event"",""trial"",""time""
""fullscreenenter"",""1"",""3870""
","
","","","","","","1207.5","images/plane3.png","","","learning","images/vehicles_choice3.png","images/vehicles_choice1.png","images/vehicles_choice2.png","[2,0,1]","1","2","3","images/vehicles_choice2.png","1","vehicles","","plane","1","0"
"html-keyboard-response","168","795109","0.0-9.0-2.0-0.41","1988","1","2","""event"",""trial"",""time""
""fullscreenenter"",""1"",""3870""
","
","
","""event"",""trial"",""time""
""fullscreenenter"",""1"",""3870""
","
","","","","","","null","<div style=""font-size:60px;"">+</div>","null","","fixation","","","","","","","","","","","","","",""
"learning-trial","169","799115","0.0-9.0-2.0-1.41","1988","1","2","""event"",""trial"",""time""
""fullscreenenter"",""1"",""3870""
","
","
","""event"",""trial"",""time""
""fullscreenenter"",""1"",""3870""
","
","","","","","","653.3999999761581","images/train1.png","","","learning","images/vehicles_choice3.png","images/vehicles_choice2.png","images/vehicles_choice1.png","[2,1,0]","0","2","2","images/vehicles_choice2.png","1","vehicles","","train","1","0"
"html-keyboard-response","170","799617","0.0-9.0-2.0-0.42","1988","1","2","""event"",""trial"",""time""
""fullscreenenter"",""1"",""3870""
","
","
","""event"",""trial"",""time""
""fullscreenenter"",""1"",""3870""
","
","","","","","","null","<div style=""font-size:60px;"">+</div>","null","","fixation","","","","","","","","","","","","","",""
"learning-trial","171","803624","0.0-9.0-2.0-1.42","1988","1","2","""event"",""trial"",""time""
""fullscreenenter"",""1"",""3870""
","
","
","""event"",""trial"",""time""
""fullscreenenter"",""1"",""3870""
","
","","","","","","977","images/train2.png","","","learning","images/vehicles_choice2.png","images/vehicles_choice3.png","images/vehicles_choice1.png","[1,2,0]","0","2","3","images/vehicles_choice1.png","1","vehicles","","train","1","0"
"html-keyboard-response","172","804134","0.0-9.0-2.0-0.43","1988","1","2","""event"",""trial"",""time""
""fullscreenenter"",""1"",""3870""
","
","
","""event"",""trial"",""time""
""fullscreenenter"",""1"",""3870""
","
","","","","","","null","<div style=""font-size:60px;"">+</div>","null","","fixation","","","","","","","","","","","","","",""
"learning-trial","173","808145","0.0-9.0-2.0-1.43","1988","1","2","""event"",""trial"",""time""
""fullscreenenter"",""1"",""3870""
","
","
","""event"",""trial"",""time""
""fullscreenenter"",""1"",""3870""
","
","","","","","","696.0999999046326","images/train2.png","","","learning","images/vehicles_choice1.png","images/vehicles_choice2.png","images/vehicles_choice3.png","[0,1,2]","0","0","3","images/vehicles_choice3.png","-1","vehicles","","train","1","0"
"html-keyboard-response","174","808647","0.0-9.0-2.0-0.44","1988","1","2","""event"",""trial"",""time""
""fullscreenenter"",""1"",""3870""
","
","
","""event"",""trial"",""time""
""fullscreenenter"",""1"",""3870""
","
","","","","","","null","<div style=""font-size:60px;"">+</div>","null","","fixation","","","","","","","","","","","","","",""
"learning-trial","175","812658","0.0-9.0-2.0-1.44","1988","1","2","""event"",""trial"",""time""
""fullscreenenter"",""1"",""3870""
","
","
","""event"",""trial"",""time""
""fullscreenenter"",""1"",""3870""
","
","","","","","","873.2000000476837","images/boat5.png","","","learning","images/vehicles_choice1.png","images/vehicles_choice3.png","images/vehicles_choice2.png","[0,2,1]","2","1","2","images/vehicles_choice3.png","-1","vehicles","","boat","1","0"
"html-keyboard-response","176","813160","0.0-9.0-2.0-0.45","1988","1","2","""event"",""trial"",""time""
""fullscreenenter"",""1"",""3870""
","
","
","""event"",""trial"",""time""
""fullscreenenter"",""1"",""3870""
","
","","","","","","null","<div style=""font-size:60px;"">+</div>","null","","fixation","","","","","","","","","","","","","",""
"learning-trial","177","817166","0.0-9.0-2.0-1.45","1988","1","2","""event"",""trial"",""time""
""fullscreenenter"",""1"",""3870""
","
","
","""event"",""trial"",""time""
""fullscreenenter"",""1"",""3870""
","
","","","","","","385","images/plane4.png","","","learning","images/vehicles_choice1.png","images/vehicles_choice3.png","images/vehicles_choice2.png","[0,2,1]","1","2","1","images/vehicles_choice1.png","-1","vehicles","","plane","1","0"
"html-keyboard-response","178","817673","0.0-9.0-2.0-0.46","1988","1","2","""event"",""trial"",""time""
""fullscreenenter"",""1"",""3870""
","
","
","""event"",""trial"",""time""
""fullscreenenter"",""1"",""3870""
","
","","","","","","null","<div style=""font-size:60px;"">+</div>","null","","fixation","","","","","","","","","","","","","",""
"learning-trial","179","821680","0.0-9.0-2.0-1.46","1988","1","2","""event"",""trial"",""time""
""fullscreenenter"",""1"",""3870""
","
","
","""event"",""trial"",""time""
""fullscreenenter"",""1"",""3870""
","
","","","","","","445.7000000476837","images/boat1.png","","","learning","images/vehicles_choice2.png","images/vehicles_choice3.png","images/vehicles_choice1.png","[1,2,0]","2","1","2","images/vehicles_choice3.png","1","vehicles","","boat","1","0"
"html-keyboard-response","180","822189","0.0-9.0-2.0-0.47","1988","1","2","""event"",""trial"",""time""
""fullscreenenter"",""1"",""3870""
","
","
","""event"",""trial"",""time""
""fullscreenenter"",""1"",""3870""
","
","","","","","","null","<div style=""font-size:60px;"">+</div>","null","","fixation","","","","","","","","","","","","","",""
"learning-trial","181","826200","0.0-9.0-2.0-1.47","1988","1","2","""event"",""trial"",""time""
""fullscreenenter"",""1"",""3870""
","
","
","""event"",""trial"",""time""
""fullscreenenter"",""1"",""3870""
","
","","","","","","1256.4000000953674","images/boat1.png","","","learning","images/vehicles_choice1.png","images/vehicles_choice2.png","images/vehicles_choice3.png","[0,1,2]","2","2","3","images/vehicles_choice3.png","1","vehicles","","boat","1","0"
"html-keyboard-response","182","826705","0.0-9.0-2.0-0.48","1988","1","2","""event"",""trial"",""time""
""fullscreenenter"",""1"",""3870""
","
","
","""event"",""trial"",""time""
""fullscreenenter"",""1"",""3870""
","
","","","","","","null","<div style=""font-size:60px;"">+</div>","null","","fixation","","","","","","","","","","","","","",""
"learning-trial","183","830713","0.0-9.0-2.0-1.48","1988","1","2","""event"",""trial"",""time""
""fullscreenenter"",""1"",""3870""
","
","
","""event"",""trial"",""time""
""fullscreenenter"",""1"",""3870""
","
","","","","","","533.8999999761581","images/plane3.png","","","learning","images/vehicles_choice2.png","images/vehicles_choice3.png","images/vehicles_choice1.png","[1,2,0]","1","0","1","images/vehicles_choice2.png","1","vehicles","","plane","1","0"
"html-keyboard-response","184","831224","0.0-9.0-2.0-0.49","1988","1","2","""event"",""trial"",""time""
""fullscreenenter"",""1"",""3870""
","
","
","""event"",""trial"",""time""
""fullscreenenter"",""1"",""3870""
","
","","","","","","null","<div style=""font-size:60px;"">+</div>","null","","fixation","","","","","","","","","","","","","",""
"learning-trial","185","835230","0.0-9.0-2.0-1.49","1988","1","2","""event"",""trial"",""time""
""fullscreenenter"",""1"",""3870""
","
","
","""event"",""trial"",""time""
""fullscreenenter"",""1"",""3870""
","
","","","","","","634.5","images/plane1.png","","","learning","images/vehicles_choice2.png","images/vehicles_choice1.png","images/vehicles_choice3.png","[1,0,2]","1","0","2","images/vehicles_choice1.png","-1","vehicles","","plane","1","0"
"html-keyboard-response","186","835734","0.0-9.0-2.0-0.50","1988","1","2","""event"",""trial"",""time""
""fullscreenenter"",""1"",""3870""
","
","
","""event"",""trial"",""time""
""fullscreenenter"",""1"",""3870""
","
","","","","","","null","<div style=""font-size:60px;"">+</div>","null","","fixation","","","","","","","","","","","","","",""
"learning-trial","187","839740","0.0-9.0-2.0-1.50","1988","1","2","""event"",""trial"",""time""
""fullscreenenter"",""1"",""3870""
","
","
","""event"",""trial"",""time""
""fullscreenenter"",""1"",""3870""
","
","","","","","","1146.2000000476837","images/boat3.png","","","learning","images/vehicles_choice2.png","images/vehicles_choice3.png","images/vehicles_choice1.png","[1,2,0]","2","1","3","images/vehicles_choice1.png","-1","vehicles","","boat","1","0"
"html-keyboard-response","188","840245","0.0-9.0-2.0-0.51","1988","1","2","""event"",""trial"",""time""
""fullscreenenter"",""1"",""3870""
","
","
","""event"",""trial"",""time""
""fullscreenenter"",""1"",""3870""
","
","","","","","","null","<div style=""font-size:60px;"">+</div>","null","","fixation","","","","","","","","","","","","","",""
"learning-trial","189","844250","0.0-9.0-2.0-1.51","1988","1","2","""event"",""trial"",""time""
""fullscreenenter"",""1"",""3870""
","
","
","""event"",""trial"",""time""
""fullscreenenter"",""1"",""3870""
","
","","","","","","1343.5999999046326","images/plane4.png","","","learning","images/vehicles_choice2.png","images/vehicles_choice1.png","images/vehicles_choice3.png","[1,0,2]","1","0","1","images/vehicles_choice2.png","1","vehicles","","plane","1","0"
"html-keyboard-response","190","844757","0.0-9.0-2.0-0.52","1988","1","2","""event"",""trial"",""time""
""fullscreenenter"",""1"",""3870""
","
","
","""event"",""trial"",""time""
""fullscreenenter"",""1"",""3870""
","
","","","","","","null","<div style=""font-size:60px;"">+</div>","null","","fixation","","","","","","","","","","","","","",""
"learning-trial","191","848775","0.0-9.0-2.0-1.52","1988","1","2","""event"",""trial"",""time""
""fullscreenenter"",""1"",""3870""
","
","
","""event"",""trial"",""time""
""fullscreenenter"",""1"",""3870""
","
","","","","","","1544.8999999761581","images/boat5.png","","","learning","images/vehicles_choice3.png","images/vehicles_choice2.png","images/vehicles_choice1.png","[2,1,0]","2","0","3","images/vehicles_choice1.png","-1","vehicles","","boat","1","0"
"html-keyboard-response","192","849291","0.0-9.0-2.0-0.53","1988","1","2","""event"",""trial"",""time""
""fullscreenenter"",""1"",""3870""
","
","
","""event"",""trial"",""time""
""fullscreenenter"",""1"",""3870""
","
","","","","","","null","<div style=""font-size:60px;"">+</div>","null","","fixation","","","","","","","","","","","","","",""
"learning-trial","193","853300","0.0-9.0-2.0-1.53","1988","1","2","""event"",""trial"",""time""
""fullscreenenter"",""1"",""3870""
","
","
","""event"",""trial"",""time""
""fullscreenenter"",""1"",""3870""
","
","","","","","","377.39999997615814","images/boat3.png","","","learning","images/vehicles_choice2.png","images/vehicles_choice1.png","images/vehicles_choice3.png","[1,0,2]","2","2","2","images/vehicles_choice1.png","-1","vehicles","","boat","1","0"
"html-keyboard-response","194","853806","0.0-9.0-2.0-0.54","1988","1","2","""event"",""trial"",""time""
""fullscreenenter"",""1"",""3870""
","
","
","""event"",""trial"",""time""
""fullscreenenter"",""1"",""3870""
","
","","","","","","null","<div style=""font-size:60px;"">+</div>","null","","fixation","","","","","","","","","","","","","",""
"learning-trial","195","857814","0.0-9.0-2.0-1.54","1988","1","2","""event"",""trial"",""time""
""fullscreenenter"",""1"",""3870""
","
","
","""event"",""trial"",""time""
""fullscreenenter"",""1"",""3870""
","
","","","","","","738","images/boat3.png","","","learning","images/vehicles_choice3.png","images/vehicles_choice1.png","images/vehicles_choice2.png","[2,0,1]","2","0","3","images/vehicles_choice2.png","-1","vehicles","","boat","1","0"
"html-keyboard-response","196","858324","0.0-9.0-2.0-0.55","1988","1","2","""event"",""trial"",""time""
""fullscreenenter"",""1"",""3870""
","
","
","""event"",""trial"",""time""
""fullscreenenter"",""1"",""3870""
","
","","","","","","null","<div style=""font-size:60px;"">+</div>","null","","fixation","","","","","","","","","","","","","",""
"learning-trial","197","862331","0.0-9.0-2.0-1.55","1988","1","2","""event"",""trial"",""time""
""fullscreenenter"",""1"",""3870""
","
","
","""event"",""trial"",""time""
""fullscreenenter"",""1"",""3870""
","
","","","","","","498","images/train2.png","","","learning","images/vehicles_choice3.png","images/vehicles_choice2.png","images/vehicles_choice1.png","[2,1,0]","0","2","1","images/vehicles_choice3.png","-1","vehicles","","train","1","0"
"html-keyboard-response","198","862847","0.0-9.0-2.0-0.56","1988","1","2","""event"",""trial"",""time""
""fullscreenenter"",""1"",""3870""
","
","
","""event"",""trial"",""time""
""fullscreenenter"",""1"",""3870""
","
","","","","","","null","<div style=""font-size:60px;"">+</div>","null","","fixation","","","","","","","","","","","","","",""
"learning-trial","199","866857","0.0-9.0-2.0-1.56","1988","1","2","""event"",""trial"",""time""
""fullscreenenter"",""1"",""3870""
","
","
","""event"",""trial"",""time""
""fullscreenenter"",""1"",""3870""
","
","","","","","","434","images/plane1.png","","","learning","images/vehicles_choice3.png","images/vehicles_choice2.png","images/vehicles_choice1.png","[2,1,0]","1","1","3","images/vehicles_choice1.png","-1","vehicles","","plane","1","0"
"html-keyboard-response","200","867370","0.0-9.0-2.0-0.57","1988","1","2","""event"",""trial"",""time""
""fullscreenenter"",""1"",""3870""
","
","
","""event"",""trial"",""time""
""fullscreenenter"",""1"",""3870""
","
","","","","","","null","<div style=""font-size:60px;"">+</div>","null","","fixation","","","","","","","","","","","","","",""
"learning-trial","201","871378","0.0-9.0-2.0-1.57","1988","1","2","""event"",""trial"",""time""
""fullscreenenter"",""1"",""3870""
","
","
","""event"",""trial"",""time""
""fullscreenenter"",""1"",""3870""
","
","","","","","","658.8999999761581","images/train2.png","","","learning","images/vehicles_choice3.png","images/vehicles_choice1.png","images/vehicles_choice2.png","[2,0,1]","0","1","2","images/vehicles_choice1.png","1","vehicles","","train","1","0"
"html-keyboard-response","202","871885","0.0-9.0-2.0-0.58","1988","1","2","""event"",""trial"",""time""
""fullscreenenter"",""1"",""3870""
","
","
","""event"",""trial"",""time""
""fullscreenenter"",""1"",""3870""
","
","","","","","","null","<div style=""font-size:60px;"">+</div>","null","","fixation","","","","","","","","","","","","","",""
"learning-trial","203","875894","0.0-9.0-2.0-1.58","1988","1","2","""event"",""trial"",""time""
""fullscreenenter"",""1"",""3870""
","
","
","""event"",""trial"",""time""
""fullscreenenter"",""1"",""3870""
","
","","","","","","674.1000000238419","images/plane3.png","","","learning","images/vehicles_choice2.png","images/vehicles_choice1.png","images/vehicles_choice3.png","[1,0,2]","1","0","1","images/vehicles_choice2.png","1","vehicles","","plane","1","0"
"html-keyboard-response","204","876398","0.0-9.0-2.0-0.59","1988","1","2","""event"",""trial"",""time""
""fullscreenenter"",""1"",""3870""
","
","
","""event"",""trial"",""time""
""fullscreenenter"",""1"",""3870""
","
","","","","","","null","<div style=""font-size:60px;"">+</div>","null","","fixation","","","","","","","","","","","","","",""
"learning-trial","205","880405","0.0-9.0-2.0-1.59","1988","1","2","""event"",""trial"",""time""
""fullscreenenter"",""1"",""3870""
","
","
","""event"",""trial"",""time""
""fullscreenenter"",""1"",""3870""
","
","","","","","","557","images/boat3.png","","","learning","images/vehicles_choice2.png","images/vehicles_choice3.png","images/vehicles_choice1.png","[1,2,0]","2","1","3","images/vehicles_choice1.png","-1","vehicles","","boat","1","0"
"html-keyboard-response","206","880908","0.0-9.0-2.0-0.60","1988","1","2","""event"",""trial"",""time""
""fullscreenenter"",""1"",""3870""
","
","
","""event"",""trial"",""time""
""fullscreenenter"",""1"",""3870""
","
","","","","","","null","<div style=""font-size:60px;"">+</div>","null","","fixation","","","","","","","","","","","","","",""
"learning-trial","207","884919","0.0-9.0-2.0-1.60","1988","1","2","""event"",""trial"",""time""
""fullscreenenter"",""1"",""3870""
","
","
","""event"",""trial"",""time""
""fullscreenenter"",""1"",""3870""
","
","","","","","","221.39999997615814","images/train2.png","","","learning","images/vehicles_choice3.png","images/vehicles_choice1.png","images/vehicles_choice2.png","[2,0,1]","0","1","2","images/vehicles_choice1.png","1","vehicles","","train","1","0"
"html-keyboard-response","208","885433","0.0-9.0-2.0-0.61","1988","1","2","""event"",""trial"",""time""
""fullscreenenter"",""1"",""3870""
","
","
","""event"",""trial"",""time""
""fullscreenenter"",""1"",""3870""
","
","","","","","","null","<div style=""font-size:60px;"">+</div>","null","","fixation","","","","","","","","","","","","","",""
"learning-trial","209","889441","0.0-9.0-2.0-1.61","1988","1","2","""event"",""trial"",""time""
""fullscreenenter"",""1"",""3870""
","
","
","""event"",""trial"",""time""
""fullscreenenter"",""1"",""3870""
","
","","","","","","286.39999997615814","images/train1.png","","","learning","images/vehicles_choice2.png","images/vehicles_choice1.png","images/vehicles_choice3.png","[1,0,2]","0","1","1","images/vehicles_choice2.png","-1","vehicles","","train","1","0"
"html-keyboard-response","210","889943","0.0-9.0-2.0-0.62","1988","1","2","""event"",""trial"",""time""
""fullscreenenter"",""1"",""3870""
","
","
","""event"",""trial"",""time""
""fullscreenenter"",""1"",""3870""
","
","","","","","","null","<div style=""font-size:60px;"">+</div>","null","","fixation","","","","","","","","","","","","","",""
"learning-trial","211","893950","0.0-9.0-2.0-1.62","1988","1","2","""event"",""trial"",""time""
""fullscreenenter"",""1"",""3870""
","
","
","""event"",""trial"",""time""
""fullscreenenter"",""1"",""3870""
","
","","","","","","396.8000000715256","images/train2.png","","","learning","images/vehicles_choice2.png","images/vehicles_choice3.png","images/vehicles_choice1.png","[1,2,0]","0","2","2","images/vehicles_choice3.png","1","vehicles","","train","1","0"
"html-keyboard-response","212","894457","0.0-9.0-2.0-0.63","1988","1","2","""event"",""trial"",""time""
""fullscreenenter"",""1"",""3870""
","
","
","""event"",""trial"",""time""
""fullscreenenter"",""1"",""3870""
","
","","","","","","null","<div style=""font-size:60px;"">+</div>","null","","fixation","","","","","","","","","","","","","",""
"learning-trial","213","898461","0.0-9.0-2.0-1.63","1988","1","2","""event"",""trial"",""time""
""fullscreenenter"",""1"",""3870""
","
","
","""event"",""trial"",""time""
""fullscreenenter"",""1"",""3870""
","
","","","","","","421.2999999523163","images/plane3.png","","","learning","images/vehicles_choice3.png","images/vehicles_choice1.png","images/vehicles_choice2.png","[2,0,1]","1","2","3","images/vehicles_choice2.png","1","vehicles","","plane","1","0"
"html-keyboard-response","214","898976","0.0-9.0-2.0-0.64","1988","1","2","""event"",""trial"",""time""
""fullscreenenter"",""1"",""3870""
","
","
","""event"",""trial"",""time""
""fullscreenenter"",""1"",""3870""
","
","","","","","","null","<div style=""font-size:60px;"">+</div>","null","","fixation","","","","","","","","","","","","","",""
"learning-trial","215","902983","0.0-9.0-2.0-1.64","1988","1","2","""event"",""trial"",""time""
""fullscreenenter"",""1"",""3870""
","
","
","""event"",""trial"",""time""
""fullscreenenter"",""1"",""3870""
","
","","","","","","282.7000000476837","images/plane3.png","","","learning","images/vehicles_choice1.png","images/vehicles_choice3.png","images/vehicles_choice2.png","[0,2,1]","1","2","2","images/vehicles_choice3.png","-1","vehicles","","plane","1","0"
"html-keyboard-response","216","903493","0.0-9.0-2.0-0.65","1988","1","2","""event"",""trial"",""time""
""fullscreenenter"",""1"",""3870""
","
","
","""event"",""trial"",""time""
""fullscreenenter"",""1"",""3870""
","
","","","","","","null","<div style=""font-size:60px;"">+</div>","null","","fixation","","","","","","","","","","","","","",""
"learning-trial","217","907498","0.0-9.0-2.0-1.65","1988","1","2","""event"",""trial"",""time""
""fullscreenenter"",""1"",""3870""
","
","
","""event"",""trial"",""time""
""fullscreenenter"",""1"",""3870""
","
","","","","","","1253.6000000238419","images/train1.png","","","learning","images/vehicles_choice1.png","images/vehicles_choice3.png","images/vehicles_choice2.png","[0,2,1]","0","0","1","images/vehicles_choice1.png","1","vehicles","","train","1","0"
"html-keyboard-response","218","908001","0.0-9.0-2.0-0.66","1988","1","2","""event"",""trial"",""time""
""fullscreenenter"",""1"",""3870""
","
","
","""event"",""trial"",""time""
""fullscreenenter"",""1"",""3870""
","
","","","","","","null","<div style=""font-size:60px;"">+</div>","null","","fixation","","","","","","","","","","","","","",""
"learning-trial","219","912005","0.0-9.0-2.0-1.66","1988","1","2","""event"",""trial"",""time""
""fullscreenenter"",""1"",""3870""
","
","
","""event"",""trial"",""time""
""fullscreenenter"",""1"",""3870""
","
","","","","","","586.6000000238419","images/boat1.png","","","learning","images/vehicles_choice1.png","images/vehicles_choice3.png","images/vehicles_choice2.png","[0,2,1]","2","1","2","images/vehicles_choice3.png","1","vehicles","","boat","1","0"
"html-keyboard-response","220","912513","0.0-9.0-2.0-0.67","1988","1","2","""event"",""trial"",""time""
""fullscreenenter"",""1"",""3870""
","
","
","""event"",""trial"",""time""
""fullscreenenter"",""1"",""3870""
","
","","","","","","null","<div style=""font-size:60px;"">+</div>","null","","fixation","","","","","","","","","","","","","",""
"learning-trial","221","916526","0.0-9.0-2.0-1.67","1988","1","2","""event"",""trial"",""time""
""fullscreenenter"",""1"",""3870""
","
","
","""event"",""trial"",""time""
""fullscreenenter"",""1"",""3870""
","
","","","","","","589","images/boat3.png","","","learning","images/vehicles_choice3.png","images/vehicles_choice2.png","images/vehicles_choice1.png","[2,1,0]","2","0","2","images/vehicles_choice2.png","-1","vehicles","","boat","1","0"
"html-keyboard-response","222","917039","0.0-9.0-2.0-0.68","1988","1","2","""event"",""trial"",""time""
""fullscreenenter"",""1"",""3870""
","
","
","""event"",""trial"",""time""
""fullscreenenter"",""1"",""3870""
","
","","","","","","null","<div style=""font-size:60px;"">+</div>","null","","fixation","","","","","","","","","","","","","",""
"learning-trial","223","921050","0.0-9.0-2.0-1.68","1988","1","2","""event"",""trial"",""time""
""fullscreenenter"",""1"",""3870""
","
","
","""event"",""trial"",""time""
""fullscreenenter"",""1"",""3870""
","
","","","","","","2333.7999999523163","images/train1.png","","","learning","images/vehicles_choice2.png","images/vehicles_choice1.png","images/vehicles_choice3.png","[1,0,2]","0","1","1","images/vehicles_choice2.png","-1","vehicles","","train","1","0"
"html-keyboard-response","224","921567","0.0-9.0-2.0-0.69","1988","1","2","""event"",""trial"",""time""
""fullscreenenter"",""1"",""3870""
","
","
","""event"",""trial"",""time""
""fullscreenenter"",""1"",""3870""
","
","","","","","","null","<div style=""font-size:60px;"">+</div>","null","","fixation","","","","","","","","","","","","","",""
"learning-trial","225","925575","0.0-9.0-2.0-1.69","1988","1","2","""event"",""trial"",""time""
""fullscreenenter"",""1"",""3870""
","
","
","""event"",""trial"",""time""
""fullscreenenter"",""1"",""3870""
","
","","","","","","1394.3000000715256","images/train3.png","","","learning","images/vehicles_choice3.png","images/vehicles_choice2.png","images/vehicles_choice1.png","[2,1,0]","0","2","1","images/vehicles_choice3.png","1","vehicles","","train","1","0"
"html-keyboard-response","226","926091","0.0-9.0-2.0-0.70","1988","1","2","""event"",""trial"",""time""
""fullscreenenter"",""1"",""3870""
","
","
","""event"",""trial"",""time""
""fullscreenenter"",""1"",""3870""
","
","","","","","","null","<div style=""font-size:60px;"">+</div>","null","","fixation","","","","","","","","","","","","","",""
"learning-trial","227","930097","0.0-9.0-2.0-1.70","1988","1","2","""event"",""trial"",""time""
""fullscreenenter"",""1"",""3870""
","
","
","""event"",""trial"",""time""
""fullscreenenter"",""1"",""3870""
","
","","","","","","822.3999999761581","images/boat1.png","","","learning","images/vehicles_choice2.png","images/vehicles_choice3.png","images/vehicles_choice1.png","[1,2,0]","2","1","1","images/vehicles_choice2.png","-1","vehicles","","boat","1","0"
"html-keyboard-response","228","930599","0.0-9.0-2.0-0.71","1988","1","2","""event"",""trial"",""time""
""fullscreenenter"",""1"",""3870""
","
","
","""event"",""trial"",""time""
""fullscreenenter"",""1"",""3870""
","
","","","","","","null","<div style=""font-size:60px;"">+</div>","null","","fixation","","","","","","","","","","","","","",""
"learning-trial","229","934606","0.0-9.0-2.0-1.71","1988","1","2","""event"",""trial"",""time""
""fullscreenenter"",""1"",""3870""
","
","
","""event"",""trial"",""time""
""fullscreenenter"",""1"",""3870""
","
","","","","","","525.1999999284744","images/train2.png","","","learning","images/vehicles_choice3.png","images/vehicles_choice2.png","images/vehicles_choice1.png","[2,1,0]","0","2","3","images/vehicles_choice1.png","1","vehicles","","train","1","0"
"html-button-response","230","961756","0.0-9.0-3.0","1988","1","2","""event"",""trial"",""time""
""fullscreenenter"",""1"",""3870""
","
","
","""event"",""trial"",""time""
""fullscreenenter"",""1"",""3870""
","
","","","","","","27147.799999952316","<p> You have completed the round! <p> In this round, you earned -16 points! </p>","0","","break","","","","","","","","","","","","","",""
"html-button-response","231","964446","0.0-10.0","1988","1","2","""event"",""trial"",""time""
""fullscreenenter"",""1"",""3870""
","
","
","""event"",""trial"",""time""
""fullscreenenter"",""1"",""3870""
","
","","","","","","2688.8000000715256","<p> Now it's time to play another round. </p>","0","","transition_screen","","","","","","","","","","","","","",""
"preload","232","970017","0.0-11.0-0.0","1988","1","2","""event"",""trial"",""time""
""fullscreenenter"",""1"",""3870""
","
","
","""event"",""trial"",""time""
""fullscreenenter"",""1"",""3870""
","
","true","false","[]","[]","[]","","","","","","","","","","","","","","","","","","",""
"learning-instructions","233","979226","0.0-11.0-1.0-0.0","1988","1","2","""event"",""trial"",""time""
""fullscreenenter"",""1"",""3870""
","
","
","""event"",""trial"",""time""
""fullscreenenter"",""1"",""3870""
","
","","","","","","699.7999999523163","<p> Your goal in this round is to deliver furniture to three different buildings. </p><p> You will need to deliver many pieces of furniture. </p></div>","","0","instructions","","","","","","","","","","","","","",""
"learning-instructions","234","988479","0.0-11.0-1.0-0.1","1988","1","2","""event"",""trial"",""time""
""fullscreenenter"",""1"",""3870""
","
","
","""event"",""trial"",""time""
""fullscreenenter"",""1"",""3870""
","
","","","","","","1803.3999999761581","<p> On each turn, you will see a picture of a furniture item and three different buildings.  </p><p> You need to select the building that you want to deliver the furniture to.  </p>","","0","instructions","","","","","","","","","","","","","",""
"learning-instructions","235","1000454","0.0-11.0-1.0-0.2","1988","1","2","""event"",""trial"",""time""
""fullscreenenter"",""1"",""3870""
""blur"",""236"",""1006508""
""focus"",""236"",""1007470""
","""event"",""trial"",""time""
""blur"",""236"",""1006508""
","""event"",""trial"",""time""
""focus"",""236"",""1007470""
","""event"",""trial"",""time""
""fullscreenenter"",""1"",""3870""
","
