"trial_type","trial_index","time_elapsed","internal_node_id","subject_id","condition","task_version","interactions","blur_events","focus_events","fullscreenenter_events","fullscreenexit_events","success","timeout","failed_images","failed_audio","failed_video","rt","stimulus","response","button_pressed","task_part","left_choice","middle_choice","right_choice","choice_positions","correct_response","correct_position","key_press","option_selected","points","task_block","correct","stim_cat","block_condition","block_number"
"pavlovia","0","7","0.0-0.0","1595","1","2","""event"",""trial"",""time""
""fullscreenenter"",""1"",""3089""
","
","
","""event"",""trial"",""time""
""fullscreenenter"",""1"",""3089""
","
","","","","","","","","","","","","","","","","","","","","","","","",""
"fullscreen","1","4062","0.0-1.0","1595","1","2","""event"",""trial"",""time""
""fullscreenenter"",""1"",""3089""
","
","
","""event"",""trial"",""time""
""fullscreenenter"",""1"",""3089""
","
","true","","","","","","","","","","","","","","","","","","","","","","",""
"preload","2","10158","0.0-2.0","1595","1","2","""event"",""trial"",""time""
""fullscreenenter"",""1"",""3089""
","
","
","""event"",""trial"",""time""
""fullscreenenter"",""1"",""3089""
","
","true","false","[]","[]","[]","","","","","","","","","","","","","","","","","","",""
"audio-keyboard-response","3","13546","0.0-3.0","1595","1","2","""event"",""trial"",""time""
""fullscreenenter"",""1"",""3089""
","
","
","""event"",""trial"",""time""
""fullscreenenter"",""1"",""3089""
","
","","","","","","3381.333333333333","audio/beep_loop.wav"," ","","","","","","","","","","","","","","","",""
"audio-button-response","4","16264","0.0-4.0","1595","1","2","""event"",""trial"",""time""
""fullscreenenter"",""1"",""3089""
","
","
","""event"",""trial"",""time""
""fullscreenenter"",""1"",""3089""
","
","","","","","","2709","audio/shark.wav","4","","","","","","","","","","","","","","","",""
"audio-button-response","5","18881","0.0-5.0","1595","1","2","""event"",""trial"",""time""
""fullscreenenter"",""1"",""3089""
","
","
","""event"",""trial"",""time""
""fullscreenenter"",""1"",""3089""
","
","","","","","","1611","audio/turtle.wav","1","","","","","","","","","","","","","","","",""
"preload","6","26822","0.0-6.0","1595","1","2","""event"",""trial"",""time""
""fullscreenenter"",""1"",""3089""
","
","
","""event"",""trial"",""time""
""fullscreenenter"",""1"",""3089""
","
","true","false","[]","[]","[]","","","","","","","","","","","","","","","","","","",""
"html-keyboard-response","7","28801","0.0-7.0","1595","1","2","""event"",""trial"",""time""
""fullscreenenter"",""1"",""3089""
","
","
","""event"",""trial"",""time""
""fullscreenenter"",""1"",""3089""
","
","","","","","","1974.699999999255","Welcome to the experiment. Press any key to begin and to advance the instructions."," ","","","","","","","","","","","","","","","",""
"learning-instructions","8","38046","0.0-8.0-0.0-0.0","1595","1","2","""event"",""trial"",""time""
""fullscreenenter"",""1"",""3089""
","
","
","""event"",""trial"",""time""
""fullscreenenter"",""1"",""3089""
","
","","","","","","1483.5999999996275","<p> Welcome! Today you are going to play 6 different rounds of a decision-making game. </p><p> Use the mouse to click next to continue. </p>","","0","instructions","","","","","","","","","","","","","",""
"learning-instructions","9","41967","0.0-8.0-0.0-0.1","1595","1","2","""event"",""trial"",""time""
""fullscreenenter"",""1"",""3089""
","
","
","""event"",""trial"",""time""
""fullscreenenter"",""1"",""3089""
","
","","","","","","915.8000000007451","<p> You will start with a practice round to learn the rules. </p>","","0","instructions","","","","","","","","","","","","","",""
"learning-instructions","10","50778","0.0-8.0-0.0-0.2","1595","1","2","""event"",""trial"",""time""
""fullscreenenter"",""1"",""3089""
","
","
","""event"",""trial"",""time""
""fullscreenenter"",""1"",""3089""
","
","","","","","","1076.800000000745","<p> Your goal in this round is to deliver sports equipment to three different parks. </p><p> You will need to deliver many types of equipment. </p></div>","","0","instructions","","","","","","","","","","","","","",""
"learning-instructions","11","60084","0.0-8.0-0.0-0.3","1595","1","2","""event"",""trial"",""time""
""fullscreenenter"",""1"",""3089""
","
","
","""event"",""trial"",""time""
""fullscreenenter"",""1"",""3089""
","
","","","","","","814.8000000007451","<p> On each turn, you will see one piece of sports equipment and three different parks.  </p><p> You need to select which park to deliver the equipment to.  </p>","","0","instructions","","","","","","","","","","","","","",""
"learning-instructions","12","75191","0.0-8.0-0.0-0.4","1595","1","2","""event"",""trial"",""time""
""fullscreenenter"",""1"",""3089""
","
","
","""event"",""trial"",""time""
""fullscreenenter"",""1"",""3089""
","
","","","","","","1818.0999999996275","<p> You can select the park on the left by pressing the '1' key on your keyboard. <br>You can select the park in the middle by pressing the '2' key on your keyboard. <br>You can select the park on the right by pressing the '3' key on your keyboard.  </p><br><div class=""choice-instructions-grid""> <div class=""choice-option""><img src=""images/park1.png"" class=""choice-option-img"" stage=""instructions"" position=""0"" ><div class=""choice-option-text""> Press ""1."" </div></div><div class=""choice-option""><img src=""images/park2.png"" class=""choice-option-img"" stage=""instructions"" position=""1"" ><div class=""choice-option-text""> Press ""2."" </div></div><div class=""choice-option""><img src=""images/park3.png"" class=""choice-option-img"" stage=""instructions"" position=""2"" ><div class=""choice-option-text""> Press ""3."" </div></div></div>","","0","instructions","","","","","","","","","","","","","",""
"learning-instructions","13","82105","0.0-8.0-0.0-0.5","1595","1","2","""event"",""trial"",""time""
""fullscreenenter"",""1"",""3089""
","
","
","""event"",""trial"",""time""
""fullscreenenter"",""1"",""3089""
","
","","","","","","1532.9000000003725","<p> If the kids in the park you chose like the equipment, they will be very happy! </p><div style='float: center;'><img src='images/check.png' width = '200' height = '200'></img>","","0","instructions","","","","","","","","","","","","","",""
"learning-instructions","14","88714","0.0-8.0-0.0-0.6","1595","1","2","""event"",""trial"",""time""
""fullscreenenter"",""1"",""3089""
","
","
","""event"",""trial"",""time""
""fullscreenenter"",""1"",""3089""
","
","","","","","","1028.800000000745","<p> But, if the kids in the park you chose do not like the equipment, they will be sad. </p><div style='float: center;'><img src='images/x.png' width = '200' height = '200'></img>","","0","instructions","","","","","","","","","","","","","",""
"learning-instructions","15","95984","0.0-8.0-0.0-0.7","1595","1","2","""event"",""trial"",""time""
""fullscreenenter"",""1"",""3089""
","
","
","""event"",""trial"",""time""
""fullscreenenter"",""1"",""3089""
","
","","","","","","842.9000000003725","<p> Importantly, the kids in each park like some pieces of sports equipment more than others. </p>","","0","instructions","","","","","","","","","","","","","",""
"learning-instructions","16","102680","0.0-8.0-0.0-0.8","1595","1","2","""event"",""trial"",""time""
""fullscreenenter"",""1"",""3089""
","
","
","""event"",""trial"",""time""
""fullscreenenter"",""1"",""3089""
","
","","","","","","636","<p> If you choose the best park for each piece of equipment, the kids there will usually be happy. </p>","","0","instructions","","","","","","","","","","","","","",""
"learning-instructions","17","109959","0.0-8.0-0.0-0.9","1595","1","2","""event"",""trial"",""time""
""fullscreenenter"",""1"",""3089""
","
","
","""event"",""trial"",""time""
""fullscreenenter"",""1"",""3089""
","
","","","","","","641.5","<p> However, even if you choose the best park for the equipment, the kids may sometimes be sad. </p>","","0","instructions","","","","","","","","","","","","","",""
"learning-instructions","18","117743","0.0-8.0-0.0-0.10","1595","1","2","""event"",""trial"",""time""
""fullscreenenter"",""1"",""3089""
","
","
","""event"",""trial"",""time""
""fullscreenenter"",""1"",""3089""
","
","","","","","","552.7999999988824","<p> Similarly, even if you choose the <i>wrong</i> park for the equipment, the kids may still be happy sometimes.","","0","instructions","","","","","","","","","","","","","",""
"learning-instructions","19","125318","0.0-8.0-0.0-0.11","1595","1","2","""event"",""trial"",""time""
""fullscreenenter"",""1"",""3089""
","
","
","""event"",""trial"",""time""
""fullscreenenter"",""1"",""3089""
","
","","","","","","2527.2999999988824","<p> For example, the best park for this soccer ball is this one.<div style='float: center;'><img src='images/i1.png' width = '500' height = '268'></img>","","0","instructions","","","","","","","","","","","","","",""
"learning-instructions","20","132179","0.0-8.0-0.0-0.12","1595","1","2","""event"",""trial"",""time""
""fullscreenenter"",""1"",""3089""
","
","
","""event"",""trial"",""time""
""fullscreenenter"",""1"",""3089""
","
","","","","","","1570.5999999996275","<p> Let's see what happens if you choose this park for the soccer ball five times.","","0","instructions","","","","","","","","","","","","","",""
"learning-instructions","21","136476","0.0-8.0-0.0-0.13","1595","1","2","""event"",""trial"",""time""
""fullscreenenter"",""1"",""3089""
","
","
","""event"",""trial"",""time""
""fullscreenenter"",""1"",""3089""
","
","","","","","","2122.60000000149","<p> The kids are happy.<div style='float: left;'><img src='images/i2.png' width = '640' height = '360'></img>","","0","instructions","","","","","","","","","","","","","",""
"learning-instructions","22","141538","0.0-8.0-0.0-0.14","1595","1","2","""event"",""trial"",""time""
""fullscreenenter"",""1"",""3089""
","
","
","""event"",""trial"",""time""
""fullscreenenter"",""1"",""3089""
","
","","","","","","2886.89999999851","<p> The kids are happy.<div style='float: left;'><img src='images/i3.png' width = '640' height = '360'></img>","","0","instructions","","","","","","","","","","","","","",""
"learning-instructions","23","144470","0.0-8.0-0.0-0.15","1595","1","2","""event"",""trial"",""time""
""fullscreenenter"",""1"",""3089""
","
","
","""event"",""trial"",""time""
""fullscreenenter"",""1"",""3089""
","
","","","","","","762.0999999996275","<p> The kids are happy.<div style='float: left;'><img src='images/i4.png' width = '640' height = '360'></img>","","0","instructions","","","","","","","","","","","","","",""
"learning-instructions","24","148847","0.0-8.0-0.0-0.16","1595","1","2","""event"",""trial"",""time""
""fullscreenenter"",""1"",""3089""
","
","
","""event"",""trial"",""time""
""fullscreenenter"",""1"",""3089""
","
","","","","","","2172.5","<p> The kids are sad.<div style='float: left;'><img src='images/i5.png' width = '640' height = '360'></img>","","0","instructions","","","","","","","","","","","","","",""
"learning-instructions","25","152011","0.0-8.0-0.0-0.17","1595","1","2","""event"",""trial"",""time""
""fullscreenenter"",""1"",""3089""
","
","
","""event"",""trial"",""time""
""fullscreenenter"",""1"",""3089""
","
","","","","","","986.5999999996275","<p> The kids are happy.<div style='float: left;'><img src='images/i6.png' width = '640' height = '360'></img>","","0","instructions","","","","","","","","","","","","","",""
"learning-instructions","26","160276","0.0-8.0-0.0-0.18","1595","1","2","""event"",""trial"",""time""
""fullscreenenter"",""1"",""3089""
","
","
","""event"",""trial"",""time""
""fullscreenenter"",""1"",""3089""
","
","","","","","","995.8000000007451","<p> As you can see, selecting that park for the soccer ball made the kids happy most of the time, but not all the time.","","0","instructions","","","","","","","","","","","","","",""
"learning-instructions","27","167874","0.0-8.0-0.0-0.19","1595","1","2","""event"",""trial"",""time""
""fullscreenenter"",""1"",""3089""
","
","
","""event"",""trial"",""time""
""fullscreenenter"",""1"",""3089""
","
","","","","","","1595","<p> Now let's see what happens if you choose a DIFFERENT park for the soccer ball 5 times.","","0","instructions","","","","","","","","","","","","","",""
"learning-instructions","28","170634","0.0-8.0-0.0-0.20","1595","1","2","""event"",""trial"",""time""
""fullscreenenter"",""1"",""3089""
","
","
","""event"",""trial"",""time""
""fullscreenenter"",""1"",""3089""
","
","","","","","","556.7999999988824","<p> The kids are sad.<div style='float: left;'><img src='images/i7.png' width = '640' height = '360'></img>","","0","instructions","","","","","","","","","","","","","",""
"learning-instructions","29","173489","0.0-8.0-0.0-0.21","1595","1","2","""event"",""trial"",""time""
""fullscreenenter"",""1"",""3089""
","
","
","""event"",""trial"",""time""
""fullscreenenter"",""1"",""3089""
","
","","","","","","650.7000000011176","<p> The kids are sad.<div style='float: left;'><img src='images/i8.png' width = '640' height = '360'></img>","","0","instructions","","","","","","","","","","","","","",""
"learning-instructions","30","176257","0.0-8.0-0.0-0.22","1595","1","2","""event"",""trial"",""time""
""fullscreenenter"",""1"",""3089""
","
","
","""event"",""trial"",""time""
""fullscreenenter"",""1"",""3089""
","
","","","","","","591.2999999988824","<p> The kids are happy.<div style='float: left;'><img src='images/i9.png' width = '640' height = '360'></img>","","0","instructions","","","","","","","","","","","","","",""
"learning-instructions","31","179068","0.0-8.0-0.0-0.23","1595","1","2","""event"",""trial"",""time""
""fullscreenenter"",""1"",""3089""
","
","
","""event"",""trial"",""time""
""fullscreenenter"",""1"",""3089""
","
","","","","","","607.9000000003725","<p> The kids are sad.<div style='float: left;'><img src='images/i10.png' width = '640' height = '360'></img>","","0","instructions","","","","","","","","","","","","","",""
"learning-instructions","32","181835","0.0-8.0-0.0-0.24","1595","1","2","""event"",""trial"",""time""
""fullscreenenter"",""1"",""3089""
","
","
","""event"",""trial"",""time""
""fullscreenenter"",""1"",""3089""
","
","","","","","","558.9000000003725","<p> The kids are sad.<div style='float: left;'><img src='images/i11.png' width = '640' height = '360'></img>","","0","instructions","","","","","","","","","","","","","",""
"learning-instructions","33","190948","0.0-8.0-0.0-0.25","1595","1","2","""event"",""trial"",""time""
""fullscreenenter"",""1"",""3089""
","
","
","""event"",""trial"",""time""
""fullscreenenter"",""1"",""3089""
","
","","","","","","988.7999999988824","<p> As you can see, selecting the wrong park for the soccer ball made the kids sad most of the time, but not all the time.","","0","instructions","","","","","","","","","","","","","",""
"learning-instructions","34","200886","0.0-8.0-0.0-0.26","1595","1","2","""event"",""trial"",""time""
""fullscreenenter"",""1"",""3089""
","
","
","""event"",""trial"",""time""
""fullscreenenter"",""1"",""3089""
","
","","","","","","825.5999999996275","<p> The different pieces of equipment belong in different parks. You need to try to learn which is the best park for each piece of equipment.","","0","instructions","","","","","","","","","","","","","",""
"learning-instructions","35","217991","0.0-8.0-0.0-0.27","1595","1","2","""event"",""trial"",""time""
""fullscreenenter"",""1"",""3089""
","
","
","""event"",""trial"",""time""
""fullscreenenter"",""1"",""3089""
","
","","","","","","715.2000000011176","<p> Try to choose the best park for each piece of equipment, because you will <b> WIN </b> 1 point for each time you make the kids happy and <b>LOSE</b> 1 point for each time you make them sad. </p><p> Remember, if you make the best choice, you will win 1 point most of the time, but not all the time. </p>","","0","instructions","","","","","","","","","","","","","",""
"learning-instructions","36","224187","0.0-8.0-0.0-0.28","1595","1","2","""event"",""trial"",""time""
""fullscreenenter"",""1"",""3089""
","
","
","""event"",""trial"",""time""
""fullscreenenter"",""1"",""3089""
","
","","","","","","713.5999999996275","<p> This is just a practice round, but in the real game, your bonus payment will depend on your total number of points.","","0","instructions","","","","","","","","","","","","","",""
"learning-instructions","37","235188","0.0-8.0-0.0-0.29","1595","1","2","""event"",""trial"",""time""
""fullscreenenter"",""1"",""3089""
","
","
","""event"",""trial"",""time""
""fullscreenenter"",""1"",""3089""
","
","","","","","","675.3000000007451","<p> The position where each park appears will change throughout the game. </p><p> The position where the park appears <i> does not </i> influence how likely the kids are to be happy or sad. </p>","","0","instructions","","","","","","","","","","","","","",""
"learning-instructions","38","246092","0.0-8.0-0.0-0.30","1595","1","2","""event"",""trial"",""time""
""fullscreenenter"",""1"",""3089""
","
","
","""event"",""trial"",""time""
""fullscreenenter"",""1"",""3089""
","
","","","","","","614.5999999996275","<p> You will have 4 seconds to make each choice. Try to respond before time runs out! </p><p> You will lose 1 point each time you do not make a response. </p>","","0","instructions","","","","","","","","","","","","","",""
"learning-instructions","39","254142","0.0-8.0-0.0-0.31","1595","1","2","""event"",""trial"",""time""
""fullscreenenter"",""1"",""3089""
","
","
","""event"",""trial"",""time""
""fullscreenenter"",""1"",""3089""
","
","","","","","","1258.800000000745","<p> Remember, you should use the 1, 2, and 3 keys to select the park for each piece of equipment. </p><br><div class=""choice-instructions-grid""> <div class=""choice-option""><img src=""images/park1.png"" class=""choice-option-img"" stage=""instructions"" position=""0"" ><div class=""choice-option-text""> Press ""1."" </div></div><div class=""choice-option""><img src=""images/park2.png"" class=""choice-option-img"" stage=""instructions"" position=""1"" ><div class=""choice-option-text""> Press ""2."" </div></div><div class=""choice-option""><img src=""images/park3.png"" class=""choice-option-img"" stage=""instructions"" position=""2"" ><div class=""choice-option-text""> Press ""3."" </div></div></div>","","0","instructions","","","","","","","","","","","","","",""
"html-button-response","40","256214","0.0-8.0-1.0","1595","1","2","""event"",""trial"",""time""
""fullscreenenter"",""1"",""3089""
","
","
","""event"",""trial"",""time""
""fullscreenenter"",""1"",""3089""
","
","","","","","","1966","<p> Ready to practice? </p>","0","","","","","","","","","","","","","","","",""
"html-keyboard-response","41","256818","0.0-8.0-2.0-0.0","1595","1","2","""event"",""trial"",""time""
""fullscreenenter"",""1"",""3089""
","
","
","""event"",""trial"",""time""
""fullscreenenter"",""1"",""3089""
","
","","","","","","null","<div style=""font-size:60px;"">+</div>","null","","fixation","","","","","","","","","","","","","",""
"learning-trial","42","260830","0.0-8.0-2.0-1.0","1595","1","2","""event"",""trial"",""time""
""fullscreenenter"",""1"",""3089""
","
","
","""event"",""trial"",""time""
""fullscreenenter"",""1"",""3089""
","
","","","","","","3521.2000000011176","images/ball1.png","","","practice","images/park2.png","images/park1.png","images/park3.png","[1,0,2]","0","1","3","images/park3.png","-1","practice","","","",""
"html-keyboard-response","43","261332","0.0-8.0-2.0-0.1","1595","1","2","""event"",""trial"",""time""
""fullscreenenter"",""1"",""3089""
","
","
","""event"",""trial"",""time""
""fullscreenenter"",""1"",""3089""
","
","","","","","","null","<div style=""font-size:60px;"">+</div>","null","","fixation","","","","","","","","","","","","","",""
"learning-trial","44","265339","0.0-8.0-2.0-1.1","1595","1","2","""event"",""trial"",""time""
""fullscreenenter"",""1"",""3089""
","
","
","""event"",""trial"",""time""
""fullscreenenter"",""1"",""3089""
","
","","","","","","2446","images/racket3.png","","","practice","images/park1.png","images/park2.png","images/park3.png","[0,1,2]","0","0","1","images/park1.png","-1","practice","","","",""
"html-keyboard-response","45","265842","0.0-8.0-2.0-0.2","1595","1","2","""event"",""trial"",""time""
""fullscreenenter"",""1"",""3089""
","
","
","""event"",""trial"",""time""
""fullscreenenter"",""1"",""3089""
","
","","","","","","null","<div style=""font-size:60px;"">+</div>","null","","fixation","","","","","","","","","","","","","",""
"learning-trial","46","269853","0.0-8.0-2.0-1.2","1595","1","2","""event"",""trial"",""time""
""fullscreenenter"",""1"",""3089""
","
","
","""event"",""trial"",""time""
""fullscreenenter"",""1"",""3089""
","
","","","","","","2813.4000000003725","images/ball1.png","","","practice","images/park1.png","images/park3.png","images/park2.png","[0,2,1]","0","0","1","images/park1.png","1","practice","","","",""
"html-keyboard-response","47","270356","0.0-8.0-2.0-0.3","1595","1","2","""event"",""trial"",""time""
""fullscreenenter"",""1"",""3089""
","
","
","""event"",""trial"",""time""
""fullscreenenter"",""1"",""3089""
","
","","","","","","null","<div style=""font-size:60px;"">+</div>","null","","fixation","","","","","","","","","","","","","",""
"learning-trial","48","274366","0.0-8.0-2.0-1.3","1595","1","2","""event"",""trial"",""time""
""fullscreenenter"",""1"",""3089""
","
","
","""event"",""trial"",""time""
""fullscreenenter"",""1"",""3089""
","
","","","","","","2057.0999999996275","images/racket1.png","","","practice","images/park2.png","images/park3.png","images/park1.png","[1,2,0]","1","0","2","images/park3.png","-1","practice","","","",""
"html-keyboard-response","49","274869","0.0-8.0-2.0-0.4","1595","1","2","""event"",""trial"",""time""
""fullscreenenter"",""1"",""3089""
","
","
","""event"",""trial"",""time""
""fullscreenenter"",""1"",""3089""
","
","","","","","","null","<div style=""font-size:60px;"">+</div>","null","","fixation","","","","","","","","","","","","","",""
"learning-trial","50","278879","0.0-8.0-2.0-1.4","1595","1","2","""event"",""trial"",""time""
""fullscreenenter"",""1"",""3089""
","
","
","""event"",""trial"",""time""
""fullscreenenter"",""1"",""3089""
","
","","","","","","1297","images/racket2.png","","","practice","images/park2.png","images/park3.png","images/park1.png","[1,2,0]","2","1","1","images/park2.png","-1","practice","","","",""
"html-keyboard-response","51","279382","0.0-8.0-2.0-0.5","1595","1","2","""event"",""trial"",""time""
""fullscreenenter"",""1"",""3089""
","
","
","""event"",""trial"",""time""
""fullscreenenter"",""1"",""3089""
","
","","","","","","null","<div style=""font-size:60px;"">+</div>","null","","fixation","","","","","","","","","","","","","",""
"learning-trial","52","283392","0.0-8.0-2.0-1.5","1595","1","2","""event"",""trial"",""time""
""fullscreenenter"",""1"",""3089""
","
","
","""event"",""trial"",""time""
""fullscreenenter"",""1"",""3089""
","
","","","","","","1024.5999999996275","images/ball2.png","","","practice","images/park2.png","images/park3.png","images/park1.png","[1,2,0]","1","0","3","images/park1.png","-1","practice","","","",""
"html-keyboard-response","53","283895","0.0-8.0-2.0-0.6","1595","1","2","""event"",""trial"",""time""
""fullscreenenter"",""1"",""3089""
","
","
","""event"",""trial"",""time""
""fullscreenenter"",""1"",""3089""
","
","","","","","","null","<div style=""font-size:60px;"">+</div>","null","","fixation","","","","","","","","","","","","","",""
"learning-trial","54","287905","0.0-8.0-2.0-1.6","1595","1","2","""event"",""trial"",""time""
""fullscreenenter"",""1"",""3089""
","
","
","""event"",""trial"",""time""
""fullscreenenter"",""1"",""3089""
","
","","","","","","3036.0999999996275","images/racket3.png","","","practice","images/park1.png","images/park3.png","images/park2.png","[0,2,1]","0","0","1","images/park1.png","1","practice","","","",""
"html-keyboard-response","55","288409","0.0-8.0-2.0-0.7","1595","1","2","""event"",""trial"",""time""
""fullscreenenter"",""1"",""3089""
","
","
","""event"",""trial"",""time""
""fullscreenenter"",""1"",""3089""
","
","","","","","","null","<div style=""font-size:60px;"">+</div>","null","","fixation","","","","","","","","","","","","","",""
"learning-trial","56","292420","0.0-8.0-2.0-1.7","1595","1","2","""event"",""trial"",""time""
""fullscreenenter"",""1"",""3089""
","
","
","""event"",""trial"",""time""
""fullscreenenter"",""1"",""3089""
","
","","","","","","1990.5","images/ball4.png","","","practice","images/park3.png","images/park1.png","images/park2.png","[2,0,1]","2","0","2","images/park1.png","-1","practice","","","",""
"html-keyboard-response","57","292922","0.0-8.0-2.0-0.8","1595","1","2","""event"",""trial"",""time""
""fullscreenenter"",""1"",""3089""
","
","
","""event"",""trial"",""time""
""fullscreenenter"",""1"",""3089""
","
","","","","","","null","<div style=""font-size:60px;"">+</div>","null","","fixation","","","","","","","","","","","","","",""
"learning-trial","58","296931","0.0-8.0-2.0-1.8","1595","1","2","""event"",""trial"",""time""
""fullscreenenter"",""1"",""3089""
","
","
","""event"",""trial"",""time""
""fullscreenenter"",""1"",""3089""
","
","","","","","","916.9000000003725","images/ball4.png","","","practice","images/park3.png","images/park2.png","images/park1.png","[2,1,0]","2","0","1","images/park3.png","1","practice","","","",""
"html-keyboard-response","59","297435","0.0-8.0-2.0-0.9","1595","1","2","""event"",""trial"",""time""
""fullscreenenter"",""1"",""3089""
","
","
","""event"",""trial"",""time""
""fullscreenenter"",""1"",""3089""
","
","","","","","","null","<div style=""font-size:60px;"">+</div>","null","","fixation","","","","","","","","","","","","","",""
"learning-trial","60","301444","0.0-8.0-2.0-1.9","1595","1","2","""event"",""trial"",""time""
""fullscreenenter"",""1"",""3089""
","
","
","""event"",""trial"",""time""
""fullscreenenter"",""1"",""3089""
","
","","","","","","1395.7999999988824","images/ball2.png","","","practice","images/park1.png","images/park3.png","images/park2.png","[0,2,1]","1","2","2","images/park3.png","-1","practice","","","",""
"html-keyboard-response","61","301947","0.0-8.0-2.0-0.10","1595","1","2","""event"",""trial"",""time""
""fullscreenenter"",""1"",""3089""
","
","
","""event"",""trial"",""time""
""fullscreenenter"",""1"",""3089""
","
","","","","","","null","<div style=""font-size:60px;"">+</div>","null","","fixation","","","","","","","","","","","","","",""
"learning-trial","62","305955","0.0-8.0-2.0-1.10","1595","1","2","""event"",""trial"",""time""
""fullscreenenter"",""1"",""3089""
","
","
","""event"",""trial"",""time""
""fullscreenenter"",""1"",""3089""
","
","","","","","","2990.199999999255","images/racket1.png","","","practice","images/park3.png","images/park1.png","images/park2.png","[2,0,1]","1","2","3","images/park2.png","1","practice","","","",""
"html-keyboard-response","63","306458","0.0-8.0-2.0-0.11","1595","1","2","""event"",""trial"",""time""
""fullscreenenter"",""1"",""3089""
","
","
","""event"",""trial"",""time""
""fullscreenenter"",""1"",""3089""
","
","","","","","","null","<div style=""font-size:60px;"">+</div>","null","","fixation","","","","","","","","","","","","","",""
"learning-trial","64","310466","0.0-8.0-2.0-1.11","1595","1","2","""event"",""trial"",""time""
""fullscreenenter"",""1"",""3089""
","
","
","""event"",""trial"",""time""
""fullscreenenter"",""1"",""3089""
","
","","","","","","2984.10000000149","images/racket2.png","","","practice","images/park2.png","images/park1.png","images/park3.png","[1,0,2]","2","2","1","images/park2.png","-1","practice","","","",""
"html-button-response","65","312497","0.0-8.0-3.0","1595","1","2","""event"",""trial"",""time""
""fullscreenenter"",""1"",""3089""
","
","
","""event"",""trial"",""time""
""fullscreenenter"",""1"",""3089""
","
","","","","","","2025","<p> You earned -4 points in the practice round! </p>","0","","break","","","","","","","","","","","","","",""
"learning-instructions","66","321780","0.0-8.0-4.0-0.0","1595","1","2","""event"",""trial"",""time""
""fullscreenenter"",""1"",""3089""
","
","
","""event"",""trial"",""time""
""fullscreenenter"",""1"",""3089""
","
","","","","","","1586.0999999996275","<p> It's almost time to start the real game. </p><p> Before you start, we're going to ask you a few questions about how the game works. </p>","","0","instructions","","","","","","","","","","","","","",""
"preload","67","323874","0.0-8.0-5.0","1595","1","2","""event"",""trial"",""time""
""fullscreenenter"",""1"",""3089""
","
","
","""event"",""trial"",""time""
""fullscreenenter"",""1"",""3089""
","
","true","false","[]","[]","[]","","","","","","","","","","","","","","","","","","",""
"comp-q","68","333326","0.0-8.0-6.0-0.0","1595","1","2","""event"",""trial"",""time""
""fullscreenenter"",""1"",""3089""
","
","
","""event"",""trial"",""time""
""fullscreenenter"",""1"",""3089""
","
","","","","","","4001.699999999255","<p> <b> True or False? </b> </p><p> If you choose the best option, you will always earn 1 point. </p>","","1","comp_question","","","","","","","","","","","true","","",""
"comp-q","69","340326","0.0-8.0-6.0-1.0","1595","1","2","""event"",""trial"",""time""
""fullscreenenter"",""1"",""3089""
","
","
","""event"",""trial"",""time""
""fullscreenenter"",""1"",""3089""
","
","","","","","","1338.199999999255","<p><b> That's right! </b> Sometimes you will lose 1 point, even if you choose the best option. </p>","","0","comp_answer","","","","","","","","","","","","","",""
"comp-q","70","346562","0.0-8.0-6.0-0.1","1595","1","2","""event"",""trial"",""time""
""fullscreenenter"",""1"",""3089""
","
","
","""event"",""trial"",""time""
""fullscreenenter"",""1"",""3089""
","
","","","","","","1599.699999999255","<p> <b> True or False? </b> </p><p> You will have as much time as you want to make each choice. </p>","","1","comp_question","","","","","","","","","","","true","","",""
"comp-q","71","352188","0.0-8.0-6.0-1.1","1595","1","2","""event"",""trial"",""time""
""fullscreenenter"",""1"",""3089""
","
","
","""event"",""trial"",""time""
""fullscreenenter"",""1"",""3089""
","
","","","","","","804.8000000007451","<p> <b> That's right! </b> You will only have 4 seconds to make each choice. </p>","","0","comp_answer","","","","","","","","","","","","","",""
"comp-q","72","359278","0.0-8.0-6.0-0.2","1595","1","2","""event"",""trial"",""time""
""fullscreenenter"",""1"",""3089""
","
","
","""event"",""trial"",""time""
""fullscreenenter"",""1"",""3089""
","
","","","","","","939.9000000003725","<p> <b> True or False? </b> </p><p> You should use the '1', '2', and '3' keys to make your choices. </p>","","0","comp_question","","","","","","","","","","","true","","",""
"comp-q","73","365486","0.0-8.0-6.0-1.2","1595","1","2","""event"",""trial"",""time""
""fullscreenenter"",""1"",""3089""
","
","
","""event"",""trial"",""time""
""fullscreenenter"",""1"",""3089""
","
","","","","","","1355.800000000745","<p> <b> That's right! </b> You should use the '1', '2', and '3' keys to make each choice. </p>","","0","comp_answer","","","","","","","","","","","","","",""
"learning-instructions","74","375798","0.0-8.0-7.0-0.0","1595","1","2","""event"",""trial"",""time""
""fullscreenenter"",""1"",""3089""
","
","
","""event"",""trial"",""time""
""fullscreenenter"",""1"",""3089""
","
","","","","","","1822.5999999996275","<p> It's now time to start the real game. </p>Do your best, because the points you earn in the next rounds will influence your bonus payment. </p>","","0","instructions","","","","","","","","","","","","","",""
"preload","75","378188","0.0-9.0-0.0","1595","1","2","""event"",""trial"",""time""
""fullscreenenter"",""1"",""3089""
","
","
","""event"",""trial"",""time""
""fullscreenenter"",""1"",""3089""
","
","true","false","[]","[]","[]","","","","","","","","","","","","","","","","","","",""
"learning-instructions","76","388400","0.0-9.0-1.0-0.0","1595","1","2","""event"",""trial"",""time""
""fullscreenenter"",""1"",""3089""
","
","
","""event"",""trial"",""time""
""fullscreenenter"",""1"",""3089""
","
","","","","","","2424.199999999255","<p> Your goal in this round is to deliver furniture to three different buildings. </p><p> You will need to deliver many pieces of furniture. </p></div>","","0","instructions","","","","","","","","","","","","","",""
"learning-instructions","77","396855","0.0-9.0-1.0-0.1","1595","1","2","""event"",""trial"",""time""
""fullscreenenter"",""1"",""3089""
","
","
","""event"",""trial"",""time""
""fullscreenenter"",""1"",""3089""
","
","","","","","","1023.7999999988824","<p> On each turn, you will see a picture of a furniture item and three different buildings.  </p><p> You need to select the building that you want to deliver the furniture to.  </p>","","0","instructions","","","","","","","","","","","","","",""
"learning-instructions","78","405895","0.0-9.0-1.0-0.2","1595","1","2","""event"",""trial"",""time""
""fullscreenenter"",""1"",""3089""
","
","
","""event"",""trial"",""time""
""fullscreenenter"",""1"",""3089""
","
","","","","","","738.6999999992549","<p> You can select the building on the left by pressing 1, the building in the middle by pressing 2, and the building on the right by pressing 3.  </p><br><div class=""choice-instructions-grid""> <div class=""choice-option""><img src=""images/furniture_choice1.png"" class=""choice-option-img"" stage=""instructions"" position=""0"" ><div class=""choice-option-text""> Press ""1."" </div></div><div class=""choice-option""><img src=""images/furniture_choice2.png"" class=""choice-option-img"" stage=""instructions"" position=""1"" ><div class=""choice-option-text""> Press ""2."" </div></div><div class=""choice-option""><img src=""images/furniture_choice3.png"" class=""choice-option-img"" stage=""instructions"" position=""2"" ><div class=""choice-option-text""> Press ""3."" </div></div></div>","","0","instructions","","","","","","","","","","","","","",""
"learning-instructions","79","413357","0.0-9.0-1.0-0.3","1595","1","2","""event"",""trial"",""time""
""fullscreenenter"",""1"",""3089""
","
","
","""event"",""trial"",""time""
""fullscreenenter"",""1"",""3089""
","
","","","","","","1440.0999999996275","<p> If the furniture belongs in the building you chose, the building owner will likely be very happy! </p><div style='float: center;'><img src='images/check.png' width = '200' height = '200'></img>","","0","instructions","","","","","","","","","","","","","",""
"learning-instructions","80","420141","0.0-9.0-1.0-0.4","1595","1","2","""event"",""trial"",""time""
""fullscreenenter"",""1"",""3089""
","
","
","""event"",""trial"",""time""
""fullscreenenter"",""1"",""3089""
","
","","","","","","788.4000000003725","<p> But, if the furniture does not belong in the building you chose, the owner will likely be mad. </p><div style='float: center;'><img src='images/x.png' width = '200' height = '200'></img>","","0","instructions","","","","","","","","","","","","","",""
"learning-instructions","81","432184","0.0-9.0-1.0-0.5","1595","1","2","""event"",""trial"",""time""
""fullscreenenter"",""1"",""3089""
","
","
","""event"",""trial"",""time""
""fullscreenenter"",""1"",""3089""
","
","","","","","","820.6000000014901","<p> Importantly, each piece of furniture belongs in one of the three buildings. </p><p> If you choose the correct building for the piece of furniture, you will be more likely to make the building owner happy! </p>","","0","instructions","","","","","","","","","","","","","",""
"learning-instructions","82","444548","0.0-9.0-1.0-0.6","1595","1","2","""event"",""trial"",""time""
""fullscreenenter"",""1"",""3089""
","
","
","""event"",""trial"",""time""
""fullscreenenter"",""1"",""3089""
","
","","","","","","843.6999999992549","<p> However, even if you choose the best building for the furniture, the owner may still be mad sometimes. </p><p> Similarly, even if you choose the <i>wrong</i> building, the owner may still be happy.","","0","instructions","","","","","","","","","","","","","",""
"learning-instructions","83","458472","0.0-9.0-1.0-0.7","1595","1","2","""event"",""trial"",""time""
""fullscreenenter"",""1"",""3089""
","
","
","""event"",""trial"",""time""
""fullscreenenter"",""1"",""3089""
","
","","","","","","677.4000000003725","<p> Try to choose the best building for each piece of furniture, because you will <b> WIN </b> 1 point each time a building owner is happy and <b>LOSE</b>  1 point each time a building owner is mad. </p><p> Your bonus payment will depend on your total number of points.","","0","instructions","","","","","","","","","","","","","",""
"learning-instructions","84","468339","0.0-9.0-1.0-0.8","1595","1","2","""event"",""trial"",""time""
""fullscreenenter"",""1"",""3089""
","
","
","""event"",""trial"",""time""
""fullscreenenter"",""1"",""3089""
","
","","","","","","901.3999999985099","<p> The position of each building will change throughout the round. </p><p> The building's position <i> does not </i> influence how likely the owner is to be happy or mad. </p>","","0","instructions","","","","","","","","","","","","","",""
"learning-instructions","85","479434","0.0-9.0-1.0-0.9","1595","1","2","""event"",""trial"",""time""
""fullscreenenter"",""1"",""3089""
","
","
","""event"",""trial"",""time""
""fullscreenenter"",""1"",""3089""
","
","","","","","","1800.2999999988824","<p> You will have 4 seconds to make each choice. Try to respond before time runs out! </p><p> You will lose 1 point each time you do not make a response. </p>","","0","instructions","","","","","","","","","","","","","",""
"html-keyboard-response","86","480037","0.0-9.0-2.0-0.0","1595","1","2","""event"",""trial"",""time""
""fullscreenenter"",""1"",""3089""
","
","
","""event"",""trial"",""time""
""fullscreenenter"",""1"",""3089""
","
","","","","","","null","<div style=""font-size:60px;"">+</div>","null","","fixation","","","","","","","","","","","","","",""
"learning-trial","87","484046","0.0-9.0-2.0-1.0","1595","1","2","""event"",""trial"",""time""
""fullscreenenter"",""1"",""3089""
","
","
","""event"",""trial"",""time""
""fullscreenenter"",""1"",""3089""
","
","","","","","","1258.9000000003725","images/table1.png","","","learning","images/furniture_choice1.png","images/furniture_choice3.png","images/furniture_choice2.png","[0,2,1]","2","1","2","images/furniture_choice3.png","1","furniture","","table","1","0"
"html-keyboard-response","88","484548","0.0-9.0-2.0-0.1","1595","1","2","""event"",""trial"",""time""
""fullscreenenter"",""1"",""3089""
","
","
","""event"",""trial"",""time""
""fullscreenenter"",""1"",""3089""
","
","","","","","","null","<div style=""font-size:60px;"">+</div>","null","","fixation","","","","","","","","","","","","","",""
"learning-trial","89","488580","0.0-9.0-2.0-1.1","1595","1","2","""event"",""trial"",""time""
""fullscreenenter"",""1"",""3089""
","
","
","""event"",""trial"",""time""
""fullscreenenter"",""1"",""3089""
","
","","","","","","1973.2000000011176","images/chair2.png","","","learning","images/furniture_choice2.png","images/furniture_choice1.png","images/furniture_choice3.png","[1,0,2]","1","0","1","images/furniture_choice2.png","1","furniture","","chair","1","0"
"html-keyboard-response","90","489082","0.0-9.0-2.0-0.2","1595","1","2","""event"",""trial"",""time""
""fullscreenenter"",""1"",""3089""
","
","
","""event"",""trial"",""time""
""fullscreenenter"",""1"",""3089""
","
","","","","","","null","<div style=""font-size:60px;"">+</div>","null","","fixation","","","","","","","","","","","","","",""
"learning-trial","91","493091","0.0-9.0-2.0-1.2","1595","1","2","""event"",""trial"",""time""
""fullscreenenter"",""1"",""3089""
","
","
","""event"",""trial"",""time""
""fullscreenenter"",""1"",""3089""
","
","","","","","","1423.5999999996275","images/chair2.png","","","learning","images/furniture_choice2.png","images/furniture_choice3.png","images/furniture_choice1.png","[1,2,0]","1","0","1","images/furniture_choice2.png","1","furniture","","chair","1","0"
"html-keyboard-response","92","493594","0.0-9.0-2.0-0.3","1595","1","2","""event"",""trial"",""time""
""fullscreenenter"",""1"",""3089""
","
","
","""event"",""trial"",""time""
""fullscreenenter"",""1"",""3089""
","
","","","","","","null","<div style=""font-size:60px;"">+</div>","null","","fixation","","","","","","","","","","","","","",""
"learning-trial","93","497602","0.0-9.0-2.0-1.3","1595","1","2","""event"",""trial"",""time""
""fullscreenenter"",""1"",""3089""
","
","
","""event"",""trial"",""time""
""fullscreenenter"",""1"",""3089""
","
","","","","","","1322.0999999996275","images/table3.png","","","learning","images/furniture_choice2.png","images/furniture_choice3.png","images/furniture_choice1.png","[1,2,0]","2","1","3","images/furniture_choice1.png","-1","furniture","","table","1","0"
"html-keyboard-response","94","498105","0.0-9.0-2.0-0.4","1595","1","2","""event"",""trial"",""time""
""fullscreenenter"",""1"",""3089""
","
","
","""event"",""trial"",""time""
""fullscreenenter"",""1"",""3089""
","
","","","","","","null","<div style=""font-size:60px;"">+</div>","null","","fixation","","","","","","","","","","","","","",""
"learning-trial","95","502112","0.0-9.0-2.0-1.4","1595","1","2","""event"",""trial"",""time""
""fullscreenenter"",""1"",""3089""
","
","
","""event"",""trial"",""time""
""fullscreenenter"",""1"",""3089""
","
","","","","","","1266.800000000745","images/bed5.png","","","learning","images/furniture_choice2.png","images/furniture_choice3.png","images/furniture_choice1.png","[1,2,0]","0","2","2","images/furniture_choice3.png","-1","furniture","","bed","1","0"
"html-keyboard-response","96","502615","0.0-9.0-2.0-0.5","1595","1","2","""event"",""trial"",""time""
""fullscreenenter"",""1"",""3089""
","
","
","""event"",""trial"",""time""
""fullscreenenter"",""1"",""3089""
","
","","","","","","null","<div style=""font-size:60px;"">+</div>","null","","fixation","","","","","","","","","","","","","",""
"learning-trial","97","506622","0.0-9.0-2.0-1.5","1595","1","2","""event"",""trial"",""time""
""fullscreenenter"",""1"",""3089""
","
","
","""event"",""trial"",""time""
""fullscreenenter"",""1"",""3089""
","
","","","","","","1635.0999999996275","images/table3.png","","","learning","images/furniture_choice1.png","images/furniture_choice2.png","images/furniture_choice3.png","[0,1,2]","2","2","1","images/furniture_choice1.png","-1","furniture","","table","1","0"
"html-keyboard-response","98","507126","0.0-9.0-2.0-0.6","1595","1","2","""event"",""trial"",""time""
""fullscreenenter"",""1"",""3089""
","
","
","""event"",""trial"",""time""
""fullscreenenter"",""1"",""3089""
","
","","","","","","null","<div style=""font-size:60px;"">+</div>","null","","fixation","","","","","","","","","","","","","",""
"learning-trial","99","511133","0.0-9.0-2.0-1.6","1595","1","2","""event"",""trial"",""time""
""fullscreenenter"",""1"",""3089""
","
","
","""event"",""trial"",""time""
""fullscreenenter"",""1"",""3089""
","
","","","","","","1143.5","images/chair5.png","","","learning","images/furniture_choice2.png","images/furniture_choice3.png","images/furniture_choice1.png","[1,2,0]","1","0","2","images/furniture_choice3.png","-1","furniture","","chair","1","0"
"html-keyboard-response","100","511635","0.0-9.0-2.0-0.7","1595","1","2","""event"",""trial"",""time""
""fullscreenenter"",""1"",""3089""
","
","
","""event"",""trial"",""time""
""fullscreenenter"",""1"",""3089""
","
","","","","","","null","<div style=""font-size:60px;"">+</div>","null","","fixation","","","","","","","","","","","","","",""
"learning-trial","101","515645","0.0-9.0-2.0-1.7","1595","1","2","""event"",""trial"",""time""
""fullscreenenter"",""1"",""3089""
","
","
","""event"",""trial"",""time""
""fullscreenenter"",""1"",""3089""
","
","","","","","","1940.300000000745","images/bed5.png","","","learning","images/furniture_choice1.png","images/furniture_choice2.png","images/furniture_choice3.png","[0,1,2]","0","0","3","images/furniture_choice3.png","1","furniture","","bed","1","0"
"html-keyboard-response","102","516147","0.0-9.0-2.0-0.8","1595","1","2","""event"",""trial"",""time""
""fullscreenenter"",""1"",""3089""
","
","
","""event"",""trial"",""time""
""fullscreenenter"",""1"",""3089""
","
","","","","","","null","<div style=""font-size:60px;"">+</div>","null","","fixation","","","","","","","","","","","","","",""
"learning-trial","103","520154","0.0-9.0-2.0-1.8","1595","1","2","""event"",""trial"",""time""
""fullscreenenter"",""1"",""3089""
","
","
","""event"",""trial"",""time""
""fullscreenenter"",""1"",""3089""
","
","","","","","","1768.199999999255","images/chair1.png","","","learning","images/furniture_choice2.png","images/furniture_choice3.png","images/furniture_choice1.png","[1,2,0]","1","0","1","images/furniture_choice2.png","1","furniture","","chair","1","0"
"html-keyboard-response","104","520655","0.0-9.0-2.0-0.9","1595","1","2","""event"",""trial"",""time""
""fullscreenenter"",""1"",""3089""
","
","
","""event"",""trial"",""time""
""fullscreenenter"",""1"",""3089""
","
","","","","","","null","<div style=""font-size:60px;"">+</div>","null","","fixation","","","","","","","","","","","","","",""
"learning-trial","105","524662","0.0-9.0-2.0-1.9","1595","1","2","""event"",""trial"",""time""
""fullscreenenter"",""1"",""3089""
","
","
","""event"",""trial"",""time""
""fullscreenenter"",""1"",""3089""
","
","","","","","","1947.699999999255","images/chair1.png","","","learning","images/furniture_choice3.png","images/furniture_choice2.png","images/furniture_choice1.png","[2,1,0]","1","1","2","images/furniture_choice2.png","1","furniture","","chair","1","0"
"html-keyboard-response","106","525164","0.0-9.0-2.0-0.10","1595","1","2","""event"",""trial"",""time""
""fullscreenenter"",""1"",""3089""
","
","
","""event"",""trial"",""time""
""fullscreenenter"",""1"",""3089""
","
","","","","","","null","<div style=""font-size:60px;"">+</div>","null","","fixation","","","","","","","","","","","","","",""
"learning-trial","107","529172","0.0-9.0-2.0-1.10","1595","1","2","""event"",""trial"",""time""
""fullscreenenter"",""1"",""3089""
","
","
","""event"",""trial"",""time""
""fullscreenenter"",""1"",""3089""
","
","","","","","","928.6999999992549","images/chair1.png","","","learning","images/furniture_choice2.png","images/furniture_choice3.png","images/furniture_choice1.png","[1,2,0]","1","0","1","images/furniture_choice2.png","1","furniture","","chair","1","0"
"html-keyboard-response","108","529674","0.0-9.0-2.0-0.11","1595","1","2","""event"",""trial"",""time""
""fullscreenenter"",""1"",""3089""
","
","
","""event"",""trial"",""time""
""fullscreenenter"",""1"",""3089""
","
","","","","","","null","<div style=""font-size:60px;"">+</div>","null","","fixation","","","","","","","","","","","","","",""
"learning-trial","109","533681","0.0-9.0-2.0-1.11","1595","1","2","""event"",""trial"",""time""
""fullscreenenter"",""1"",""3089""
","
","
","""event"",""trial"",""time""
""fullscreenenter"",""1"",""3089""
","
","","","","","","1641","images/table3.png","","","learning","images/furniture_choice1.png","images/furniture_choice2.png","images/furniture_choice3.png","[0,1,2]","2","2","3","images/furniture_choice3.png","1","furniture","","table","1","0"
"html-keyboard-response","110","534183","0.0-9.0-2.0-0.12","1595","1","2","""event"",""trial"",""time""
""fullscreenenter"",""1"",""3089""
","
","
","""event"",""trial"",""time""
""fullscreenenter"",""1"",""3089""
","
","","","","","","null","<div style=""font-size:60px;"">+</div>","null","","fixation","","","","","","","","","","","","","",""
"learning-trial","111","538191","0.0-9.0-2.0-1.12","1595","1","2","""event"",""trial"",""time""
""fullscreenenter"",""1"",""3089""
","
","
","""event"",""trial"",""time""
""fullscreenenter"",""1"",""3089""
","
","","","","","","1516.7999999988824","images/bed5.png","","","learning","images/furniture_choice1.png","images/furniture_choice3.png","images/furniture_choice2.png","[0,2,1]","0","0","1","images/furniture_choice1.png","1","furniture","","bed","1","0"
"html-keyboard-response","112","538694","0.0-9.0-2.0-0.13","1595","1","2","""event"",""trial"",""time""
""fullscreenenter"",""1"",""3089""
","
","
","""event"",""trial"",""time""
""fullscreenenter"",""1"",""3089""
","
","","","","","","null","<div style=""font-size:60px;"">+</div>","null","","fixation","","","","","","","","","","","","","",""
"learning-trial","113","542700","0.0-9.0-2.0-1.13","1595","1","2","""event"",""trial"",""time""
""fullscreenenter"",""1"",""3089""
","
","
","""event"",""trial"",""time""
""fullscreenenter"",""1"",""3089""
","
","","","","","","1682.0999999996275","images/chair2.png","","","learning","images/furniture_choice1.png","images/furniture_choice3.png","images/furniture_choice2.png","[0,2,1]","1","2","2","images/furniture_choice3.png","-1","furniture","","chair","1","0"
"html-keyboard-response","114","543202","0.0-9.0-2.0-0.14","1595","1","2","""event"",""trial"",""time""
""fullscreenenter"",""1"",""3089""
","
","
","""event"",""trial"",""time""
""fullscreenenter"",""1"",""3089""
","
","","","","","","null","<div style=""font-size:60px;"">+</div>","null","","fixation","","","","","","","","","","","","","",""
"learning-trial","115","547211","0.0-9.0-2.0-1.14","1595","1","2","""event"",""trial"",""time""
""fullscreenenter"",""1"",""3089""
","
","
","""event"",""trial"",""time""
""fullscreenenter"",""1"",""3089""
","
","","","","","","1426.2000000011176","images/chair5.png","","","learning","images/furniture_choice1.png","images/furniture_choice3.png","images/furniture_choice2.png","[0,2,1]","1","2","1","images/furniture_choice1.png","-1","furniture","","chair","1","0"
"html-keyboard-response","116","547713","0.0-9.0-2.0-0.15","1595","1","2","""event"",""trial"",""time""
""fullscreenenter"",""1"",""3089""
","
","
","""event"",""trial"",""time""
""fullscreenenter"",""1"",""3089""
","
","","","","","","null","<div style=""font-size:60px;"">+</div>","null","","fixation","","","","","","","","","","","","","",""
"learning-trial","117","551722","0.0-9.0-2.0-1.15","1595","1","2","""event"",""trial"",""time""
""fullscreenenter"",""1"",""3089""
","
","
","""event"",""trial"",""time""
""fullscreenenter"",""1"",""3089""
","
","","","","","","1409.300000000745","images/table5.png","","","learning","images/furniture_choice3.png","images/furniture_choice2.png","images/furniture_choice1.png","[2,1,0]","2","0","3","images/furniture_choice1.png","-1","furniture","","table","1","0"
"html-keyboard-response","118","552225","0.0-9.0-2.0-0.16","1595","1","2","""event"",""trial"",""time""
""fullscreenenter"",""1"",""3089""
","
","
","""event"",""trial"",""time""
""fullscreenenter"",""1"",""3089""
","
","","","","","","null","<div style=""font-size:60px;"">+</div>","null","","fixation","","","","","","","","","","","","","",""
"learning-trial","119","556231","0.0-9.0-2.0-1.16","1595","1","2","""event"",""trial"",""time""
""fullscreenenter"",""1"",""3089""
","
","
","""event"",""trial"",""time""
""fullscreenenter"",""1"",""3089""
","
","","","","","","1332.0999999996275","images/bed4.png","","","learning","images/furniture_choice2.png","images/furniture_choice3.png","images/furniture_choice1.png","[1,2,0]","0","2","1","images/furniture_choice2.png","-1","furniture","","bed","1","0"
"html-keyboard-response","120","556734","0.0-9.0-2.0-0.17","1595","1","2","""event"",""trial"",""time""
""fullscreenenter"",""1"",""3089""
","
","
","""event"",""trial"",""time""
""fullscreenenter"",""1"",""3089""
","
","","","","","","null","<div style=""font-size:60px;"">+</div>","null","","fixation","","","","","","","","","","","","","",""
"learning-trial","121","560741","0.0-9.0-2.0-1.17","1595","1","2","""event"",""trial"",""time""
""fullscreenenter"",""1"",""3089""
","
","
","""event"",""trial"",""time""
""fullscreenenter"",""1"",""3089""
","
","","","","","","1312.4000000003725","images/bed5.png","","","learning","images/furniture_choice3.png","images/furniture_choice1.png","images/furniture_choice2.png","[2,0,1]","0","1","2","images/furniture_choice1.png","1","furniture","","bed","1","0"
"html-keyboard-response","122","561244","0.0-9.0-2.0-0.18","1595","1","2","""event"",""trial"",""time""
""fullscreenenter"",""1"",""3089""
","
","
","""event"",""trial"",""time""
""fullscreenenter"",""1"",""3089""
","
","","","","","","null","<div style=""font-size:60px;"">+</div>","null","","fixation","","","","","","","","","","","","","",""
"learning-trial","123","565251","0.0-9.0-2.0-1.18","1595","1","2","""event"",""trial"",""time""
""fullscreenenter"",""1"",""3089""
","
","
","""event"",""trial"",""time""
""fullscreenenter"",""1"",""3089""
","
","","","","","","1359.4000000003725","images/table5.png","","","learning","images/furniture_choice1.png","images/furniture_choice2.png","images/furniture_choice3.png","[0,1,2]","2","2","3","images/furniture_choice3.png","1","furniture","","table","1","0"
"html-keyboard-response","124","565754","0.0-9.0-2.0-0.19","1595","1","2","""event"",""trial"",""time""
""fullscreenenter"",""1"",""3089""
","
","
","""event"",""trial"",""time""
""fullscreenenter"",""1"",""3089""
","
","","","","","","null","<div style=""font-size:60px;"">+</div>","null","","fixation","","","","","","","","","","","","","",""
"learning-trial","125","569761","0.0-9.0-2.0-1.19","1595","1","2","""event"",""trial"",""time""
""fullscreenenter"",""1"",""3089""
","
","
","""event"",""trial"",""time""
""fullscreenenter"",""1"",""3089""
","
","","","","","","1078.5999999996275","images/table5.png","","","learning","images/furniture_choice2.png","images/furniture_choice3.png","images/furniture_choice1.png","[1,2,0]","2","1","2","images/furniture_choice3.png","1","furniture","","table","1","0"
"html-keyboard-response","126","570264","0.0-9.0-2.0-0.20","1595","1","2","""event"",""trial"",""time""
""fullscreenenter"",""1"",""3089""
","
","
","""event"",""trial"",""time""
""fullscreenenter"",""1"",""3089""
","
","","","","","","null","<div style=""font-size:60px;"">+</div>","null","","fixation","","","","","","","","","","","","","",""
"learning-trial","127","574270","0.0-9.0-2.0-1.20","1595","1","2","""event"",""trial"",""time""
""fullscreenenter"",""1"",""3089""
","
","
","""event"",""trial"",""time""
""fullscreenenter"",""1"",""3089""
","
","","","","","","1772.0999999996275","images/chair5.png","","","learning","images/furniture_choice1.png","images/furniture_choice2.png","images/furniture_choice3.png","[0,1,2]","1","1","2","images/furniture_choice2.png","1","furniture","","chair","1","0"
"html-keyboard-response","128","574773","0.0-9.0-2.0-0.21","1595","1","2","""event"",""trial"",""time""
""fullscreenenter"",""1"",""3089""
","
","
","""event"",""trial"",""time""
""fullscreenenter"",""1"",""3089""
","
","","","","","","null","<div style=""font-size:60px;"">+</div>","null","","fixation","","","","","","","","","","","","","",""
"learning-trial","129","578781","0.0-9.0-2.0-1.21","1595","1","2","""event"",""trial"",""time""
""fullscreenenter"",""1"",""3089""
","
","
","""event"",""trial"",""time""
""fullscreenenter"",""1"",""3089""
","
","","","","","","1009","images/bed5.png","","","learning","images/furniture_choice1.png","images/furniture_choice2.png","images/furniture_choice3.png","[0,1,2]","0","0","1","images/furniture_choice1.png","1","furniture","","bed","1","0"
"html-keyboard-response","130","579283","0.0-9.0-2.0-0.22","1595","1","2","""event"",""trial"",""time""
""fullscreenenter"",""1"",""3089""
","
","
","""event"",""trial"",""time""
""fullscreenenter"",""1"",""3089""
","
","","","","","","null","<div style=""font-size:60px;"">+</div>","null","","fixation","","","","","","","","","","","","","",""
"learning-trial","131","583292","0.0-9.0-2.0-1.22","1595","1","2","""event"",""trial"",""time""
""fullscreenenter"",""1"",""3089""
","
","
","""event"",""trial"",""time""
""fullscreenenter"",""1"",""3089""
","
","","","","","","1499.2999999988824","images/table5.png","","","learning","images/furniture_choice2.png","images/furniture_choice1.png","images/furniture_choice3.png","[1,0,2]","2","2","3","images/furniture_choice3.png","1","furniture","","table","1","0"
"html-keyboard-response","132","583794","0.0-9.0-2.0-0.23","1595","1","2","""event"",""trial"",""time""
""fullscreenenter"",""1"",""3089""
","
","
","""event"",""trial"",""time""
""fullscreenenter"",""1"",""3089""
","
","","","","","","null","<div style=""font-size:60px;"">+</div>","null","","fixation","","","","","","","","","","","","","",""
"learning-trial","133","587801","0.0-9.0-2.0-1.23","1595","1","2","""event"",""trial"",""time""
""fullscreenenter"",""1"",""3089""
","
","
","""event"",""trial"",""time""
""fullscreenenter"",""1"",""3089""
","
","","","","","","941.8000000007451","images/bed4.png","","","learning","images/furniture_choice2.png","images/furniture_choice1.png","images/furniture_choice3.png","[1,0,2]","0","1","2","images/furniture_choice1.png","-1","furniture","","bed","1","0"
"html-keyboard-response","134","588304","0.0-9.0-2.0-0.24","1595","1","2","""event"",""trial"",""time""
""fullscreenenter"",""1"",""3089""
","
","
","""event"",""trial"",""time""
""fullscreenenter"",""1"",""3089""
","
","","","","","","null","<div style=""font-size:60px;"">+</div>","null","","fixation","","","","","","","","","","","","","",""
"learning-trial","135","592310","0.0-9.0-2.0-1.24","1595","1","2","""event"",""trial"",""time""
""fullscreenenter"",""1"",""3089""
","
","
","""event"",""trial"",""time""
""fullscreenenter"",""1"",""3089""
","
","","","","","","1716.0999999996275","images/table3.png","","","learning","images/furniture_choice3.png","images/furniture_choice1.png","images/furniture_choice2.png","[2,0,1]","2","0","1","images/furniture_choice3.png","1","furniture","","table","1","0"
"html-keyboard-response","136","592812","0.0-9.0-2.0-0.25","1595","1","2","""event"",""trial"",""time""
""fullscreenenter"",""1"",""3089""
","
","
","""event"",""trial"",""time""
""fullscreenenter"",""1"",""3089""
","
","","","","","","null","<div style=""font-size:60px;"">+</div>","null","","fixation","","","","","","","","","","","","","",""
"learning-trial","137","596819","0.0-9.0-2.0-1.25","1595","1","2","""event"",""trial"",""time""
""fullscreenenter"",""1"",""3089""
","
","
","""event"",""trial"",""time""
""fullscreenenter"",""1"",""3089""
","
","","","","","","1378.4000000003725","images/bed5.png","","","learning","images/furniture_choice3.png","images/furniture_choice1.png","images/furniture_choice2.png","[2,0,1]","0","1","2","images/furniture_choice1.png","1","furniture","","bed","1","0"
"html-keyboard-response","138","597321","0.0-9.0-2.0-0.26","1595","1","2","""event"",""trial"",""time""
""fullscreenenter"",""1"",""3089""
","
","
","""event"",""trial"",""time""
""fullscreenenter"",""1"",""3089""
","
","","","","","","null","<div style=""font-size:60px;"">+</div>","null","","fixation","","","","","","","","","","","","","",""
"learning-trial","139","601329","0.0-9.0-2.0-1.26","1595","1","2","""event"",""trial"",""time""
""fullscreenenter"",""1"",""3089""
","
","
","""event"",""trial"",""time""
""fullscreenenter"",""1"",""3089""
","
","","","","","","1588.0999999996275","images/bed4.png","","","learning","images/furniture_choice2.png","images/furniture_choice1.png","images/furniture_choice3.png","[1,0,2]","0","1","1","images/furniture_choice2.png","-1","furniture","","bed","1","0"
"html-keyboard-response","140","601832","0.0-9.0-2.0-0.27","1595","1","2","""event"",""trial"",""time""
""fullscreenenter"",""1"",""3089""
","
","
","""event"",""trial"",""time""
""fullscreenenter"",""1"",""3089""
","
","","","","","","null","<div style=""font-size:60px;"">+</div>","null","","fixation","","","","","","","","","","","","","",""
"learning-trial","141","605839","0.0-9.0-2.0-1.27","1595","1","2","""event"",""trial"",""time""
""fullscreenenter"",""1"",""3089""
","
","
","""event"",""trial"",""time""
""fullscreenenter"",""1"",""3089""
","
","","","","","","1471.199999999255","images/chair5.png","","","learning","images/furniture_choice2.png","images/furniture_choice3.png","images/furniture_choice1.png","[1,2,0]","1","0","2","images/furniture_choice3.png","1","furniture","","chair","1","0"
"html-keyboard-response","142","606341","0.0-9.0-2.0-0.28","1595","1","2","""event"",""trial"",""time""
""fullscreenenter"",""1"",""3089""
","
","
","""event"",""trial"",""time""
""fullscreenenter"",""1"",""3089""
","
","","","","","","null","<div style=""font-size:60px;"">+</div>","null","","fixation","","","","","","","","","","","","","",""
"learning-trial","143","610343","0.0-9.0-2.0-1.28","1595","1","2","""event"",""trial"",""time""
""fullscreenenter"",""1"",""3089""
","
","
","""event"",""trial"",""time""
""fullscreenenter"",""1"",""3089""
","
","","","","","","1612","images/table1.png","","","learning","images/furniture_choice2.png","images/furniture_choice3.png","images/furniture_choice1.png","[1,2,0]","2","1","1","images/furniture_choice2.png","-1","furniture","","table","1","0"
"html-keyboard-response","144","610845","0.0-9.0-2.0-0.29","1595","1","2","""event"",""trial"",""time""
""fullscreenenter"",""1"",""3089""
","
","
","""event"",""trial"",""time""
""fullscreenenter"",""1"",""3089""
","
","","","","","","null","<div style=""font-size:60px;"">+</div>","null","","fixation","","","","","","","","","","","","","",""
"learning-trial","145","614852","0.0-9.0-2.0-1.29","1595","1","2","""event"",""trial"",""time""
""fullscreenenter"",""1"",""3089""
","
","
","""event"",""trial"",""time""
""fullscreenenter"",""1"",""3089""
","
","","","","","","1880","images/chair1.png","","","learning","images/furniture_choice2.png","images/furniture_choice1.png","images/furniture_choice3.png","[1,0,2]","1","0","1","images/furniture_choice2.png","1","furniture","","chair","1","0"
"html-keyboard-response","146","615354","0.0-9.0-2.0-0.30","1595","1","2","""event"",""trial"",""time""
""fullscreenenter"",""1"",""3089""
","
","
","""event"",""trial"",""time""
""fullscreenenter"",""1"",""3089""
","
","","","","","","null","<div style=""font-size:60px;"">+</div>","null","","fixation","","","","","","","","","","","","","",""
"learning-trial","147","619361","0.0-9.0-2.0-1.30","1595","1","2","""event"",""trial"",""time""
""fullscreenenter"",""1"",""3089""
","
","
","""event"",""trial"",""time""
""fullscreenenter"",""1"",""3089""
","
","","","","","","1846.699999999255","images/bed2.png","","","learning","images/furniture_choice1.png","images/furniture_choice2.png","images/furniture_choice3.png","[0,1,2]","0","0","3","images/furniture_choice3.png","1","furniture","","bed","1","0"
"html-keyboard-response","148","619864","0.0-9.0-2.0-0.31","1595","1","2","""event"",""trial"",""time""
""fullscreenenter"",""1"",""3089""
","
","
","""event"",""trial"",""time""
""fullscreenenter"",""1"",""3089""
","
","","","","","","null","<div style=""font-size:60px;"">+</div>","null","","fixation","","","","","","","","","","","","","",""
"learning-trial","149","623872","0.0-9.0-2.0-1.31","1595","1","2","""event"",""trial"",""time""
""fullscreenenter"",""1"",""3089""
","
","
","""event"",""trial"",""time""
""fullscreenenter"",""1"",""3089""
","
","","","","","","1452.0999999996275","images/chair2.png","","","learning","images/furniture_choice1.png","images/furniture_choice2.png","images/furniture_choice3.png","[0,1,2]","1","1","2","images/furniture_choice2.png","-1","furniture","","chair","1","0"
"html-keyboard-response","150","624374","0.0-9.0-2.0-0.32","1595","1","2","""event"",""trial"",""time""
""fullscreenenter"",""1"",""3089""
","
","
","""event"",""trial"",""time""
""fullscreenenter"",""1"",""3089""
","
","","","","","","null","<div style=""font-size:60px;"">+</div>","null","","fixation","","","","","","","","","","","","","",""
"learning-trial","151","628382","0.0-9.0-2.0-1.32","1595","1","2","""event"",""trial"",""time""
""fullscreenenter"",""1"",""3089""
","
","
","""event"",""trial"",""time""
""fullscreenenter"",""1"",""3089""
","
","","","","","","2232.0999999996275","images/chair1.png","","","learning","images/furniture_choice1.png","images/furniture_choice3.png","images/furniture_choice2.png","[0,2,1]","1","2","3","images/furniture_choice2.png","1","furniture","","chair","1","0"
"html-keyboard-response","152","628885","0.0-9.0-2.0-0.33","1595","1","2","""event"",""trial"",""time""
""fullscreenenter"",""1"",""3089""
","
","
","""event"",""trial"",""time""
""fullscreenenter"",""1"",""3089""
","
","","","","","","null","<div style=""font-size:60px;"">+</div>","null","","fixation","","","","","","","","","","","","","",""
"learning-trial","153","632891","0.0-9.0-2.0-1.33","1595","1","2","""event"",""trial"",""time""
""fullscreenenter"",""1"",""3089""
","
","
","""event"",""trial"",""time""
""fullscreenenter"",""1"",""3089""
","
","","","","","","1734.5","images/bed2.png","","","learning","images/furniture_choice3.png","images/furniture_choice2.png","images/furniture_choice1.png","[2,1,0]","0","2","1","images/furniture_choice3.png","-1","furniture","","bed","1","0"
"html-keyboard-response","154","633393","0.0-9.0-2.0-0.34","1595","1","2","""event"",""trial"",""time""
""fullscreenenter"",""1"",""3089""
","
","
","""event"",""trial"",""time""
""fullscreenenter"",""1"",""3089""
","
","","","","","","null","<div style=""font-size:60px;"">+</div>","null","","fixation","","","","","","","","","","","","","",""
"learning-trial","155","637401","0.0-9.0-2.0-1.34","1595","1","2","""event"",""trial"",""time""
""fullscreenenter"",""1"",""3089""
","
","
","""event"",""trial"",""time""
""fullscreenenter"",""1"",""3089""
","
","","","","","","1181.5","images/chair5.png","","","learning","images/furniture_choice1.png","images/furniture_choice3.png","images/furniture_choice2.png","[0,2,1]","1","2","2","images/furniture_choice3.png","-1","furniture","","chair","1","0"
"html-keyboard-response","156","637904","0.0-9.0-2.0-0.35","1595","1","2","""event"",""trial"",""time""
""fullscreenenter"",""1"",""3089""
","
","
","""event"",""trial"",""time""
""fullscreenenter"",""1"",""3089""
","
","","","","","","null","<div style=""font-size:60px;"">+</div>","null","","fixation","","","","","","","","","","","","","",""
"learning-trial","157","641911","0.0-9.0-2.0-1.35","1595","1","2","""event"",""trial"",""time""
""fullscreenenter"",""1"",""3089""
","
","
","""event"",""trial"",""time""
""fullscreenenter"",""1"",""3089""
","
","","","","","","933.9000000003725","images/bed4.png","","","learning","images/furniture_choice1.png","images/furniture_choice3.png","images/furniture_choice2.png","[0,2,1]","0","0","3","images/furniture_choice2.png","-1","furniture","","bed","1","0"
"html-keyboard-response","158","642414","0.0-9.0-2.0-0.36","1595","1","2","""event"",""trial"",""time""
""fullscreenenter"",""1"",""3089""
","
","
","""event"",""trial"",""time""
""fullscreenenter"",""1"",""3089""
","
","","","","","","null","<div style=""font-size:60px;"">+</div>","null","","fixation","","","","","","","","","","","","","",""
"learning-trial","159","646422","0.0-9.0-2.0-1.36","1595","1","2","""event"",""trial"",""time""
""fullscreenenter"",""1"",""3089""
","
","
","""event"",""trial"",""time""
""fullscreenenter"",""1"",""3089""
","
","","","","","","1276.4000000003725","images/chair2.png","","","learning","images/furniture_choice2.png","images/furniture_choice1.png","images/furniture_choice3.png","[1,0,2]","1","0","1","images/furniture_choice2.png","1","furniture","","chair","1","0"
"html-keyboard-response","160","646924","0.0-9.0-2.0-0.37","1595","1","2","""event"",""trial"",""time""
""fullscreenenter"",""1"",""3089""
","
","
","""event"",""trial"",""time""
""fullscreenenter"",""1"",""3089""
","
","","","","","","null","<div style=""font-size:60px;"">+</div>","null","","fixation","","","","","","","","","","","","","",""
"learning-trial","161","650932","0.0-9.0-2.0-1.37","1595","1","2","""event"",""trial"",""time""
""fullscreenenter"",""1"",""3089""
","
","
","""event"",""trial"",""time""
""fullscreenenter"",""1"",""3089""
","
","","","","","","1529.800000000745","images/table1.png","","","learning","images/furniture_choice1.png","images/furniture_choice2.png","images/furniture_choice3.png","[0,1,2]","2","2","3","images/furniture_choice3.png","1","furniture","","table","1","0"
"html-keyboard-response","162","651433","0.0-9.0-2.0-0.38","1595","1","2","""event"",""trial"",""time""
""fullscreenenter"",""1"",""3089""
","
","
","""event"",""trial"",""time""
""fullscreenenter"",""1"",""3089""
","
","","","","","","null","<div style=""font-size:60px;"">+</div>","null","","fixation","","","","","","","","","","","","","",""
"learning-trial","163","655437","0.0-9.0-2.0-1.38","1595","1","2","""event"",""trial"",""time""
""fullscreenenter"",""1"",""3089""
","
","
","""event"",""trial"",""time""
""fullscreenenter"",""1"",""3089""
","
","","","","","","2370","images/table3.png","","","learning","images/furniture_choice2.png","images/furniture_choice3.png","images/furniture_choice1.png","[1,2,0]","2","1","3","images/furniture_choice1.png","-1","furniture","","table","1","0"
"html-keyboard-response","164","655939","0.0-9.0-2.0-0.39","1595","1","2","""event"",""trial"",""time""
""fullscreenenter"",""1"",""3089""
","
","
","""event"",""trial"",""time""
""fullscreenenter"",""1"",""3089""
","
","","","","","","null","<div style=""font-size:60px;"">+</div>","null","","fixation","","","","","","","","","","","","","",""
"learning-trial","165","659944","0.0-9.0-2.0-1.39","1595","1","2","""event"",""trial"",""time""
""fullscreenenter"",""1"",""3089""
","
","
","""event"",""trial"",""time""
""fullscreenenter"",""1"",""3089""
","
","","","","","","1081.800000000745","images/table1.png","","","learning","images/furniture_choice3.png","images/furniture_choice2.png","images/furniture_choice1.png","[2,1,0]","2","0","1","images/furniture_choice3.png","1","furniture","","table","1","0"
"html-keyboard-response","166","660447","0.0-9.0-2.0-0.40","1595","1","2","""event"",""trial"",""time""
""fullscreenenter"",""1"",""3089""
","
","
","""event"",""trial"",""time""
""fullscreenenter"",""1"",""3089""
","
","","","","","","null","<div style=""font-size:60px;"">+</div>","null","","fixation","","","","","","","","","","","","","",""
"learning-trial","167","664455","0.0-9.0-2.0-1.40","1595","1","2","""event"",""trial"",""time""
""fullscreenenter"",""1"",""3089""
","
","
","""event"",""trial"",""time""
""fullscreenenter"",""1"",""3089""
","
","","","","","","2680.9000000003725","images/bed5.png","","","learning","images/furniture_choice3.png","images/furniture_choice1.png","images/furniture_choice2.png","[2,0,1]","0","1","3","images/furniture_choice2.png","-1","furniture","","bed","1","0"
"html-keyboard-response","168","664958","0.0-9.0-2.0-0.41","1595","1","2","""event"",""trial"",""time""
""fullscreenenter"",""1"",""3089""
","
","
","""event"",""trial"",""time""
""fullscreenenter"",""1"",""3089""
","
","","","","","","null","<div style=""font-size:60px;"">+</div>","null","","fixation","","","","","","","","","","","","","",""
"learning-trial","169","668967","0.0-9.0-2.0-1.41","1595","1","2","""event"",""trial"",""time""
""fullscreenenter"",""1"",""3089""
","
","
","""event"",""trial"",""time""
""fullscreenenter"",""1"",""3089""
","
","","","","","","1404.199999999255","images/bed2.png","","","learning","images/furniture_choice3.png","images/furniture_choice2.png","images/furniture_choice1.png","[2,1,0]","0","2","1","images/furniture_choice3.png","-1","furniture","","bed","1","0"
"html-keyboard-response","170","669470","0.0-9.0-2.0-0.42","1595","1","2","""event"",""trial"",""time""
""fullscreenenter"",""1"",""3089""
","
","
","""event"",""trial"",""time""
""fullscreenenter"",""1"",""3089""
","
","","","","","","null","<div style=""font-size:60px;"">+</div>","null","","fixation","","","","","","","","","","","","","",""
"learning-trial","171","673479","0.0-9.0-2.0-1.42","1595","1","2","""event"",""trial"",""time""
""fullscreenenter"",""1"",""3089""
","
","
","""event"",""trial"",""time""
""fullscreenenter"",""1"",""3089""
","
","","","","","","988","images/chair5.png","","","learning","images/furniture_choice3.png","images/furniture_choice2.png","images/furniture_choice1.png","[2,1,0]","1","1","2","images/furniture_choice2.png","-1","furniture","","chair","1","0"
"html-keyboard-response","172","673981","0.0-9.0-2.0-0.43","1595","1","2","""event"",""trial"",""time""
""fullscreenenter"",""1"",""3089""
","
","
","""event"",""trial"",""time""
""fullscreenenter"",""1"",""3089""
","
","","","","","","null","<div style=""font-size:60px;"">+</div>","null","","fixation","","","","","","","","","","","","","",""
"learning-trial","173","677989","0.0-9.0-2.0-1.43","1595","1","2","""event"",""trial"",""time""
""fullscreenenter"",""1"",""3089""
","
","
","""event"",""trial"",""time""
""fullscreenenter"",""1"",""3089""
","
","","","","","","1270.4000000003725","images/table1.png","","","learning","images/furniture_choice3.png","images/furniture_choice1.png","images/furniture_choice2.png","[2,0,1]","2","0","1","images/furniture_choice3.png","1","furniture","","table","1","0"
"html-keyboard-response","174","678491","0.0-9.0-2.0-0.44","1595","1","2","""event"",""trial"",""time""
""fullscreenenter"",""1"",""3089""
","
","
","""event"",""trial"",""time""
""fullscreenenter"",""1"",""3089""
","
","","","","","","null","<div style=""font-size:60px;"">+</div>","null","","fixation","","","","","","","","","","","","","",""
"learning-trial","175","682500","0.0-9.0-2.0-1.44","1595","1","2","""event"",""trial"",""time""
""fullscreenenter"",""1"",""3089""
","
","
","""event"",""trial"",""time""
""fullscreenenter"",""1"",""3089""
","
","","","","","","2424.10000000149","images/table3.png","","","learning","images/furniture_choice3.png","images/furniture_choice2.png","images/furniture_choice1.png","[2,1,0]","2","0","2","images/furniture_choice2.png","-1","furniture","","table","1","0"
"html-keyboard-response","176","683003","0.0-9.0-2.0-0.45","1595","1","2","""event"",""trial"",""time""
""fullscreenenter"",""1"",""3089""
","
","
","""event"",""trial"",""time""
""fullscreenenter"",""1"",""3089""
","
","","","","","","null","<div style=""font-size:60px;"">+</div>","null","","fixation","","","","","","","","","","","","","",""
"learning-trial","177","687011","0.0-9.0-2.0-1.45","1595","1","2","""event"",""trial"",""time""
""fullscreenenter"",""1"",""3089""
","
","
","""event"",""trial"",""time""
""fullscreenenter"",""1"",""3089""
","
","","","","","","1773.9000000003725","images/bed4.png","","","learning","images/furniture_choice3.png","images/furniture_choice1.png","images/furniture_choice2.png","[2,0,1]","0","1","1","images/furniture_choice3.png","-1","furniture","","bed","1","0"
"html-keyboard-response","178","687514","0.0-9.0-2.0-0.46","1595","1","2","""event"",""trial"",""time""
""fullscreenenter"",""1"",""3089""
","
","
","""event"",""trial"",""time""
""fullscreenenter"",""1"",""3089""
","
","","","","","","null","<div style=""font-size:60px;"">+</div>","null","","fixation","","","","","","","","","","","","","",""
"learning-trial","179","691521","0.0-9.0-2.0-1.46","1595","1","2","""event"",""trial"",""time""
""fullscreenenter"",""1"",""3089""
","
","
","""event"",""trial"",""time""
""fullscreenenter"",""1"",""3089""
","
","","","","","","1082.9000000003725","images/table1.png","","","learning","images/furniture_choice3.png","images/furniture_choice2.png","images/furniture_choice1.png","[2,1,0]","2","0","1","images/furniture_choice3.png","1","furniture","","table","1","0"
"html-keyboard-response","180","692024","0.0-9.0-2.0-0.47","1595","1","2","""event"",""trial"",""time""
""fullscreenenter"",""1"",""3089""
","
","
","""event"",""trial"",""time""
""fullscreenenter"",""1"",""3089""
","
","","","","","","null","<div style=""font-size:60px;"">+</div>","null","","fixation","","","","","","","","","","","","","",""
"learning-trial","181","696030","0.0-9.0-2.0-1.47","1595","1","2","""event"",""trial"",""time""
""fullscreenenter"",""1"",""3089""
","
","
","""event"",""trial"",""time""
""fullscreenenter"",""1"",""3089""
","
","","","","","","1189.4000000003725","images/chair1.png","","","learning","images/furniture_choice1.png","images/furniture_choice2.png","images/furniture_choice3.png","[0,1,2]","1","1","3","images/furniture_choice3.png","-1","furniture","","chair","1","0"
"html-keyboard-response","182","696534","0.0-9.0-2.0-0.48","1595","1","2","""event"",""trial"",""time""
""fullscreenenter"",""1"",""3089""
","
","
","""event"",""trial"",""time""
""fullscreenenter"",""1"",""3089""
","
","","","","","","null","<div style=""font-size:60px;"">+</div>","null","","fixation","","","","","","","","","","","","","",""
"learning-trial","183","700543","0.0-9.0-2.0-1.48","1595","1","2","""event"",""trial"",""time""
""fullscreenenter"",""1"",""3089""
","
","
","""event"",""trial"",""time""
""fullscreenenter"",""1"",""3089""
","
","","","","","","1448.2000000011176","images/chair2.png","","","learning","images/furniture_choice1.png","images/furniture_choice2.png","images/furniture_choice3.png","[0,1,2]","1","1","2","images/furniture_choice2.png","1","furniture","","chair","1","0"
"html-keyboard-response","184","701046","0.0-9.0-2.0-0.49","1595","1","2","""event"",""trial"",""time""
""fullscreenenter"",""1"",""3089""
","
","
","""event"",""trial"",""time""
""fullscreenenter"",""1"",""3089""
","
","","","","","","null","<div style=""font-size:60px;"">+</div>","null","","fixation","","","","","","","","","","","","","",""
"learning-trial","185","705054","0.0-9.0-2.0-1.49","1595","1","2","""event"",""trial"",""time""
""fullscreenenter"",""1"",""3089""
","
","
","""event"",""trial"",""time""
""fullscreenenter"",""1"",""3089""
","
","","","","","","2309.699999999255","images/table5.png","","","learning","images/furniture_choice1.png","images/furniture_choice3.png","images/furniture_choice2.png","[0,2,1]","2","1","3","images/furniture_choice2.png","-1","furniture","","table","1","0"
"html-keyboard-response","186","705557","0.0-9.0-2.0-0.50","1595","1","2","""event"",""trial"",""time""
""fullscreenenter"",""1"",""3089""
","
","
","""event"",""trial"",""time""
""fullscreenenter"",""1"",""3089""
","
","","","","","","null","<div style=""font-size:60px;"">+</div>","null","","fixation","","","","","","","","","","","","","",""
"learning-trial","187","709565","0.0-9.0-2.0-1.50","1595","1","2","""event"",""trial"",""time""
""fullscreenenter"",""1"",""3089""
","
","
","""event"",""trial"",""time""
""fullscreenenter"",""1"",""3089""
","
","","","","","","1858.2000000011176","images/table5.png","","","learning","images/furniture_choice3.png","images/furniture_choice2.png","images/furniture_choice1.png","[2,1,0]","2","0","1","images/furniture_choice3.png","1","furniture","","table","1","0"
"html-keyboard-response","188","710068","0.0-9.0-2.0-0.51","1595","1","2","""event"",""trial"",""time""
""fullscreenenter"",""1"",""3089""
","
","
","""event"",""trial"",""time""
""fullscreenenter"",""1"",""3089""
","
","","","","","","null","<div style=""font-size:60px;"">+</div>","null","","fixation","","","","","","","","","","","","","",""
"learning-trial","189","714074","0.0-9.0-2.0-1.51","1595","1","2","""event"",""trial"",""time""
""fullscreenenter"",""1"",""3089""
","
","
","""event"",""trial"",""time""
""fullscreenenter"",""1"",""3089""
","
","","","","","","1520.5999999996275","images/bed2.png","","","learning","images/furniture_choice3.png","images/furniture_choice2.png","images/furniture_choice1.png","[2,1,0]","0","2","3","images/furniture_choice1.png","1","furniture","","bed","1","0"
"html-keyboard-response","190","714576","0.0-9.0-2.0-0.52","1595","1","2","""event"",""trial"",""time""
""fullscreenenter"",""1"",""3089""
","
","
","""event"",""trial"",""time""
""fullscreenenter"",""1"",""3089""
","
","","","","","","null","<div style=""font-size:60px;"">+</div>","null","","fixation","","","","","","","","","","","","","",""
"learning-trial","191","718583","0.0-9.0-2.0-1.52","1595","1","2","""event"",""trial"",""time""
""fullscreenenter"",""1"",""3089""
","
","
","""event"",""trial"",""time""
""fullscreenenter"",""1"",""3089""
","
","","","","","","1409.199999999255","images/bed4.png","","","learning","images/furniture_choice3.png","images/furniture_choice2.png","images/furniture_choice1.png","[2,1,0]","0","2","1","images/furniture_choice3.png","-1","furniture","","bed","1","0"
"html-keyboard-response","192","719085","0.0-9.0-2.0-0.53","1595","1","2","""event"",""trial"",""time""
""fullscreenenter"",""1"",""3089""
","
","
","""event"",""trial"",""time""
""fullscreenenter"",""1"",""3089""
","
","","","","","","null","<div style=""font-size:60px;"">+</div>","null","","fixation","","","","","","","","","","","","","",""
"learning-trial","193","723091","0.0-9.0-2.0-1.53","1595","1","2","""event"",""trial"",""time""
""fullscreenenter"",""1"",""3089""
","
","
","""event"",""trial"",""time""
""fullscreenenter"",""1"",""3089""
","
","","","","","","981.8000000007451","images/bed2.png","","","learning","images/furniture_choice2.png","images/furniture_choice1.png","images/furniture_choice3.png","[1,0,2]","0","1","2","images/furniture_choice1.png","1","furniture","","bed","1","0"
"html-keyboard-response","194","723593","0.0-9.0-2.0-0.54","1595","1","2","""event"",""trial"",""time""
""fullscreenenter"",""1"",""3089""
","
","
","""event"",""trial"",""time""
""fullscreenenter"",""1"",""3089""
","
","","","","","","null","<div style=""font-size:60px;"">+</div>","null","","fixation","","","","","","","","","","","","","",""
"learning-trial","195","727600","0.0-9.0-2.0-1.54","1595","1","2","""event"",""trial"",""time""
""fullscreenenter"",""1"",""3089""
","
","
","""event"",""trial"",""time""
""fullscreenenter"",""1"",""3089""
","
","","","","","","1170.0999999996275","images/table3.png","","","learning","images/furniture_choice1.png","images/furniture_choice2.png","images/furniture_choice3.png","[0,1,2]","2","2","3","images/furniture_choice3.png","1","furniture","","table","1","0"
"html-keyboard-response","196","728102","0.0-9.0-2.0-0.55","1595","1","2","""event"",""trial"",""time""
""fullscreenenter"",""1"",""3089""
","
","
","""event"",""trial"",""time""
""fullscreenenter"",""1"",""3089""
","
","","","","","","null","<div style=""font-size:60px;"">+</div>","null","","fixation","","","","","","","","","","","","","",""
"learning-trial","197","732109","0.0-9.0-2.0-1.55","1595","1","2","""event"",""trial"",""time""
""fullscreenenter"",""1"",""3089""
","
","
","""event"",""trial"",""time""
""fullscreenenter"",""1"",""3089""
","
","","","","","","1276.4000000003725","images/chair1.png","","","learning","images/furniture_choice1.png","images/furniture_choice2.png","images/furniture_choice3.png","[0,1,2]","1","1","1","images/furniture_choice1.png","-1","furniture","","chair","1","0"
"html-keyboard-response","198","732611","0.0-9.0-2.0-0.56","1595","1","2","""event"",""trial"",""time""
""fullscreenenter"",""1"",""3089""
","
","
","""event"",""trial"",""time""
""fullscreenenter"",""1"",""3089""
","
","","","","","","null","<div style=""font-size:60px;"">+</div>","null","","fixation","","","","","","","","","","","","","",""
"learning-trial","199","736618","0.0-9.0-2.0-1.56","1595","1","2","""event"",""trial"",""time""
""fullscreenenter"",""1"",""3089""
","
","
","""event"",""trial"",""time""
""fullscreenenter"",""1"",""3089""
","
","","","","","","1048.5","images/bed2.png","","","learning","images/furniture_choice1.png","images/furniture_choice2.png","images/furniture_choice3.png","[0,1,2]","0","0","1","images/furniture_choice1.png","1","furniture","","bed","1","0"
"html-keyboard-response","200","737121","0.0-9.0-2.0-0.57","1595","1","2","""event"",""trial"",""time""
""fullscreenenter"",""1"",""3089""
","
","
","""event"",""trial"",""time""
""fullscreenenter"",""1"",""3089""
","
","","","","","","null","<div style=""font-size:60px;"">+</div>","null","","fixation","","","","","","","","","","","","","",""
"learning-trial","201","741127","0.0-9.0-2.0-1.57","1595","1","2","""event"",""trial"",""time""
""fullscreenenter"",""1"",""3089""
","
","
","""event"",""trial"",""time""
""fullscreenenter"",""1"",""3089""
","
","","","","","","1099.5999999996275","images/chair2.png","","","learning","images/furniture_choice3.png","images/furniture_choice1.png","images/furniture_choice2.png","[2,0,1]","1","2","3","images/furniture_choice2.png","1","furniture","","chair","1","0"
"html-keyboard-response","202","741629","0.0-9.0-2.0-0.58","1595","1","2","""event"",""trial"",""time""
""fullscreenenter"",""1"",""3089""
","
","
","""event"",""trial"",""time""
""fullscreenenter"",""1"",""3089""
","
","","","","","","null","<div style=""font-size:60px;"">+</div>","null","","fixation","","","","","","","","","","","","","",""
"learning-trial","203","745636","0.0-9.0-2.0-1.58","1595","1","2","""event"",""trial"",""time""
""fullscreenenter"",""1"",""3089""
","
","
","""event"",""trial"",""time""
""fullscreenenter"",""1"",""3089""
","
","","","","","","1044.7000000011176","images/table1.png","","","learning","images/furniture_choice1.png","images/furniture_choice3.png","images/furniture_choice2.png","[0,2,1]","2","1","2","images/furniture_choice3.png","1","furniture","","table","1","0"
"html-keyboard-response","204","746138","0.0-9.0-2.0-0.59","1595","1","2","""event"",""trial"",""time""
""fullscreenenter"",""1"",""3089""
","
","
","""event"",""trial"",""time""
""fullscreenenter"",""1"",""3089""
","
","","","","","","null","<div style=""font-size:60px;"">+</div>","null","","fixation","","","","","","","","","","","","","",""
"learning-trial","205","750145","0.0-9.0-2.0-1.59","1595","1","2","""event"",""trial"",""time""
""fullscreenenter"",""1"",""3089""
","
","
","""event"",""trial"",""time""
""fullscreenenter"",""1"",""3089""
","
","","","","","","929.8000000007451","images/chair1.png","","","learning","images/furniture_choice2.png","images/furniture_choice3.png","images/furniture_choice1.png","[1,2,0]","1","0","1","images/furniture_choice2.png","1","furniture","","chair","1","0"
"html-keyboard-response","206","750648","0.0-9.0-2.0-0.60","1595","1","2","""event"",""trial"",""time""
""fullscreenenter"",""1"",""3089""
","
","
","""event"",""trial"",""time""
""fullscreenenter"",""1"",""3089""
","
","","","","","","null","<div style=""font-size:60px;"">+</div>","null","","fixation","","","","","","","","","","","","","",""
"learning-trial","207","754654","0.0-9.0-2.0-1.60","1595","1","2","""event"",""trial"",""time""
""fullscreenenter"",""1"",""3089""
","
","
","""event"",""trial"",""time""
""fullscreenenter"",""1"",""3089""
","
","","","","","","937.3999999985099","images/chair5.png","","","learning","images/furniture_choice2.png","images/furniture_choice3.png","images/furniture_choice1.png","[1,2,0]","1","0","2","images/furniture_choice3.png","-1","furniture","","chair","1","0"
"html-keyboard-response","208","755158","0.0-9.0-2.0-0.61","1595","1","2","""event"",""trial"",""time""
""fullscreenenter"",""1"",""3089""
","
","
","""event"",""trial"",""time""
""fullscreenenter"",""1"",""3089""
","
","","","","","","null","<div style=""font-size:60px;"">+</div>","null","","fixation","","","","","","","","","","","","","",""
"learning-trial","209","759164","0.0-9.0-2.0-1.61","1595","1","2","""event"",""trial"",""time""
""fullscreenenter"",""1"",""3089""
","
","
","""event"",""trial"",""time""
""fullscreenenter"",""1"",""3089""
","
","","","","","","1724.5999999996275","images/bed4.png","","","learning","images/furniture_choice2.png","images/furniture_choice3.png","images/furniture_choice1.png","[1,2,0]","0","2","1","images/furniture_choice2.png","-1","furniture","","bed","1","0"
"html-keyboard-response","210","759667","0.0-9.0-2.0-0.62","1595","1","2","""event"",""trial"",""time""
""fullscreenenter"",""1"",""3089""
","
","
","""event"",""trial"",""time""
""fullscreenenter"",""1"",""3089""
","
","","","","","","null","<div style=""font-size:60px;"">+</div>","null","","fixation","","","","","","","","","","","","","",""
"learning-trial","211","763674","0.0-9.0-2.0-1.62","1595","1","2","""event"",""trial"",""time""
""fullscreenenter"",""1"",""3089""
","
","
","""event"",""trial"",""time""
""fullscreenenter"",""1"",""3089""
","
","","","","","","942.7999999988824","images/bed2.png","","","learning","images/furniture_choice1.png","images/furniture_choice3.png","images/furniture_choice2.png","[0,2,1]","0","0","1","images/furniture_choice1.png","1","furniture","","bed","1","0"
"html-keyboard-response","212","764177","0.0-9.0-2.0-0.63","1595","1","2","""event"",""trial"",""time""
""fullscreenenter"",""1"",""3089""
","
","
","""event"",""trial"",""time""
""fullscreenenter"",""1"",""3089""
","
","","","","","","null","<div style=""font-size:60px;"">+</div>","null","","fixation","","","","","","","","","","","","","",""
"learning-trial","213","768184","0.0-9.0-2.0-1.63","1595","1","2","""event"",""trial"",""time""
""fullscreenenter"",""1"",""3089""
","
","
","""event"",""trial"",""time""
""fullscreenenter"",""1"",""3089""
","
","","","","","","1103.0999999996275","images/table1.png","","","learning","images/furniture_choice2.png","images/furniture_choice1.png","images/furniture_choice3.png","[1,0,2]","2","2","3","images/furniture_choice3.png","1","furniture","","table","1","0"
"html-keyboard-response","214","768687","0.0-9.0-2.0-0.64","1595","1","2","""event"",""trial"",""time""
""fullscreenenter"",""1"",""3089""
","
","
","""event"",""trial"",""time""
""fullscreenenter"",""1"",""3089""
","
","","","","","","null","<div style=""font-size:60px;"">+</div>","null","","fixation","","","","","","","","","","","","","",""
"learning-trial","215","772694","0.0-9.0-2.0-1.64","1595","1","2","""event"",""trial"",""time""
""fullscreenenter"",""1"",""3089""
","
","
","""event"",""trial"",""time""
""fullscreenenter"",""1"",""3089""
","
","","","","","","2058.199999999255","images/bed4.png","","","learning","images/furniture_choice2.png","images/furniture_choice1.png","images/furniture_choice3.png","[1,0,2]","0","1","2","images/furniture_choice1.png","1","furniture","","bed","1","0"
"html-keyboard-response","216","773196","0.0-9.0-2.0-0.65","1595","1","2","""event"",""trial"",""time""
""fullscreenenter"",""1"",""3089""
","
","
","""event"",""trial"",""time""
""fullscreenenter"",""1"",""3089""
","
","","","","","","null","<div style=""font-size:60px;"">+</div>","null","","fixation","","","","","","","","","","","","","",""
"learning-trial","217","777202","0.0-9.0-2.0-1.65","1595","1","2","""event"",""trial"",""time""
""fullscreenenter"",""1"",""3089""
","
","
","""event"",""trial"",""time""
""fullscreenenter"",""1"",""3089""
","
","","","","","","1139.699999999255","images/table3.png","","","learning","images/furniture_choice1.png","images/furniture_choice2.png","images/furniture_choice3.png","[0,1,2]","2","2","3","images/furniture_choice3.png","1","furniture","","table","1","0"
"html-keyboard-response","218","777703","0.0-9.0-2.0-0.66","1595","1","2","""event"",""trial"",""time""
""fullscreenenter"",""1"",""3089""
","
","
","""event"",""trial"",""time""
""fullscreenenter"",""1"",""3089""
","
","","","","","","null","<div style=""font-size:60px;"">+</div>","null","","fixation","","","","","","","","","","","","","",""
"learning-trial","219","781706","0.0-9.0-2.0-1.66","1595","1","2","""event"",""trial"",""time""
""fullscreenenter"",""1"",""3089""
","
","
","""event"",""trial"",""time""
""fullscreenenter"",""1"",""3089""
","
","","","","","","1732.699999999255","images/chair2.png","","","learning","images/furniture_choice2.png","images/furniture_choice3.png","images/furniture_choice1.png","[1,2,0]","1","0","2","images/furniture_choice3.png","-1","furniture","","chair","1","0"
"html-keyboard-response","220","782208","0.0-9.0-2.0-0.67","1595","1","2","""event"",""trial"",""time""
""fullscreenenter"",""1"",""3089""
","
","
","""event"",""trial"",""time""
""fullscreenenter"",""1"",""3089""
","
","","","","","","null","<div style=""font-size:60px;"">+</div>","null","","fixation","","","","","","","","","","","","","",""
"learning-trial","221","786216","0.0-9.0-2.0-1.67","1595","1","2","""event"",""trial"",""time""
""fullscreenenter"",""1"",""3089""
","
","
","""event"",""trial"",""time""
""fullscreenenter"",""1"",""3089""
","
","","","","","","965","images/table5.png","","","learning","images/furniture_choice1.png","images/furniture_choice2.png","images/furniture_choice3.png","[0,1,2]","2","2","1","images/furniture_choice1.png","-1","furniture","","table","1","0"
"html-keyboard-response","222","786718","0.0-9.0-2.0-0.68","1595","1","2","""event"",""trial"",""time""
""fullscreenenter"",""1"",""3089""
","
","
","""event"",""trial"",""time""
""fullscreenenter"",""1"",""3089""
","
","","","","","","null","<div style=""font-size:60px;"">+</div>","null","","fixation","","","","","","","","","","","","","",""
"learning-trial","223","790724","0.0-9.0-2.0-1.68","1595","1","2","""event"",""trial"",""time""
""fullscreenenter"",""1"",""3089""
","
","
","""event"",""trial"",""time""
""fullscreenenter"",""1"",""3089""
","
","","","","","","906.7000000011176","images/bed2.png","","","learning","images/furniture_choice3.png","images/furniture_choice2.png","images/furniture_choice1.png","[2,1,0]","0","2","3","images/furniture_choice1.png","1","furniture","","bed","1","0"
"html-keyboard-response","224","791226","0.0-9.0-2.0-0.69","1595","1","2","""event"",""trial"",""time""
""fullscreenenter"",""1"",""3089""
","
","
","""event"",""trial"",""time""
""fullscreenenter"",""1"",""3089""
","
","","","","","","null","<div style=""font-size:60px;"">+</div>","null","","fixation","","","","","","","","","","","","","",""
"learning-trial","225","795233","0.0-9.0-2.0-1.69","1595","1","2","""event"",""trial"",""time""
""fullscreenenter"",""1"",""3089""
","
","
","""event"",""trial"",""time""
""fullscreenenter"",""1"",""3089""
","
","","","","","","1001.8999999985099","images/table5.png","","","learning","images/furniture_choice2.png","images/furniture_choice1.png","images/furniture_choice3.png","[1,0,2]","2","2","3","images/furniture_choice3.png","1","furniture","","table","1","0"
"html-keyboard-response","226","795736","0.0-9.0-2.0-0.70","1595","1","2","""event"",""trial"",""time""
""fullscreenenter"",""1"",""3089""
","
","
","""event"",""trial"",""time""
""fullscreenenter"",""1"",""3089""
","
","","","","","","null","<div style=""font-size:60px;"">+</div>","null","","fixation","","","","","","","","","","","","","",""
"learning-trial","227","799742","0.0-9.0-2.0-1.70","1595","1","2","""event"",""trial"",""time""
""fullscreenenter"",""1"",""3089""
","
","
","""event"",""trial"",""time""
""fullscreenenter"",""1"",""3089""
","
","","","","","","1503.0999999996275","images/bed5.png","","","learning","images/furniture_choice1.png","images/furniture_choice3.png","images/furniture_choice2.png","[0,2,1]","0","0","2","images/furniture_choice3.png","-1","furniture","","bed","1","0"
"html-keyboard-response","228","800244","0.0-9.0-2.0-0.71","1595","1","2","""event"",""trial"",""time""
""fullscreenenter"",""1"",""3089""
","
","
","""event"",""trial"",""time""
""fullscreenenter"",""1"",""3089""
","
","","","","","","null","<div style=""font-size:60px;"">+</div>","null","","fixation","","","","","","","","","","","","","",""
"learning-trial","229","804251","0.0-9.0-2.0-1.71","1595","1","2","""event"",""trial"",""time""
""fullscreenenter"",""1"",""3089""
","
","
","""event"",""trial"",""time""
""fullscreenenter"",""1"",""3089""
","
","","","","","","1175.0999999996275","images/chair5.png","","","learning","images/furniture_choice1.png","images/furniture_choice2.png","images/furniture_choice3.png","[0,1,2]","1","1","1","images/furniture_choice1.png","-1","furniture","","chair","1","0"
"html-button-response","230","808714","0.0-9.0-3.0","1595","1","2","""event"",""trial"",""time""
""fullscreenenter"",""1"",""3089""
","
","
","""event"",""trial"",""time""
""fullscreenenter"",""1"",""3089""
","
","","","","","","4459.800000000745","<p> You have completed the round! <p> In this round, you earned 10 points! </p>","0","","break","","","","","","","","","","","","","",""
"html-button-response","231","810734","0.0-10.0","1595","1","2","""event"",""trial"",""time""
""fullscreenenter"",""1"",""3089""
","
","
","""event"",""trial"",""time""
""fullscreenenter"",""1"",""3089""
","
","","","","","","2015.9000000003725","<p> Now it's time to play another round. </p>","0","","transition_screen","","","","","","","","","","","","","",""
"preload","232","813344","0.0-11.0-0.0","1595","1","2","""event"",""trial"",""time""
""fullscreenenter"",""1"",""3089""
","
","
","""event"",""trial"",""time""
""fullscreenenter"",""1"",""3089""
","
","true","false","[]","[]","[]","","","","","","","","","","","","","","","","","","",""
"learning-instructions","233","827869","0.0-11.0-1.0-0.0","1595","1","2","""event"",""trial"",""time""
""fullscreenenter"",""1"",""3089""
","
","
","""event"",""trial"",""time""
""fullscreenenter"",""1"",""3089""
","
","","","","","","6165.199999999255","<p> Your goal in this round is to travel the world by putting fuel into different vehicles. </p><p> To travel, you will need to put fuel into many different vehicles. </p></div>","","0","instructions","","","","","","","","","","","","","",""
"learning-instructions","234","839543","0.0-11.0-1.0-0.1","1595","1","2","""event"",""trial"",""time""
""fullscreenenter"",""1"",""3089""
","
","
","""event"",""trial"",""time""
""fullscreenenter"",""1"",""3089""
","
","","","","","","2878.4000000003725","<p> On each turn, you will see a picture of one of your vehicles and three different types of fuel.  </p><p> You need to select which kind of fuel to use.  </p>","","0","instructions","","","","","","","","","","","","","",""
