"trial_type","trial_index","time_elapsed","internal_node_id","subject_id","condition","task_version","interactions","blur_events","focus_events","fullscreenenter_events","fullscreenexit_events","success","timeout","failed_images","failed_audio","failed_video","rt","stimulus","response","button_pressed","task_part","left_choice","middle_choice","right_choice","choice_positions","correct_response","correct_position","key_press","option_selected","points","task_block","correct","stim_cat","block_condition","block_number"
"pavlovia","0","12","0.0-0.0","1504","1","2","""event"",""trial"",""time""
""fullscreenenter"",""1"",""2827""
","
","
","""event"",""trial"",""time""
""fullscreenenter"",""1"",""2827""
","
","","","","","","","","","","","","","","","","","","","","","","","",""
"fullscreen","1","3780","0.0-1.0","1504","1","2","""event"",""trial"",""time""
""fullscreenenter"",""1"",""2827""
","
","
","""event"",""trial"",""time""
""fullscreenenter"",""1"",""2827""
","
","true","","","","","","","","","","","","","","","","","","","","","","",""
"preload","2","14040","0.0-2.0","1504","1","2","""event"",""trial"",""time""
""fullscreenenter"",""1"",""2827""
","
","
","""event"",""trial"",""time""
""fullscreenenter"",""1"",""2827""
","
","true","false","[]","[]","[]","","","","","","","","","","","","","","","","","","",""
"audio-keyboard-response","3","18038","0.0-3.0","1504","1","2","""event"",""trial"",""time""
""fullscreenenter"",""1"",""2827""
","
","
","""event"",""trial"",""time""
""fullscreenenter"",""1"",""2827""
","
","","","","","","3989.3333333333344","audio/beep_loop.wav"," ","","","","","","","","","","","","","","","",""
"audio-button-response","4","21104","0.0-4.0","1504","1","2","""event"",""trial"",""time""
""fullscreenenter"",""1"",""2827""
","
","
","""event"",""trial"",""time""
""fullscreenenter"",""1"",""2827""
","
","","","","","","3061","audio/shark.wav","4","","","","","","","","","","","","","","","",""
"audio-button-response","5","23847","0.0-5.0","1504","1","2","""event"",""trial"",""time""
""fullscreenenter"",""1"",""2827""
","
","
","""event"",""trial"",""time""
""fullscreenenter"",""1"",""2827""
","
","","","","","","1739","audio/turtle.wav","1","","","","","","","","","","","","","","","",""
"preload","6","28601","0.0-6.0","1504","1","2","""event"",""trial"",""time""
""fullscreenenter"",""1"",""2827""
","
","
","""event"",""trial"",""time""
""fullscreenenter"",""1"",""2827""
","
","true","false","[]","[]","[]","","","","","","","","","","","","","","","","","","",""
"html-keyboard-response","7","31216","0.0-7.0","1504","1","2","""event"",""trial"",""time""
""fullscreenenter"",""1"",""2827""
","
","
","""event"",""trial"",""time""
""fullscreenenter"",""1"",""2827""
","
","","","","","","2612","Welcome to the experiment. Press any key to begin and to advance the instructions."," ","","","","","","","","","","","","","","","",""
"learning-instructions","8","40265","0.0-8.0-0.0-0.0","1504","1","2","""event"",""trial"",""time""
""fullscreenenter"",""1"",""2827""
","
","
","""event"",""trial"",""time""
""fullscreenenter"",""1"",""2827""
","
","","","","","","1305.6000000238419","<p> Welcome! Today you are going to play 6 different rounds of a decision-making game. </p><p> Use the mouse to click next to continue. </p>","","0","instructions","","","","","","","","","","","","","",""
"learning-instructions","9","43756","0.0-8.0-0.0-0.1","1504","1","2","""event"",""trial"",""time""
""fullscreenenter"",""1"",""2827""
","
","
","""event"",""trial"",""time""
""fullscreenenter"",""1"",""2827""
","
","","","","","","464.19999998807907","<p> You will start with a practice round to learn the rules. </p>","","0","instructions","","","","","","","","","","","","","",""
"learning-instructions","10","52438","0.0-8.0-0.0-0.2","1504","1","2","""event"",""trial"",""time""
""fullscreenenter"",""1"",""2827""
","
","
","""event"",""trial"",""time""
""fullscreenenter"",""1"",""2827""
","
","","","","","","937.3999999761581","<p> Your goal in this round is to deliver sports equipment to three different parks. </p><p> You will need to deliver many types of equipment. </p></div>","","0","instructions","","","","","","","","","","","","","",""
"learning-instructions","11","62067","0.0-8.0-0.0-0.3","1504","1","2","""event"",""trial"",""time""
""fullscreenenter"",""1"",""2827""
","
","
","""event"",""trial"",""time""
""fullscreenenter"",""1"",""2827""
","
","","","","","","1145.3999999761581","<p> On each turn, you will see one piece of sports equipment and three different parks.  </p><p> You need to select which park to deliver the equipment to.  </p>","","0","instructions","","","","","","","","","","","","","",""
"learning-instructions","12","76015","0.0-8.0-0.0-0.4","1504","1","2","""event"",""trial"",""time""
""fullscreenenter"",""1"",""2827""
","
","
","""event"",""trial"",""time""
""fullscreenenter"",""1"",""2827""
","
","","","","","","672.1999999880791","<p> You can select the park on the left by pressing the '1' key on your keyboard. <br>You can select the park in the middle by pressing the '2' key on your keyboard. <br>You can select the park on the right by pressing the '3' key on your keyboard.  </p><br><div class=""choice-instructions-grid""> <div class=""choice-option""><img src=""images/park1.png"" class=""choice-option-img"" stage=""instructions"" position=""0"" ><div class=""choice-option-text""> Press ""1."" </div></div><div class=""choice-option""><img src=""images/park2.png"" class=""choice-option-img"" stage=""instructions"" position=""1"" ><div class=""choice-option-text""> Press ""2."" </div></div><div class=""choice-option""><img src=""images/park3.png"" class=""choice-option-img"" stage=""instructions"" position=""2"" ><div class=""choice-option-text""> Press ""3."" </div></div></div>","","0","instructions","","","","","","","","","","","","","",""
"learning-instructions","13","82202","0.0-8.0-0.0-0.5","1504","1","2","""event"",""trial"",""time""
""fullscreenenter"",""1"",""2827""
","
","
","""event"",""trial"",""time""
""fullscreenenter"",""1"",""2827""
","
","","","","","","801.6000000238419","<p> If the kids in the park you chose like the equipment, they will be very happy! </p><div style='float: center;'><img src='images/check.png' width = '200' height = '200'></img>","","0","instructions","","","","","","","","","","","","","",""
"learning-instructions","14","89059","0.0-8.0-0.0-0.6","1504","1","2","""event"",""trial"",""time""
""fullscreenenter"",""1"",""2827""
","
","
","""event"",""trial"",""time""
""fullscreenenter"",""1"",""2827""
","
","","","","","","1269","<p> But, if the kids in the park you chose do not like the equipment, they will be sad. </p><div style='float: center;'><img src='images/x.png' width = '200' height = '200'></img>","","0","instructions","","","","","","","","","","","","","",""
"learning-instructions","15","96895","0.0-8.0-0.0-0.7","1504","1","2","""event"",""trial"",""time""
""fullscreenenter"",""1"",""2827""
","
","
","""event"",""trial"",""time""
""fullscreenenter"",""1"",""2827""
","
","","","","","","1405.5","<p> Importantly, the kids in each park like some pieces of sports equipment more than others. </p>","","0","instructions","","","","","","","","","","","","","",""
"learning-instructions","16","103428","0.0-8.0-0.0-0.8","1504","1","2","""event"",""trial"",""time""
""fullscreenenter"",""1"",""2827""
","
","
","""event"",""trial"",""time""
""fullscreenenter"",""1"",""2827""
","
","","","","","","487.0999999642372","<p> If you choose the best park for each piece of equipment, the kids there will usually be happy. </p>","","0","instructions","","","","","","","","","","","","","",""
"learning-instructions","17","110555","0.0-8.0-0.0-0.9","1504","1","2","""event"",""trial"",""time""
""fullscreenenter"",""1"",""2827""
","
","
","""event"",""trial"",""time""
""fullscreenenter"",""1"",""2827""
","
","","","","","","485.2999999523163","<p> However, even if you choose the best park for the equipment, the kids may sometimes be sad. </p>","","0","instructions","","","","","","","","","","","","","",""
"learning-instructions","18","118189","0.0-8.0-0.0-0.10","1504","1","2","""event"",""trial"",""time""
""fullscreenenter"",""1"",""2827""
","
","
","""event"",""trial"",""time""
""fullscreenenter"",""1"",""2827""
","
","","","","","","388.7999999523163","<p> Similarly, even if you choose the <i>wrong</i> park for the equipment, the kids may still be happy sometimes.","","0","instructions","","","","","","","","","","","","","",""
"learning-instructions","19","125024","0.0-8.0-0.0-0.11","1504","1","2","""event"",""trial"",""time""
""fullscreenenter"",""1"",""2827""
","
","
","""event"",""trial"",""time""
""fullscreenenter"",""1"",""2827""
","
","","","","","","1775","<p> For example, the best park for this soccer ball is this one.<div style='float: center;'><img src='images/i1.png' width = '500' height = '268'></img>","","0","instructions","","","","","","","","","","","","","",""
"learning-instructions","20","131222","0.0-8.0-0.0-0.12","1504","1","2","""event"",""trial"",""time""
""fullscreenenter"",""1"",""2827""
","
","
","""event"",""trial"",""time""
""fullscreenenter"",""1"",""2827""
","
","","","","","","891.6000000238419","<p> Let's see what happens if you choose this park for the soccer ball five times.","","0","instructions","","","","","","","","","","","","","",""
"learning-instructions","21","133952","0.0-8.0-0.0-0.13","1504","1","2","""event"",""trial"",""time""
""fullscreenenter"",""1"",""2827""
","
","
","""event"",""trial"",""time""
""fullscreenenter"",""1"",""2827""
","
","","","","","","553.1999999880791","<p> The kids are happy.<div style='float: left;'><img src='images/i2.png' width = '640' height = '360'></img>","","0","instructions","","","","","","","","","","","","","",""
"learning-instructions","22","136479","0.0-8.0-0.0-0.14","1504","1","2","""event"",""trial"",""time""
""fullscreenenter"",""1"",""2827""
","
","
","""event"",""trial"",""time""
""fullscreenenter"",""1"",""2827""
","
","","","","","","348.0999999642372","<p> The kids are happy.<div style='float: left;'><img src='images/i3.png' width = '640' height = '360'></img>","","0","instructions","","","","","","","","","","","","","",""
"learning-instructions","23","139020","0.0-8.0-0.0-0.15","1504","1","2","""event"",""trial"",""time""
""fullscreenenter"",""1"",""2827""
","
","
","""event"",""trial"",""time""
""fullscreenenter"",""1"",""2827""
","
","","","","","","371.0999999642372","<p> The kids are happy.<div style='float: left;'><img src='images/i4.png' width = '640' height = '360'></img>","","0","instructions","","","","","","","","","","","","","",""
"learning-instructions","24","141602","0.0-8.0-0.0-0.16","1504","1","2","""event"",""trial"",""time""
""fullscreenenter"",""1"",""2827""
","
","
","""event"",""trial"",""time""
""fullscreenenter"",""1"",""2827""
","
","","","","","","379.69999998807907","<p> The kids are sad.<div style='float: left;'><img src='images/i5.png' width = '640' height = '360'></img>","","0","instructions","","","","","","","","","","","","","",""
"learning-instructions","25","144333","0.0-8.0-0.0-0.17","1504","1","2","""event"",""trial"",""time""
""fullscreenenter"",""1"",""2827""
","
","
","""event"",""trial"",""time""
""fullscreenenter"",""1"",""2827""
","
","","","","","","562","<p> The kids are happy.<div style='float: left;'><img src='images/i6.png' width = '640' height = '360'></img>","","0","instructions","","","","","","","","","","","","","",""
"learning-instructions","26","152389","0.0-8.0-0.0-0.18","1504","1","2","""event"",""trial"",""time""
""fullscreenenter"",""1"",""2827""
","
","
","""event"",""trial"",""time""
""fullscreenenter"",""1"",""2827""
","
","","","","","","788.7000000476837","<p> As you can see, selecting that park for the soccer ball made the kids happy most of the time, but not all the time.","","0","instructions","","","","","","","","","","","","","",""
"learning-instructions","27","158940","0.0-8.0-0.0-0.19","1504","1","2","""event"",""trial"",""time""
""fullscreenenter"",""1"",""2827""
","
","
","""event"",""trial"",""time""
""fullscreenenter"",""1"",""2827""
","
","","","","","","536.5","<p> Now let's see what happens if you choose a DIFFERENT park for the soccer ball 5 times.","","0","instructions","","","","","","","","","","","","","",""
"learning-instructions","28","161944","0.0-8.0-0.0-0.20","1504","1","2","""event"",""trial"",""time""
""fullscreenenter"",""1"",""2827""
","
","
","""event"",""trial"",""time""
""fullscreenenter"",""1"",""2827""
","
","","","","","","785.1999999880791","<p> The kids are sad.<div style='float: left;'><img src='images/i7.png' width = '640' height = '360'></img>","","0","instructions","","","","","","","","","","","","","",""
"learning-instructions","29","164375","0.0-8.0-0.0-0.21","1504","1","2","""event"",""trial"",""time""
""fullscreenenter"",""1"",""2827""
","
","
","""event"",""trial"",""time""
""fullscreenenter"",""1"",""2827""
","
","","","","","","215.30000001192093","<p> The kids are sad.<div style='float: left;'><img src='images/i8.png' width = '640' height = '360'></img>","","0","instructions","","","","","","","","","","","","","",""
"learning-instructions","30","166903","0.0-8.0-0.0-0.22","1504","1","2","""event"",""trial"",""time""
""fullscreenenter"",""1"",""2827""
","
","
","""event"",""trial"",""time""
""fullscreenenter"",""1"",""2827""
","
","","","","","","342.30000001192093","<p> The kids are happy.<div style='float: left;'><img src='images/i9.png' width = '640' height = '360'></img>","","0","instructions","","","","","","","","","","","","","",""
"learning-instructions","31","169300","0.0-8.0-0.0-0.23","1504","1","2","""event"",""trial"",""time""
""fullscreenenter"",""1"",""2827""
","
","
","""event"",""trial"",""time""
""fullscreenenter"",""1"",""2827""
","
","","","","","","180.19999998807907","<p> The kids are sad.<div style='float: left;'><img src='images/i10.png' width = '640' height = '360'></img>","","0","instructions","","","","","","","","","","","","","",""
"learning-instructions","32","172705","0.0-8.0-0.0-0.24","1504","1","2","""event"",""trial"",""time""
""fullscreenenter"",""1"",""2827""
","
","
","""event"",""trial"",""time""
""fullscreenenter"",""1"",""2827""
","
","","","","","","1186.5999999642372","<p> The kids are sad.<div style='float: left;'><img src='images/i11.png' width = '640' height = '360'></img>","","0","instructions","","","","","","","","","","","","","",""
"learning-instructions","33","181262","0.0-8.0-0.0-0.25","1504","1","2","""event"",""trial"",""time""
""fullscreenenter"",""1"",""2827""
","
","
","""event"",""trial"",""time""
""fullscreenenter"",""1"",""2827""
","
","","","","","","429.30000001192093","<p> As you can see, selecting the wrong park for the soccer ball made the kids sad most of the time, but not all the time.","","0","instructions","","","","","","","","","","","","","",""
"learning-instructions","34","190709","0.0-8.0-0.0-0.26","1504","1","2","""event"",""trial"",""time""
""fullscreenenter"",""1"",""2827""
","
","
","""event"",""trial"",""time""
""fullscreenenter"",""1"",""2827""
","
","","","","","","327.19999998807907","<p> The different pieces of equipment belong in different parks. You need to try to learn which is the best park for each piece of equipment.","","0","instructions","","","","","","","","","","","","","",""
"learning-instructions","35","207681","0.0-8.0-0.0-0.27","1504","1","2","""event"",""trial"",""time""
""fullscreenenter"",""1"",""2827""
","
","
","""event"",""trial"",""time""
""fullscreenenter"",""1"",""2827""
","
","","","","","","592","<p> Try to choose the best park for each piece of equipment, because you will <b> WIN </b> 1 point for each time you make the kids happy and <b>LOSE</b> 1 point for each time you make them sad. </p><p> Remember, if you make the best choice, you will win 1 point most of the time, but not all the time. </p>","","0","instructions","","","","","","","","","","","","","",""
"learning-instructions","36","213978","0.0-8.0-0.0-0.28","1504","1","2","""event"",""trial"",""time""
""fullscreenenter"",""1"",""2827""
","
","
","""event"",""trial"",""time""
""fullscreenenter"",""1"",""2827""
","
","","","","","","809.1999999880791","<p> This is just a practice round, but in the real game, your bonus payment will depend on your total number of points.","","0","instructions","","","","","","","","","","","","","",""
"learning-instructions","37","226922","0.0-8.0-0.0-0.29","1504","1","2","""event"",""trial"",""time""
""fullscreenenter"",""1"",""2827""
","
","
","""event"",""trial"",""time""
""fullscreenenter"",""1"",""2827""
","
","","","","","","2610.300000011921","<p> The position where each park appears will change throughout the game. </p><p> The position where the park appears <i> does not </i> influence how likely the kids are to be happy or sad. </p>","","0","instructions","","","","","","","","","","","","","",""
"learning-instructions","38","238443","0.0-8.0-0.0-0.30","1504","1","2","""event"",""trial"",""time""
""fullscreenenter"",""1"",""2827""
","
","
","""event"",""trial"",""time""
""fullscreenenter"",""1"",""2827""
","
","","","","","","604.5","<p> You will have 4 seconds to make each choice. Try to respond before time runs out! </p><p> You will lose 1 point each time you do not make a response. </p>","","0","instructions","","","","","","","","","","","","","",""
"learning-instructions","39","246013","0.0-8.0-0.0-0.31","1504","1","2","""event"",""trial"",""time""
""fullscreenenter"",""1"",""2827""
","
","
","""event"",""trial"",""time""
""fullscreenenter"",""1"",""2827""
","
","","","","","","770.8999999761581","<p> Remember, you should use the 1, 2, and 3 keys to select the park for each piece of equipment. </p><br><div class=""choice-instructions-grid""> <div class=""choice-option""><img src=""images/park1.png"" class=""choice-option-img"" stage=""instructions"" position=""0"" ><div class=""choice-option-text""> Press ""1."" </div></div><div class=""choice-option""><img src=""images/park2.png"" class=""choice-option-img"" stage=""instructions"" position=""1"" ><div class=""choice-option-text""> Press ""2."" </div></div><div class=""choice-option""><img src=""images/park3.png"" class=""choice-option-img"" stage=""instructions"" position=""2"" ><div class=""choice-option-text""> Press ""3."" </div></div></div>","","0","instructions","","","","","","","","","","","","","",""
"html-button-response","40","247403","0.0-8.0-1.0","1504","1","2","""event"",""trial"",""time""
""fullscreenenter"",""1"",""2827""
","
","
","""event"",""trial"",""time""
""fullscreenenter"",""1"",""2827""
","
","","","","","","1276.4000000357628","<p> Ready to practice? </p>","0","","","","","","","","","","","","","","","",""
"html-keyboard-response","41","248007","0.0-8.0-2.0-0.0","1504","1","2","""event"",""trial"",""time""
""fullscreenenter"",""1"",""2827""
","
","
","""event"",""trial"",""time""
""fullscreenenter"",""1"",""2827""
","
","","","","","","null","<div style=""font-size:60px;"">+</div>","null","","fixation","","","","","","","","","","","","","",""
"learning-trial","42","252026","0.0-8.0-2.0-1.0","1504","1","2","""event"",""trial"",""time""
""fullscreenenter"",""1"",""2827""
","
","
","""event"",""trial"",""time""
""fullscreenenter"",""1"",""2827""
","
","","","","","","2824","images/ball3.png","","","practice","images/park3.png","images/park1.png","images/park2.png","[2,0,1]","2","0","1","images/park3.png","1","practice","","","",""
"html-keyboard-response","43","252531","0.0-8.0-2.0-0.1","1504","1","2","""event"",""trial"",""time""
""fullscreenenter"",""1"",""2827""
","
","
","""event"",""trial"",""time""
""fullscreenenter"",""1"",""2827""
","
","","","","","","null","<div style=""font-size:60px;"">+</div>","null","","fixation","","","","","","","","","","","","","",""
"learning-trial","44","256541","0.0-8.0-2.0-1.1","1504","1","2","""event"",""trial"",""time""
""fullscreenenter"",""1"",""2827""
","
","
","""event"",""trial"",""time""
""fullscreenenter"",""1"",""2827""
","
","","","","","","1980","images/racket4.png","","","practice","images/park1.png","images/park3.png","images/park2.png","[0,2,1]","1","2","3","images/park2.png","1","practice","","","",""
"html-keyboard-response","45","257051","0.0-8.0-2.0-0.2","1504","1","2","""event"",""trial"",""time""
""fullscreenenter"",""1"",""2827""
","
","
","""event"",""trial"",""time""
""fullscreenenter"",""1"",""2827""
","
","","","","","","null","<div style=""font-size:60px;"">+</div>","null","","fixation","","","","","","","","","","","","","",""
"learning-trial","46","261072","0.0-8.0-2.0-1.2","1504","1","2","""event"",""trial"",""time""
""fullscreenenter"",""1"",""2827""
","
","
","""event"",""trial"",""time""
""fullscreenenter"",""1"",""2827""
","
","","","","","","1052.5","images/ball4.png","","","practice","images/park3.png","images/park1.png","images/park2.png","[2,0,1]","0","1","2","images/park1.png","1","practice","","","",""
"html-keyboard-response","47","261583","0.0-8.0-2.0-0.3","1504","1","2","""event"",""trial"",""time""
""fullscreenenter"",""1"",""2827""
","
","
","""event"",""trial"",""time""
""fullscreenenter"",""1"",""2827""
","
","","","","","","null","<div style=""font-size:60px;"">+</div>","null","","fixation","","","","","","","","","","","","","",""
"learning-trial","48","265593","0.0-8.0-2.0-1.3","1504","1","2","""event"",""trial"",""time""
""fullscreenenter"",""1"",""2827""
","
","
","""event"",""trial"",""time""
""fullscreenenter"",""1"",""2827""
","
","","","","","","1205.800000011921","images/racket1.png","","","practice","images/park1.png","images/park3.png","images/park2.png","[0,2,1]","1","2","3","images/park2.png","1","practice","","","",""
"html-keyboard-response","49","266099","0.0-8.0-2.0-0.4","1504","1","2","""event"",""trial"",""time""
""fullscreenenter"",""1"",""2827""
","
","
","""event"",""trial"",""time""
""fullscreenenter"",""1"",""2827""
","
","","","","","","null","<div style=""font-size:60px;"">+</div>","null","","fixation","","","","","","","","","","","","","",""
"learning-trial","50","270113","0.0-8.0-2.0-1.4","1504","1","2","""event"",""trial"",""time""
""fullscreenenter"",""1"",""2827""
","
","
","""event"",""trial"",""time""
""fullscreenenter"",""1"",""2827""
","
","","","","","","856.3999999761581","images/ball1.png","","","practice","images/park2.png","images/park3.png","images/park1.png","[1,2,0]","2","1","2","images/park3.png","1","practice","","","",""
"html-keyboard-response","51","270623","0.0-8.0-2.0-0.5","1504","1","2","""event"",""trial"",""time""
""fullscreenenter"",""1"",""2827""
","
","
","""event"",""trial"",""time""
""fullscreenenter"",""1"",""2827""
","
","","","","","","null","<div style=""font-size:60px;"">+</div>","null","","fixation","","","","","","","","","","","","","",""
"learning-trial","52","274634","0.0-8.0-2.0-1.5","1504","1","2","""event"",""trial"",""time""
""fullscreenenter"",""1"",""2827""
","
","
","""event"",""trial"",""time""
""fullscreenenter"",""1"",""2827""
","
","","","","","","1251.2999999523163","images/racket4.png","","","practice","images/park3.png","images/park1.png","images/park2.png","[2,0,1]","1","2","3","images/park2.png","1","practice","","","",""
"html-keyboard-response","53","275143","0.0-8.0-2.0-0.6","1504","1","2","""event"",""trial"",""time""
""fullscreenenter"",""1"",""2827""
","
","
","""event"",""trial"",""time""
""fullscreenenter"",""1"",""2827""
","
","","","","","","null","<div style=""font-size:60px;"">+</div>","null","","fixation","","","","","","","","","","","","","",""
"learning-trial","54","279150","0.0-8.0-2.0-1.6","1504","1","2","""event"",""trial"",""time""
""fullscreenenter"",""1"",""2827""
","
","
","""event"",""trial"",""time""
""fullscreenenter"",""1"",""2827""
","
","","","","","","1101.5999999642372","images/ball3.png","","","practice","images/park2.png","images/park3.png","images/park1.png","[1,2,0]","2","1","2","images/park3.png","1","practice","","","",""
"html-keyboard-response","55","279653","0.0-8.0-2.0-0.7","1504","1","2","""event"",""trial"",""time""
""fullscreenenter"",""1"",""2827""
","
","
","""event"",""trial"",""time""
""fullscreenenter"",""1"",""2827""
","
","","","","","","null","<div style=""font-size:60px;"">+</div>","null","","fixation","","","","","","","","","","","","","",""
"learning-trial","56","283658","0.0-8.0-2.0-1.7","1504","1","2","""event"",""trial"",""time""
""fullscreenenter"",""1"",""2827""
","
","
","""event"",""trial"",""time""
""fullscreenenter"",""1"",""2827""
","
","","","","","","1905.199999988079","images/racket1.png","","","practice","images/park2.png","images/park1.png","images/park3.png","[1,0,2]","1","0","1","images/park2.png","1","practice","","","",""
"html-keyboard-response","57","284159","0.0-8.0-2.0-0.8","1504","1","2","""event"",""trial"",""time""
""fullscreenenter"",""1"",""2827""
","
","
","""event"",""trial"",""time""
""fullscreenenter"",""1"",""2827""
","
","","","","","","null","<div style=""font-size:60px;"">+</div>","null","","fixation","","","","","","","","","","","","","",""
"learning-trial","58","288162","0.0-8.0-2.0-1.8","1504","1","2","""event"",""trial"",""time""
""fullscreenenter"",""1"",""2827""
","
","
","""event"",""trial"",""time""
""fullscreenenter"",""1"",""2827""
","
","","","","","","332.39999997615814","images/ball1.png","","","practice","images/park2.png","images/park3.png","images/park1.png","[1,2,0]","2","1","2","images/park3.png","1","practice","","","",""
"html-keyboard-response","59","288665","0.0-8.0-2.0-0.9","1504","1","2","""event"",""trial"",""time""
""fullscreenenter"",""1"",""2827""
","
","
","""event"",""trial"",""time""
""fullscreenenter"",""1"",""2827""
","
","","","","","","null","<div style=""font-size:60px;"">+</div>","null","","fixation","","","","","","","","","","","","","",""
"learning-trial","60","292670","0.0-8.0-2.0-1.9","1504","1","2","""event"",""trial"",""time""
""fullscreenenter"",""1"",""2827""
","
","
","""event"",""trial"",""time""
""fullscreenenter"",""1"",""2827""
","
","","","","","","1693.6000000238419","images/racket2.png","","","practice","images/park1.png","images/park3.png","images/park2.png","[0,2,1]","0","0","3","images/park2.png","-1","practice","","","",""
"html-keyboard-response","61","293172","0.0-8.0-2.0-0.10","1504","1","2","""event"",""trial"",""time""
""fullscreenenter"",""1"",""2827""
","
","
","""event"",""trial"",""time""
""fullscreenenter"",""1"",""2827""
","
","","","","","","null","<div style=""font-size:60px;"">+</div>","null","","fixation","","","","","","","","","","","","","",""
"learning-trial","62","297173","0.0-8.0-2.0-1.10","1504","1","2","""event"",""trial"",""time""
""fullscreenenter"",""1"",""2827""
","
","
","""event"",""trial"",""time""
""fullscreenenter"",""1"",""2827""
","
","","","","","","1814.300000011921","images/racket2.png","","","practice","images/park1.png","images/park2.png","images/park3.png","[0,1,2]","0","0","2","images/park2.png","-1","practice","","","",""
"html-keyboard-response","63","297675","0.0-8.0-2.0-0.11","1504","1","2","""event"",""trial"",""time""
""fullscreenenter"",""1"",""2827""
","
","
","""event"",""trial"",""time""
""fullscreenenter"",""1"",""2827""
","
","","","","","","null","<div style=""font-size:60px;"">+</div>","null","","fixation","","","","","","","","","","","","","",""
"learning-trial","64","301676","0.0-8.0-2.0-1.11","1504","1","2","""event"",""trial"",""time""
""fullscreenenter"",""1"",""2827""
","
","
","""event"",""trial"",""time""
""fullscreenenter"",""1"",""2827""
","
","","","","","","1326.5","images/ball4.png","","","practice","images/park2.png","images/park1.png","images/park3.png","[1,0,2]","0","1","2","images/park1.png","-1","practice","","","",""
"html-button-response","65","303497","0.0-8.0-3.0","1504","1","2","""event"",""trial"",""time""
""fullscreenenter"",""1"",""2827""
","
","
","""event"",""trial"",""time""
""fullscreenenter"",""1"",""2827""
","
","","","","","","1816.800000011921","<p> You earned 6 points in the practice round! </p>","0","","break","","","","","","","","","","","","","",""
"learning-instructions","66","312303","0.0-8.0-4.0-0.0","1504","1","2","""event"",""trial"",""time""
""fullscreenenter"",""1"",""2827""
","
","
","""event"",""trial"",""time""
""fullscreenenter"",""1"",""2827""
","
","","","","","","1135.300000011921","<p> It's almost time to start the real game. </p><p> Before you start, we're going to ask you a few questions about how the game works. </p>","","0","instructions","","","","","","","","","","","","","",""
"preload","67","314556","0.0-8.0-5.0","1504","1","2","""event"",""trial"",""time""
""fullscreenenter"",""1"",""2827""
","
","
","""event"",""trial"",""time""
""fullscreenenter"",""1"",""2827""
","
","true","false","[]","[]","[]","","","","","","","","","","","","","","","","","","",""
"comp-q","68","321285","0.0-8.0-6.0-0.0","1504","1","2","""event"",""trial"",""time""
""fullscreenenter"",""1"",""2827""
","
","
","""event"",""trial"",""time""
""fullscreenenter"",""1"",""2827""
","
","","","","","","1274.4000000357628","<p> <b> True or False? </b> </p><p> If you choose the best option, you will always earn 1 point. </p>","","0","comp_question","","","","","","","","","","","false","","",""
"comp-q","69","328337","0.0-8.0-6.0-1.0","1504","1","2","""event"",""trial"",""time""
""fullscreenenter"",""1"",""2827""
","
","
","""event"",""trial"",""time""
""fullscreenenter"",""1"",""2827""
","
","","","","","","1497.199999988079","<p><b> Incorrect. </b> Sometimes you will lose 1 point, even if you choose the best option. </p>","","0","comp_answer","","","","","","","","","","","","","",""
"comp-q","70","333674","0.0-8.0-6.0-0.1","1504","1","2","""event"",""trial"",""time""
""fullscreenenter"",""1"",""2827""
","
","
","""event"",""trial"",""time""
""fullscreenenter"",""1"",""2827""
","
","","","","","","705.5","<p> <b> True or False? </b> </p><p> You will have as much time as you want to make each choice. </p>","","1","comp_question","","","","","","","","","","","true","","",""
"comp-q","71","339823","0.0-8.0-6.0-1.1","1504","1","2","""event"",""trial"",""time""
""fullscreenenter"",""1"",""2827""
","
","
","""event"",""trial"",""time""
""fullscreenenter"",""1"",""2827""
","
","","","","","","1333.5999999642372","<p> <b> That's right! </b> You will only have 4 seconds to make each choice. </p>","","0","comp_answer","","","","","","","","","","","","","",""
"comp-q","72","346893","0.0-8.0-6.0-0.2","1504","1","2","""event"",""trial"",""time""
""fullscreenenter"",""1"",""2827""
","
","
","""event"",""trial"",""time""
""fullscreenenter"",""1"",""2827""
","
","","","","","","924.7999999523163","<p> <b> True or False? </b> </p><p> You should use the '1', '2', and '3' keys to make your choices. </p>","","0","comp_question","","","","","","","","","","","true","","",""
"comp-q","73","352825","0.0-8.0-6.0-1.2","1504","1","2","""event"",""trial"",""time""
""fullscreenenter"",""1"",""2827""
","
","
","""event"",""trial"",""time""
""fullscreenenter"",""1"",""2827""
","
","","","","","","1087.1000000238419","<p> <b> That's right! </b> You should use the '1', '2', and '3' keys to make each choice. </p>","","0","comp_answer","","","","","","","","","","","","","",""
"learning-instructions","74","363588","0.0-8.0-7.0-0.0","1504","1","2","""event"",""trial"",""time""
""fullscreenenter"",""1"",""2827""
","
","
","""event"",""trial"",""time""
""fullscreenenter"",""1"",""2827""
","
","","","","","","2269.599999964237","<p> It's now time to start the real game. </p>Do your best, because the points you earn in the next rounds will influence your bonus payment. </p>","","0","instructions","","","","","","","","","","","","","",""
"preload","75","365942","0.0-9.0-0.0","1504","1","2","""event"",""trial"",""time""
""fullscreenenter"",""1"",""2827""
","
","
","""event"",""trial"",""time""
""fullscreenenter"",""1"",""2827""
","
","true","false","[]","[]","[]","","","","","","","","","","","","","","","","","","",""
"learning-instructions","76","376984","0.0-9.0-1.0-0.0","1504","1","2","""event"",""trial"",""time""
""fullscreenenter"",""1"",""2827""
","
","
","""event"",""trial"",""time""
""fullscreenenter"",""1"",""2827""
","
","","","","","","3385.399999976158","<p> Your goal in this round is to return farm animals to the barns where they live. </p><p>  Different animals wandered away from different barns! </p></div>","","0","instructions","","","","","","","","","","","","","",""
"learning-instructions","77","386233","0.0-9.0-1.0-0.1","1504","1","2","""event"",""trial"",""time""
""fullscreenenter"",""1"",""2827""
","
","
","""event"",""trial"",""time""
""fullscreenenter"",""1"",""2827""
","
","","","","","","614","<p> On each turn, you will see a picture of a farm animal and three different barns.  </p><p> You need to select the barn where each animal lives.  </p>","","0","instructions","","","","","","","","","","","","","",""
"learning-instructions","78","393832","0.0-9.0-1.0-0.2","1504","1","2","""event"",""trial"",""time""
""fullscreenenter"",""1"",""2827""
","
","
","""event"",""trial"",""time""
""fullscreenenter"",""1"",""2827""
","
","","","","","","414.80000001192093","<p> You can select the barn on the left by pressing 1, the barn in the middle by pressing 2, and the barn on the right by pressing 3. </p><br><div class=""choice-instructions-grid""> <div class=""choice-option""><img src=""images/animals_choice1.png"" class=""choice-option-img"" stage=""instructions"" position=""0"" ><div class=""choice-option-text""> Press ""1."" </div></div><div class=""choice-option""><img src=""images/animals_choice2.png"" class=""choice-option-img"" stage=""instructions"" position=""1"" ><div class=""choice-option-text""> Press ""2."" </div></div><div class=""choice-option""><img src=""images/animals_choice3.png"" class=""choice-option-img"" stage=""instructions"" position=""2"" ><div class=""choice-option-text""> Press ""3."" </div></div></div>","","0","instructions","","","","","","","","","","","","","",""
"learning-instructions","79","399384","0.0-9.0-1.0-0.3","1504","1","2","""event"",""trial"",""time""
""fullscreenenter"",""1"",""2827""
","
","
","""event"",""trial"",""time""
""fullscreenenter"",""1"",""2827""
","
","","","","","","404.80000001192093","<p> If you return the farm animal to the correct barn, it will usually be happy! </p><div style='float: center;'><img src='images/check.png' width = '200' height = '200'></img>","","0","instructions","","","","","","","","","","","","","",""
"learning-instructions","80","405124","0.0-9.0-1.0-0.4","1504","1","2","""event"",""trial"",""time""
""fullscreenenter"",""1"",""2827""
","
","
","""event"",""trial"",""time""
""fullscreenenter"",""1"",""2827""
","
","","","","","","426.0999999642372","<p> But, if you return the farm animal to the wrong barn, it will usually be sad. </p><div style='float: center;'><img src='images/x.png' width = '200' height = '200'></img>","","0","instructions","","","","","","","","","","","","","",""
"learning-instructions","81","416292","0.0-9.0-1.0-0.5","1504","1","2","""event"",""trial"",""time""
""fullscreenenter"",""1"",""2827""
","
","
","""event"",""trial"",""time""
""fullscreenenter"",""1"",""2827""
","
","","","","","","602.8999999761581","<p> Importantly, each farm animal belongs in one of the barns. </p><p> If you choose the correct barn, the farm animal will return home safely and will be more likely to be happy! </p>","","0","instructions","","","","","","","","","","","","","",""
"learning-instructions","82","427469","0.0-9.0-1.0-0.6","1504","1","2","""event"",""trial"",""time""
""fullscreenenter"",""1"",""2827""
","
","
","""event"",""trial"",""time""
""fullscreenenter"",""1"",""2827""
","
","","","","","","659.9000000357628","<p> However, even if you choose the correct barn for the farm animal, it might still feel sad. </p><p> Similarly, even if you choose the <i>wrong</i> barn, it might still feel happy.","","0","instructions","","","","","","","","","","","","","",""
"learning-instructions","83","441576","0.0-9.0-1.0-0.7","1504","1","2","""event"",""trial"",""time""
""fullscreenenter"",""1"",""2827""
","
","
","""event"",""trial"",""time""
""fullscreenenter"",""1"",""2827""
","
","","","","","","395.5999999642372","<p> Try to choose the correct barn for each farm animal, because you will <b> WIN </b> 1 point for each farm animal you make happy and <b>LOSE</b> 1 point for each farm animal you make sad. </p><p> Your bonus payment will depend on your total number of points.","","0","instructions","","","","","","","","","","","","","",""
"learning-instructions","84","449966","0.0-9.0-1.0-0.8","1504","1","2","""event"",""trial"",""time""
""fullscreenenter"",""1"",""2827""
","
","
","""event"",""trial"",""time""
""fullscreenenter"",""1"",""2827""
","
","","","","","","277.39999997615814","<p> The position of each barn will change throughout the round. </p><p> The barn's position <i> does not </i> influence how likely it is to be the correct one. </p>","","0","instructions","","","","","","","","","","","","","",""
"learning-instructions","85","462881","0.0-9.0-1.0-0.9","1504","1","2","""event"",""trial"",""time""
""fullscreenenter"",""1"",""2827""
","
","
","""event"",""trial"",""time""
""fullscreenenter"",""1"",""2827""
","
","","","","","","3620.300000011921","<p> You will have 4 seconds to make each choice. Try to respond before time runs out! </p><p> You will lose 1 point each time you do not make a response. </p>","","0","instructions","","","","","","","","","","","","","",""
"html-keyboard-response","86","463497","0.0-9.0-2.0-0.0","1504","1","2","""event"",""trial"",""time""
""fullscreenenter"",""1"",""2827""
","
","
","""event"",""trial"",""time""
""fullscreenenter"",""1"",""2827""
","
","","","","","","null","<div style=""font-size:60px;"">+</div>","null","","fixation","","","","","","","","","","","","","",""
"learning-trial","87","467503","0.0-9.0-2.0-1.0","1504","1","2","""event"",""trial"",""time""
""fullscreenenter"",""1"",""2827""
","
","
","""event"",""trial"",""time""
""fullscreenenter"",""1"",""2827""
","
","","","","","","1345.1000000238419","images/horse5.png","","","learning","images/animals_choice1.png","images/animals_choice2.png","images/animals_choice3.png","[0,1,2]","2","2","2","images/animals_choice2.png","-1","animals","","horse","1","0"
"html-keyboard-response","88","468015","0.0-9.0-2.0-0.1","1504","1","2","""event"",""trial"",""time""
""fullscreenenter"",""1"",""2827""
","
","
","""event"",""trial"",""time""
""fullscreenenter"",""1"",""2827""
","
","","","","","","null","<div style=""font-size:60px;"">+</div>","null","","fixation","","","","","","","","","","","","","",""
"learning-trial","89","472029","0.0-9.0-2.0-1.1","1504","1","2","""event"",""trial"",""time""
""fullscreenenter"",""1"",""2827""
","
","
","""event"",""trial"",""time""
""fullscreenenter"",""1"",""2827""
","
","","","","","","1345","images/sheep4.png","","","learning","images/animals_choice3.png","images/animals_choice2.png","images/animals_choice1.png","[2,1,0]","0","2","1","images/animals_choice3.png","-1","animals","","sheep","1","0"
"html-keyboard-response","90","472538","0.0-9.0-2.0-0.2","1504","1","2","""event"",""trial"",""time""
""fullscreenenter"",""1"",""2827""
","
","
","""event"",""trial"",""time""
""fullscreenenter"",""1"",""2827""
","
","","","","","","null","<div style=""font-size:60px;"">+</div>","null","","fixation","","","","","","","","","","","","","",""
"learning-trial","91","476551","0.0-9.0-2.0-1.2","1504","1","2","""event"",""trial"",""time""
""fullscreenenter"",""1"",""2827""
","
","
","""event"",""trial"",""time""
""fullscreenenter"",""1"",""2827""
","
","","","","","","993.6999999880791","images/horse1.png","","","learning","images/animals_choice3.png","images/animals_choice1.png","images/animals_choice2.png","[2,0,1]","2","0","3","images/animals_choice2.png","-1","animals","","horse","1","0"
"html-keyboard-response","92","477062","0.0-9.0-2.0-0.3","1504","1","2","""event"",""trial"",""time""
""fullscreenenter"",""1"",""2827""
","
","
","""event"",""trial"",""time""
""fullscreenenter"",""1"",""2827""
","
","","","","","","null","<div style=""font-size:60px;"">+</div>","null","","fixation","","","","","","","","","","","","","",""
"learning-trial","93","481079","0.0-9.0-2.0-1.3","1504","1","2","""event"",""trial"",""time""
""fullscreenenter"",""1"",""2827""
","
","
","""event"",""trial"",""time""
""fullscreenenter"",""1"",""2827""
","
","","","","","","1710.2999999523163","images/sheep2.png","","","learning","images/animals_choice3.png","images/animals_choice2.png","images/animals_choice1.png","[2,1,0]","0","2","2","images/animals_choice2.png","-1","animals","","sheep","1","0"
"html-keyboard-response","94","481589","0.0-9.0-2.0-0.4","1504","1","2","""event"",""trial"",""time""
""fullscreenenter"",""1"",""2827""
","
","
","""event"",""trial"",""time""
""fullscreenenter"",""1"",""2827""
","
","","","","","","null","<div style=""font-size:60px;"">+</div>","null","","fixation","","","","","","","","","","","","","",""
"learning-trial","95","485596","0.0-9.0-2.0-1.4","1504","1","2","""event"",""trial"",""time""
""fullscreenenter"",""1"",""2827""
","
","
","""event"",""trial"",""time""
""fullscreenenter"",""1"",""2827""
","
","","","","","","2955.699999988079","images/horse1.png","","","learning","images/animals_choice3.png","images/animals_choice1.png","images/animals_choice2.png","[2,0,1]","2","0","1","images/animals_choice3.png","1","animals","","horse","1","0"
"html-keyboard-response","96","486107","0.0-9.0-2.0-0.5","1504","1","2","""event"",""trial"",""time""
""fullscreenenter"",""1"",""2827""
","
","
","""event"",""trial"",""time""
""fullscreenenter"",""1"",""2827""
","
","","","","","","null","<div style=""font-size:60px;"">+</div>","null","","fixation","","","","","","","","","","","","","",""
"learning-trial","97","490113","0.0-9.0-2.0-1.5","1504","1","2","""event"",""trial"",""time""
""fullscreenenter"",""1"",""2827""
","
","
","""event"",""trial"",""time""
""fullscreenenter"",""1"",""2827""
","
","","","","","","1988.0999999642372","images/goat4.png","","","learning","images/animals_choice2.png","images/animals_choice3.png","images/animals_choice1.png","[1,2,0]","1","0","3","images/animals_choice1.png","-1","animals","","goat","1","0"
"html-keyboard-response","98","490615","0.0-9.0-2.0-0.6","1504","1","2","""event"",""trial"",""time""
""fullscreenenter"",""1"",""2827""
","
","
","""event"",""trial"",""time""
""fullscreenenter"",""1"",""2827""
","
","","","","","","null","<div style=""font-size:60px;"">+</div>","null","","fixation","","","","","","","","","","","","","",""
"learning-trial","99","494620","0.0-9.0-2.0-1.6","1504","1","2","""event"",""trial"",""time""
""fullscreenenter"",""1"",""2827""
","
","
","""event"",""trial"",""time""
""fullscreenenter"",""1"",""2827""
","
","","","","","","null","images/horse4.png","","","learning","images/animals_choice1.png","images/animals_choice3.png","images/animals_choice2.png","[0,2,1]","2","1","null","null","-1","animals","","horse","1","0"
"html-keyboard-response","100","495121","0.0-9.0-2.0-0.7","1504","1","2","""event"",""trial"",""time""
""fullscreenenter"",""1"",""2827""
","
","
","""event"",""trial"",""time""
""fullscreenenter"",""1"",""2827""
","
","","","","","","null","<div style=""font-size:60px;"">+</div>","null","","fixation","","","","","","","","","","","","","",""
"learning-trial","101","499123","0.0-9.0-2.0-1.7","1504","1","2","""event"",""trial"",""time""
""fullscreenenter"",""1"",""2827""
","
","
","""event"",""trial"",""time""
""fullscreenenter"",""1"",""2827""
","
","","","","","","3406.900000035763","images/goat3.png","","","learning","images/animals_choice3.png","images/animals_choice1.png","images/animals_choice2.png","[2,0,1]","1","2","3","images/animals_choice2.png","1","animals","","goat","1","0"
"html-keyboard-response","102","499626","0.0-9.0-2.0-0.8","1504","1","2","""event"",""trial"",""time""
""fullscreenenter"",""1"",""2827""
","
","
","""event"",""trial"",""time""
""fullscreenenter"",""1"",""2827""
","
","","","","","","null","<div style=""font-size:60px;"">+</div>","null","","fixation","","","","","","","","","","","","","",""
"learning-trial","103","503631","0.0-9.0-2.0-1.8","1504","1","2","""event"",""trial"",""time""
""fullscreenenter"",""1"",""2827""
","
","
","""event"",""trial"",""time""
""fullscreenenter"",""1"",""2827""
","
","","","","","","1401.8999999761581","images/sheep4.png","","","learning","images/animals_choice3.png","images/animals_choice1.png","images/animals_choice2.png","[2,0,1]","0","1","1","images/animals_choice3.png","-1","animals","","sheep","1","0"
"html-keyboard-response","104","504132","0.0-9.0-2.0-0.9","1504","1","2","""event"",""trial"",""time""
""fullscreenenter"",""1"",""2827""
","
","
","""event"",""trial"",""time""
""fullscreenenter"",""1"",""2827""
","
","","","","","","null","<div style=""font-size:60px;"">+</div>","null","","fixation","","","","","","","","","","","","","",""
"learning-trial","105","508136","0.0-9.0-2.0-1.9","1504","1","2","""event"",""trial"",""time""
""fullscreenenter"",""1"",""2827""
","
","
","""event"",""trial"",""time""
""fullscreenenter"",""1"",""2827""
","
","","","","","","1505.1000000238419","images/horse5.png","","","learning","images/animals_choice2.png","images/animals_choice3.png","images/animals_choice1.png","[1,2,0]","2","1","3","images/animals_choice1.png","-1","animals","","horse","1","0"
"html-keyboard-response","106","508639","0.0-9.0-2.0-0.10","1504","1","2","""event"",""trial"",""time""
""fullscreenenter"",""1"",""2827""
","
","
","""event"",""trial"",""time""
""fullscreenenter"",""1"",""2827""
","
","","","","","","null","<div style=""font-size:60px;"">+</div>","null","","fixation","","","","","","","","","","","","","",""
"learning-trial","107","512642","0.0-9.0-2.0-1.10","1504","1","2","""event"",""trial"",""time""
""fullscreenenter"",""1"",""2827""
","
","
","""event"",""trial"",""time""
""fullscreenenter"",""1"",""2827""
","
","","","","","","1790.0999999642372","images/sheep2.png","","","learning","images/animals_choice2.png","images/animals_choice1.png","images/animals_choice3.png","[1,0,2]","0","1","1","images/animals_choice2.png","-1","animals","","sheep","1","0"
"html-keyboard-response","108","513144","0.0-9.0-2.0-0.11","1504","1","2","""event"",""trial"",""time""
""fullscreenenter"",""1"",""2827""
","
","
","""event"",""trial"",""time""
""fullscreenenter"",""1"",""2827""
","
","","","","","","null","<div style=""font-size:60px;"">+</div>","null","","fixation","","","","","","","","","","","","","",""
"learning-trial","109","517151","0.0-9.0-2.0-1.11","1504","1","2","""event"",""trial"",""time""
""fullscreenenter"",""1"",""2827""
","
","
","""event"",""trial"",""time""
""fullscreenenter"",""1"",""2827""
","
","","","","","","964.8000000119209","images/goat4.png","","","learning","images/animals_choice1.png","images/animals_choice3.png","images/animals_choice2.png","[0,2,1]","1","2","2","images/animals_choice3.png","-1","animals","","goat","1","0"
"html-keyboard-response","110","517653","0.0-9.0-2.0-0.12","1504","1","2","""event"",""trial"",""time""
""fullscreenenter"",""1"",""2827""
","
","
","""event"",""trial"",""time""
""fullscreenenter"",""1"",""2827""
","
","","","","","","null","<div style=""font-size:60px;"">+</div>","null","","fixation","","","","","","","","","","","","","",""
"learning-trial","111","521656","0.0-9.0-2.0-1.12","1504","1","2","""event"",""trial"",""time""
""fullscreenenter"",""1"",""2827""
","
","
","""event"",""trial"",""time""
""fullscreenenter"",""1"",""2827""
","
","","","","","","null","images/horse4.png","","","learning","images/animals_choice1.png","images/animals_choice3.png","images/animals_choice2.png","[0,2,1]","2","1","null","null","-1","animals","","horse","1","0"
"html-keyboard-response","112","522158","0.0-9.0-2.0-0.13","1504","1","2","""event"",""trial"",""time""
""fullscreenenter"",""1"",""2827""
","
","
","""event"",""trial"",""time""
""fullscreenenter"",""1"",""2827""
","
","","","","","","null","<div style=""font-size:60px;"">+</div>","null","","fixation","","","","","","","","","","","","","",""
"learning-trial","113","526161","0.0-9.0-2.0-1.13","1504","1","2","""event"",""trial"",""time""
""fullscreenenter"",""1"",""2827""
","
","
","""event"",""trial"",""time""
""fullscreenenter"",""1"",""2827""
","
","","","","","","2342.899999976158","images/sheep2.png","","","learning","images/animals_choice2.png","images/animals_choice1.png","images/animals_choice3.png","[1,0,2]","0","1","2","images/animals_choice1.png","1","animals","","sheep","1","0"
"html-keyboard-response","114","526662","0.0-9.0-2.0-0.14","1504","1","2","""event"",""trial"",""time""
""fullscreenenter"",""1"",""2827""
","
","
","""event"",""trial"",""time""
""fullscreenenter"",""1"",""2827""
","
","","","","","","null","<div style=""font-size:60px;"">+</div>","null","","fixation","","","","","","","","","","","","","",""
"learning-trial","115","530666","0.0-9.0-2.0-1.14","1504","1","2","""event"",""trial"",""time""
""fullscreenenter"",""1"",""2827""
","
","
","""event"",""trial"",""time""
""fullscreenenter"",""1"",""2827""
","
","","","","","","2014.5","images/goat3.png","","","learning","images/animals_choice1.png","images/animals_choice3.png","images/animals_choice2.png","[0,2,1]","1","2","3","images/animals_choice2.png","1","animals","","goat","1","0"
"html-keyboard-response","116","531168","0.0-9.0-2.0-0.15","1504","1","2","""event"",""trial"",""time""
""fullscreenenter"",""1"",""2827""
","
","
","""event"",""trial"",""time""
""fullscreenenter"",""1"",""2827""
","
","","","","","","null","<div style=""font-size:60px;"">+</div>","null","","fixation","","","","","","","","","","","","","",""
"learning-trial","117","535170","0.0-9.0-2.0-1.15","1504","1","2","""event"",""trial"",""time""
""fullscreenenter"",""1"",""2827""
","
","
","""event"",""trial"",""time""
""fullscreenenter"",""1"",""2827""
","
","","","","","","870.1000000238419","images/sheep5.png","","","learning","images/animals_choice2.png","images/animals_choice1.png","images/animals_choice3.png","[1,0,2]","0","1","2","images/animals_choice1.png","1","animals","","sheep","1","0"
"html-keyboard-response","118","535673","0.0-9.0-2.0-0.16","1504","1","2","""event"",""trial"",""time""
""fullscreenenter"",""1"",""2827""
","
","
","""event"",""trial"",""time""
""fullscreenenter"",""1"",""2827""
","
","","","","","","null","<div style=""font-size:60px;"">+</div>","null","","fixation","","","","","","","","","","","","","",""
"learning-trial","119","539678","0.0-9.0-2.0-1.16","1504","1","2","""event"",""trial"",""time""
""fullscreenenter"",""1"",""2827""
","
","
","""event"",""trial"",""time""
""fullscreenenter"",""1"",""2827""
","
","","","","","","798.0999999642372","images/horse1.png","","","learning","images/animals_choice1.png","images/animals_choice2.png","images/animals_choice3.png","[0,1,2]","2","2","2","images/animals_choice2.png","-1","animals","","horse","1","0"
"html-keyboard-response","120","540180","0.0-9.0-2.0-0.17","1504","1","2","""event"",""trial"",""time""
""fullscreenenter"",""1"",""2827""
","
","
","""event"",""trial"",""time""
""fullscreenenter"",""1"",""2827""
","
","","","","","","null","<div style=""font-size:60px;"">+</div>","null","","fixation","","","","","","","","","","","","","",""
"learning-trial","121","544185","0.0-9.0-2.0-1.17","1504","1","2","""event"",""trial"",""time""
""fullscreenenter"",""1"",""2827""
","
","
","""event"",""trial"",""time""
""fullscreenenter"",""1"",""2827""
","
","","","","","","3315.300000011921","images/sheep5.png","","","learning","images/animals_choice3.png","images/animals_choice2.png","images/animals_choice1.png","[2,1,0]","0","2","3","images/animals_choice1.png","1","animals","","sheep","1","0"
"html-keyboard-response","122","544687","0.0-9.0-2.0-0.18","1504","1","2","""event"",""trial"",""time""
""fullscreenenter"",""1"",""2827""
","
","
","""event"",""trial"",""time""
""fullscreenenter"",""1"",""2827""
","
","","","","","","null","<div style=""font-size:60px;"">+</div>","null","","fixation","","","","","","","","","","","","","",""
"learning-trial","123","548694","0.0-9.0-2.0-1.18","1504","1","2","""event"",""trial"",""time""
""fullscreenenter"",""1"",""2827""
","
","
","""event"",""trial"",""time""
""fullscreenenter"",""1"",""2827""
","
","","","","","","1418.2000000476837","images/goat4.png","","","learning","images/animals_choice1.png","images/animals_choice3.png","images/animals_choice2.png","[0,2,1]","1","2","2","images/animals_choice3.png","-1","animals","","goat","1","0"
"html-keyboard-response","124","549196","0.0-9.0-2.0-0.19","1504","1","2","""event"",""trial"",""time""
""fullscreenenter"",""1"",""2827""
","
","
","""event"",""trial"",""time""
""fullscreenenter"",""1"",""2827""
","
","","","","","","null","<div style=""font-size:60px;"">+</div>","null","","fixation","","","","","","","","","","","","","",""
"learning-trial","125","553202","0.0-9.0-2.0-1.19","1504","1","2","""event"",""trial"",""time""
""fullscreenenter"",""1"",""2827""
","
","
","""event"",""trial"",""time""
""fullscreenenter"",""1"",""2827""
","
","","","","","","2199.800000011921","images/horse5.png","","","learning","images/animals_choice2.png","images/animals_choice3.png","images/animals_choice1.png","[1,2,0]","2","1","1","images/animals_choice2.png","-1","animals","","horse","1","0"
"html-keyboard-response","126","553703","0.0-9.0-2.0-0.20","1504","1","2","""event"",""trial"",""time""
""fullscreenenter"",""1"",""2827""
","
","
","""event"",""trial"",""time""
""fullscreenenter"",""1"",""2827""
","
","","","","","","null","<div style=""font-size:60px;"">+</div>","null","","fixation","","","","","","","","","","","","","",""
"learning-trial","127","557708","0.0-9.0-2.0-1.20","1504","1","2","""event"",""trial"",""time""
""fullscreenenter"",""1"",""2827""
","
","
","""event"",""trial"",""time""
""fullscreenenter"",""1"",""2827""
","
","","","","","","1820.2000000476837","images/sheep4.png","","","learning","images/animals_choice3.png","images/animals_choice2.png","images/animals_choice1.png","[2,1,0]","0","2","3","images/animals_choice1.png","1","animals","","sheep","1","0"
"html-keyboard-response","128","558211","0.0-9.0-2.0-0.21","1504","1","2","""event"",""trial"",""time""
""fullscreenenter"",""1"",""2827""
","
","
","""event"",""trial"",""time""
""fullscreenenter"",""1"",""2827""
","
","","","","","","null","<div style=""font-size:60px;"">+</div>","null","","fixation","","","","","","","","","","","","","",""
"learning-trial","129","562213","0.0-9.0-2.0-1.21","1504","1","2","""event"",""trial"",""time""
""fullscreenenter"",""1"",""2827""
","
","
","""event"",""trial"",""time""
""fullscreenenter"",""1"",""2827""
","
","","","","","","2637.5","images/sheep2.png","","","learning","images/animals_choice3.png","images/animals_choice1.png","images/animals_choice2.png","[2,0,1]","0","1","1","images/animals_choice3.png","-1","animals","","sheep","1","0"
"html-keyboard-response","130","562715","0.0-9.0-2.0-0.22","1504","1","2","""event"",""trial"",""time""
""fullscreenenter"",""1"",""2827""
","
","
","""event"",""trial"",""time""
""fullscreenenter"",""1"",""2827""
","
","","","","","","null","<div style=""font-size:60px;"">+</div>","null","","fixation","","","","","","","","","","","","","",""
"learning-trial","131","566721","0.0-9.0-2.0-1.22","1504","1","2","""event"",""trial"",""time""
""fullscreenenter"",""1"",""2827""
","
","
","""event"",""trial"",""time""
""fullscreenenter"",""1"",""2827""
","
","","","","","","2041.800000011921","images/sheep5.png","","","learning","images/animals_choice3.png","images/animals_choice2.png","images/animals_choice1.png","[2,1,0]","0","2","3","images/animals_choice1.png","1","animals","","sheep","1","0"
"html-keyboard-response","132","567223","0.0-9.0-2.0-0.23","1504","1","2","""event"",""trial"",""time""
""fullscreenenter"",""1"",""2827""
","
","
","""event"",""trial"",""time""
""fullscreenenter"",""1"",""2827""
","
","","","","","","null","<div style=""font-size:60px;"">+</div>","null","","fixation","","","","","","","","","","","","","",""
"learning-trial","133","571225","0.0-9.0-2.0-1.23","1504","1","2","""event"",""trial"",""time""
""fullscreenenter"",""1"",""2827""
","
","
","""event"",""trial"",""time""
""fullscreenenter"",""1"",""2827""
","
","","","","","","1249.2000000476837","images/sheep2.png","","","learning","images/animals_choice2.png","images/animals_choice1.png","images/animals_choice3.png","[1,0,2]","0","1","3","images/animals_choice3.png","-1","animals","","sheep","1","0"
"html-keyboard-response","134","571728","0.0-9.0-2.0-0.24","1504","1","2","""event"",""trial"",""time""
""fullscreenenter"",""1"",""2827""
","
","
","""event"",""trial"",""time""
""fullscreenenter"",""1"",""2827""
","
","","","","","","null","<div style=""font-size:60px;"">+</div>","null","","fixation","","","","","","","","","","","","","",""
"learning-trial","135","575737","0.0-9.0-2.0-1.24","1504","1","2","""event"",""trial"",""time""
""fullscreenenter"",""1"",""2827""
","
","
","""event"",""trial"",""time""
""fullscreenenter"",""1"",""2827""
","
","","","","","","2030.4000000357628","images/horse5.png","","","learning","images/animals_choice2.png","images/animals_choice1.png","images/animals_choice3.png","[1,0,2]","2","2","1","images/animals_choice2.png","1","animals","","horse","1","0"
"html-keyboard-response","136","576239","0.0-9.0-2.0-0.25","1504","1","2","""event"",""trial"",""time""
""fullscreenenter"",""1"",""2827""
","
","
","""event"",""trial"",""time""
""fullscreenenter"",""1"",""2827""
","
","","","","","","null","<div style=""font-size:60px;"">+</div>","null","","fixation","","","","","","","","","","","","","",""
"learning-trial","137","580244","0.0-9.0-2.0-1.25","1504","1","2","""event"",""trial"",""time""
""fullscreenenter"",""1"",""2827""
","
","
","""event"",""trial"",""time""
""fullscreenenter"",""1"",""2827""
","
","","","","","","1076.0999999642372","images/sheep5.png","","","learning","images/animals_choice1.png","images/animals_choice3.png","images/animals_choice2.png","[0,2,1]","0","0","2","images/animals_choice3.png","-1","animals","","sheep","1","0"
"html-keyboard-response","138","580745","0.0-9.0-2.0-0.26","1504","1","2","""event"",""trial"",""time""
""fullscreenenter"",""1"",""2827""
","
","
","""event"",""trial"",""time""
""fullscreenenter"",""1"",""2827""
","
","","","","","","null","<div style=""font-size:60px;"">+</div>","null","","fixation","","","","","","","","","","","","","",""
"learning-trial","139","584747","0.0-9.0-2.0-1.26","1504","1","2","""event"",""trial"",""time""
""fullscreenenter"",""1"",""2827""
","
","
","""event"",""trial"",""time""
""fullscreenenter"",""1"",""2827""
","
","","","","","","1234.0999999642372","images/horse1.png","","","learning","images/animals_choice1.png","images/animals_choice3.png","images/animals_choice2.png","[0,2,1]","2","1","3","images/animals_choice2.png","-1","animals","","horse","1","0"
"html-keyboard-response","140","585249","0.0-9.0-2.0-0.27","1504","1","2","""event"",""trial"",""time""
""fullscreenenter"",""1"",""2827""
","
","
","""event"",""trial"",""time""
""fullscreenenter"",""1"",""2827""
","
","","","","","","null","<div style=""font-size:60px;"">+</div>","null","","fixation","","","","","","","","","","","","","",""
"learning-trial","141","589254","0.0-9.0-2.0-1.27","1504","1","2","""event"",""trial"",""time""
""fullscreenenter"",""1"",""2827""
","
","
","""event"",""trial"",""time""
""fullscreenenter"",""1"",""2827""
","
","","","","","","1007.6999999880791","images/horse4.png","","","learning","images/animals_choice1.png","images/animals_choice3.png","images/animals_choice2.png","[0,2,1]","2","1","3","images/animals_choice2.png","-1","animals","","horse","1","0"
"html-keyboard-response","142","589756","0.0-9.0-2.0-0.28","1504","1","2","""event"",""trial"",""time""
""fullscreenenter"",""1"",""2827""
","
","
","""event"",""trial"",""time""
""fullscreenenter"",""1"",""2827""
","
","","","","","","null","<div style=""font-size:60px;"">+</div>","null","","fixation","","","","","","","","","","","","","",""
"learning-trial","143","593758","0.0-9.0-2.0-1.28","1504","1","2","""event"",""trial"",""time""
""fullscreenenter"",""1"",""2827""
","
","
","""event"",""trial"",""time""
""fullscreenenter"",""1"",""2827""
","
","","","","","","1756.8999999761581","images/goat2.png","","","learning","images/animals_choice3.png","images/animals_choice1.png","images/animals_choice2.png","[2,0,1]","1","2","1","images/animals_choice3.png","-1","animals","","goat","1","0"
"html-keyboard-response","144","594261","0.0-9.0-2.0-0.29","1504","1","2","""event"",""trial"",""time""
""fullscreenenter"",""1"",""2827""
","
","
","""event"",""trial"",""time""
""fullscreenenter"",""1"",""2827""
","
","","","","","","null","<div style=""font-size:60px;"">+</div>","null","","fixation","","","","","","","","","","","","","",""
"learning-trial","145","598263","0.0-9.0-2.0-1.29","1504","1","2","""event"",""trial"",""time""
""fullscreenenter"",""1"",""2827""
","
","
","""event"",""trial"",""time""
""fullscreenenter"",""1"",""2827""
","
","","","","","","2851.5","images/sheep2.png","","","learning","images/animals_choice1.png","images/animals_choice2.png","images/animals_choice3.png","[0,1,2]","0","0","1","images/animals_choice1.png","-1","animals","","sheep","1","0"
"html-keyboard-response","146","598765","0.0-9.0-2.0-0.30","1504","1","2","""event"",""trial"",""time""
""fullscreenenter"",""1"",""2827""
","
","
","""event"",""trial"",""time""
""fullscreenenter"",""1"",""2827""
","
","","","","","","null","<div style=""font-size:60px;"">+</div>","null","","fixation","","","","","","","","","","","","","",""
"learning-trial","147","602768","0.0-9.0-2.0-1.30","1504","1","2","""event"",""trial"",""time""
""fullscreenenter"",""1"",""2827""
","
","
","""event"",""trial"",""time""
""fullscreenenter"",""1"",""2827""
","
","","","","","","991.1999999880791","images/horse1.png","","","learning","images/animals_choice2.png","images/animals_choice1.png","images/animals_choice3.png","[1,0,2]","2","2","2","images/animals_choice1.png","-1","animals","","horse","1","0"
"html-keyboard-response","148","603269","0.0-9.0-2.0-0.31","1504","1","2","""event"",""trial"",""time""
""fullscreenenter"",""1"",""2827""
","
","
","""event"",""trial"",""time""
""fullscreenenter"",""1"",""2827""
","
","","","","","","null","<div style=""font-size:60px;"">+</div>","null","","fixation","","","","","","","","","","","","","",""
"learning-trial","149","607273","0.0-9.0-2.0-1.31","1504","1","2","""event"",""trial"",""time""
""fullscreenenter"",""1"",""2827""
","
","
","""event"",""trial"",""time""
""fullscreenenter"",""1"",""2827""
","
","","","","","","3537.599999964237","images/goat4.png","","","learning","images/animals_choice1.png","images/animals_choice2.png","images/animals_choice3.png","[0,1,2]","1","1","3","images/animals_choice3.png","-1","animals","","goat","1","0"
"html-keyboard-response","150","607775","0.0-9.0-2.0-0.32","1504","1","2","""event"",""trial"",""time""
""fullscreenenter"",""1"",""2827""
","
","
","""event"",""trial"",""time""
""fullscreenenter"",""1"",""2827""
","
","","","","","","null","<div style=""font-size:60px;"">+</div>","null","","fixation","","","","","","","","","","","","","",""
"learning-trial","151","611790","0.0-9.0-2.0-1.32","1504","1","2","""event"",""trial"",""time""
""fullscreenenter"",""1"",""2827""
","
","
","""event"",""trial"",""time""
""fullscreenenter"",""1"",""2827""
","
","","","","","","2121.7000000476837","images/horse1.png","","","learning","images/animals_choice1.png","images/animals_choice3.png","images/animals_choice2.png","[0,2,1]","2","1","3","images/animals_choice2.png","-1","animals","","horse","1","0"
"html-keyboard-response","152","612292","0.0-9.0-2.0-0.33","1504","1","2","""event"",""trial"",""time""
""fullscreenenter"",""1"",""2827""
","
","
","""event"",""trial"",""time""
""fullscreenenter"",""1"",""2827""
","
","","","","","","null","<div style=""font-size:60px;"">+</div>","null","","fixation","","","","","","","","","","","","","",""
"learning-trial","153","616297","0.0-9.0-2.0-1.33","1504","1","2","""event"",""trial"",""time""
""fullscreenenter"",""1"",""2827""
","
","
","""event"",""trial"",""time""
""fullscreenenter"",""1"",""2827""
","
","","","","","","2918.699999988079","images/goat3.png","","","learning","images/animals_choice2.png","images/animals_choice3.png","images/animals_choice1.png","[1,2,0]","1","0","2","images/animals_choice3.png","-1","animals","","goat","1","0"
"html-keyboard-response","154","616798","0.0-9.0-2.0-0.34","1504","1","2","""event"",""trial"",""time""
""fullscreenenter"",""1"",""2827""
","
","
","""event"",""trial"",""time""
""fullscreenenter"",""1"",""2827""
","
","","","","","","null","<div style=""font-size:60px;"">+</div>","null","","fixation","","","","","","","","","","","","","",""
"learning-trial","155","620809","0.0-9.0-2.0-1.34","1504","1","2","""event"",""trial"",""time""
""fullscreenenter"",""1"",""2827""
","
","
","""event"",""trial"",""time""
""fullscreenenter"",""1"",""2827""
","
","","","","","","2122.899999976158","images/sheep5.png","","","learning","images/animals_choice3.png","images/animals_choice2.png","images/animals_choice1.png","[2,1,0]","0","2","3","images/animals_choice1.png","1","animals","","sheep","1","0"
"html-keyboard-response","156","621312","0.0-9.0-2.0-0.35","1504","1","2","""event"",""trial"",""time""
""fullscreenenter"",""1"",""2827""
","
","
","""event"",""trial"",""time""
""fullscreenenter"",""1"",""2827""
","
","","","","","","null","<div style=""font-size:60px;"">+</div>","null","","fixation","","","","","","","","","","","","","",""
"learning-trial","157","625315","0.0-9.0-2.0-1.35","1504","1","2","""event"",""trial"",""time""
""fullscreenenter"",""1"",""2827""
","
","
","""event"",""trial"",""time""
""fullscreenenter"",""1"",""2827""
","
","","","","","","3259.600000023842","images/horse5.png","","","learning","images/animals_choice3.png","images/animals_choice1.png","images/animals_choice2.png","[2,0,1]","2","0","3","images/animals_choice2.png","-1","animals","","horse","1","0"
"html-keyboard-response","158","625817","0.0-9.0-2.0-0.36","1504","1","2","""event"",""trial"",""time""
""fullscreenenter"",""1"",""2827""
","
","
","""event"",""trial"",""time""
""fullscreenenter"",""1"",""2827""
","
","","","","","","null","<div style=""font-size:60px;"">+</div>","null","","fixation","","","","","","","","","","","","","",""
"learning-trial","159","629823","0.0-9.0-2.0-1.36","1504","1","2","""event"",""trial"",""time""
""fullscreenenter"",""1"",""2827""
","
","
","""event"",""trial"",""time""
""fullscreenenter"",""1"",""2827""
","
","","","","","","3577.199999988079","images/goat4.png","","","learning","images/animals_choice3.png","images/animals_choice1.png","images/animals_choice2.png","[2,0,1]","1","2","1","images/animals_choice3.png","-1","animals","","goat","1","0"
"html-keyboard-response","160","630324","0.0-9.0-2.0-0.37","1504","1","2","""event"",""trial"",""time""
""fullscreenenter"",""1"",""2827""
","
","
","""event"",""trial"",""time""
""fullscreenenter"",""1"",""2827""
","
","","","","","","null","<div style=""font-size:60px;"">+</div>","null","","fixation","","","","","","","","","","","","","",""
"learning-trial","161","634329","0.0-9.0-2.0-1.37","1504","1","2","""event"",""trial"",""time""
""fullscreenenter"",""1"",""2827""
","
","
","""event"",""trial"",""time""
""fullscreenenter"",""1"",""2827""
","
","","","","","","1864.5","images/goat2.png","","","learning","images/animals_choice2.png","images/animals_choice1.png","images/animals_choice3.png","[1,0,2]","1","0","3","images/animals_choice3.png","-1","animals","","goat","1","0"
"html-keyboard-response","162","634831","0.0-9.0-2.0-0.38","1504","1","2","""event"",""trial"",""time""
""fullscreenenter"",""1"",""2827""
","
","
","""event"",""trial"",""time""
""fullscreenenter"",""1"",""2827""
","
","","","","","","null","<div style=""font-size:60px;"">+</div>","null","","fixation","","","","","","","","","","","","","",""
"learning-trial","163","638836","0.0-9.0-2.0-1.38","1504","1","2","""event"",""trial"",""time""
""fullscreenenter"",""1"",""2827""
","
","
","""event"",""trial"",""time""
""fullscreenenter"",""1"",""2827""
","
","","","","","","1621.800000011921","images/sheep4.png","","","learning","images/animals_choice2.png","images/animals_choice3.png","images/animals_choice1.png","[1,2,0]","0","2","3","images/animals_choice1.png","1","animals","","sheep","1","0"
"html-keyboard-response","164","639338","0.0-9.0-2.0-0.39","1504","1","2","""event"",""trial"",""time""
""fullscreenenter"",""1"",""2827""
","
","
","""event"",""trial"",""time""
""fullscreenenter"",""1"",""2827""
","
","","","","","","null","<div style=""font-size:60px;"">+</div>","null","","fixation","","","","","","","","","","","","","",""
"learning-trial","165","643341","0.0-9.0-2.0-1.39","1504","1","2","""event"",""trial"",""time""
""fullscreenenter"",""1"",""2827""
","
","
","""event"",""trial"",""time""
""fullscreenenter"",""1"",""2827""
","
","","","","","","2016","images/goat4.png","","","learning","images/animals_choice3.png","images/animals_choice2.png","images/animals_choice1.png","[2,1,0]","1","1","2","images/animals_choice2.png","1","animals","","goat","1","0"
"html-keyboard-response","166","643843","0.0-9.0-2.0-0.40","1504","1","2","""event"",""trial"",""time""
""fullscreenenter"",""1"",""2827""
","
","
","""event"",""trial"",""time""
""fullscreenenter"",""1"",""2827""
","
","","","","","","null","<div style=""font-size:60px;"">+</div>","null","","fixation","","","","","","","","","","","","","",""
"learning-trial","167","647851","0.0-9.0-2.0-1.40","1504","1","2","""event"",""trial"",""time""
""fullscreenenter"",""1"",""2827""
","
","
","""event"",""trial"",""time""
""fullscreenenter"",""1"",""2827""
","
","","","","","","2496","images/sheep5.png","","","learning","images/animals_choice3.png","images/animals_choice1.png","images/animals_choice2.png","[2,0,1]","0","1","3","images/animals_choice2.png","-1","animals","","sheep","1","0"
"html-keyboard-response","168","648354","0.0-9.0-2.0-0.41","1504","1","2","""event"",""trial"",""time""
""fullscreenenter"",""1"",""2827""
","
","
","""event"",""trial"",""time""
""fullscreenenter"",""1"",""2827""
","
","","","","","","null","<div style=""font-size:60px;"">+</div>","null","","fixation","","","","","","","","","","","","","",""
"learning-trial","169","652356","0.0-9.0-2.0-1.41","1504","1","2","""event"",""trial"",""time""
""fullscreenenter"",""1"",""2827""
","
","
","""event"",""trial"",""time""
""fullscreenenter"",""1"",""2827""
","
","","","","","","1344.800000011921","images/horse4.png","","","learning","images/animals_choice2.png","images/animals_choice1.png","images/animals_choice3.png","[1,0,2]","2","2","3","images/animals_choice3.png","-1","animals","","horse","1","0"
"html-keyboard-response","170","652858","0.0-9.0-2.0-0.42","1504","1","2","""event"",""trial"",""time""
""fullscreenenter"",""1"",""2827""
","
","
","""event"",""trial"",""time""
""fullscreenenter"",""1"",""2827""
","
","","","","","","null","<div style=""font-size:60px;"">+</div>","null","","fixation","","","","","","","","","","","","","",""
"learning-trial","171","656860","0.0-9.0-2.0-1.42","1504","1","2","""event"",""trial"",""time""
""fullscreenenter"",""1"",""2827""
","
","
","""event"",""trial"",""time""
""fullscreenenter"",""1"",""2827""
","
","","","","","","null","images/goat4.png","","","learning","images/animals_choice3.png","images/animals_choice1.png","images/animals_choice2.png","[2,0,1]","1","2","null","null","-1","animals","","goat","1","0"
"html-keyboard-response","172","657362","0.0-9.0-2.0-0.43","1504","1","2","""event"",""trial"",""time""
""fullscreenenter"",""1"",""2827""
","
","
","""event"",""trial"",""time""
""fullscreenenter"",""1"",""2827""
","
","","","","","","null","<div style=""font-size:60px;"">+</div>","null","","fixation","","","","","","","","","","","","","",""
"learning-trial","173","661364","0.0-9.0-2.0-1.43","1504","1","2","""event"",""trial"",""time""
""fullscreenenter"",""1"",""2827""
","
","
","""event"",""trial"",""time""
""fullscreenenter"",""1"",""2827""
","
","","","","","","1422.3999999761581","images/goat3.png","","","learning","images/animals_choice3.png","images/animals_choice1.png","images/animals_choice2.png","[2,0,1]","1","2","1","images/animals_choice3.png","-1","animals","","goat","1","0"
"html-keyboard-response","174","661867","0.0-9.0-2.0-0.44","1504","1","2","""event"",""trial"",""time""
""fullscreenenter"",""1"",""2827""
","
","
","""event"",""trial"",""time""
""fullscreenenter"",""1"",""2827""
","
","","","","","","null","<div style=""font-size:60px;"">+</div>","null","","fixation","","","","","","","","","","","","","",""
"learning-trial","175","665874","0.0-9.0-2.0-1.44","1504","1","2","""event"",""trial"",""time""
""fullscreenenter"",""1"",""2827""
","
","
","""event"",""trial"",""time""
""fullscreenenter"",""1"",""2827""
","
","","","","","","906.8000000119209","images/sheep4.png","","","learning","images/animals_choice3.png","images/animals_choice1.png","images/animals_choice2.png","[2,0,1]","0","1","2","images/animals_choice1.png","1","animals","","sheep","1","0"
"html-keyboard-response","176","666375","0.0-9.0-2.0-0.45","1504","1","2","""event"",""trial"",""time""
""fullscreenenter"",""1"",""2827""
","
","
","""event"",""trial"",""time""
""fullscreenenter"",""1"",""2827""
","
","","","","","","null","<div style=""font-size:60px;"">+</div>","null","","fixation","","","","","","","","","","","","","",""
"learning-trial","177","670379","0.0-9.0-2.0-1.45","1504","1","2","""event"",""trial"",""time""
""fullscreenenter"",""1"",""2827""
","
","
","""event"",""trial"",""time""
""fullscreenenter"",""1"",""2827""
","
","","","","","","1556.5","images/goat2.png","","","learning","images/animals_choice3.png","images/animals_choice1.png","images/animals_choice2.png","[2,0,1]","1","2","1","images/animals_choice3.png","-1","animals","","goat","1","0"
"html-keyboard-response","178","670881","0.0-9.0-2.0-0.46","1504","1","2","""event"",""trial"",""time""
""fullscreenenter"",""1"",""2827""
","
","
","""event"",""trial"",""time""
""fullscreenenter"",""1"",""2827""
","
","","","","","","null","<div style=""font-size:60px;"">+</div>","null","","fixation","","","","","","","","","","","","","",""
"learning-trial","179","674886","0.0-9.0-2.0-1.46","1504","1","2","""event"",""trial"",""time""
""fullscreenenter"",""1"",""2827""
","
","
","""event"",""trial"",""time""
""fullscreenenter"",""1"",""2827""
","
","","","","","","955.8000000119209","images/goat3.png","","","learning","images/animals_choice3.png","images/animals_choice1.png","images/animals_choice2.png","[2,0,1]","1","2","1","images/animals_choice3.png","-1","animals","","goat","1","0"
"html-keyboard-response","180","675388","0.0-9.0-2.0-0.47","1504","1","2","""event"",""trial"",""time""
""fullscreenenter"",""1"",""2827""
","
","
","""event"",""trial"",""time""
""fullscreenenter"",""1"",""2827""
","
","","","","","","null","<div style=""font-size:60px;"">+</div>","null","","fixation","","","","","","","","","","","","","",""
"learning-trial","181","679393","0.0-9.0-2.0-1.47","1504","1","2","""event"",""trial"",""time""
""fullscreenenter"",""1"",""2827""
","
","
","""event"",""trial"",""time""
""fullscreenenter"",""1"",""2827""
","
","","","","","","1600.5999999642372","images/sheep4.png","","","learning","images/animals_choice2.png","images/animals_choice1.png","images/animals_choice3.png","[1,0,2]","0","1","2","images/animals_choice1.png","1","animals","","sheep","1","0"
"html-keyboard-response","182","679897","0.0-9.0-2.0-0.48","1504","1","2","""event"",""trial"",""time""
""fullscreenenter"",""1"",""2827""
","
","
","""event"",""trial"",""time""
""fullscreenenter"",""1"",""2827""
","
","","","","","","null","<div style=""font-size:60px;"">+</div>","null","","fixation","","","","","","","","","","","","","",""
"learning-trial","183","683903","0.0-9.0-2.0-1.48","1504","1","2","""event"",""trial"",""time""
""fullscreenenter"",""1"",""2827""
","
","
","""event"",""trial"",""time""
""fullscreenenter"",""1"",""2827""
","
","","","","","","3520.699999988079","images/horse4.png","","","learning","images/animals_choice1.png","images/animals_choice3.png","images/animals_choice2.png","[0,2,1]","2","1","3","images/animals_choice2.png","-1","animals","","horse","1","0"
"html-keyboard-response","184","684405","0.0-9.0-2.0-0.49","1504","1","2","""event"",""trial"",""time""
""fullscreenenter"",""1"",""2827""
","
","
","""event"",""trial"",""time""
""fullscreenenter"",""1"",""2827""
","
","","","","","","null","<div style=""font-size:60px;"">+</div>","null","","fixation","","","","","","","","","","","","","",""
"learning-trial","185","688408","0.0-9.0-2.0-1.49","1504","1","2","""event"",""trial"",""time""
""fullscreenenter"",""1"",""2827""
","
","
","""event"",""trial"",""time""
""fullscreenenter"",""1"",""2827""
","
","","","","","","3623.699999988079","images/sheep5.png","","","learning","images/animals_choice3.png","images/animals_choice2.png","images/animals_choice1.png","[2,1,0]","0","2","3","images/animals_choice1.png","-1","animals","","sheep","1","0"
"html-keyboard-response","186","688909","0.0-9.0-2.0-0.50","1504","1","2","""event"",""trial"",""time""
""fullscreenenter"",""1"",""2827""
","
","
","""event"",""trial"",""time""
""fullscreenenter"",""1"",""2827""
","
","","","","","","null","<div style=""font-size:60px;"">+</div>","null","","fixation","","","","","","","","","","","","","",""
"learning-trial","187","692914","0.0-9.0-2.0-1.50","1504","1","2","""event"",""trial"",""time""
""fullscreenenter"",""1"",""2827""
","
","
","""event"",""trial"",""time""
""fullscreenenter"",""1"",""2827""
","
","","","","","","2778.600000023842","images/goat2.png","","","learning","images/animals_choice1.png","images/animals_choice3.png","images/animals_choice2.png","[0,2,1]","1","2","2","images/animals_choice3.png","-1","animals","","goat","1","0"
"html-keyboard-response","188","693416","0.0-9.0-2.0-0.51","1504","1","2","""event"",""trial"",""time""
""fullscreenenter"",""1"",""2827""
","
","
","""event"",""trial"",""time""
""fullscreenenter"",""1"",""2827""
","
","","","","","","null","<div style=""font-size:60px;"">+</div>","null","","fixation","","","","","","","","","","","","","",""
"learning-trial","189","697418","0.0-9.0-2.0-1.51","1504","1","2","""event"",""trial"",""time""
""fullscreenenter"",""1"",""2827""
","
","
","""event"",""trial"",""time""
""fullscreenenter"",""1"",""2827""
","
","","","","","","1631.800000011921","images/goat2.png","","","learning","images/animals_choice2.png","images/animals_choice1.png","images/animals_choice3.png","[1,0,2]","1","0","1","images/animals_choice2.png","1","animals","","goat","1","0"
"html-keyboard-response","190","697931","0.0-9.0-2.0-0.52","1504","1","2","""event"",""trial"",""time""
""fullscreenenter"",""1"",""2827""
","
","
","""event"",""trial"",""time""
""fullscreenenter"",""1"",""2827""
","
","","","","","","null","<div style=""font-size:60px;"">+</div>","null","","fixation","","","","","","","","","","","","","",""
"learning-trial","191","701936","0.0-9.0-2.0-1.52","1504","1","2","""event"",""trial"",""time""
""fullscreenenter"",""1"",""2827""
","
","
","""event"",""trial"",""time""
""fullscreenenter"",""1"",""2827""
","
","","","","","","1573","images/goat3.png","","","learning","images/animals_choice2.png","images/animals_choice1.png","images/animals_choice3.png","[1,0,2]","1","0","1","images/animals_choice2.png","1","animals","","goat","1","0"
"html-keyboard-response","192","702437","0.0-9.0-2.0-0.53","1504","1","2","""event"",""trial"",""time""
""fullscreenenter"",""1"",""2827""
","
","
","""event"",""trial"",""time""
""fullscreenenter"",""1"",""2827""
","
","","","","","","null","<div style=""font-size:60px;"">+</div>","null","","fixation","","","","","","","","","","","","","",""
"learning-trial","193","706440","0.0-9.0-2.0-1.53","1504","1","2","""event"",""trial"",""time""
""fullscreenenter"",""1"",""2827""
","
","
","""event"",""trial"",""time""
""fullscreenenter"",""1"",""2827""
","
","","","","","","null","images/sheep2.png","","","learning","images/animals_choice1.png","images/animals_choice2.png","images/animals_choice3.png","[0,1,2]","0","0","null","null","-1","animals","","sheep","1","0"
"html-keyboard-response","194","706941","0.0-9.0-2.0-0.54","1504","1","2","""event"",""trial"",""time""
""fullscreenenter"",""1"",""2827""
","
","
","""event"",""trial"",""time""
""fullscreenenter"",""1"",""2827""
","
","","","","","","null","<div style=""font-size:60px;"">+</div>","null","","fixation","","","","","","","","","","","","","",""
"learning-trial","195","710946","0.0-9.0-2.0-1.54","1504","1","2","""event"",""trial"",""time""
""fullscreenenter"",""1"",""2827""
","
","
","""event"",""trial"",""time""
""fullscreenenter"",""1"",""2827""
","
","","","","","","2515.800000011921","images/horse1.png","","","learning","images/animals_choice1.png","images/animals_choice3.png","images/animals_choice2.png","[0,2,1]","2","1","3","images/animals_choice2.png","-1","animals","","horse","1","0"
"html-keyboard-response","196","711448","0.0-9.0-2.0-0.55","1504","1","2","""event"",""trial"",""time""
""fullscreenenter"",""1"",""2827""
","
","
","""event"",""trial"",""time""
""fullscreenenter"",""1"",""2827""
","
","","","","","","null","<div style=""font-size:60px;"">+</div>","null","","fixation","","","","","","","","","","","","","",""
"learning-trial","197","715451","0.0-9.0-2.0-1.55","1504","1","2","""event"",""trial"",""time""
""fullscreenenter"",""1"",""2827""
","
","
","""event"",""trial"",""time""
""fullscreenenter"",""1"",""2827""
","
","","","","","","null","images/horse5.png","","","learning","images/animals_choice1.png","images/animals_choice2.png","images/animals_choice3.png","[0,1,2]","2","2","null","null","-1","animals","","horse","1","0"
"html-keyboard-response","198","715952","0.0-9.0-2.0-0.56","1504","1","2","""event"",""trial"",""time""
""fullscreenenter"",""1"",""2827""
","
","
","""event"",""trial"",""time""
""fullscreenenter"",""1"",""2827""
","
","","","","","","null","<div style=""font-size:60px;"">+</div>","null","","fixation","","","","","","","","","","","","","",""
"learning-trial","199","719956","0.0-9.0-2.0-1.56","1504","1","2","""event"",""trial"",""time""
""fullscreenenter"",""1"",""2827""
","
","
","""event"",""trial"",""time""
""fullscreenenter"",""1"",""2827""
","
","","","","","","1203.5","images/sheep4.png","","","learning","images/animals_choice1.png","images/animals_choice3.png","images/animals_choice2.png","[0,2,1]","0","0","2","images/animals_choice3.png","-1","animals","","sheep","1","0"
"html-keyboard-response","200","720459","0.0-9.0-2.0-0.57","1504","1","2","""event"",""trial"",""time""
""fullscreenenter"",""1"",""2827""
","
","
","""event"",""trial"",""time""
""fullscreenenter"",""1"",""2827""
","
","","","","","","null","<div style=""font-size:60px;"">+</div>","null","","fixation","","","","","","","","","","","","","",""
"learning-trial","201","724463","0.0-9.0-2.0-1.57","1504","1","2","""event"",""trial"",""time""
""fullscreenenter"",""1"",""2827""
","
","
","""event"",""trial"",""time""
""fullscreenenter"",""1"",""2827""
","
","","","","","","3870.900000035763","images/horse4.png","","","learning","images/animals_choice3.png","images/animals_choice2.png","images/animals_choice1.png","[2,1,0]","2","0","2","images/animals_choice2.png","-1","animals","","horse","1","0"
"html-keyboard-response","202","724965","0.0-9.0-2.0-0.58","1504","1","2","""event"",""trial"",""time""
""fullscreenenter"",""1"",""2827""
","
","
","""event"",""trial"",""time""
""fullscreenenter"",""1"",""2827""
","
","","","","","","null","<div style=""font-size:60px;"">+</div>","null","","fixation","","","","","","","","","","","","","",""
"learning-trial","203","728968","0.0-9.0-2.0-1.58","1504","1","2","""event"",""trial"",""time""
""fullscreenenter"",""1"",""2827""
","
","
","""event"",""trial"",""time""
""fullscreenenter"",""1"",""2827""
","
","","","","","","1219.199999988079","images/goat3.png","","","learning","images/animals_choice2.png","images/animals_choice3.png","images/animals_choice1.png","[1,2,0]","1","0","2","images/animals_choice3.png","-1","animals","","goat","1","0"
"html-keyboard-response","204","729476","0.0-9.0-2.0-0.59","1504","1","2","""event"",""trial"",""time""
""fullscreenenter"",""1"",""2827""
","
","
","""event"",""trial"",""time""
""fullscreenenter"",""1"",""2827""
","
","","","","","","null","<div style=""font-size:60px;"">+</div>","null","","fixation","","","","","","","","","","","","","",""
"learning-trial","205","733482","0.0-9.0-2.0-1.59","1504","1","2","""event"",""trial"",""time""
""fullscreenenter"",""1"",""2827""
","
","
","""event"",""trial"",""time""
""fullscreenenter"",""1"",""2827""
","
","","","","","","1258.199999988079","images/goat2.png","","","learning","images/animals_choice1.png","images/animals_choice2.png","images/animals_choice3.png","[0,1,2]","1","1","1","images/animals_choice1.png","-1","animals","","goat","1","0"
"html-keyboard-response","206","733984","0.0-9.0-2.0-0.60","1504","1","2","""event"",""trial"",""time""
""fullscreenenter"",""1"",""2827""
","
","
","""event"",""trial"",""time""
""fullscreenenter"",""1"",""2827""
","
","","","","","","null","<div style=""font-size:60px;"">+</div>","null","","fixation","","","","","","","","","","","","","",""
"learning-trial","207","737993","0.0-9.0-2.0-1.60","1504","1","2","""event"",""trial"",""time""
""fullscreenenter"",""1"",""2827""
","
","
","""event"",""trial"",""time""
""fullscreenenter"",""1"",""2827""
","
","","","","","","1340.5","images/goat2.png","","","learning","images/animals_choice1.png","images/animals_choice2.png","images/animals_choice3.png","[0,1,2]","1","1","3","images/animals_choice3.png","1","animals","","goat","1","0"
"html-keyboard-response","208","738495","0.0-9.0-2.0-0.61","1504","1","2","""event"",""trial"",""time""
""fullscreenenter"",""1"",""2827""
","
","
","""event"",""trial"",""time""
""fullscreenenter"",""1"",""2827""
","
","","","","","","null","<div style=""font-size:60px;"">+</div>","null","","fixation","","","","","","","","","","","","","",""
"learning-trial","209","742497","0.0-9.0-2.0-1.61","1504","1","2","""event"",""trial"",""time""
""fullscreenenter"",""1"",""2827""
","
","
","""event"",""trial"",""time""
""fullscreenenter"",""1"",""2827""
","
","","","","","","1582.9000000357628","images/sheep2.png","","","learning","images/animals_choice1.png","images/animals_choice2.png","images/animals_choice3.png","[0,1,2]","0","0","1","images/animals_choice1.png","1","animals","","sheep","1","0"
"html-keyboard-response","210","742998","0.0-9.0-2.0-0.62","1504","1","2","""event"",""trial"",""time""
""fullscreenenter"",""1"",""2827""
","
","
","""event"",""trial"",""time""
""fullscreenenter"",""1"",""2827""
","
","","","","","","null","<div style=""font-size:60px;"">+</div>","null","","fixation","","","","","","","","","","","","","",""
"learning-trial","211","747006","0.0-9.0-2.0-1.62","1504","1","2","""event"",""trial"",""time""
""fullscreenenter"",""1"",""2827""
","
","
","""event"",""trial"",""time""
""fullscreenenter"",""1"",""2827""
","
","","","","","","1106.9000000357628","images/goat2.png","","","learning","images/animals_choice3.png","images/animals_choice2.png","images/animals_choice1.png","[2,1,0]","1","1","3","images/animals_choice1.png","-1","animals","","goat","1","0"
"html-keyboard-response","212","747515","0.0-9.0-2.0-0.63","1504","1","2","""event"",""trial"",""time""
""fullscreenenter"",""1"",""2827""
","
","
","""event"",""trial"",""time""
""fullscreenenter"",""1"",""2827""
","
","","","","","","null","<div style=""font-size:60px;"">+</div>","null","","fixation","","","","","","","","","","","","","",""
"learning-trial","213","751520","0.0-9.0-2.0-1.63","1504","1","2","""event"",""trial"",""time""
""fullscreenenter"",""1"",""2827""
","
","
","""event"",""trial"",""time""
""fullscreenenter"",""1"",""2827""
","
","","","","","","1458.3999999761581","images/horse4.png","","","learning","images/animals_choice2.png","images/animals_choice3.png","images/animals_choice1.png","[1,2,0]","2","1","1","images/animals_choice2.png","-1","animals","","horse","1","0"
"html-keyboard-response","214","752022","0.0-9.0-2.0-0.64","1504","1","2","""event"",""trial"",""time""
""fullscreenenter"",""1"",""2827""
","
","
","""event"",""trial"",""time""
""fullscreenenter"",""1"",""2827""
","
","","","","","","null","<div style=""font-size:60px;"">+</div>","null","","fixation","","","","","","","","","","","","","",""
"learning-trial","215","756026","0.0-9.0-2.0-1.64","1504","1","2","""event"",""trial"",""time""
""fullscreenenter"",""1"",""2827""
","
","
","""event"",""trial"",""time""
""fullscreenenter"",""1"",""2827""
","
","","","","","","3173.300000011921","images/goat3.png","","","learning","images/animals_choice2.png","images/animals_choice1.png","images/animals_choice3.png","[1,0,2]","1","0","3","images/animals_choice3.png","-1","animals","","goat","1","0"
"html-keyboard-response","216","756528","0.0-9.0-2.0-0.65","1504","1","2","""event"",""trial"",""time""
""fullscreenenter"",""1"",""2827""
","
","
","""event"",""trial"",""time""
""fullscreenenter"",""1"",""2827""
","
","","","","","","null","<div style=""font-size:60px;"">+</div>","null","","fixation","","","","","","","","","","","","","",""
"learning-trial","217","760533","0.0-9.0-2.0-1.65","1504","1","2","""event"",""trial"",""time""
""fullscreenenter"",""1"",""2827""
","
","
","""event"",""trial"",""time""
""fullscreenenter"",""1"",""2827""
","
","","","","","","2080.699999988079","images/horse5.png","","","learning","images/animals_choice1.png","images/animals_choice3.png","images/animals_choice2.png","[0,2,1]","2","1","1","images/animals_choice1.png","-1","animals","","horse","1","0"
"html-keyboard-response","218","761035","0.0-9.0-2.0-0.66","1504","1","2","""event"",""trial"",""time""
""fullscreenenter"",""1"",""2827""
","
","
","""event"",""trial"",""time""
""fullscreenenter"",""1"",""2827""
","
","","","","","","null","<div style=""font-size:60px;"">+</div>","null","","fixation","","","","","","","","","","","","","",""
"learning-trial","219","765039","0.0-9.0-2.0-1.66","1504","1","2","""event"",""trial"",""time""
""fullscreenenter"",""1"",""2827""
","
","
","""event"",""trial"",""time""
""fullscreenenter"",""1"",""2827""
","
","","","","","","1770.699999988079","images/sheep5.png","","","learning","images/animals_choice1.png","images/animals_choice2.png","images/animals_choice3.png","[0,1,2]","0","0","1","images/animals_choice1.png","1","animals","","sheep","1","0"
"html-keyboard-response","220","765542","0.0-9.0-2.0-0.67","1504","1","2","""event"",""trial"",""time""
""fullscreenenter"",""1"",""2827""
","
","
","""event"",""trial"",""time""
""fullscreenenter"",""1"",""2827""
","
","","","","","","null","<div style=""font-size:60px;"">+</div>","null","","fixation","","","","","","","","","","","","","",""
"learning-trial","221","769548","0.0-9.0-2.0-1.67","1504","1","2","""event"",""trial"",""time""
""fullscreenenter"",""1"",""2827""
","
","
","""event"",""trial"",""time""
""fullscreenenter"",""1"",""2827""
","
","","","","","","null","images/horse5.png","","","learning","images/animals_choice2.png","images/animals_choice3.png","images/animals_choice1.png","[1,2,0]","2","1","null","null","-1","animals","","horse","1","0"
"html-keyboard-response","222","770051","0.0-9.0-2.0-0.68","1504","1","2","""event"",""trial"",""time""
""fullscreenenter"",""1"",""2827""
","
","
","""event"",""trial"",""time""
""fullscreenenter"",""1"",""2827""
","
","","","","","","null","<div style=""font-size:60px;"">+</div>","null","","fixation","","","","","","","","","","","","","",""
"learning-trial","223","774052","0.0-9.0-2.0-1.68","1504","1","2","""event"",""trial"",""time""
""fullscreenenter"",""1"",""2827""
","
","
","""event"",""trial"",""time""
""fullscreenenter"",""1"",""2827""
","
","","","","","","2774.300000011921","images/goat4.png","","","learning","images/animals_choice1.png","images/animals_choice2.png","images/animals_choice3.png","[0,1,2]","1","1","1","images/animals_choice1.png","1","animals","","goat","1","0"
"html-keyboard-response","224","774554","0.0-9.0-2.0-0.69","1504","1","2","""event"",""trial"",""time""
""fullscreenenter"",""1"",""2827""
","
","
","""event"",""trial"",""time""
""fullscreenenter"",""1"",""2827""
","
","","","","","","null","<div style=""font-size:60px;"">+</div>","null","","fixation","","","","","","","","","","","","","",""
"learning-trial","225","778557","0.0-9.0-2.0-1.69","1504","1","2","""event"",""trial"",""time""
""fullscreenenter"",""1"",""2827""
","
","
","""event"",""trial"",""time""
""fullscreenenter"",""1"",""2827""
","
","","","","","","2381.800000011921","images/horse1.png","","","learning","images/animals_choice1.png","images/animals_choice3.png","images/animals_choice2.png","[0,2,1]","2","1","3","images/animals_choice2.png","-1","animals","","horse","1","0"
"html-keyboard-response","226","779060","0.0-9.0-2.0-0.70","1504","1","2","""event"",""trial"",""time""
""fullscreenenter"",""1"",""2827""
","
","
","""event"",""trial"",""time""
""fullscreenenter"",""1"",""2827""
","
","","","","","","null","<div style=""font-size:60px;"">+</div>","null","","fixation","","","","","","","","","","","","","",""
"learning-trial","227","783062","0.0-9.0-2.0-1.70","1504","1","2","""event"",""trial"",""time""
""fullscreenenter"",""1"",""2827""
","
","
","""event"",""trial"",""time""
""fullscreenenter"",""1"",""2827""
","
","","","","","","3175.800000011921","images/horse4.png","","","learning","images/animals_choice3.png","images/animals_choice1.png","images/animals_choice2.png","[2,0,1]","2","0","2","images/animals_choice1.png","-1","animals","","horse","1","0"
"html-keyboard-response","228","783564","0.0-9.0-2.0-0.71","1504","1","2","""event"",""trial"",""time""
""fullscreenenter"",""1"",""2827""
","
","
","""event"",""trial"",""time""
""fullscreenenter"",""1"",""2827""
","
","","","","","","null","<div style=""font-size:60px;"">+</div>","null","","fixation","","","","","","","","","","","","","",""
"learning-trial","229","787566","0.0-9.0-2.0-1.71","1504","1","2","""event"",""trial"",""time""
""fullscreenenter"",""1"",""2827""
","
","
","""event"",""trial"",""time""
""fullscreenenter"",""1"",""2827""
","
","","","","","","2626.800000011921","images/sheep4.png","","","learning","images/animals_choice3.png","images/animals_choice1.png","images/animals_choice2.png","[2,0,1]","0","1","2","images/animals_choice1.png","1","animals","","sheep","1","0"
"html-button-response","230","796008","0.0-9.0-3.0","1504","1","2","""event"",""trial"",""time""
""fullscreenenter"",""1"",""2827""
","
","
","""event"",""trial"",""time""
""fullscreenenter"",""1"",""2827""
","
","","","","","","8441","<p> You have completed the round! <p> In this round, you earned -30 points! </p>","0","","break","","","","","","","","","","","","","",""
"html-button-response","231","797609","0.0-10.0","1504","1","2","""event"",""trial"",""time""
""fullscreenenter"",""1"",""2827""
","
","
","""event"",""trial"",""time""
""fullscreenenter"",""1"",""2827""
","
","","","","","","1599.199999988079","<p> Now it's time to play another round. </p>","0","","transition_screen","","","","","","","","","","","","","",""
"preload","232","800735","0.0-11.0-0.0","1504","1","2","""event"",""trial"",""time""
""fullscreenenter"",""1"",""2827""
","
","
","""event"",""trial"",""time""
""fullscreenenter"",""1"",""2827""
","
","true","false","[]","[]","[]","","","","","","","","","","","","","","","","","","",""
"learning-instructions","233","810107","0.0-11.0-1.0-0.0","1504","1","2","""event"",""trial"",""time""
""fullscreenenter"",""1"",""2827""
","
","
","""event"",""trial"",""time""
""fullscreenenter"",""1"",""2827""
","
","","","","","","1575.7999999523163","<p> Your goal in this round is to deliver furniture to three different buildings. </p><p> You will need to deliver many pieces of furniture. </p></div>","","0","instructions","","","","","","","","","","","","","",""
"learning-instructions","234","818008","0.0-11.0-1.0-0.1","1504","1","2","""event"",""trial"",""time""
""fullscreenenter"",""1"",""2827""
","
","
","""event"",""trial"",""time""
""fullscreenenter"",""1"",""2827""
","
","","","","","","457.39999997615814","<p> On each turn, you will see a picture of a furniture item and three different buildings.  </p><p> You need to select the building that you want to deliver the furniture to.  </p>","","0","instructions","","","","","","","","","","","","","",""
"learning-instructions","235","828325","0.0-11.0-1.0-0.2","1504","1","2","""event"",""trial"",""time""
""fullscreenenter"",""1"",""2827""
","
","
","""event"",""trial"",""time""
""fullscreenenter"",""1"",""2827""
","
","","","","","","2024","<p> You can select the building on the left by pressing 1, the building in the middle by pressing 2, and the building on the right by pressing 3.  </p><br><div class=""choice-instructions-grid""> <div class=""choice-option""><img src=""images/furniture_choice1.png"" class=""choice-option-img"" stage=""instructions"" position=""0"" ><div class=""choice-option-text""> Press ""1."" </div></div><div class=""choice-option""><img src=""images/furniture_choice2.png"" class=""choice-option-img"" stage=""instructions"" position=""1"" ><div class=""choice-option-text""> Press ""2."" </div></div><div class=""choice-option""><img src=""images/furniture_choice3.png"" class=""choice-option-img"" stage=""instructions"" position=""2"" ><div class=""choice-option-text""> Press ""3."" </div></div></div>","","0","instructions","","","","","","","","","","","","","",""
